"success","timeout","failed_images","failed_audio","failed_video","trial_type","trial_index","time_elapsed","internal_node_id","prolific_id","prolific_study_id","prolific_session_id","rt","stimulus","response","view_history","trial","character_choice","stimulus_dict","accuracy","correct_response","ball_pos","ego_ball_visible","ego_can_infer","alter_ball_visible","alter_can_infer","collective_ball_visible","collective_can_infer","search_locations","alter_occluders","ego_occluders","accuracy_bool","feedback","age","ethnicity","gender","race","overall_accuracy","bonus"
"true","false","[]","[]","[]","preload","0","1268","0.0-0.0","5eb342dff78ab11407daf144","665500ab8938657b03fbdba8","66579332f7f57d35afea5b16","","","","","","","","","","","","","","","","","","","","","","","","","","",""
"true","","","","","fullscreen","1","3620","0.0-1.0","5eb342dff78ab11407daf144","665500ab8938657b03fbdba8","66579332f7f57d35afea5b16","","","","","","","","","","","","","","","","","","","","","","","","","","",""
"","","","","","html-button-response","2","5965","0.0-2.0","5eb342dff78ab11407daf144","665500ab8938657b03fbdba8","66579332f7f57d35afea5b16","2344","<p><b>Consent Form</b></p> <div style=""text-align:left;background-color:lightgrey; padding:20px; max-width:900px;""><p>Please consider this information carefully before deciding whether to participate in this research.</p> <p>The purpose of this research is to examine which factors influence social judgment and decision-making. You will be asked to make judgements about individuals and actions in social scenarios. We are simply interested in your judgement. The study will take less than 1 hour to complete, and you will receive less than $20 on Prolific. Your compensation and time commitment are specified in the study description. There are no anticipated risks associated with participating in this study. The effects of participating should be comparable to those you would ordinarily experience from viewing a computer monitor and using a mouse or keyboard for a similar amount of time. At the end of the study, we will provide an explanation of the questions that motivate this line of research and will describe the potential implications. </p><p> Your participation in this study is completely voluntary and you may refuse to participate or you may choose to withdraw at any time without penalty or loss of benefits to you which are otherwise entitled. Your participation in this study will remain confidential. No personally identifiable information will be associated with your data. Also, all analyses of the data will be averaged across all the participants, so your individual responses will never be specifically analyzed. </p><p> If you have questions or concerns about your participation or payment, or want to request a summary of research findings, please contact Dr. Jonathan Phillips at Jonathan.S.Phillips@dartmouth.edu. </p><p> Please save a copy of this form for your records. </p><p><b>Agreement: </b>The nature and purpose of this research have been sufficiently explained and I agree to participate in this study. I understand that I am free to withdraw at any time without incurring any penalty. Please consent by clicking the button below to continue. Otherwise, please exit the study at any time. </p>","0","","","","","","","","","","","","","","","","","","","","","","","",""
"","","","","","instructions","3","38908","0.0-3.0-0.0","5eb342dff78ab11407daf144","665500ab8938657b03fbdba8","66579332f7f57d35afea5b16","32942","","","[{""page_index"":0,""viewing_time"":1215},{""page_index"":1,""viewing_time"":1363},{""page_index"":2,""viewing_time"":1148},{""page_index"":3,""viewing_time"":3071},{""page_index"":4,""viewing_time"":1736},{""page_index"":5,""viewing_time"":1600},{""page_index"":6,""viewing_time"":1970},{""page_index"":7,""viewing_time"":1881},{""page_index"":8,""viewing_time"":1644},{""page_index"":9,""viewing_time"":1312},{""page_index"":10,""viewing_time"":6735},{""page_index"":11,""viewing_time"":3775},{""page_index"":12,""viewing_time"":4524},{""page_index"":13,""viewing_time"":968}]","intro","","","","","","","","","","","","","","","","","","","","","",""
"","","","","","image-keyboard-response","4","40298","0.0-3.0-1.0","5eb342dff78ab11407daf144","665500ab8938657b03fbdba8","66579332f7f57d35afea5b16","1379","stimuli/0011010.jpg","0","","prediction_practice","0","{""filepath"":""stimuli/0011010.jpg"",""ball_pos"":0,""ego_ball_visible"":true,""ego_can_infer"":true,""alter_ball_visible"":true,""alter_can_infer"":true,""collective_ball_visible"":true,""collective_can_infer"":true,""search_locations"":[0],""alter_occluders"":""011"",""ego_occluders"":""010""}","true","","","","","","","","","","","","","","","","","","",""
"","","","","","image-keyboard-response","5","41251","0.0-3.0-2.0","5eb342dff78ab11407daf144","665500ab8938657b03fbdba8","66579332f7f57d35afea5b16","948","stimuli/00110100.jpg"," ","","practrice_feedback","0","","","","","","","","","","","","","","","","","","","","",""
"","","","","","image-keyboard-response","6","43682","0.0-3.0-3.0","5eb342dff78ab11407daf144","665500ab8938657b03fbdba8","66579332f7f57d35afea5b16","2426","stimuli/1101111.jpg","0","","prediction_practice","1","{""filepath"":""stimuli/1101111.jpg"",""ball_pos"":1,""ego_ball_visible"":false,""ego_can_infer"":false,""alter_ball_visible"":true,""alter_can_infer"":true,""collective_ball_visible"":false,""collective_can_infer"":false,""search_locations"":[1],""alter_occluders"":""101"",""ego_occluders"":""111""}","false","","","","","","","","","","","","","","","","","","",""
"","","","","","image-keyboard-response","7","44954","0.0-3.0-4.0","5eb342dff78ab11407daf144","665500ab8938657b03fbdba8","66579332f7f57d35afea5b16","1268","stimuli/11011111.jpg"," ","","practrice_feedback","1","","","","","","","","","","","","","","","","","","","","",""
"","","","","","image-keyboard-response","8","46852","0.0-3.0-5.0","5eb342dff78ab11407daf144","665500ab8938657b03fbdba8","66579332f7f57d35afea5b16","1888","stimuli/2010001.jpg","2","","prediction_practice","2","{""filepath"":""stimuli/2010001.jpg"",""ball_pos"":2,""ego_ball_visible"":false,""ego_can_infer"":true,""alter_ball_visible"":true,""alter_can_infer"":true,""collective_ball_visible"":false,""collective_can_infer"":true,""search_locations"":[2],""alter_occluders"":""010"",""ego_occluders"":""001""}","true","","","","","","","","","","","","","","","","","","",""
"","","","","","image-keyboard-response","9","47771","0.0-3.0-6.0","5eb342dff78ab11407daf144","665500ab8938657b03fbdba8","66579332f7f57d35afea5b16","915","stimuli/20100012.jpg"," ","","practrice_feedback","2","","","","","","","","","","","","","","","","","","","","",""
"","","","","","image-keyboard-response","10","48658","0.0-3.0-7.0","5eb342dff78ab11407daf144","665500ab8938657b03fbdba8","66579332f7f57d35afea5b16","883","stimuli/2000100.jpg","2","","prediction_practice","2","{""filepath"":""stimuli/2000100.jpg"",""ball_pos"":2,""ego_ball_visible"":true,""ego_can_infer"":true,""alter_ball_visible"":true,""alter_can_infer"":true,""collective_ball_visible"":true,""collective_can_infer"":true,""search_locations"":[2],""alter_occluders"":""000"",""ego_occluders"":""100""}","true","","","","","","","","","","","","","","","","","","",""
"","","","","","image-keyboard-response","11","49334","0.0-3.0-8.0","5eb342dff78ab11407daf144","665500ab8938657b03fbdba8","66579332f7f57d35afea5b16","671","stimuli/20001002.jpg"," ","","practrice_feedback","2","","","","","","","","","","","","","","","","","","","","",""
"","","","","","image-keyboard-response","12","51409","0.0-3.0-9.0","5eb342dff78ab11407daf144","665500ab8938657b03fbdba8","66579332f7f57d35afea5b16","2070","stimuli/1100110.jpg","0","","prediction_practice","1","{""filepath"":""stimuli/1100110.jpg"",""ball_pos"":1,""ego_ball_visible"":false,""ego_can_infer"":false,""alter_ball_visible"":true,""alter_can_infer"":true,""collective_ball_visible"":false,""collective_can_infer"":false,""search_locations"":[1],""alter_occluders"":""100"",""ego_occluders"":""110""}","false","","","","","","","","","","","","","","","","","","",""
"","","","","","image-keyboard-response","13","52357","0.0-3.0-10.0","5eb342dff78ab11407daf144","665500ab8938657b03fbdba8","66579332f7f57d35afea5b16","944","stimuli/11001101.jpg"," ","","practrice_feedback","1","","","","","","","","","","","","","","","","","","","","",""
"","","","","","image-keyboard-response","14","53364","0.0-3.0-11.0","5eb342dff78ab11407daf144","665500ab8938657b03fbdba8","66579332f7f57d35afea5b16","1002","stimuli/2111011.jpg","1","","prediction_practice","0","{""filepath"":""stimuli/2111011.jpg"",""ball_pos"":2,""ego_ball_visible"":false,""ego_can_infer"":false,""alter_ball_visible"":false,""alter_can_infer"":false,""collective_ball_visible"":false,""collective_can_infer"":false,""search_locations"":[1,2,0],""alter_occluders"":""111"",""ego_occluders"":""011""}","false","","","","","","","","","","","","","","","","","","",""
"","","","","","image-keyboard-response","15","55682","0.0-3.0-12.0","5eb342dff78ab11407daf144","665500ab8938657b03fbdba8","66579332f7f57d35afea5b16","2310","stimuli/21110110.jpg"," ","","practrice_feedback","1","","","","","","","","","","","","","","","","","","","","",""
"","","","","","image-keyboard-response","16","56445","0.0-3.0-13.0","5eb342dff78ab11407daf144","665500ab8938657b03fbdba8","66579332f7f57d35afea5b16","750","stimuli/1000100.jpg","1","","prediction_practice","1","{""filepath"":""stimuli/1000100.jpg"",""ball_pos"":1,""ego_ball_visible"":true,""ego_can_infer"":true,""alter_ball_visible"":true,""alter_can_infer"":true,""collective_ball_visible"":true,""collective_can_infer"":true,""search_locations"":[1],""alter_occluders"":""000"",""ego_occluders"":""100""}","true","","","","","","","","","","","","","","","","","","",""
"","","","","","image-keyboard-response","17","57102","0.0-3.0-14.0","5eb342dff78ab11407daf144","665500ab8938657b03fbdba8","66579332f7f57d35afea5b16","651","stimuli/10001001.jpg"," ","","practrice_feedback","1","","","","","","","","","","","","","","","","","","","","",""
"","","","","","image-keyboard-response","18","57989","0.0-3.0-15.0","5eb342dff78ab11407daf144","665500ab8938657b03fbdba8","66579332f7f57d35afea5b16","881","stimuli/0100001.jpg","0","","prediction_practice","0","{""filepath"":""stimuli/0100001.jpg"",""ball_pos"":0,""ego_ball_visible"":true,""ego_can_infer"":true,""alter_ball_visible"":false,""alter_can_infer"":true,""collective_ball_visible"":false,""collective_can_infer"":true,""search_locations"":[0],""alter_occluders"":""100"",""ego_occluders"":""001""}","true","","","","","","","","","","","","","","","","","","",""
"","","","","","image-keyboard-response","19","60014","0.0-3.0-16.0","5eb342dff78ab11407daf144","665500ab8938657b03fbdba8","66579332f7f57d35afea5b16","2018","stimuli/01000010.jpg"," ","","practrice_feedback","0","","","","","","","","","","","","","","","","","","","","",""
"","","","","","image-keyboard-response","20","61617","0.0-3.0-17.0","5eb342dff78ab11407daf144","665500ab8938657b03fbdba8","66579332f7f57d35afea5b16","1597","stimuli/2011011.jpg","2","","prediction_practice","1","{""filepath"":""stimuli/2011011.jpg"",""ball_pos"":2,""ego_ball_visible"":false,""ego_can_infer"":false,""alter_ball_visible"":false,""alter_can_infer"":false,""collective_ball_visible"":false,""collective_can_infer"":false,""search_locations"":[1,2],""alter_occluders"":""011"",""ego_occluders"":""011""}","false","","","","","","","","","","","","","","","","","","",""
"","","","","","image-keyboard-response","21","62304","0.0-3.0-18.0","5eb342dff78ab11407daf144","665500ab8938657b03fbdba8","66579332f7f57d35afea5b16","682","stimuli/20110111.jpg"," ","","practrice_feedback","1","","","","","","","","","","","","","","","","","","","","",""
"","","","","","image-keyboard-response","22","63295","0.0-3.0-19.0","5eb342dff78ab11407daf144","665500ab8938657b03fbdba8","66579332f7f57d35afea5b16","986","stimuli/0011111.jpg","1","","prediction_practice","0","{""filepath"":""stimuli/0011111.jpg"",""ball_pos"":0,""ego_ball_visible"":false,""ego_can_infer"":false,""alter_ball_visible"":true,""alter_can_infer"":true,""collective_ball_visible"":false,""collective_can_infer"":false,""search_locations"":[0],""alter_occluders"":""011"",""ego_occluders"":""111""}","false","","","","","","","","","","","","","","","","","","",""
"","","","","","image-keyboard-response","23","64711","0.0-3.0-20.0","5eb342dff78ab11407daf144","665500ab8938657b03fbdba8","66579332f7f57d35afea5b16","1410","stimuli/00111110.jpg"," ","","practrice_feedback","0","","","","","","","","","","","","","","","","","","","","",""
"","","","","","html-button-response","24","69600","0.0-3.0-21.0","5eb342dff78ab11407daf144","665500ab8938657b03fbdba8","66579332f7f57d35afea5b16","4885","Now that you've had some practice, you'll be tested with a couple of easy trials. If you correctly predict Sam's choice, you'll move on to complete the experiment!","0","","","","","","","","","","","","","","","","","","","","","","","",""
"","","","","","image-keyboard-response","25","70483","0.0-3.0-22.0-0.0","5eb342dff78ab11407daf144","665500ab8938657b03fbdba8","66579332f7f57d35afea5b16","872","stimuli/0000011.jpg","arrowleft","","comprehension_quiz","","","true","arrowleft","","","","","","","","","","","","","","","","","",""
"","","","","","image-keyboard-response","26","71095","0.0-3.0-22.0-1.0","5eb342dff78ab11407daf144","665500ab8938657b03fbdba8","66579332f7f57d35afea5b16","607","stimuli/00000110.jpg"," ","","comprehension_quiz","","","true"," ","","","","","","","","","","","","","","","","","",""
"","","","","","image-keyboard-response","27","72580","0.0-3.0-22.0-2.0","5eb342dff78ab11407daf144","665500ab8938657b03fbdba8","66579332f7f57d35afea5b16","1479","stimuli/1010010.jpg","arrowdown","","comprehension_quiz","","","true","arrowdown","","","","","","","","","","","","","","","","","",""
"","","","","","image-keyboard-response","28","73142","0.0-3.0-22.0-3.0","5eb342dff78ab11407daf144","665500ab8938657b03fbdba8","66579332f7f57d35afea5b16","558","stimuli/10100101.jpg"," ","","comprehension_quiz","","","true"," ","","","","","","","","","","","","","","","","","",""
"","","","","","html-button-response","29","74289","0.0-4.0","5eb342dff78ab11407daf144","665500ab8938657b03fbdba8","66579332f7f57d35afea5b16","1145","The experiment will now begin.","0","","","","","","","","","","","","","","","","","","","","","","","",""
"","","","","","image-keyboard-response","30","76552","0.0-5.0","5eb342dff78ab11407daf144","665500ab8938657b03fbdba8","66579332f7f57d35afea5b16","2257","stimuli/2011000.jpg","2","","prediction_trial","1","","false","","2","true","true","false","false","false","false","[2,1]","011","000","0","","","","","","",""
"","","","","","image-keyboard-response","31","77149","0.0-6.0","5eb342dff78ab11407daf144","665500ab8938657b03fbdba8","66579332f7f57d35afea5b16","592","stimuli/20110001.jpg"," ","","feedback_trial","2","","","","","","","","","","","","","","","","","","","","",""
"","","","","","image-keyboard-response","32","79140","0.0-7.0","5eb342dff78ab11407daf144","665500ab8938657b03fbdba8","66579332f7f57d35afea5b16","1978","stimuli/2110101.jpg","2","","prediction_trial","2","","true","","2","false","false","true","true","false","false","[2]","110","101","1","","","","","","",""
"","","","","","image-keyboard-response","33","80253","0.0-8.0","5eb342dff78ab11407daf144","665500ab8938657b03fbdba8","66579332f7f57d35afea5b16","1108","stimuli/21101012.jpg"," ","","feedback_trial","2","","","","","","","","","","","","","","","","","","","","",""
"","","","","","image-keyboard-response","34","81165","0.0-9.0","5eb342dff78ab11407daf144","665500ab8938657b03fbdba8","66579332f7f57d35afea5b16","907","stimuli/1001001.jpg","1","","prediction_trial","1","","true","","1","true","true","true","true","true","true","[1]","001","001","1","","","","","","",""
"","","","","","image-keyboard-response","35","81553","0.0-10.0","5eb342dff78ab11407daf144","665500ab8938657b03fbdba8","66579332f7f57d35afea5b16","383","stimuli/10010011.jpg"," ","","feedback_trial","1","","","","","","","","","","","","","","","","","","","","",""
"","","","","","image-keyboard-response","36","82836","0.0-11.0","5eb342dff78ab11407daf144","665500ab8938657b03fbdba8","66579332f7f57d35afea5b16","1278","stimuli/1101011.jpg","1","","prediction_trial","1","","true","","1","false","false","true","true","false","false","[1]","101","011","1","","","","","","",""
"","","","","","image-keyboard-response","37","83249","0.0-12.0","5eb342dff78ab11407daf144","665500ab8938657b03fbdba8","66579332f7f57d35afea5b16","408","stimuli/11010111.jpg"," ","","feedback_trial","1","","","","","","","","","","","","","","","","","","","","",""
"","","","","","image-keyboard-response","38","85025","0.0-13.0","5eb342dff78ab11407daf144","665500ab8938657b03fbdba8","66579332f7f57d35afea5b16","1771","stimuli/1110111.jpg","2","","prediction_trial","0","","false","","1","false","false","false","false","false","false","[1,0]","110","111","0","","","","","","",""
"","","","","","image-keyboard-response","39","86105","0.0-14.0","5eb342dff78ab11407daf144","665500ab8938657b03fbdba8","66579332f7f57d35afea5b16","1075","stimuli/11101110.jpg"," ","","feedback_trial","1","","","","","","","","","","","","","","","","","","","","",""
"","","","","","image-keyboard-response","40","86925","0.0-15.0","5eb342dff78ab11407daf144","665500ab8938657b03fbdba8","66579332f7f57d35afea5b16","808","stimuli/2010100.jpg","2","","prediction_trial","2","","true","","2","true","true","true","true","true","true","[2]","010","100","1","","","","","","",""
"","","","","","image-keyboard-response","41","87410","0.0-16.0","5eb342dff78ab11407daf144","665500ab8938657b03fbdba8","66579332f7f57d35afea5b16","480","stimuli/20101002.jpg"," ","","feedback_trial","2","","","","","","","","","","","","","","","","","","","","",""
"","","","","","image-keyboard-response","42","90715","0.0-17.0","5eb342dff78ab11407daf144","665500ab8938657b03fbdba8","66579332f7f57d35afea5b16","3300","stimuli/0001110.jpg","1","","prediction_trial","0","","false","","0","false","false","true","true","false","false","[0]","001","110","0","","","","","","",""
"","","","","","image-keyboard-response","43","91394","0.0-18.0","5eb342dff78ab11407daf144","665500ab8938657b03fbdba8","66579332f7f57d35afea5b16","675","stimuli/00011100.jpg"," ","","feedback_trial","0","","","","","","","","","","","","","","","","","","","","",""
"","","","","","image-keyboard-response","44","93617","0.0-19.0","5eb342dff78ab11407daf144","665500ab8938657b03fbdba8","66579332f7f57d35afea5b16","2217","stimuli/2110111.jpg","2","","prediction_trial","2","","true","","2","false","false","true","true","false","false","[2]","110","111","1","","","","","","",""
"","","","","","image-keyboard-response","45","94872","0.0-20.0","5eb342dff78ab11407daf144","665500ab8938657b03fbdba8","66579332f7f57d35afea5b16","1251","stimuli/21101112.jpg"," ","","feedback_trial","2","","","","","","","","","","","","","","","","","","","","",""
"","","","","","image-keyboard-response","46","97790","0.0-21.0","5eb342dff78ab11407daf144","665500ab8938657b03fbdba8","66579332f7f57d35afea5b16","2913","stimuli/1111100.jpg","1","","prediction_trial","1","","true","","1","true","true","false","false","false","false","[0,1,2]","111","100","1","","","","","","",""
"","","","","","image-keyboard-response","47","98269","0.0-22.0","5eb342dff78ab11407daf144","665500ab8938657b03fbdba8","66579332f7f57d35afea5b16","474","stimuli/11111001.jpg"," ","","feedback_trial","0","","","","","","","","","","","","","","","","","","","","",""
"","","","","","image-keyboard-response","48","99264","0.0-23.0","5eb342dff78ab11407daf144","665500ab8938657b03fbdba8","66579332f7f57d35afea5b16","984","stimuli/1111101.jpg","1","","prediction_trial","2","","false","","1","true","true","false","false","false","false","[0,2,1]","111","101","0","","","","","","",""
"","","","","","image-keyboard-response","49","99690","0.0-24.0","5eb342dff78ab11407daf144","665500ab8938657b03fbdba8","66579332f7f57d35afea5b16","420","stimuli/11111012.jpg"," ","","feedback_trial","0","","","","","","","","","","","","","","","","","","","","",""
"","","","","","image-keyboard-response","50","100562","0.0-25.0","5eb342dff78ab11407daf144","665500ab8938657b03fbdba8","66579332f7f57d35afea5b16","868","stimuli/2000110.jpg","2","","prediction_trial","2","","true","","2","true","true","true","true","true","true","[2]","000","110","1","","","","","","",""
"","","","","","image-keyboard-response","51","100897","0.0-26.0","5eb342dff78ab11407daf144","665500ab8938657b03fbdba8","66579332f7f57d35afea5b16","331","stimuli/20001102.jpg"," ","","feedback_trial","2","","","","","","","","","","","","","","","","","","","","",""
"","","","","","image-keyboard-response","52","102464","0.0-27.0","5eb342dff78ab11407daf144","665500ab8938657b03fbdba8","66579332f7f57d35afea5b16","1562","stimuli/0101000.jpg","0","","prediction_trial","2","","false","","0","true","true","false","false","false","false","[0,2]","101","000","0","","","","","","",""
"","","","","","image-keyboard-response","53","102868","0.0-28.0","5eb342dff78ab11407daf144","665500ab8938657b03fbdba8","66579332f7f57d35afea5b16","399","stimuli/01010002.jpg"," ","","feedback_trial","0","","","","","","","","","","","","","","","","","","","","",""
"","","","","","image-keyboard-response","54","105534","0.0-29.0","5eb342dff78ab11407daf144","665500ab8938657b03fbdba8","66579332f7f57d35afea5b16","2653","stimuli/2101110.jpg","2","","prediction_trial","0","","false","","2","true","true","false","false","false","false","[2,0]","101","110","0","","","","","","",""
"","","","","","image-keyboard-response","55","105952","0.0-30.0","5eb342dff78ab11407daf144","665500ab8938657b03fbdba8","66579332f7f57d35afea5b16","414","stimuli/21011100.jpg"," ","","feedback_trial","2","","","","","","","","","","","","","","","","","","","","",""
"","","","","","image-keyboard-response","56","106658","0.0-31.0","5eb342dff78ab11407daf144","665500ab8938657b03fbdba8","66579332f7f57d35afea5b16","701","stimuli/0001000.jpg","0","","prediction_trial","0","","true","","0","true","true","true","true","true","true","[0]","001","000","1","","","","","","",""
"","","","","","image-keyboard-response","57","107019","0.0-32.0","5eb342dff78ab11407daf144","665500ab8938657b03fbdba8","66579332f7f57d35afea5b16","357","stimuli/00010000.jpg"," ","","feedback_trial","0","","","","","","","","","","","","","","","","","","","","",""
"","","","","","image-keyboard-response","58","109461","0.0-33.0","5eb342dff78ab11407daf144","665500ab8938657b03fbdba8","66579332f7f57d35afea5b16","2438","stimuli/2111100.jpg","2","","prediction_trial","1","","false","","2","true","true","false","false","false","false","[1,2,0]","111","100","0","","","","","","",""
"","","","","","image-keyboard-response","59","109823","0.0-34.0","5eb342dff78ab11407daf144","665500ab8938657b03fbdba8","66579332f7f57d35afea5b16","358","stimuli/21111001.jpg"," ","","feedback_trial","1","","","","","","","","","","","","","","","","","","","","",""
"","","","","","image-keyboard-response","60","110507","0.0-35.0","5eb342dff78ab11407daf144","665500ab8938657b03fbdba8","66579332f7f57d35afea5b16","679","stimuli/1000100.jpg","1","","prediction_trial","1","","true","","1","true","true","true","true","true","true","[1]","000","100","1","","","","","","",""
"","","","","","image-keyboard-response","61","110801","0.0-36.0","5eb342dff78ab11407daf144","665500ab8938657b03fbdba8","66579332f7f57d35afea5b16","290","stimuli/10001001.jpg"," ","","feedback_trial","1","","","","","","","","","","","","","","","","","","","","",""
"","","","","","image-keyboard-response","62","112854","0.0-37.0","5eb342dff78ab11407daf144","665500ab8938657b03fbdba8","66579332f7f57d35afea5b16","2048","stimuli/0000101.jpg","0","","prediction_trial","0","","true","","0","false","false","true","true","false","false","[0]","000","101","1","","","","","","",""
"","","","","","image-keyboard-response","63","113368","0.0-38.0","5eb342dff78ab11407daf144","665500ab8938657b03fbdba8","66579332f7f57d35afea5b16","509","stimuli/00001010.jpg"," ","","feedback_trial","0","","","","","","","","","","","","","","","","","","","","",""
"","","","","","image-keyboard-response","64","115750","0.0-39.0","5eb342dff78ab11407daf144","665500ab8938657b03fbdba8","66579332f7f57d35afea5b16","2377","stimuli/1110101.jpg","1","","prediction_trial","1","","true","","1","true","true","false","false","false","false","[0,1]","110","101","1","","","","","","",""
"","","","","","image-keyboard-response","65","116167","0.0-40.0","5eb342dff78ab11407daf144","665500ab8938657b03fbdba8","66579332f7f57d35afea5b16","413","stimuli/11101011.jpg"," ","","feedback_trial","0","","","","","","","","","","","","","","","","","","","","",""
"","","","","","image-keyboard-response","66","117773","0.0-41.0","5eb342dff78ab11407daf144","665500ab8938657b03fbdba8","66579332f7f57d35afea5b16","1600","stimuli/2111000.jpg","1","","prediction_trial","1","","true","","2","true","true","false","false","false","false","[1,0,2]","111","000","1","","","","","","",""
"","","","","","image-keyboard-response","67","118126","0.0-42.0","5eb342dff78ab11407daf144","665500ab8938657b03fbdba8","66579332f7f57d35afea5b16","349","stimuli/21110001.jpg"," ","","feedback_trial","1","","","","","","","","","","","","","","","","","","","","",""
"","","","","","image-keyboard-response","68","120713","0.0-43.0","5eb342dff78ab11407daf144","665500ab8938657b03fbdba8","66579332f7f57d35afea5b16","2582","stimuli/0110100.jpg","0","","prediction_trial","1","","false","","0","false","true","false","false","false","false","[1,0]","110","100","0","","","","","","",""
"","","","","","image-keyboard-response","69","121132","0.0-44.0","5eb342dff78ab11407daf144","665500ab8938657b03fbdba8","66579332f7f57d35afea5b16","415","stimuli/01101001.jpg"," ","","feedback_trial","1","","","","","","","","","","","","","","","","","","","","",""
"","","","","","image-keyboard-response","70","122596","0.0-45.0","5eb342dff78ab11407daf144","665500ab8938657b03fbdba8","66579332f7f57d35afea5b16","1452","stimuli/0110010.jpg","1","","prediction_trial","1","","true","","0","true","true","false","false","false","false","[0,1]","110","010","1","","","","","","",""
"","","","","","image-keyboard-response","71","122982","0.0-46.0","5eb342dff78ab11407daf144","665500ab8938657b03fbdba8","66579332f7f57d35afea5b16","381","stimuli/01100101.jpg"," ","","feedback_trial","0","","","","","","","","","","","","","","","","","","","","",""
"","","","","","image-keyboard-response","72","124428","0.0-47.0","5eb342dff78ab11407daf144","665500ab8938657b03fbdba8","66579332f7f57d35afea5b16","1442","stimuli/1101110.jpg","1","","prediction_trial","1","","true","","1","false","false","true","true","false","false","[1]","101","110","1","","","","","","",""
"","","","","","image-keyboard-response","73","124793","0.0-48.0","5eb342dff78ab11407daf144","665500ab8938657b03fbdba8","66579332f7f57d35afea5b16","359","stimuli/11011101.jpg"," ","","feedback_trial","1","","","","","","","","","","","","","","","","","","","","",""
"","","","","","image-keyboard-response","74","126526","0.0-49.0","5eb342dff78ab11407daf144","665500ab8938657b03fbdba8","66579332f7f57d35afea5b16","1729","stimuli/2111101.jpg","1","","prediction_trial","2","","false","","2","false","false","false","false","false","false","[1,2,0]","111","101","0","","","","","","",""
"","","","","","image-keyboard-response","75","126964","0.0-50.0","5eb342dff78ab11407daf144","665500ab8938657b03fbdba8","66579332f7f57d35afea5b16","433","stimuli/21111012.jpg"," ","","feedback_trial","1","","","","","","","","","","","","","","","","","","","","",""
"","","","","","image-keyboard-response","76","127989","0.0-51.0","5eb342dff78ab11407daf144","665500ab8938657b03fbdba8","66579332f7f57d35afea5b16","1021","stimuli/0100011.jpg","1","","prediction_trial","0","","false","","0","true","true","false","true","false","true","[0]","100","011","0","","","","","","",""
"","","","","","image-keyboard-response","77","128599","0.0-52.0","5eb342dff78ab11407daf144","665500ab8938657b03fbdba8","66579332f7f57d35afea5b16","605","stimuli/01000110.jpg"," ","","feedback_trial","0","","","","","","","","","","","","","","","","","","","","",""
"","","","","","image-keyboard-response","78","129951","0.0-53.0","5eb342dff78ab11407daf144","665500ab8938657b03fbdba8","66579332f7f57d35afea5b16","1339","stimuli/1011111.jpg","0","","prediction_trial","2","","false","","1","false","false","false","false","false","false","[2,1]","011","111","0","","","","","","",""
"","","","","","image-keyboard-response","79","130414","0.0-54.0","5eb342dff78ab11407daf144","665500ab8938657b03fbdba8","66579332f7f57d35afea5b16","459","stimuli/10111112.jpg"," ","","feedback_trial","2","","","","","","","","","","","","","","","","","","","","",""
"","","","","","image-keyboard-response","80","131113","0.0-55.0","5eb342dff78ab11407daf144","665500ab8938657b03fbdba8","66579332f7f57d35afea5b16","694","stimuli/1100000.jpg","1","","prediction_trial","1","","true","","1","true","true","true","true","true","true","[1]","100","000","1","","","","","","",""
"","","","","","image-keyboard-response","81","131505","0.0-56.0","5eb342dff78ab11407daf144","665500ab8938657b03fbdba8","66579332f7f57d35afea5b16","387","stimuli/11000001.jpg"," ","","feedback_trial","1","","","","","","","","","","","","","","","","","","","","",""
"","","","","","image-keyboard-response","82","132801","0.0-57.0","5eb342dff78ab11407daf144","665500ab8938657b03fbdba8","66579332f7f57d35afea5b16","1291","stimuli/2101001.jpg","2","","prediction_trial","0","","false","","2","false","true","false","false","false","false","[2,0]","101","001","0","","","","","","",""
"","","","","","image-keyboard-response","83","133335","0.0-58.0","5eb342dff78ab11407daf144","665500ab8938657b03fbdba8","66579332f7f57d35afea5b16","529","stimuli/21010010.jpg"," ","","feedback_trial","2","","","","","","","","","","","","","","","","","","","","",""
"","","","","","image-keyboard-response","84","134059","0.0-59.0","5eb342dff78ab11407daf144","665500ab8938657b03fbdba8","66579332f7f57d35afea5b16","712","stimuli/1101101.jpg","1","","prediction_trial","1","","true","","1","true","true","true","true","true","true","[1]","101","101","1","","","","","","",""
"","","","","","image-keyboard-response","85","134460","0.0-60.0","5eb342dff78ab11407daf144","665500ab8938657b03fbdba8","66579332f7f57d35afea5b16","396","stimuli/11011011.jpg"," ","","feedback_trial","1","","","","","","","","","","","","","","","","","","","","",""
"","","","","","image-keyboard-response","86","136400","0.0-61.0","5eb342dff78ab11407daf144","665500ab8938657b03fbdba8","66579332f7f57d35afea5b16","1936","stimuli/0010100.jpg","0","","prediction_trial","0","","true","","0","false","true","true","true","false","true","[0]","010","100","1","","","","","","",""
"","","","","","image-keyboard-response","87","136809","0.0-62.0","5eb342dff78ab11407daf144","665500ab8938657b03fbdba8","66579332f7f57d35afea5b16","404","stimuli/00101000.jpg"," ","","feedback_trial","0","","","","","","","","","","","","","","","","","","","","",""
"","","","","","image-keyboard-response","88","137724","0.0-63.0","5eb342dff78ab11407daf144","665500ab8938657b03fbdba8","66579332f7f57d35afea5b16","910","stimuli/2000010.jpg","2","","prediction_trial","2","","true","","2","true","true","true","true","true","true","[2]","000","010","1","","","","","","",""
"","","","","","image-keyboard-response","89","138131","0.0-64.0","5eb342dff78ab11407daf144","665500ab8938657b03fbdba8","66579332f7f57d35afea5b16","402","stimuli/20000102.jpg"," ","","feedback_trial","2","","","","","","","","","","","","","","","","","","","","",""
"","","","","","image-keyboard-response","90","140008","0.0-65.0","5eb342dff78ab11407daf144","665500ab8938657b03fbdba8","66579332f7f57d35afea5b16","1873","stimuli/1001111.jpg","1","","prediction_trial","1","","true","","1","false","false","true","true","false","false","[1]","001","111","1","","","","","","",""
"","","","","","image-keyboard-response","91","140662","0.0-66.0","5eb342dff78ab11407daf144","665500ab8938657b03fbdba8","66579332f7f57d35afea5b16","649","stimuli/10011111.jpg"," ","","feedback_trial","1","","","","","","","","","","","","","","","","","","","","",""
"","","","","","image-keyboard-response","92","141920","0.0-67.0","5eb342dff78ab11407daf144","665500ab8938657b03fbdba8","66579332f7f57d35afea5b16","1246","stimuli/0000111.jpg","1","","prediction_trial","0","","false","","0","false","false","true","true","false","false","[0]","000","111","0","","","","","","",""
"","","","","","image-keyboard-response","93","142459","0.0-68.0","5eb342dff78ab11407daf144","665500ab8938657b03fbdba8","66579332f7f57d35afea5b16","534","stimuli/00001110.jpg"," ","","feedback_trial","0","","","","","","","","","","","","","","","","","","","","",""
"","","","","","image-keyboard-response","94","143814","0.0-69.0","5eb342dff78ab11407daf144","665500ab8938657b03fbdba8","66579332f7f57d35afea5b16","1351","stimuli/2111010.jpg","1","","prediction_trial","2","","false","","2","true","true","false","false","false","false","[1,0,2]","111","010","0","","","","","","",""
"","","","","","image-keyboard-response","95","144219","0.0-70.0","5eb342dff78ab11407daf144","665500ab8938657b03fbdba8","66579332f7f57d35afea5b16","400","stimuli/21110102.jpg"," ","","feedback_trial","1","","","","","","","","","","","","","","","","","","","","",""
"","","","","","image-keyboard-response","96","144966","0.0-71.0","5eb342dff78ab11407daf144","665500ab8938657b03fbdba8","66579332f7f57d35afea5b16","742","stimuli/0010010.jpg","0","","prediction_trial","0","","true","","0","true","true","true","true","true","true","[0]","010","010","1","","","","","","",""
"","","","","","image-keyboard-response","97","145335","0.0-72.0","5eb342dff78ab11407daf144","665500ab8938657b03fbdba8","66579332f7f57d35afea5b16","364","stimuli/00100100.jpg"," ","","feedback_trial","0","","","","","","","","","","","","","","","","","","","","",""
"","","","","","image-keyboard-response","98","146408","0.0-73.0","5eb342dff78ab11407daf144","665500ab8938657b03fbdba8","66579332f7f57d35afea5b16","1061","stimuli/0011111.jpg","0","","prediction_trial","0","","true","","0","false","false","true","true","false","false","[0]","011","111","1","","","","","","",""
"","","","","","image-keyboard-response","99","146710","0.0-74.0","5eb342dff78ab11407daf144","665500ab8938657b03fbdba8","66579332f7f57d35afea5b16","297","stimuli/00111110.jpg"," ","","feedback_trial","0","","","","","","","","","","","","","","","","","","","","",""
"","","","","","image-keyboard-response","100","149119","0.0-75.0","5eb342dff78ab11407daf144","665500ab8938657b03fbdba8","66579332f7f57d35afea5b16","2404","stimuli/1010110.jpg","0","","prediction_trial","1","","false","","1","false","false","false","true","false","false","[1]","010","110","0","","","","","","",""
"","","","","","image-keyboard-response","101","149545","0.0-76.0","5eb342dff78ab11407daf144","665500ab8938657b03fbdba8","66579332f7f57d35afea5b16","421","stimuli/10101101.jpg"," ","","feedback_trial","1","","","","","","","","","","","","","","","","","","","","",""
"","","","","","image-keyboard-response","102","150697","0.0-77.0","5eb342dff78ab11407daf144","665500ab8938657b03fbdba8","66579332f7f57d35afea5b16","1148","stimuli/2011110.jpg","1","","prediction_trial","1","","true","","2","true","true","false","false","false","false","[2,1]","011","110","1","","","","","","",""
"","","","","","image-keyboard-response","103","151023","0.0-78.0","5eb342dff78ab11407daf144","665500ab8938657b03fbdba8","66579332f7f57d35afea5b16","322","stimuli/20111101.jpg"," ","","feedback_trial","2","","","","","","","","","","","","","","","","","","","","",""
"","","","","","image-keyboard-response","104","151694","0.0-79.0","5eb342dff78ab11407daf144","665500ab8938657b03fbdba8","66579332f7f57d35afea5b16","668","stimuli/1000001.jpg","1","","prediction_trial","1","","true","","1","true","true","true","true","true","true","[1]","000","001","1","","","","","","",""
"","","","","","image-keyboard-response","105","152053","0.0-80.0","5eb342dff78ab11407daf144","665500ab8938657b03fbdba8","66579332f7f57d35afea5b16","355","stimuli/10000011.jpg"," ","","feedback_trial","1","","","","","","","","","","","","","","","","","","","","",""
"","","","","","image-keyboard-response","106","153972","0.0-81.0","5eb342dff78ab11407daf144","665500ab8938657b03fbdba8","66579332f7f57d35afea5b16","1906","stimuli/0101110.jpg","1","","prediction_trial","2","","false","","0","false","false","false","false","false","false","[0,2]","101","110","0","","","","","","",""
"","","","","","image-keyboard-response","107","154403","0.0-82.0","5eb342dff78ab11407daf144","665500ab8938657b03fbdba8","66579332f7f57d35afea5b16","427","stimuli/01011102.jpg"," ","","feedback_trial","0","","","","","","","","","","","","","","","","","","","","",""
"","","","","","image-keyboard-response","108","155612","0.0-83.0","5eb342dff78ab11407daf144","665500ab8938657b03fbdba8","66579332f7f57d35afea5b16","1204","stimuli/0111010.jpg","1","","prediction_trial","0","","false","","0","true","true","false","false","false","false","[2,1,0]","111","010","0","","","","","","",""
"","","","","","image-keyboard-response","109","155936","0.0-84.0","5eb342dff78ab11407daf144","665500ab8938657b03fbdba8","66579332f7f57d35afea5b16","319","stimuli/01110100.jpg"," ","","feedback_trial","2","","","","","","","","","","","","","","","","","","","","",""
"","","","","","image-keyboard-response","110","156518","0.0-85.0","5eb342dff78ab11407daf144","665500ab8938657b03fbdba8","66579332f7f57d35afea5b16","577","stimuli/1001101.jpg","1","","prediction_trial","1","","true","","1","true","true","true","true","true","true","[1]","001","101","1","","","","","","",""
"","","","","","image-keyboard-response","111","156835","0.0-86.0","5eb342dff78ab11407daf144","665500ab8938657b03fbdba8","66579332f7f57d35afea5b16","313","stimuli/10011011.jpg"," ","","feedback_trial","1","","","","","","","","","","","","","","","","","","","","",""
"","","","","","image-keyboard-response","112","158602","0.0-87.0","5eb342dff78ab11407daf144","665500ab8938657b03fbdba8","66579332f7f57d35afea5b16","1762","stimuli/2100001.jpg","2","","prediction_trial","2","","true","","2","false","true","true","true","false","true","[2]","100","001","1","","","","","","",""
"","","","","","image-keyboard-response","113","158943","0.0-88.0","5eb342dff78ab11407daf144","665500ab8938657b03fbdba8","66579332f7f57d35afea5b16","337","stimuli/21000012.jpg"," ","","feedback_trial","2","","","","","","","","","","","","","","","","","","","","",""
"","","","","","image-keyboard-response","114","160167","0.0-89.0","5eb342dff78ab11407daf144","665500ab8938657b03fbdba8","66579332f7f57d35afea5b16","1218","stimuli/1100010.jpg","1","","prediction_trial","1","","true","","1","false","true","true","true","false","true","[1]","100","010","1","","","","","","",""
"","","","","","image-keyboard-response","115","160461","0.0-90.0","5eb342dff78ab11407daf144","665500ab8938657b03fbdba8","66579332f7f57d35afea5b16","290","stimuli/11000101.jpg"," ","","feedback_trial","1","","","","","","","","","","","","","","","","","","","","",""
"","","","","","image-keyboard-response","116","161384","0.0-91.0","5eb342dff78ab11407daf144","665500ab8938657b03fbdba8","66579332f7f57d35afea5b16","919","stimuli/2000100.jpg","2","","prediction_trial","2","","true","","2","true","true","true","true","true","true","[2]","000","100","1","","","","","","",""
"","","","","","image-keyboard-response","117","161688","0.0-92.0","5eb342dff78ab11407daf144","665500ab8938657b03fbdba8","66579332f7f57d35afea5b16","298","stimuli/20001002.jpg"," ","","feedback_trial","2","","","","","","","","","","","","","","","","","","","","",""
"","","","","","image-keyboard-response","118","162859","0.0-93.0","5eb342dff78ab11407daf144","665500ab8938657b03fbdba8","66579332f7f57d35afea5b16","1167","stimuli/2001000.jpg","2","","prediction_trial","2","","true","","2","true","true","false","true","false","true","[2]","001","000","1","","","","","","",""
"","","","","","image-keyboard-response","119","163222","0.0-94.0","5eb342dff78ab11407daf144","665500ab8938657b03fbdba8","66579332f7f57d35afea5b16","358","stimuli/20010002.jpg"," ","","feedback_trial","2","","","","","","","","","","","","","","","","","","","","",""
"","","","","","image-keyboard-response","120","163999","0.0-95.0","5eb342dff78ab11407daf144","665500ab8938657b03fbdba8","66579332f7f57d35afea5b16","772","stimuli/0011010.jpg","0","","prediction_trial","0","","true","","0","true","true","true","true","true","true","[0]","011","010","1","","","","","","",""
"","","","","","image-keyboard-response","121","164313","0.0-96.0","5eb342dff78ab11407daf144","665500ab8938657b03fbdba8","66579332f7f57d35afea5b16","309","stimuli/00110100.jpg"," ","","feedback_trial","0","","","","","","","","","","","","","","","","","","","","",""
"","","","","","image-keyboard-response","122","165256","0.0-97.0","5eb342dff78ab11407daf144","665500ab8938657b03fbdba8","66579332f7f57d35afea5b16","939","stimuli/2000011.jpg","1","","prediction_trial","2","","false","","2","false","false","true","true","false","false","[2]","000","011","0","","","","","","",""
"","","","","","image-keyboard-response","123","165609","0.0-98.0","5eb342dff78ab11407daf144","665500ab8938657b03fbdba8","66579332f7f57d35afea5b16","349","stimuli/20000112.jpg"," ","","feedback_trial","2","","","","","","","","","","","","","","","","","","","","",""
"","","","","","image-keyboard-response","124","167230","0.0-99.0","5eb342dff78ab11407daf144","665500ab8938657b03fbdba8","66579332f7f57d35afea5b16","1617","stimuli/0111101.jpg","1","","prediction_trial","1","","true","","0","false","false","false","false","false","false","[1,2,0]","111","101","1","","","","","","",""
"","","","","","image-keyboard-response","125","167551","0.0-100.0","5eb342dff78ab11407daf144","665500ab8938657b03fbdba8","66579332f7f57d35afea5b16","317","stimuli/01111011.jpg"," ","","feedback_trial","1","","","","","","","","","","","","","","","","","","","","",""
"","","","","","image-keyboard-response","126","168360","0.0-101.0","5eb342dff78ab11407daf144","665500ab8938657b03fbdba8","66579332f7f57d35afea5b16","805","stimuli/0010001.jpg","0","","prediction_trial","0","","true","","0","true","true","true","true","true","true","[0]","010","001","1","","","","","","",""
"","","","","","image-keyboard-response","127","168690","0.0-102.0","5eb342dff78ab11407daf144","665500ab8938657b03fbdba8","66579332f7f57d35afea5b16","318","stimuli/00100010.jpg"," ","","feedback_trial","0","","","","","","","","","","","","","","","","","","","","",""
"","","","","","image-keyboard-response","128","169874","0.0-103.0","5eb342dff78ab11407daf144","665500ab8938657b03fbdba8","66579332f7f57d35afea5b16","1179","stimuli/2111001.jpg","1","","prediction_trial","1","","true","","2","false","true","false","false","false","false","[1,2,0]","111","001","1","","","","","","",""
"","","","","","image-keyboard-response","129","170202","0.0-104.0","5eb342dff78ab11407daf144","665500ab8938657b03fbdba8","66579332f7f57d35afea5b16","323","stimuli/21110011.jpg"," ","","feedback_trial","1","","","","","","","","","","","","","","","","","","","","",""
"","","","","","image-keyboard-response","130","171693","0.0-105.0","5eb342dff78ab11407daf144","665500ab8938657b03fbdba8","66579332f7f57d35afea5b16","1486","stimuli/1111111.jpg","2","","prediction_trial","2","","true","","1","false","false","false","false","false","false","[1,0,2]","111","111","1","","","","","","",""
"","","","","","image-keyboard-response","131","172199","0.0-106.0","5eb342dff78ab11407daf144","665500ab8938657b03fbdba8","66579332f7f57d35afea5b16","501","stimuli/11111112.jpg"," ","","feedback_trial","1","","","","","","","","","","","","","","","","","","","","",""
"","","","","","image-keyboard-response","132","172941","0.0-107.0","5eb342dff78ab11407daf144","665500ab8938657b03fbdba8","66579332f7f57d35afea5b16","738","stimuli/0000001.jpg","0","","prediction_trial","0","","true","","0","true","true","true","true","true","true","[0]","000","001","1","","","","","","",""
"","","","","","image-keyboard-response","133","173282","0.0-108.0","5eb342dff78ab11407daf144","665500ab8938657b03fbdba8","66579332f7f57d35afea5b16","336","stimuli/00000010.jpg"," ","","feedback_trial","0","","","","","","","","","","","","","","","","","","","","",""
"","","","","","image-keyboard-response","134","174098","0.0-109.0","5eb342dff78ab11407daf144","665500ab8938657b03fbdba8","66579332f7f57d35afea5b16","812","stimuli/0110110.jpg","1","","prediction_trial","1","","true","","0","false","false","false","false","false","false","[0,1]","110","110","1","","","","","","",""
"","","","","","image-keyboard-response","135","174449","0.0-110.0","5eb342dff78ab11407daf144","665500ab8938657b03fbdba8","66579332f7f57d35afea5b16","340","stimuli/01101101.jpg"," ","","feedback_trial","0","","","","","","","","","","","","","","","","","","","","",""
"","","","","","image-keyboard-response","136","175824","0.0-111.0","5eb342dff78ab11407daf144","665500ab8938657b03fbdba8","66579332f7f57d35afea5b16","1369","stimuli/1010100.jpg","1","","prediction_trial","1","","true","","1","true","true","false","true","false","true","[1]","010","100","1","","","","","","",""
"","","","","","image-keyboard-response","137","176183","0.0-112.0","5eb342dff78ab11407daf144","665500ab8938657b03fbdba8","66579332f7f57d35afea5b16","354","stimuli/10101001.jpg"," ","","feedback_trial","1","","","","","","","","","","","","","","","","","","","","",""
"","","","","","image-keyboard-response","138","177404","0.0-113.0","5eb342dff78ab11407daf144","665500ab8938657b03fbdba8","66579332f7f57d35afea5b16","1217","stimuli/1111010.jpg","1","","prediction_trial","2","","false","","1","false","true","false","false","false","false","[2,1,0]","111","010","0","","","","","","",""
"","","","","","image-keyboard-response","139","177827","0.0-114.0","5eb342dff78ab11407daf144","665500ab8938657b03fbdba8","66579332f7f57d35afea5b16","418","stimuli/11110102.jpg"," ","","feedback_trial","2","","","","","","","","","","","","","","","","","","","","",""
"","","","","","image-keyboard-response","140","179092","0.0-115.0","5eb342dff78ab11407daf144","665500ab8938657b03fbdba8","66579332f7f57d35afea5b16","1261","stimuli/0011100.jpg","0","","prediction_trial","0","","true","","0","false","true","true","true","false","true","[0]","011","100","1","","","","","","",""
"","","","","","image-keyboard-response","141","179408","0.0-116.0","5eb342dff78ab11407daf144","665500ab8938657b03fbdba8","66579332f7f57d35afea5b16","310","stimuli/00111000.jpg"," ","","feedback_trial","0","","","","","","","","","","","","","","","","","","","","",""
"","","","","","image-keyboard-response","142","180069","0.0-117.0","5eb342dff78ab11407daf144","665500ab8938657b03fbdba8","66579332f7f57d35afea5b16","657","stimuli/1101100.jpg","1","","prediction_trial","1","","true","","1","true","true","true","true","true","true","[1]","101","100","1","","","","","","",""
"","","","","","image-keyboard-response","143","180373","0.0-118.0","5eb342dff78ab11407daf144","665500ab8938657b03fbdba8","66579332f7f57d35afea5b16","291","stimuli/11011001.jpg"," ","","feedback_trial","1","","","","","","","","","","","","","","","","","","","","",""
"","","","","","image-keyboard-response","144","182346","0.0-119.0","5eb342dff78ab11407daf144","665500ab8938657b03fbdba8","66579332f7f57d35afea5b16","1968","stimuli/2000101.jpg","2","","prediction_trial","2","","true","","2","false","false","true","true","false","false","[2]","000","101","1","","","","","","",""
"","","","","","image-keyboard-response","145","182687","0.0-120.0","5eb342dff78ab11407daf144","665500ab8938657b03fbdba8","66579332f7f57d35afea5b16","337","stimuli/20001012.jpg"," ","","feedback_trial","2","","","","","","","","","","","","","","","","","","","","",""
"","","","","","image-keyboard-response","146","184811","0.0-121.0","5eb342dff78ab11407daf144","665500ab8938657b03fbdba8","66579332f7f57d35afea5b16","2119","stimuli/2101111.jpg","1","","prediction_trial","0","","false","","2","false","false","false","false","false","false","[2,0]","101","111","0","","","","","","",""
"","","","","","image-keyboard-response","147","185168","0.0-122.0","5eb342dff78ab11407daf144","665500ab8938657b03fbdba8","66579332f7f57d35afea5b16","353","stimuli/21011110.jpg"," ","","feedback_trial","2","","","","","","","","","","","","","","","","","","","","",""
"","","","","","image-keyboard-response","148","186306","0.0-123.0","5eb342dff78ab11407daf144","665500ab8938657b03fbdba8","66579332f7f57d35afea5b16","1133","stimuli/1101111.jpg","1","","prediction_trial","1","","true","","1","false","false","true","true","false","false","[1]","101","111","1","","","","","","",""
"","","","","","image-keyboard-response","149","186676","0.0-124.0","5eb342dff78ab11407daf144","665500ab8938657b03fbdba8","66579332f7f57d35afea5b16","366","stimuli/11011111.jpg"," ","","feedback_trial","1","","","","","","","","","","","","","","","","","","","","",""
"","","","","","image-keyboard-response","150","187499","0.0-125.0","5eb342dff78ab11407daf144","665500ab8938657b03fbdba8","66579332f7f57d35afea5b16","818","stimuli/1101001.jpg","1","","prediction_trial","1","","true","","1","true","true","true","true","true","true","[1]","101","001","1","","","","","","",""
"","","","","","image-keyboard-response","151","187815","0.0-126.0","5eb342dff78ab11407daf144","665500ab8938657b03fbdba8","66579332f7f57d35afea5b16","311","stimuli/11010011.jpg"," ","","feedback_trial","1","","","","","","","","","","","","","","","","","","","","",""
"","","","","","image-keyboard-response","152","188648","0.0-127.0","5eb342dff78ab11407daf144","665500ab8938657b03fbdba8","66579332f7f57d35afea5b16","828","stimuli/2111111.jpg","1","","prediction_trial","0","","false","","2","false","false","false","false","false","false","[1,2,0]","111","111","0","","","","","","",""
"","","","","","image-keyboard-response","153","189002","0.0-128.0","5eb342dff78ab11407daf144","665500ab8938657b03fbdba8","66579332f7f57d35afea5b16","350","stimuli/21111110.jpg"," ","","feedback_trial","1","","","","","","","","","","","","","","","","","","","","",""
"","","","","","image-keyboard-response","154","189547","0.0-129.0","5eb342dff78ab11407daf144","665500ab8938657b03fbdba8","66579332f7f57d35afea5b16","540","stimuli/1101000.jpg","1","","prediction_trial","1","","true","","1","true","true","true","true","true","true","[1]","101","000","1","","","","","","",""
"","","","","","image-keyboard-response","155","189934","0.0-130.0","5eb342dff78ab11407daf144","665500ab8938657b03fbdba8","66579332f7f57d35afea5b16","382","stimuli/11010001.jpg"," ","","feedback_trial","1","","","","","","","","","","","","","","","","","","","","",""
"","","","","","image-keyboard-response","156","191501","0.0-131.0","5eb342dff78ab11407daf144","665500ab8938657b03fbdba8","66579332f7f57d35afea5b16","1555","stimuli/2010011.jpg","2","","prediction_trial","2","","true","","2","false","false","true","true","false","false","[2]","010","011","1","","","","","","",""
"","","","","","image-keyboard-response","157","191815","0.0-132.0","5eb342dff78ab11407daf144","665500ab8938657b03fbdba8","66579332f7f57d35afea5b16","309","stimuli/20100112.jpg"," ","","feedback_trial","2","","","","","","","","","","","","","","","","","","","","",""
"","","","","","image-keyboard-response","158","193875","0.0-133.0","5eb342dff78ab11407daf144","665500ab8938657b03fbdba8","66579332f7f57d35afea5b16","2055","stimuli/2101000.jpg","2","","prediction_trial","2","","true","","2","true","true","false","false","false","false","[0,2]","101","000","1","","","","","","",""
"","","","","","image-keyboard-response","159","194230","0.0-134.0","5eb342dff78ab11407daf144","665500ab8938657b03fbdba8","66579332f7f57d35afea5b16","350","stimuli/21010002.jpg"," ","","feedback_trial","0","","","","","","","","","","","","","","","","","","","","",""
"","","","","","image-keyboard-response","160","195207","0.0-135.0","5eb342dff78ab11407daf144","665500ab8938657b03fbdba8","66579332f7f57d35afea5b16","972","stimuli/2110100.jpg","2","","prediction_trial","2","","true","","2","true","true","true","true","true","true","[2]","110","100","1","","","","","","",""
"","","","","","image-keyboard-response","161","195587","0.0-136.0","5eb342dff78ab11407daf144","665500ab8938657b03fbdba8","66579332f7f57d35afea5b16","375","stimuli/21101002.jpg"," ","","feedback_trial","2","","","","","","","","","","","","","","","","","","","","",""
"","","","","","image-keyboard-response","162","196581","0.0-137.0","5eb342dff78ab11407daf144","665500ab8938657b03fbdba8","66579332f7f57d35afea5b16","989","stimuli/0000100.jpg","0","","prediction_trial","0","","true","","0","false","true","true","true","false","true","[0]","000","100","1","","","","","","",""
"","","","","","image-keyboard-response","163","196869","0.0-138.0","5eb342dff78ab11407daf144","665500ab8938657b03fbdba8","66579332f7f57d35afea5b16","283","stimuli/00001000.jpg"," ","","feedback_trial","0","","","","","","","","","","","","","","","","","","","","",""
"","","","","","image-keyboard-response","164","197822","0.0-139.0","5eb342dff78ab11407daf144","665500ab8938657b03fbdba8","66579332f7f57d35afea5b16","948","stimuli/1011011.jpg","1","","prediction_trial","1","","true","","1","false","false","false","false","false","false","[2,1]","011","011","1","","","","","","",""
"","","","","","image-keyboard-response","165","198152","0.0-140.0","5eb342dff78ab11407daf144","665500ab8938657b03fbdba8","66579332f7f57d35afea5b16","325","stimuli/10110111.jpg"," ","","feedback_trial","2","","","","","","","","","","","","","","","","","","","","",""
"","","","","","image-keyboard-response","166","199705","0.0-141.0","5eb342dff78ab11407daf144","665500ab8938657b03fbdba8","66579332f7f57d35afea5b16","1548","stimuli/1110011.jpg","2","","prediction_trial","0","","false","","1","false","false","false","false","false","false","[1,0]","110","011","0","","","","","","",""
"","","","","","image-keyboard-response","167","200108","0.0-142.0","5eb342dff78ab11407daf144","665500ab8938657b03fbdba8","66579332f7f57d35afea5b16","398","stimuli/11100110.jpg"," ","","feedback_trial","1","","","","","","","","","","","","","","","","","","","","",""
"","","","","","image-keyboard-response","168","203458","0.0-143.0","5eb342dff78ab11407daf144","665500ab8938657b03fbdba8","66579332f7f57d35afea5b16","3345","stimuli/0011101.jpg","2","","prediction_trial","0","","false","","0","false","false","true","true","false","false","[0]","011","101","0","","","","","","",""
"","","","","","image-keyboard-response","169","203910","0.0-144.0","5eb342dff78ab11407daf144","665500ab8938657b03fbdba8","66579332f7f57d35afea5b16","447","stimuli/00111010.jpg"," ","","feedback_trial","0","","","","","","","","","","","","","","","","","","","","",""
"","","","","","image-keyboard-response","170","204539","0.0-145.0","5eb342dff78ab11407daf144","665500ab8938657b03fbdba8","66579332f7f57d35afea5b16","624","stimuli/1100100.jpg","1","","prediction_trial","1","","true","","1","true","true","true","true","true","true","[1]","100","100","1","","","","","","",""
"","","","","","image-keyboard-response","171","204858","0.0-146.0","5eb342dff78ab11407daf144","665500ab8938657b03fbdba8","66579332f7f57d35afea5b16","314","stimuli/11001001.jpg"," ","","feedback_trial","1","","","","","","","","","","","","","","","","","","","","",""
"","","","","","image-keyboard-response","172","205770","0.0-147.0","5eb342dff78ab11407daf144","665500ab8938657b03fbdba8","66579332f7f57d35afea5b16","907","stimuli/0001101.jpg","0","","prediction_trial","0","","true","","0","false","false","true","true","false","false","[0]","001","101","1","","","","","","",""
"","","","","","image-keyboard-response","173","206107","0.0-148.0","5eb342dff78ab11407daf144","665500ab8938657b03fbdba8","66579332f7f57d35afea5b16","332","stimuli/00011010.jpg"," ","","feedback_trial","0","","","","","","","","","","","","","","","","","","","","",""
"","","","","","image-keyboard-response","174","206930","0.0-149.0","5eb342dff78ab11407daf144","665500ab8938657b03fbdba8","66579332f7f57d35afea5b16","819","stimuli/2110000.jpg","2","","prediction_trial","2","","true","","2","true","true","true","true","true","true","[2]","110","000","1","","","","","","",""
"","","","","","image-keyboard-response","175","207264","0.0-150.0","5eb342dff78ab11407daf144","665500ab8938657b03fbdba8","66579332f7f57d35afea5b16","322","stimuli/21100002.jpg"," ","","feedback_trial","2","","","","","","","","","","","","","","","","","","","","",""
"","","","","","image-keyboard-response","176","208247","0.0-151.0","5eb342dff78ab11407daf144","665500ab8938657b03fbdba8","66579332f7f57d35afea5b16","978","stimuli/2011011.jpg","1","","prediction_trial","2","","false","","2","false","false","false","false","false","false","[1,2]","011","011","0","","","","","","",""
"","","","","","image-keyboard-response","177","208597","0.0-152.0","5eb342dff78ab11407daf144","665500ab8938657b03fbdba8","66579332f7f57d35afea5b16","345","stimuli/20110112.jpg"," ","","feedback_trial","1","","","","","","","","","","","","","","","","","","","","",""
"","","","","","image-keyboard-response","178","209359","0.0-153.0","5eb342dff78ab11407daf144","665500ab8938657b03fbdba8","66579332f7f57d35afea5b16","757","stimuli/0100110.jpg","1","","prediction_trial","0","","false","","0","false","false","false","true","false","false","[0]","100","110","0","","","","","","",""
"","","","","","image-keyboard-response","179","209941","0.0-154.0","5eb342dff78ab11407daf144","665500ab8938657b03fbdba8","66579332f7f57d35afea5b16","577","stimuli/01001100.jpg"," ","","feedback_trial","0","","","","","","","","","","","","","","","","","","","","",""
"","","","","","image-keyboard-response","180","211449","0.0-155.0","5eb342dff78ab11407daf144","665500ab8938657b03fbdba8","66579332f7f57d35afea5b16","1503","stimuli/1001010.jpg","1","","prediction_trial","1","","true","","1","false","true","true","true","false","true","[1]","001","010","1","","","","","","",""
"","","","","","image-keyboard-response","181","211797","0.0-156.0","5eb342dff78ab11407daf144","665500ab8938657b03fbdba8","66579332f7f57d35afea5b16","343","stimuli/10010101.jpg"," ","","feedback_trial","1","","","","","","","","","","","","","","","","","","","","",""
"","","","","","image-keyboard-response","182","212513","0.0-157.0","5eb342dff78ab11407daf144","665500ab8938657b03fbdba8","66579332f7f57d35afea5b16","712","stimuli/2100010.jpg","2","","prediction_trial","2","","true","","2","true","true","true","true","true","true","[2]","100","010","1","","","","","","",""
"","","","","","image-keyboard-response","183","212836","0.0-158.0","5eb342dff78ab11407daf144","665500ab8938657b03fbdba8","66579332f7f57d35afea5b16","318","stimuli/21000102.jpg"," ","","feedback_trial","2","","","","","","","","","","","","","","","","","","","","",""
"","","","","","image-keyboard-response","184","215131","0.0-159.0","5eb342dff78ab11407daf144","665500ab8938657b03fbdba8","66579332f7f57d35afea5b16","2291","stimuli/0110001.jpg","1","","prediction_trial","1","","true","","0","true","true","false","false","false","false","[0,1]","110","001","1","","","","","","",""
"","","","","","image-keyboard-response","185","215442","0.0-160.0","5eb342dff78ab11407daf144","665500ab8938657b03fbdba8","66579332f7f57d35afea5b16","298","stimuli/01100011.jpg"," ","","feedback_trial","0","","","","","","","","","","","","","","","","","","","","",""
"","","","","","image-keyboard-response","186","216969","0.0-161.0","5eb342dff78ab11407daf144","665500ab8938657b03fbdba8","66579332f7f57d35afea5b16","1521","stimuli/0101101.jpg","2","","prediction_trial","2","","true","","0","false","false","false","false","false","false","[0,2]","101","101","1","","","","","","",""
"","","","","","image-keyboard-response","187","217350","0.0-162.0","5eb342dff78ab11407daf144","665500ab8938657b03fbdba8","66579332f7f57d35afea5b16","376","stimuli/01011012.jpg"," ","","feedback_trial","0","","","","","","","","","","","","","","","","","","","","",""
"","","","","","image-keyboard-response","188","219203","0.0-163.0","5eb342dff78ab11407daf144","665500ab8938657b03fbdba8","66579332f7f57d35afea5b16","1848","stimuli/0101001.jpg","0","","prediction_trial","0","","true","","0","true","true","false","false","false","false","[2,0]","101","001","1","","","","","","",""
"","","","","","image-keyboard-response","189","219527","0.0-164.0","5eb342dff78ab11407daf144","665500ab8938657b03fbdba8","66579332f7f57d35afea5b16","320","stimuli/01010010.jpg"," ","","feedback_trial","2","","","","","","","","","","","","","","","","","","","","",""
"","","","","","image-keyboard-response","190","220117","0.0-165.0","5eb342dff78ab11407daf144","665500ab8938657b03fbdba8","66579332f7f57d35afea5b16","586","stimuli/1001000.jpg","1","","prediction_trial","1","","true","","1","true","true","true","true","true","true","[1]","001","000","1","","","","","","",""
"","","","","","image-keyboard-response","191","220425","0.0-166.0","5eb342dff78ab11407daf144","665500ab8938657b03fbdba8","66579332f7f57d35afea5b16","303","stimuli/10010001.jpg"," ","","feedback_trial","1","","","","","","","","","","","","","","","","","","","","",""
"","","","","","image-keyboard-response","192","221126","0.0-167.0","5eb342dff78ab11407daf144","665500ab8938657b03fbdba8","66579332f7f57d35afea5b16","696","stimuli/0010011.jpg","0","","prediction_trial","0","","true","","0","true","true","true","true","true","true","[0]","010","011","1","","","","","","",""
"","","","","","image-keyboard-response","193","221382","0.0-168.0","5eb342dff78ab11407daf144","665500ab8938657b03fbdba8","66579332f7f57d35afea5b16","251","stimuli/00100110.jpg"," ","","feedback_trial","0","","","","","","","","","","","","","","","","","","","","",""
"","","","","","image-keyboard-response","194","222383","0.0-169.0","5eb342dff78ab11407daf144","665500ab8938657b03fbdba8","66579332f7f57d35afea5b16","996","stimuli/1011001.jpg","1","","prediction_trial","1","","true","","1","true","true","false","false","false","false","[2,1]","011","001","1","","","","","","",""
"","","","","","image-keyboard-response","195","222693","0.0-170.0","5eb342dff78ab11407daf144","665500ab8938657b03fbdba8","66579332f7f57d35afea5b16","305","stimuli/10110011.jpg"," ","","feedback_trial","2","","","","","","","","","","","","","","","","","","","","",""
"","","","","","image-keyboard-response","196","224285","0.0-171.0","5eb342dff78ab11407daf144","665500ab8938657b03fbdba8","66579332f7f57d35afea5b16","1587","stimuli/1001011.jpg","1","","prediction_trial","1","","true","","1","false","false","true","true","false","false","[1]","001","011","1","","","","","","",""
"","","","","","image-keyboard-response","197","224567","0.0-172.0","5eb342dff78ab11407daf144","665500ab8938657b03fbdba8","66579332f7f57d35afea5b16","278","stimuli/10010111.jpg"," ","","feedback_trial","1","","","","","","","","","","","","","","","","","","","","",""
"","","","","","image-keyboard-response","198","225726","0.0-173.0","5eb342dff78ab11407daf144","665500ab8938657b03fbdba8","66579332f7f57d35afea5b16","1155","stimuli/1010000.jpg","1","","prediction_trial","1","","true","","1","true","true","false","true","false","true","[1]","010","000","1","","","","","","",""
"","","","","","image-keyboard-response","199","226004","0.0-174.0","5eb342dff78ab11407daf144","665500ab8938657b03fbdba8","66579332f7f57d35afea5b16","274","stimuli/10100001.jpg"," ","","feedback_trial","1","","","","","","","","","","","","","","","","","","","","",""
"","","","","","image-keyboard-response","200","227183","0.0-175.0","5eb342dff78ab11407daf144","665500ab8938657b03fbdba8","66579332f7f57d35afea5b16","1175","stimuli/2110001.jpg","2","","prediction_trial","2","","true","","2","false","true","true","true","false","true","[2]","110","001","1","","","","","","",""
"","","","","","image-keyboard-response","201","227527","0.0-176.0","5eb342dff78ab11407daf144","665500ab8938657b03fbdba8","66579332f7f57d35afea5b16","340","stimuli/21100012.jpg"," ","","feedback_trial","2","","","","","","","","","","","","","","","","","","","","",""
"","","","","","image-keyboard-response","202","228736","0.0-177.0","5eb342dff78ab11407daf144","665500ab8938657b03fbdba8","66579332f7f57d35afea5b16","1205","stimuli/1011101.jpg","1","","prediction_trial","1","","true","","1","true","true","false","false","false","false","[1,2]","011","101","1","","","","","","",""
"","","","","","image-keyboard-response","203","229056","0.0-178.0","5eb342dff78ab11407daf144","665500ab8938657b03fbdba8","66579332f7f57d35afea5b16","315","stimuli/10111011.jpg"," ","","feedback_trial","1","","","","","","","","","","","","","","","","","","","","",""
"","","","","","image-keyboard-response","204","230256","0.0-179.0","5eb342dff78ab11407daf144","665500ab8938657b03fbdba8","66579332f7f57d35afea5b16","1195","stimuli/2010001.jpg","2","","prediction_trial","2","","true","","2","false","true","true","true","false","true","[2]","010","001","1","","","","","","",""
"","","","","","image-keyboard-response","205","230619","0.0-180.0","5eb342dff78ab11407daf144","665500ab8938657b03fbdba8","66579332f7f57d35afea5b16","359","stimuli/20100012.jpg"," ","","feedback_trial","2","","","","","","","","","","","","","","","","","","","","",""
"","","","","","image-keyboard-response","206","232434","0.0-181.0","5eb342dff78ab11407daf144","665500ab8938657b03fbdba8","66579332f7f57d35afea5b16","1810","stimuli/0101100.jpg","0","","prediction_trial","2","","false","","0","false","true","false","false","false","false","[2,0]","101","100","0","","","","","","",""
"","","","","","image-keyboard-response","207","232891","0.0-182.0","5eb342dff78ab11407daf144","665500ab8938657b03fbdba8","66579332f7f57d35afea5b16","444","stimuli/01011002.jpg"," ","","feedback_trial","2","","","","","","","","","","","","","","","","","","","","",""
"","","","","","image-keyboard-response","208","234652","0.0-183.0","5eb342dff78ab11407daf144","665500ab8938657b03fbdba8","66579332f7f57d35afea5b16","1756","stimuli/1100111.jpg","0","","prediction_trial","1","","false","","1","false","false","true","true","false","false","[1]","100","111","0","","","","","","",""
"","","","","","image-keyboard-response","209","235022","0.0-184.0","5eb342dff78ab11407daf144","665500ab8938657b03fbdba8","66579332f7f57d35afea5b16","366","stimuli/11001111.jpg"," ","","feedback_trial","1","","","","","","","","","","","","","","","","","","","","",""
"","","","","","image-keyboard-response","210","235823","0.0-185.0","5eb342dff78ab11407daf144","665500ab8938657b03fbdba8","66579332f7f57d35afea5b16","796","stimuli/1100011.jpg","1","","prediction_trial","1","","true","","1","false","false","true","true","false","false","[1]","100","011","1","","","","","","",""
"","","","","","image-keyboard-response","211","236183","0.0-186.0","5eb342dff78ab11407daf144","665500ab8938657b03fbdba8","66579332f7f57d35afea5b16","356","stimuli/11000111.jpg"," ","","feedback_trial","1","","","","","","","","","","","","","","","","","","","","",""
"","","","","","image-keyboard-response","212","237222","0.0-187.0","5eb342dff78ab11407daf144","665500ab8938657b03fbdba8","66579332f7f57d35afea5b16","1035","stimuli/1100110.jpg","0","","prediction_trial","1","","false","","1","false","false","true","true","false","false","[1]","100","110","0","","","","","","",""
"","","","","","image-keyboard-response","213","237553","0.0-188.0","5eb342dff78ab11407daf144","665500ab8938657b03fbdba8","66579332f7f57d35afea5b16","326","stimuli/11001101.jpg"," ","","feedback_trial","1","","","","","","","","","","","","","","","","","","","","",""
"","","","","","image-keyboard-response","214","239319","0.0-189.0","5eb342dff78ab11407daf144","665500ab8938657b03fbdba8","66579332f7f57d35afea5b16","1761","stimuli/2001101.jpg","0","","prediction_trial","2","","false","","2","false","false","false","true","false","false","[2]","001","101","0","","","","","","",""
"","","","","","image-keyboard-response","215","239879","0.0-190.0","5eb342dff78ab11407daf144","665500ab8938657b03fbdba8","66579332f7f57d35afea5b16","548","stimuli/20011012.jpg"," ","","feedback_trial","2","","","","","","","","","","","","","","","","","","","","",""
"","","","","","image-keyboard-response","216","241681","0.0-191.0","5eb342dff78ab11407daf144","665500ab8938657b03fbdba8","66579332f7f57d35afea5b16","1797","stimuli/0100101.jpg","0","","prediction_trial","0","","true","","0","false","false","false","true","false","false","[0]","100","101","1","","","","","","",""
"","","","","","image-keyboard-response","217","242071","0.0-192.0","5eb342dff78ab11407daf144","665500ab8938657b03fbdba8","66579332f7f57d35afea5b16","386","stimuli/01001010.jpg"," ","","feedback_trial","0","","","","","","","","","","","","","","","","","","","","",""
"","","","","","image-keyboard-response","218","243801","0.0-193.0","5eb342dff78ab11407daf144","665500ab8938657b03fbdba8","66579332f7f57d35afea5b16","1725","stimuli/0110011.jpg","1","","prediction_trial","1","","true","","0","true","true","false","false","false","false","[1,0]","110","011","1","","","","","","",""
"","","","","","image-keyboard-response","219","244094","0.0-194.0","5eb342dff78ab11407daf144","665500ab8938657b03fbdba8","66579332f7f57d35afea5b16","289","stimuli/01100111.jpg"," ","","feedback_trial","1","","","","","","","","","","","","","","","","","","","","",""
"","","","","","image-keyboard-response","220","246554","0.0-195.0","5eb342dff78ab11407daf144","665500ab8938657b03fbdba8","66579332f7f57d35afea5b16","2455","stimuli/2001010.jpg","2","","prediction_trial","2","","true","","2","true","true","false","true","false","true","[2]","001","010","1","","","","","","",""
"","","","","","image-keyboard-response","221","246847","0.0-196.0","5eb342dff78ab11407daf144","665500ab8938657b03fbdba8","66579332f7f57d35afea5b16","280","stimuli/20010102.jpg"," ","","feedback_trial","2","","","","","","","","","","","","","","","","","","","","",""
"","","","","","image-keyboard-response","222","247998","0.0-197.0","5eb342dff78ab11407daf144","665500ab8938657b03fbdba8","66579332f7f57d35afea5b16","1146","stimuli/2011001.jpg","1","","prediction_trial","1","","true","","2","false","true","false","false","false","false","[2,1]","011","001","1","","","","","","",""
"","","","","","image-keyboard-response","223","248275","0.0-198.0","5eb342dff78ab11407daf144","665500ab8938657b03fbdba8","66579332f7f57d35afea5b16","272","stimuli/20110011.jpg"," ","","feedback_trial","2","","","","","","","","","","","","","","","","","","","","",""
"","","","","","image-keyboard-response","224","249284","0.0-199.0","5eb342dff78ab11407daf144","665500ab8938657b03fbdba8","66579332f7f57d35afea5b16","1004","stimuli/1001110.jpg","1","","prediction_trial","1","","true","","1","false","false","true","true","false","false","[1]","001","110","1","","","","","","",""
"","","","","","image-keyboard-response","225","249594","0.0-200.0","5eb342dff78ab11407daf144","665500ab8938657b03fbdba8","66579332f7f57d35afea5b16","306","stimuli/10011101.jpg"," ","","feedback_trial","1","","","","","","","","","","","","","","","","","","","","",""
"","","","","","image-keyboard-response","226","251508","0.0-201.0","5eb342dff78ab11407daf144","665500ab8938657b03fbdba8","66579332f7f57d35afea5b16","1909","stimuli/2101010.jpg","2","","prediction_trial","2","","true","","2","true","true","false","false","false","false","[2,0]","101","010","1","","","","","","",""
"","","","","","image-keyboard-response","227","251803","0.0-202.0","5eb342dff78ab11407daf144","665500ab8938657b03fbdba8","66579332f7f57d35afea5b16","291","stimuli/21010102.jpg"," ","","feedback_trial","2","","","","","","","","","","","","","","","","","","","","",""
"","","","","","image-keyboard-response","228","252655","0.0-203.0","5eb342dff78ab11407daf144","665500ab8938657b03fbdba8","66579332f7f57d35afea5b16","841","stimuli/1111000.jpg","1","","prediction_trial","0","","false","","1","true","true","false","false","false","false","[0,1,2]","111","000","0","","","","","","",""
"","","","","","image-keyboard-response","229","252908","0.0-204.0","5eb342dff78ab11407daf144","665500ab8938657b03fbdba8","66579332f7f57d35afea5b16","248","stimuli/11110000.jpg"," ","","feedback_trial","0","","","","","","","","","","","","","","","","","","","","",""
"","","","","","image-keyboard-response","230","254808","0.0-205.0","5eb342dff78ab11407daf144","665500ab8938657b03fbdba8","66579332f7f57d35afea5b16","1895","stimuli/0001100.jpg","0","","prediction_trial","0","","true","","0","false","true","true","true","false","true","[0]","001","100","1","","","","","","",""
"","","","","","image-keyboard-response","231","255133","0.0-206.0","5eb342dff78ab11407daf144","665500ab8938657b03fbdba8","66579332f7f57d35afea5b16","321","stimuli/00011000.jpg"," ","","feedback_trial","0","","","","","","","","","","","","","","","","","","","","",""
"","","","","","image-keyboard-response","232","256011","0.0-207.0","5eb342dff78ab11407daf144","665500ab8938657b03fbdba8","66579332f7f57d35afea5b16","874","stimuli/2000001.jpg","2","","prediction_trial","2","","true","","2","false","true","true","true","false","true","[2]","000","001","1","","","","","","",""
"","","","","","image-keyboard-response","233","256308","0.0-208.0","5eb342dff78ab11407daf144","665500ab8938657b03fbdba8","66579332f7f57d35afea5b16","293","stimuli/20000012.jpg"," ","","feedback_trial","2","","","","","","","","","","","","","","","","","","","","",""
"","","","","","image-keyboard-response","234","257031","0.0-209.0","5eb342dff78ab11407daf144","665500ab8938657b03fbdba8","66579332f7f57d35afea5b16","719","stimuli/1100001.jpg","1","","prediction_trial","1","","true","","1","true","true","true","true","true","true","[1]","100","001","1","","","","","","",""
"","","","","","image-keyboard-response","235","257379","0.0-210.0","5eb342dff78ab11407daf144","665500ab8938657b03fbdba8","66579332f7f57d35afea5b16","343","stimuli/11000011.jpg"," ","","feedback_trial","1","","","","","","","","","","","","","","","","","","","","",""
"","","","","","image-keyboard-response","236","258637","0.0-211.0","5eb342dff78ab11407daf144","665500ab8938657b03fbdba8","66579332f7f57d35afea5b16","1246","stimuli/2111011.jpg","1","","prediction_trial","0","","false","","2","false","false","false","false","false","false","[1,2,0]","111","011","0","","","","","","",""
"","","","","","image-keyboard-response","237","259006","0.0-212.0","5eb342dff78ab11407daf144","665500ab8938657b03fbdba8","66579332f7f57d35afea5b16","365","stimuli/21110110.jpg"," ","","feedback_trial","1","","","","","","","","","","","","","","","","","","","","",""
"","","","","","image-keyboard-response","238","260502","0.0-213.0","5eb342dff78ab11407daf144","665500ab8938657b03fbdba8","66579332f7f57d35afea5b16","1492","stimuli/2011101.jpg","2","","prediction_trial","2","","true","","2","false","false","false","false","false","false","[2,1]","011","101","1","","","","","","",""
"","","","","","image-keyboard-response","239","260857","0.0-214.0","5eb342dff78ab11407daf144","665500ab8938657b03fbdba8","66579332f7f57d35afea5b16","350","stimuli/20111012.jpg"," ","","feedback_trial","2","","","","","","","","","","","","","","","","","","","","",""
"","","","","","image-keyboard-response","240","261551","0.0-215.0","5eb342dff78ab11407daf144","665500ab8938657b03fbdba8","66579332f7f57d35afea5b16","690","stimuli/0000011.jpg","0","","prediction_trial","0","","true","","0","true","true","true","true","true","true","[0]","000","011","1","","","","","","",""
"","","","","","image-keyboard-response","241","261833","0.0-216.0","5eb342dff78ab11407daf144","665500ab8938657b03fbdba8","66579332f7f57d35afea5b16","277","stimuli/00000110.jpg"," ","","feedback_trial","0","","","","","","","","","","","","","","","","","","","","",""
"","","","","","image-keyboard-response","242","263256","0.0-217.0","5eb342dff78ab11407daf144","665500ab8938657b03fbdba8","66579332f7f57d35afea5b16","1418","stimuli/1110010.jpg","1","","prediction_trial","1","","true","","1","false","true","false","false","false","false","[1,0]","110","010","1","","","","","","",""
"","","","","","image-keyboard-response","243","263570","0.0-218.0","5eb342dff78ab11407daf144","665500ab8938657b03fbdba8","66579332f7f57d35afea5b16","309","stimuli/11100101.jpg"," ","","feedback_trial","1","","","","","","","","","","","","","","","","","","","","",""
"","","","","","image-keyboard-response","244","264616","0.0-219.0","5eb342dff78ab11407daf144","665500ab8938657b03fbdba8","66579332f7f57d35afea5b16","1042","stimuli/1111001.jpg","1","","prediction_trial","2","","false","","1","true","true","false","false","false","false","[0,2,1]","111","001","0","","","","","","",""
"","","","","","image-keyboard-response","245","265008","0.0-220.0","5eb342dff78ab11407daf144","665500ab8938657b03fbdba8","66579332f7f57d35afea5b16","387","stimuli/11110012.jpg"," ","","feedback_trial","0","","","","","","","","","","","","","","","","","","","","",""
"","","","","","image-keyboard-response","246","266664","0.0-221.0","5eb342dff78ab11407daf144","665500ab8938657b03fbdba8","66579332f7f57d35afea5b16","1652","stimuli/0111100.jpg","1","","prediction_trial","1","","true","","0","false","true","false","false","false","false","[2,1,0]","111","100","1","","","","","","",""
"","","","","","image-keyboard-response","247","267001","0.0-222.0","5eb342dff78ab11407daf144","665500ab8938657b03fbdba8","66579332f7f57d35afea5b16","332","stimuli/01111001.jpg"," ","","feedback_trial","2","","","","","","","","","","","","","","","","","","","","",""
"","","","","","image-keyboard-response","248","267731","0.0-223.0","5eb342dff78ab11407daf144","665500ab8938657b03fbdba8","66579332f7f57d35afea5b16","726","stimuli/0000000.jpg","0","","prediction_trial","0","","true","","0","true","true","true","true","true","true","[0]","000","000","1","","","","","","",""
"","","","","","image-keyboard-response","249","268000","0.0-224.0","5eb342dff78ab11407daf144","665500ab8938657b03fbdba8","66579332f7f57d35afea5b16","256","stimuli/00000000.jpg"," ","","feedback_trial","0","","","","","","","","","","","","","","","","","","","","",""
"","","","","","image-keyboard-response","250","269090","0.0-225.0","5eb342dff78ab11407daf144","665500ab8938657b03fbdba8","66579332f7f57d35afea5b16","1085","stimuli/1000011.jpg","1","","prediction_trial","1","","true","","1","false","false","true","true","false","false","[1]","000","011","1","","","","","","",""
"","","","","","image-keyboard-response","251","269448","0.0-226.0","5eb342dff78ab11407daf144","665500ab8938657b03fbdba8","66579332f7f57d35afea5b16","353","stimuli/10000111.jpg"," ","","feedback_trial","1","","","","","","","","","","","","","","","","","","","","",""
"","","","","","image-keyboard-response","252","270540","0.0-227.0","5eb342dff78ab11407daf144","665500ab8938657b03fbdba8","66579332f7f57d35afea5b16","1088","stimuli/2100101.jpg","2","","prediction_trial","2","","true","","2","false","false","true","true","false","false","[2]","100","101","1","","","","","","",""
"","","","","","image-keyboard-response","253","270906","0.0-228.0","5eb342dff78ab11407daf144","665500ab8938657b03fbdba8","66579332f7f57d35afea5b16","361","stimuli/21001012.jpg"," ","","feedback_trial","2","","","","","","","","","","","","","","","","","","","","",""
"","","","","","image-keyboard-response","254","271704","0.0-229.0","5eb342dff78ab11407daf144","665500ab8938657b03fbdba8","66579332f7f57d35afea5b16","794","stimuli/0011011.jpg","0","","prediction_trial","0","","true","","0","true","true","true","true","true","true","[0]","011","011","1","","","","","","",""
"","","","","","image-keyboard-response","255","271957","0.0-230.0","5eb342dff78ab11407daf144","665500ab8938657b03fbdba8","66579332f7f57d35afea5b16","249","stimuli/00110110.jpg"," ","","feedback_trial","0","","","","","","","","","","","","","","","","","","","","",""
"","","","","","image-keyboard-response","256","272668","0.0-231.0","5eb342dff78ab11407daf144","665500ab8938657b03fbdba8","66579332f7f57d35afea5b16","706","stimuli/0001011.jpg","0","","prediction_trial","0","","true","","0","true","true","true","true","true","true","[0]","001","011","1","","","","","","",""
"","","","","","image-keyboard-response","257","272971","0.0-232.0","5eb342dff78ab11407daf144","665500ab8938657b03fbdba8","66579332f7f57d35afea5b16","292","stimuli/00010110.jpg"," ","","feedback_trial","0","","","","","","","","","","","","","","","","","","","","",""
"","","","","","image-keyboard-response","258","273681","0.0-233.0","5eb342dff78ab11407daf144","665500ab8938657b03fbdba8","66579332f7f57d35afea5b16","705","stimuli/2110110.jpg","2","","prediction_trial","2","","true","","2","true","true","true","true","true","true","[2]","110","110","1","","","","","","",""
"","","","","","image-keyboard-response","259","273978","0.0-234.0","5eb342dff78ab11407daf144","665500ab8938657b03fbdba8","66579332f7f57d35afea5b16","292","stimuli/21101102.jpg"," ","","feedback_trial","2","","","","","","","","","","","","","","","","","","","","",""
"","","","","","image-keyboard-response","260","275074","0.0-235.0","5eb342dff78ab11407daf144","665500ab8938657b03fbdba8","66579332f7f57d35afea5b16","1091","stimuli/2101011.jpg","1","","prediction_trial","2","","false","","2","false","false","false","false","false","false","[0,2]","101","011","0","","","","","","",""
"","","","","","image-keyboard-response","261","275525","0.0-236.0","5eb342dff78ab11407daf144","665500ab8938657b03fbdba8","66579332f7f57d35afea5b16","446","stimuli/21010112.jpg"," ","","feedback_trial","0","","","","","","","","","","","","","","","","","","","","",""
"","","","","","image-keyboard-response","262","276775","0.0-237.0","5eb342dff78ab11407daf144","665500ab8938657b03fbdba8","66579332f7f57d35afea5b16","1245","stimuli/2110011.jpg","1","","prediction_trial","2","","false","","2","false","false","true","true","false","false","[2]","110","011","0","","","","","","",""
"","","","","","image-keyboard-response","263","277178","0.0-238.0","5eb342dff78ab11407daf144","665500ab8938657b03fbdba8","66579332f7f57d35afea5b16","391","stimuli/21100112.jpg"," ","","feedback_trial","2","","","","","","","","","","","","","","","","","","","","",""
"","","","","","image-keyboard-response","264","278386","0.0-239.0","5eb342dff78ab11407daf144","665500ab8938657b03fbdba8","66579332f7f57d35afea5b16","1203","stimuli/0101010.jpg","1","","prediction_trial","0","","false","","0","true","true","false","false","false","false","[0,2]","101","010","0","","","","","","",""
"","","","","","image-keyboard-response","265","278876","0.0-240.0","5eb342dff78ab11407daf144","665500ab8938657b03fbdba8","66579332f7f57d35afea5b16","486","stimuli/01010100.jpg"," ","","feedback_trial","0","","","","","","","","","","","","","","","","","","","","",""
"","","","","","image-keyboard-response","266","279884","0.0-241.0","5eb342dff78ab11407daf144","665500ab8938657b03fbdba8","66579332f7f57d35afea5b16","1003","stimuli/1110000.jpg","1","","prediction_trial","0","","false","","1","true","true","false","false","false","false","[0,1]","110","000","0","","","","","","",""
"","","","","","image-keyboard-response","267","280155","0.0-242.0","5eb342dff78ab11407daf144","665500ab8938657b03fbdba8","66579332f7f57d35afea5b16","266","stimuli/11100000.jpg"," ","","feedback_trial","0","","","","","","","","","","","","","","","","","","","","",""
"","","","","","image-keyboard-response","268","282189","0.0-243.0","5eb342dff78ab11407daf144","665500ab8938657b03fbdba8","66579332f7f57d35afea5b16","2030","stimuli/1011010.jpg","2","","prediction_trial","1","","false","","1","false","true","false","false","false","false","[2,1]","011","010","0","","","","","","",""
"","","","","","image-keyboard-response","269","282546","0.0-244.0","5eb342dff78ab11407daf144","665500ab8938657b03fbdba8","66579332f7f57d35afea5b16","352","stimuli/10110101.jpg"," ","","feedback_trial","2","","","","","","","","","","","","","","","","","","","","",""
"","","","","","image-keyboard-response","270","283448","0.0-245.0","5eb342dff78ab11407daf144","665500ab8938657b03fbdba8","66579332f7f57d35afea5b16","897","stimuli/1010101.jpg","1","","prediction_trial","1","","true","","1","true","true","false","true","false","true","[1]","010","101","1","","","","","","",""
"","","","","","image-keyboard-response","271","283822","0.0-246.0","5eb342dff78ab11407daf144","665500ab8938657b03fbdba8","66579332f7f57d35afea5b16","364","stimuli/10101011.jpg"," ","","feedback_trial","1","","","","","","","","","","","","","","","","","","","","",""
"","","","","","image-keyboard-response","272","285020","0.0-247.0","5eb342dff78ab11407daf144","665500ab8938657b03fbdba8","66579332f7f57d35afea5b16","1193","stimuli/0100100.jpg","0","","prediction_trial","0","","true","","0","false","true","false","true","false","true","[0]","100","100","1","","","","","","",""
"","","","","","image-keyboard-response","273","285337","0.0-248.0","5eb342dff78ab11407daf144","665500ab8938657b03fbdba8","66579332f7f57d35afea5b16","313","stimuli/01001000.jpg"," ","","feedback_trial","0","","","","","","","","","","","","","","","","","","","","",""
"","","","","","image-keyboard-response","274","287742","0.0-249.0","5eb342dff78ab11407daf144","665500ab8938657b03fbdba8","66579332f7f57d35afea5b16","2402","stimuli/0111001.jpg","1","","prediction_trial","2","","false","","0","true","true","false","false","false","false","[0,2,1]","111","001","0","","","","","","",""
"","","","","","image-keyboard-response","275","288215","0.0-250.0","5eb342dff78ab11407daf144","665500ab8938657b03fbdba8","66579332f7f57d35afea5b16","468","stimuli/01110012.jpg"," ","","feedback_trial","0","","","","","","","","","","","","","","","","","","","","",""
"","","","","","image-keyboard-response","276","290395","0.0-251.0","5eb342dff78ab11407daf144","665500ab8938657b03fbdba8","66579332f7f57d35afea5b16","2177","stimuli/2101101.jpg","2","","prediction_trial","0","","false","","2","false","false","false","false","false","false","[2,0]","101","101","0","","","","","","",""
"","","","","","image-keyboard-response","277","290817","0.0-252.0","5eb342dff78ab11407daf144","665500ab8938657b03fbdba8","66579332f7f57d35afea5b16","417","stimuli/21011010.jpg"," ","","feedback_trial","2","","","","","","","","","","","","","","","","","","","","",""
"","","","","","image-keyboard-response","278","292834","0.0-253.0","5eb342dff78ab11407daf144","665500ab8938657b03fbdba8","66579332f7f57d35afea5b16","2013","stimuli/1010111.jpg","1","","prediction_trial","1","","true","","1","false","false","false","true","false","false","[1]","010","111","1","","","","","","",""
"","","","","","image-keyboard-response","279","293200","0.0-254.0","5eb342dff78ab11407daf144","665500ab8938657b03fbdba8","66579332f7f57d35afea5b16","354","stimuli/10101111.jpg"," ","","feedback_trial","1","","","","","","","","","","","","","","","","","","","","",""
"","","","","","image-keyboard-response","280","294690","0.0-255.0","5eb342dff78ab11407daf144","665500ab8938657b03fbdba8","66579332f7f57d35afea5b16","1485","stimuli/2001100.jpg","2","","prediction_trial","2","","true","","2","true","true","false","true","false","true","[2]","001","100","1","","","","","","",""
"","","","","","image-keyboard-response","281","294985","0.0-256.0","5eb342dff78ab11407daf144","665500ab8938657b03fbdba8","66579332f7f57d35afea5b16","290","stimuli/20011002.jpg"," ","","feedback_trial","2","","","","","","","","","","","","","","","","","","","","",""
"","","","","","image-keyboard-response","282","296040","0.0-257.0","5eb342dff78ab11407daf144","665500ab8938657b03fbdba8","66579332f7f57d35afea5b16","1050","stimuli/0010110.jpg","1","","prediction_trial","0","","false","","0","false","false","true","true","false","false","[0]","010","110","0","","","","","","",""
"","","","","","image-keyboard-response","283","296372","0.0-258.0","5eb342dff78ab11407daf144","665500ab8938657b03fbdba8","66579332f7f57d35afea5b16","327","stimuli/00101100.jpg"," ","","feedback_trial","0","","","","","","","","","","","","","","","","","","","","",""
"","","","","","image-keyboard-response","284","297932","0.0-259.0","5eb342dff78ab11407daf144","665500ab8938657b03fbdba8","66579332f7f57d35afea5b16","1555","stimuli/0110101.jpg","2","","prediction_trial","1","","false","","0","false","false","false","false","false","false","[0,1]","110","101","0","","","","","","",""
"","","","","","image-keyboard-response","285","298273","0.0-260.0","5eb342dff78ab11407daf144","665500ab8938657b03fbdba8","66579332f7f57d35afea5b16","337","stimuli/01101011.jpg"," ","","feedback_trial","0","","","","","","","","","","","","","","","","","","","","",""
"","","","","","image-keyboard-response","286","299205","0.0-261.0","5eb342dff78ab11407daf144","665500ab8938657b03fbdba8","66579332f7f57d35afea5b16","927","stimuli/0100010.jpg","0","","prediction_trial","0","","true","","0","true","true","false","true","false","true","[0]","100","010","1","","","","","","",""
"","","","","","image-keyboard-response","287","299505","0.0-262.0","5eb342dff78ab11407daf144","665500ab8938657b03fbdba8","66579332f7f57d35afea5b16","295","stimuli/01000100.jpg"," ","","feedback_trial","0","","","","","","","","","","","","","","","","","","","","",""
"","","","","","image-keyboard-response","288","300782","0.0-263.0","5eb342dff78ab11407daf144","665500ab8938657b03fbdba8","66579332f7f57d35afea5b16","1273","stimuli/0100000.jpg","0","","prediction_trial","0","","true","","0","true","true","false","true","false","true","[0]","100","000","1","","","","","","",""
"","","","","","image-keyboard-response","289","301041","0.0-264.0","5eb342dff78ab11407daf144","665500ab8938657b03fbdba8","66579332f7f57d35afea5b16","254","stimuli/01000000.jpg"," ","","feedback_trial","0","","","","","","","","","","","","","","","","","","","","",""
"","","","","","image-keyboard-response","290","301851","0.0-265.0","5eb342dff78ab11407daf144","665500ab8938657b03fbdba8","66579332f7f57d35afea5b16","804","stimuli/1001100.jpg","1","","prediction_trial","1","","true","","1","true","true","true","true","true","true","[1]","001","100","1","","","","","","",""
"","","","","","image-keyboard-response","291","302065","0.0-266.0","5eb342dff78ab11407daf144","665500ab8938657b03fbdba8","66579332f7f57d35afea5b16","210","stimuli/10011001.jpg"," ","","feedback_trial","1","","","","","","","","","","","","","","","","","","","","",""
"","","","","","image-keyboard-response","292","302842","0.0-267.0","5eb342dff78ab11407daf144","665500ab8938657b03fbdba8","66579332f7f57d35afea5b16","766","stimuli/1100101.jpg","1","","prediction_trial","1","","true","","1","true","true","true","true","true","true","[1]","100","101","1","","","","","","",""
"","","","","","image-keyboard-response","293","303074","0.0-268.0","5eb342dff78ab11407daf144","665500ab8938657b03fbdba8","66579332f7f57d35afea5b16","227","stimuli/11001011.jpg"," ","","feedback_trial","1","","","","","","","","","","","","","","","","","","","","",""
"","","","","","image-keyboard-response","294","304965","0.0-269.0","5eb342dff78ab11407daf144","665500ab8938657b03fbdba8","66579332f7f57d35afea5b16","1885","stimuli/2011100.jpg","1","","prediction_trial","1","","true","","2","true","true","false","false","false","false","[2,1]","011","100","1","","","","","","",""
"","","","","","image-keyboard-response","295","305274","0.0-270.0","5eb342dff78ab11407daf144","665500ab8938657b03fbdba8","66579332f7f57d35afea5b16","305","stimuli/20111001.jpg"," ","","feedback_trial","2","","","","","","","","","","","","","","","","","","","","",""
"","","","","","image-keyboard-response","296","306250","0.0-271.0","5eb342dff78ab11407daf144","665500ab8938657b03fbdba8","66579332f7f57d35afea5b16","970","stimuli/2110010.jpg","2","","prediction_trial","2","","true","","2","true","true","true","true","true","true","[2]","110","010","1","","","","","","",""
"","","","","","image-keyboard-response","297","306546","0.0-272.0","5eb342dff78ab11407daf144","665500ab8938657b03fbdba8","66579332f7f57d35afea5b16","292","stimuli/21100102.jpg"," ","","feedback_trial","2","","","","","","","","","","","","","","","","","","","","",""
"","","","","","image-keyboard-response","298","307600","0.0-273.0","5eb342dff78ab11407daf144","665500ab8938657b03fbdba8","66579332f7f57d35afea5b16","1049","stimuli/1011110.jpg","1","","prediction_trial","2","","false","","1","false","false","false","false","false","false","[1,2]","011","110","0","","","","","","",""
"","","","","","image-keyboard-response","299","307926","0.0-274.0","5eb342dff78ab11407daf144","665500ab8938657b03fbdba8","66579332f7f57d35afea5b16","321","stimuli/10111102.jpg"," ","","feedback_trial","1","","","","","","","","","","","","","","","","","","","","",""
"","","","","","image-keyboard-response","300","309361","0.0-275.0","5eb342dff78ab11407daf144","665500ab8938657b03fbdba8","66579332f7f57d35afea5b16","1430","stimuli/2011111.jpg","1","","prediction_trial","1","","true","","2","false","false","false","false","false","false","[2,1]","011","111","1","","","","","","",""
"","","","","","image-keyboard-response","301","309736","0.0-276.0","5eb342dff78ab11407daf144","665500ab8938657b03fbdba8","66579332f7f57d35afea5b16","370","stimuli/20111111.jpg"," ","","feedback_trial","2","","","","","","","","","","","","","","","","","","","","",""
"","","","","","image-keyboard-response","302","310547","0.0-277.0","5eb342dff78ab11407daf144","665500ab8938657b03fbdba8","66579332f7f57d35afea5b16","806","stimuli/0010000.jpg","0","","prediction_trial","0","","true","","0","true","true","true","true","true","true","[0]","010","000","1","","","","","","",""
"","","","","","image-keyboard-response","303","310812","0.0-278.0","5eb342dff78ab11407daf144","665500ab8938657b03fbdba8","66579332f7f57d35afea5b16","260","stimuli/00100000.jpg"," ","","feedback_trial","0","","","","","","","","","","","","","","","","","","","","",""
"","","","","","image-keyboard-response","304","311846","0.0-279.0","5eb342dff78ab11407daf144","665500ab8938657b03fbdba8","66579332f7f57d35afea5b16","1028","stimuli/0001111.jpg","2","","prediction_trial","0","","false","","0","false","false","true","true","false","false","[0]","001","111","0","","","","","","",""
"","","","","","image-keyboard-response","305","312227","0.0-280.0","5eb342dff78ab11407daf144","665500ab8938657b03fbdba8","66579332f7f57d35afea5b16","376","stimuli/00011110.jpg"," ","","feedback_trial","0","","","","","","","","","","","","","","","","","","","","",""
"","","","","","image-keyboard-response","306","313012","0.0-281.0","5eb342dff78ab11407daf144","665500ab8938657b03fbdba8","66579332f7f57d35afea5b16","781","stimuli/1000110.jpg","0","","prediction_trial","1","","false","","1","false","false","true","true","false","false","[1]","000","110","0","","","","","","",""
"","","","","","image-keyboard-response","307","313491","0.0-282.0","5eb342dff78ab11407daf144","665500ab8938657b03fbdba8","66579332f7f57d35afea5b16","474","stimuli/10001101.jpg"," ","","feedback_trial","1","","","","","","","","","","","","","","","","","","","","",""
"","","","","","image-keyboard-response","308","314519","0.0-283.0","5eb342dff78ab11407daf144","665500ab8938657b03fbdba8","66579332f7f57d35afea5b16","1024","stimuli/1111110.jpg","1","","prediction_trial","2","","false","","1","false","false","false","false","false","false","[2,1,0]","111","110","0","","","","","","",""
"","","","","","image-keyboard-response","309","314930","0.0-284.0","5eb342dff78ab11407daf144","665500ab8938657b03fbdba8","66579332f7f57d35afea5b16","406","stimuli/11111102.jpg"," ","","feedback_trial","2","","","","","","","","","","","","","","","","","","","","",""
"","","","","","image-keyboard-response","310","316947","0.0-285.0","5eb342dff78ab11407daf144","665500ab8938657b03fbdba8","66579332f7f57d35afea5b16","2012","stimuli/2100111.jpg","1","","prediction_trial","2","","false","","2","false","false","true","true","false","false","[2]","100","111","0","","","","","","",""
"","","","","","image-keyboard-response","311","317466","0.0-286.0","5eb342dff78ab11407daf144","665500ab8938657b03fbdba8","66579332f7f57d35afea5b16","515","stimuli/21001112.jpg"," ","","feedback_trial","2","","","","","","","","","","","","","","","","","","","","",""
"","","","","","image-keyboard-response","312","318582","0.0-287.0","5eb342dff78ab11407daf144","665500ab8938657b03fbdba8","66579332f7f57d35afea5b16","1111","stimuli/1110110.jpg","0","","prediction_trial","1","","false","","1","false","false","false","false","false","false","[1,0]","110","110","0","","","","","","",""
"","","","","","image-keyboard-response","313","318933","0.0-288.0","5eb342dff78ab11407daf144","665500ab8938657b03fbdba8","66579332f7f57d35afea5b16","339","stimuli/11101101.jpg"," ","","feedback_trial","1","","","","","","","","","","","","","","","","","","","","",""
"","","","","","image-keyboard-response","314","319594","0.0-289.0","5eb342dff78ab11407daf144","665500ab8938657b03fbdba8","66579332f7f57d35afea5b16","657","stimuli/0000010.jpg","0","","prediction_trial","0","","true","","0","true","true","true","true","true","true","[0]","000","010","1","","","","","","",""
"","","","","","image-keyboard-response","315","319870","0.0-290.0","5eb342dff78ab11407daf144","665500ab8938657b03fbdba8","66579332f7f57d35afea5b16","271","stimuli/00000100.jpg"," ","","feedback_trial","0","","","","","","","","","","","","","","","","","","","","",""
"","","","","","image-keyboard-response","316","320585","0.0-291.0","5eb342dff78ab11407daf144","665500ab8938657b03fbdba8","66579332f7f57d35afea5b16","710","stimuli/2100110.jpg","2","","prediction_trial","2","","true","","2","true","true","true","true","true","true","[2]","100","110","1","","","","","","",""
"","","","","","image-keyboard-response","317","320892","0.0-292.0","5eb342dff78ab11407daf144","665500ab8938657b03fbdba8","66579332f7f57d35afea5b16","303","stimuli/21001102.jpg"," ","","feedback_trial","2","","","","","","","","","","","","","","","","","","","","",""
"","","","","","survey-html-form","318","332799","0.0-293.0","5eb342dff78ab11407daf144","665500ab8938657b03fbdba8","66579332f7f57d35afea5b16","11906","","{""feedback"":"""",""age"":""24"",""gender"":""Female"",""other_gender"":"""",""race"":""Asian"",""other_race"":"""",""ethnicity"":""Non-Hispanic""}","","exit_survey","","","","","","","","","","","","","","","","","24","Non-Hispanic","Female","Asian","0.6736111111111112","0.6736111111111112"
