"success","timeout","failed_images","failed_audio","failed_video","trial_type","trial_index","time_elapsed","internal_node_id","prolific_id","prolific_study_id","prolific_session_id","rt","stimulus","response","view_history","trial","character_choice","stimulus_dict","accuracy","correct_response","ball_pos","ego_ball_visible","ego_can_infer","alter_ball_visible","alter_can_infer","collective_ball_visible","collective_can_infer","search_locations","alter_occluders","ego_occluders","accuracy_bool","feedback","age","ethnicity","gender","race","overall_accuracy","bonus"
"true","false","[]","[]","[]","preload","0","5171","0.0-0.0","5ddd54259be183036763f081","665500ab8938657b03fbdba8","665792a799081d55cdd36c18","","","","","","","","","","","","","","","","","","","","","","","","","","",""
"true","","","","","fullscreen","1","9058","0.0-1.0","5ddd54259be183036763f081","665500ab8938657b03fbdba8","665792a799081d55cdd36c18","","","","","","","","","","","","","","","","","","","","","","","","","","",""
"","","","","","html-button-response","2","49308","0.0-2.0","5ddd54259be183036763f081","665500ab8938657b03fbdba8","665792a799081d55cdd36c18","40248","<p><b>Consent Form</b></p> <div style=""text-align:left;background-color:lightgrey; padding:20px; max-width:900px;""><p>Please consider this information carefully before deciding whether to participate in this research.</p> <p>The purpose of this research is to examine which factors influence social judgment and decision-making. You will be asked to make judgements about individuals and actions in social scenarios. We are simply interested in your judgement. The study will take less than 1 hour to complete, and you will receive less than $20 on Prolific. Your compensation and time commitment are specified in the study description. There are no anticipated risks associated with participating in this study. The effects of participating should be comparable to those you would ordinarily experience from viewing a computer monitor and using a mouse or keyboard for a similar amount of time. At the end of the study, we will provide an explanation of the questions that motivate this line of research and will describe the potential implications. </p><p> Your participation in this study is completely voluntary and you may refuse to participate or you may choose to withdraw at any time without penalty or loss of benefits to you which are otherwise entitled. Your participation in this study will remain confidential. No personally identifiable information will be associated with your data. Also, all analyses of the data will be averaged across all the participants, so your individual responses will never be specifically analyzed. </p><p> If you have questions or concerns about your participation or payment, or want to request a summary of research findings, please contact Dr. Jonathan Phillips at Jonathan.S.Phillips@dartmouth.edu. </p><p> Please save a copy of this form for your records. </p><p><b>Agreement: </b>The nature and purpose of this research have been sufficiently explained and I agree to participate in this study. I understand that I am free to withdraw at any time without incurring any penalty. Please consent by clicking the button below to continue. Otherwise, please exit the study at any time. </p>","0","","","","","","","","","","","","","","","","","","","","","","","",""
"","","","","","instructions","3","134204","0.0-3.0-0.0","5ddd54259be183036763f081","665500ab8938657b03fbdba8","665792a799081d55cdd36c18","84894","","","[{""page_index"":0,""viewing_time"":3629},{""page_index"":1,""viewing_time"":7100},{""page_index"":2,""viewing_time"":3462},{""page_index"":3,""viewing_time"":5617},{""page_index"":4,""viewing_time"":4568},{""page_index"":5,""viewing_time"":6209},{""page_index"":6,""viewing_time"":5148},{""page_index"":7,""viewing_time"":4293},{""page_index"":8,""viewing_time"":6510},{""page_index"":9,""viewing_time"":3535},{""page_index"":10,""viewing_time"":15876},{""page_index"":11,""viewing_time"":10319},{""page_index"":12,""viewing_time"":7065},{""page_index"":13,""viewing_time"":1562}]","intro","","","","","","","","","","","","","","","","","","","","","",""
"","","","","","image-keyboard-response","4","137432","0.0-3.0-1.0","5ddd54259be183036763f081","665500ab8938657b03fbdba8","665792a799081d55cdd36c18","3223","stimuli/0011001.jpg","0","","prediction_practice","0","{""filepath"":""stimuli/0011001.jpg"",""ball_pos"":0,""ego_ball_visible"":true,""ego_can_infer"":true,""alter_ball_visible"":true,""alter_can_infer"":true,""collective_ball_visible"":true,""collective_can_infer"":true,""search_locations"":[0],""alter_occluders"":""011"",""ego_occluders"":""001""}","true","","","","","","","","","","","","","","","","","","",""
"","","","","","image-keyboard-response","5","138521","0.0-3.0-2.0","5ddd54259be183036763f081","665500ab8938657b03fbdba8","665792a799081d55cdd36c18","1087","stimuli/00110010.jpg"," ","","practrice_feedback","0","","","","","","","","","","","","","","","","","","","","",""
"","","","","","image-keyboard-response","6","143392","0.0-3.0-3.0","5ddd54259be183036763f081","665500ab8938657b03fbdba8","665792a799081d55cdd36c18","4869","stimuli/1110001.jpg","0","","prediction_practice","0","{""filepath"":""stimuli/1110001.jpg"",""ball_pos"":1,""ego_ball_visible"":true,""ego_can_infer"":true,""alter_ball_visible"":false,""alter_can_infer"":false,""collective_ball_visible"":false,""collective_can_infer"":false,""search_locations"":[0,1],""alter_occluders"":""110"",""ego_occluders"":""001""}","true","","","","","","","","","","","","","","","","","","",""
"","","","","","image-keyboard-response","7","145494","0.0-3.0-4.0","5ddd54259be183036763f081","665500ab8938657b03fbdba8","665792a799081d55cdd36c18","2100","stimuli/11100010.jpg"," ","","practrice_feedback","0","","","","","","","","","","","","","","","","","","","","",""
"","","","","","image-keyboard-response","8","148090","0.0-3.0-5.0","5ddd54259be183036763f081","665500ab8938657b03fbdba8","665792a799081d55cdd36c18","2593","stimuli/2101010.jpg","2","","prediction_practice","2","{""filepath"":""stimuli/2101010.jpg"",""ball_pos"":2,""ego_ball_visible"":true,""ego_can_infer"":true,""alter_ball_visible"":false,""alter_can_infer"":false,""collective_ball_visible"":false,""collective_can_infer"":false,""search_locations"":[2,0],""alter_occluders"":""101"",""ego_occluders"":""010""}","true","","","","","","","","","","","","","","","","","","",""
"","","","","","image-keyboard-response","9","149634","0.0-3.0-6.0","5ddd54259be183036763f081","665500ab8938657b03fbdba8","665792a799081d55cdd36c18","1541","stimuli/21010102.jpg"," ","","practrice_feedback","2","","","","","","","","","","","","","","","","","","","","",""
"","","","","","image-keyboard-response","10","279920","0.0-3.0-7.0","5ddd54259be183036763f081","665500ab8938657b03fbdba8","665792a799081d55cdd36c18","130284","stimuli/2110010.jpg","1","","prediction_practice","2","{""filepath"":""stimuli/2110010.jpg"",""ball_pos"":2,""ego_ball_visible"":true,""ego_can_infer"":true,""alter_ball_visible"":true,""alter_can_infer"":true,""collective_ball_visible"":true,""collective_can_infer"":true,""search_locations"":[2],""alter_occluders"":""110"",""ego_occluders"":""010""}","false","","","","","","","","","","","","","","","","","","",""
"","","","","","image-keyboard-response","11","283075","0.0-3.0-8.0","5ddd54259be183036763f081","665500ab8938657b03fbdba8","665792a799081d55cdd36c18","3152","stimuli/21100102.jpg"," ","","practrice_feedback","2","","","","","","","","","","","","","","","","","","","","",""
"","","","","","image-keyboard-response","12","289587","0.0-3.0-9.0","5ddd54259be183036763f081","665500ab8938657b03fbdba8","665792a799081d55cdd36c18","6509","stimuli/0000100.jpg","0","","prediction_practice","0","{""filepath"":""stimuli/0000100.jpg"",""ball_pos"":0,""ego_ball_visible"":false,""ego_can_infer"":true,""alter_ball_visible"":true,""alter_can_infer"":true,""collective_ball_visible"":false,""collective_can_infer"":true,""search_locations"":[0],""alter_occluders"":""000"",""ego_occluders"":""100""}","true","","","","","","","","","","","","","","","","","","",""
"","","","","","image-keyboard-response","13","291886","0.0-3.0-10.0","5ddd54259be183036763f081","665500ab8938657b03fbdba8","665792a799081d55cdd36c18","2285","stimuli/00001000.jpg"," ","","practrice_feedback","0","","","","","","","","","","","","","","","","","","","","",""
"","","","","","image-keyboard-response","14","297337","0.0-3.0-11.0","5ddd54259be183036763f081","665500ab8938657b03fbdba8","665792a799081d55cdd36c18","5449","stimuli/0001101.jpg","0","","prediction_practice","0","{""filepath"":""stimuli/0001101.jpg"",""ball_pos"":0,""ego_ball_visible"":false,""ego_can_infer"":false,""alter_ball_visible"":true,""alter_can_infer"":true,""collective_ball_visible"":false,""collective_can_infer"":false,""search_locations"":[0],""alter_occluders"":""001"",""ego_occluders"":""101""}","true","","","","","","","","","","","","","","","","","","",""
"","","","","","image-keyboard-response","15","298876","0.0-3.0-12.0","5ddd54259be183036763f081","665500ab8938657b03fbdba8","665792a799081d55cdd36c18","1537","stimuli/00011010.jpg"," ","","practrice_feedback","0","","","","","","","","","","","","","","","","","","","","",""
"","","","","","image-keyboard-response","16","301500","0.0-3.0-13.0","5ddd54259be183036763f081","665500ab8938657b03fbdba8","665792a799081d55cdd36c18","2623","stimuli/1010001.jpg","1","","prediction_practice","1","{""filepath"":""stimuli/1010001.jpg"",""ball_pos"":1,""ego_ball_visible"":true,""ego_can_infer"":true,""alter_ball_visible"":false,""alter_can_infer"":true,""collective_ball_visible"":false,""collective_can_infer"":true,""search_locations"":[1],""alter_occluders"":""010"",""ego_occluders"":""001""}","true","","","","","","","","","","","","","","","","","","",""
"","","","","","image-keyboard-response","17","302648","0.0-3.0-14.0","5ddd54259be183036763f081","665500ab8938657b03fbdba8","665792a799081d55cdd36c18","1146","stimuli/10100011.jpg"," ","","practrice_feedback","1","","","","","","","","","","","","","","","","","","","","",""
"","","","","","image-keyboard-response","18","304268","0.0-3.0-15.0","5ddd54259be183036763f081","665500ab8938657b03fbdba8","665792a799081d55cdd36c18","1617","stimuli/2110000.jpg","2","","prediction_practice","2","{""filepath"":""stimuli/2110000.jpg"",""ball_pos"":2,""ego_ball_visible"":true,""ego_can_infer"":true,""alter_ball_visible"":true,""alter_can_infer"":true,""collective_ball_visible"":true,""collective_can_infer"":true,""search_locations"":[2],""alter_occluders"":""110"",""ego_occluders"":""000""}","true","","","","","","","","","","","","","","","","","","",""
"","","","","","image-keyboard-response","19","304958","0.0-3.0-16.0","5ddd54259be183036763f081","665500ab8938657b03fbdba8","665792a799081d55cdd36c18","688","stimuli/21100002.jpg"," ","","practrice_feedback","2","","","","","","","","","","","","","","","","","","","","",""
"","","","","","image-keyboard-response","20","306911","0.0-3.0-17.0","5ddd54259be183036763f081","665500ab8938657b03fbdba8","665792a799081d55cdd36c18","1951","stimuli/1101111.jpg","0","","prediction_practice","1","{""filepath"":""stimuli/1101111.jpg"",""ball_pos"":1,""ego_ball_visible"":false,""ego_can_infer"":false,""alter_ball_visible"":true,""alter_can_infer"":true,""collective_ball_visible"":false,""collective_can_infer"":false,""search_locations"":[1],""alter_occluders"":""101"",""ego_occluders"":""111""}","false","","","","","","","","","","","","","","","","","","",""
"","","","","","image-keyboard-response","21","307914","0.0-3.0-18.0","5ddd54259be183036763f081","665500ab8938657b03fbdba8","665792a799081d55cdd36c18","1002","stimuli/11011111.jpg"," ","","practrice_feedback","1","","","","","","","","","","","","","","","","","","","","",""
"","","","","","image-keyboard-response","22","309019","0.0-3.0-19.0","5ddd54259be183036763f081","665500ab8938657b03fbdba8","665792a799081d55cdd36c18","1103","stimuli/2010010.jpg","2","","prediction_practice","2","{""filepath"":""stimuli/2010010.jpg"",""ball_pos"":2,""ego_ball_visible"":true,""ego_can_infer"":true,""alter_ball_visible"":true,""alter_can_infer"":true,""collective_ball_visible"":true,""collective_can_infer"":true,""search_locations"":[2],""alter_occluders"":""010"",""ego_occluders"":""010""}","true","","","","","","","","","","","","","","","","","","",""
"","","","","","image-keyboard-response","23","311182","0.0-3.0-20.0","5ddd54259be183036763f081","665500ab8938657b03fbdba8","665792a799081d55cdd36c18","2154","stimuli/20100102.jpg"," ","","practrice_feedback","2","","","","","","","","","","","","","","","","","","","","",""
"","","","","","html-button-response","24","315838","0.0-3.0-21.0","5ddd54259be183036763f081","665500ab8938657b03fbdba8","665792a799081d55cdd36c18","4654","Now that you've had some practice, you'll be tested with a couple of easy trials. If you correctly predict Sam's choice, you'll move on to complete the experiment!","0","","","","","","","","","","","","","","","","","","","","","","","",""
"","","","","","image-keyboard-response","25","316954","0.0-3.0-22.0-0.0","5ddd54259be183036763f081","665500ab8938657b03fbdba8","665792a799081d55cdd36c18","1114","stimuli/0000011.jpg","arrowleft","","comprehension_quiz","","","true","arrowleft","","","","","","","","","","","","","","","","","",""
"","","","","","image-keyboard-response","26","317732","0.0-3.0-22.0-1.0","5ddd54259be183036763f081","665500ab8938657b03fbdba8","665792a799081d55cdd36c18","775","stimuli/00000110.jpg"," ","","comprehension_quiz","","","true"," ","","","","","","","","","","","","","","","","","",""
"","","","","","image-keyboard-response","27","319256","0.0-3.0-22.0-2.0","5ddd54259be183036763f081","665500ab8938657b03fbdba8","665792a799081d55cdd36c18","1522","stimuli/1010010.jpg","arrowdown","","comprehension_quiz","","","true","arrowdown","","","","","","","","","","","","","","","","","",""
"","","","","","image-keyboard-response","28","319679","0.0-3.0-22.0-3.0","5ddd54259be183036763f081","665500ab8938657b03fbdba8","665792a799081d55cdd36c18","421","stimuli/10100101.jpg"," ","","comprehension_quiz","","","true"," ","","","","","","","","","","","","","","","","","",""
"","","","","","html-button-response","29","321162","0.0-4.0","5ddd54259be183036763f081","665500ab8938657b03fbdba8","665792a799081d55cdd36c18","1480","The experiment will now begin.","0","","","","","","","","","","","","","","","","","","","","","","","",""
"","","","","","image-keyboard-response","30","322393","0.0-5.0","5ddd54259be183036763f081","665500ab8938657b03fbdba8","665792a799081d55cdd36c18","1228","stimuli/0011100.jpg","0","","prediction_trial","0","","true","","0","false","true","true","true","false","true","[0]","011","100","1","","","","","","",""
"","","","","","image-keyboard-response","31","322701","0.0-6.0","5ddd54259be183036763f081","665500ab8938657b03fbdba8","665792a799081d55cdd36c18","306","stimuli/00111000.jpg"," ","","feedback_trial","0","","","","","","","","","","","","","","","","","","","","",""
"","","","","","image-keyboard-response","32","324180","0.0-7.0","5ddd54259be183036763f081","665500ab8938657b03fbdba8","665792a799081d55cdd36c18","1476","stimuli/0101101.jpg","2","","prediction_trial","0","","false","","0","false","false","false","false","false","false","[0,2]","101","101","0","","","","","","",""
"","","","","","image-keyboard-response","33","333359","0.0-8.0","5ddd54259be183036763f081","665500ab8938657b03fbdba8","665792a799081d55cdd36c18","9177","stimuli/01011010.jpg"," ","","feedback_trial","0","","","","","","","","","","","","","","","","","","","","",""
"","","","","","image-keyboard-response","34","334642","0.0-9.0","5ddd54259be183036763f081","665500ab8938657b03fbdba8","665792a799081d55cdd36c18","1281","stimuli/1100111.jpg","0","","prediction_trial","1","","false","","1","false","false","true","true","false","false","[1]","100","111","0","","","","","","",""
"","","","","","image-keyboard-response","35","335469","0.0-10.0","5ddd54259be183036763f081","665500ab8938657b03fbdba8","665792a799081d55cdd36c18","826","stimuli/11001111.jpg"," ","","feedback_trial","1","","","","","","","","","","","","","","","","","","","","",""
"","","","","","image-keyboard-response","36","336789","0.0-11.0","5ddd54259be183036763f081","665500ab8938657b03fbdba8","665792a799081d55cdd36c18","1318","stimuli/2000101.jpg","2","","prediction_trial","2","","true","","2","false","false","true","true","false","false","[2]","000","101","1","","","","","","",""
"","","","","","image-keyboard-response","37","337769","0.0-12.0","5ddd54259be183036763f081","665500ab8938657b03fbdba8","665792a799081d55cdd36c18","978","stimuli/20001012.jpg"," ","","feedback_trial","2","","","","","","","","","","","","","","","","","","","","",""
"","","","","","image-keyboard-response","38","344390","0.0-13.0","5ddd54259be183036763f081","665500ab8938657b03fbdba8","665792a799081d55cdd36c18","6618","stimuli/0001111.jpg","2","","prediction_trial","0","","false","","0","false","false","true","true","false","false","[0]","001","111","0","","","","","","",""
"","","","","","image-keyboard-response","39","345462","0.0-14.0","5ddd54259be183036763f081","665500ab8938657b03fbdba8","665792a799081d55cdd36c18","1071","stimuli/00011110.jpg"," ","","feedback_trial","0","","","","","","","","","","","","","","","","","","","","",""
"","","","","","image-keyboard-response","40","346793","0.0-15.0","5ddd54259be183036763f081","665500ab8938657b03fbdba8","665792a799081d55cdd36c18","1328","stimuli/0011111.jpg","0","","prediction_trial","0","","true","","0","false","false","true","true","false","false","[0]","011","111","1","","","","","","",""
"","","","","","image-keyboard-response","41","347320","0.0-16.0","5ddd54259be183036763f081","665500ab8938657b03fbdba8","665792a799081d55cdd36c18","525","stimuli/00111110.jpg"," ","","feedback_trial","0","","","","","","","","","","","","","","","","","","","","",""
"","","","","","image-keyboard-response","42","347978","0.0-17.0","5ddd54259be183036763f081","665500ab8938657b03fbdba8","665792a799081d55cdd36c18","657","stimuli/0001011.jpg","0","","prediction_trial","0","","true","","0","true","true","true","true","true","true","[0]","001","011","1","","","","","","",""
"","","","","","image-keyboard-response","43","348975","0.0-18.0","5ddd54259be183036763f081","665500ab8938657b03fbdba8","665792a799081d55cdd36c18","995","stimuli/00010110.jpg"," ","","feedback_trial","0","","","","","","","","","","","","","","","","","","","","",""
"","","","","","image-keyboard-response","44","351898","0.0-19.0","5ddd54259be183036763f081","665500ab8938657b03fbdba8","665792a799081d55cdd36c18","2921","stimuli/2110101.jpg","2","","prediction_trial","2","","true","","2","false","false","true","true","false","false","[2]","110","101","1","","","","","","",""
"","","","","","image-keyboard-response","45","352860","0.0-20.0","5ddd54259be183036763f081","665500ab8938657b03fbdba8","665792a799081d55cdd36c18","961","stimuli/21101012.jpg"," ","","feedback_trial","2","","","","","","","","","","","","","","","","","","","","",""
"","","","","","image-keyboard-response","46","353787","0.0-21.0","5ddd54259be183036763f081","665500ab8938657b03fbdba8","665792a799081d55cdd36c18","925","stimuli/0000110.jpg","1","","prediction_trial","0","","false","","0","false","false","true","true","false","false","[0]","000","110","0","","","","","","",""
"","","","","","image-keyboard-response","47","354569","0.0-22.0","5ddd54259be183036763f081","665500ab8938657b03fbdba8","665792a799081d55cdd36c18","780","stimuli/00001100.jpg"," ","","feedback_trial","0","","","","","","","","","","","","","","","","","","","","",""
"","","","","","image-keyboard-response","48","357014","0.0-23.0","5ddd54259be183036763f081","665500ab8938657b03fbdba8","665792a799081d55cdd36c18","2443","stimuli/1111110.jpg","0","","prediction_trial","0","","true","","1","false","false","false","false","false","false","[0,2,1]","111","110","1","","","","","","",""
"","","","","","image-keyboard-response","49","357701","0.0-24.0","5ddd54259be183036763f081","665500ab8938657b03fbdba8","665792a799081d55cdd36c18","684","stimuli/11111100.jpg"," ","","feedback_trial","0","","","","","","","","","","","","","","","","","","","","",""
"","","","","","image-keyboard-response","50","360566","0.0-25.0","5ddd54259be183036763f081","665500ab8938657b03fbdba8","665792a799081d55cdd36c18","2863","stimuli/1101110.jpg","1","","prediction_trial","1","","true","","1","false","false","true","true","false","false","[1]","101","110","1","","","","","","",""
"","","","","","image-keyboard-response","51","361322","0.0-26.0","5ddd54259be183036763f081","665500ab8938657b03fbdba8","665792a799081d55cdd36c18","754","stimuli/11011101.jpg"," ","","feedback_trial","1","","","","","","","","","","","","","","","","","","","","",""
"","","","","","image-keyboard-response","52","363027","0.0-27.0","5ddd54259be183036763f081","665500ab8938657b03fbdba8","665792a799081d55cdd36c18","1703","stimuli/0011110.jpg","0","","prediction_trial","0","","true","","0","false","false","true","true","false","false","[0]","011","110","1","","","","","","",""
"","","","","","image-keyboard-response","53","363762","0.0-28.0","5ddd54259be183036763f081","665500ab8938657b03fbdba8","665792a799081d55cdd36c18","733","stimuli/00111100.jpg"," ","","feedback_trial","0","","","","","","","","","","","","","","","","","","","","",""
"","","","","","image-keyboard-response","54","364446","0.0-29.0","5ddd54259be183036763f081","665500ab8938657b03fbdba8","665792a799081d55cdd36c18","682","stimuli/2011100.jpg","2","","prediction_trial","1","","false","","2","true","true","false","false","false","false","[2,1]","011","100","0","","","","","","",""
"","","","","","image-keyboard-response","55","367434","0.0-30.0","5ddd54259be183036763f081","665500ab8938657b03fbdba8","665792a799081d55cdd36c18","2981","stimuli/20111001.jpg"," ","","feedback_trial","2","","","","","","","","","","","","","","","","","","","","",""
"","","","","","image-keyboard-response","56","368295","0.0-31.0","5ddd54259be183036763f081","665500ab8938657b03fbdba8","665792a799081d55cdd36c18","860","stimuli/1101101.jpg","1","","prediction_trial","1","","true","","1","true","true","true","true","true","true","[1]","101","101","1","","","","","","",""
"","","","","","image-keyboard-response","57","368901","0.0-32.0","5ddd54259be183036763f081","665500ab8938657b03fbdba8","665792a799081d55cdd36c18","604","stimuli/11011011.jpg"," ","","feedback_trial","1","","","","","","","","","","","","","","","","","","","","",""
"","","","","","image-keyboard-response","58","370405","0.0-33.0","5ddd54259be183036763f081","665500ab8938657b03fbdba8","665792a799081d55cdd36c18","1502","stimuli/1110101.jpg","0","","prediction_trial","0","","true","","1","true","true","false","false","false","false","[0,1]","110","101","1","","","","","","",""
"","","","","","image-keyboard-response","59","371082","0.0-34.0","5ddd54259be183036763f081","665500ab8938657b03fbdba8","665792a799081d55cdd36c18","675","stimuli/11101010.jpg"," ","","feedback_trial","0","","","","","","","","","","","","","","","","","","","","",""
"","","","","","image-keyboard-response","60","373475","0.0-35.0","5ddd54259be183036763f081","665500ab8938657b03fbdba8","665792a799081d55cdd36c18","2392","stimuli/0110100.jpg","1","","prediction_trial","1","","true","","0","false","true","false","false","false","false","[1,0]","110","100","1","","","","","","",""
"","","","","","image-keyboard-response","61","374155","0.0-36.0","5ddd54259be183036763f081","665500ab8938657b03fbdba8","665792a799081d55cdd36c18","678","stimuli/01101001.jpg"," ","","feedback_trial","1","","","","","","","","","","","","","","","","","","","","",""
"","","","","","image-keyboard-response","62","375020","0.0-37.0","5ddd54259be183036763f081","665500ab8938657b03fbdba8","665792a799081d55cdd36c18","863","stimuli/1000100.jpg","1","","prediction_trial","1","","true","","1","true","true","true","true","true","true","[1]","000","100","1","","","","","","",""
"","","","","","image-keyboard-response","63","375644","0.0-38.0","5ddd54259be183036763f081","665500ab8938657b03fbdba8","665792a799081d55cdd36c18","624","stimuli/10001001.jpg"," ","","feedback_trial","1","","","","","","","","","","","","","","","","","","","","",""
"","","","","","image-keyboard-response","64","376538","0.0-39.0","5ddd54259be183036763f081","665500ab8938657b03fbdba8","665792a799081d55cdd36c18","892","stimuli/2000100.jpg","2","","prediction_trial","2","","true","","2","true","true","true","true","true","true","[2]","000","100","1","","","","","","",""
"","","","","","image-keyboard-response","65","377082","0.0-40.0","5ddd54259be183036763f081","665500ab8938657b03fbdba8","665792a799081d55cdd36c18","543","stimuli/20001002.jpg"," ","","feedback_trial","2","","","","","","","","","","","","","","","","","","","","",""
"","","","","","image-keyboard-response","66","378729","0.0-41.0","5ddd54259be183036763f081","665500ab8938657b03fbdba8","665792a799081d55cdd36c18","1645","stimuli/2001101.jpg","2","","prediction_trial","2","","true","","2","false","false","false","true","false","false","[2]","001","101","1","","","","","","",""
"","","","","","image-keyboard-response","67","379171","0.0-42.0","5ddd54259be183036763f081","665500ab8938657b03fbdba8","665792a799081d55cdd36c18","440","stimuli/20011012.jpg"," ","","feedback_trial","2","","","","","","","","","","","","","","","","","","","","",""
"","","","","","image-keyboard-response","68","380018","0.0-43.0","5ddd54259be183036763f081","665500ab8938657b03fbdba8","665792a799081d55cdd36c18","846","stimuli/1100000.jpg","1","","prediction_trial","1","","true","","1","true","true","true","true","true","true","[1]","100","000","1","","","","","","",""
"","","","","","image-keyboard-response","69","380616","0.0-44.0","5ddd54259be183036763f081","665500ab8938657b03fbdba8","665792a799081d55cdd36c18","596","stimuli/11000001.jpg"," ","","feedback_trial","1","","","","","","","","","","","","","","","","","","","","",""
"","","","","","image-keyboard-response","70","408906","0.0-45.0","5ddd54259be183036763f081","665500ab8938657b03fbdba8","665792a799081d55cdd36c18","28288","stimuli/2101110.jpg","0","","prediction_trial","0","","true","","2","true","true","false","false","false","false","[2,0]","101","110","1","","","","","","",""
"","","","","","image-keyboard-response","71","410145","0.0-46.0","5ddd54259be183036763f081","665500ab8938657b03fbdba8","665792a799081d55cdd36c18","1237","stimuli/21011100.jpg"," ","","feedback_trial","2","","","","","","","","","","","","","","","","","","","","",""
"","","","","","image-keyboard-response","72","411672","0.0-47.0","5ddd54259be183036763f081","665500ab8938657b03fbdba8","665792a799081d55cdd36c18","1526","stimuli/2101011.jpg","1","","prediction_trial","2","","false","","2","false","false","false","false","false","false","[0,2]","101","011","0","","","","","","",""
"","","","","","image-keyboard-response","73","412598","0.0-48.0","5ddd54259be183036763f081","665500ab8938657b03fbdba8","665792a799081d55cdd36c18","925","stimuli/21010112.jpg"," ","","feedback_trial","0","","","","","","","","","","","","","","","","","","","","",""
"","","","","","image-keyboard-response","74","413740","0.0-49.0","5ddd54259be183036763f081","665500ab8938657b03fbdba8","665792a799081d55cdd36c18","1140","stimuli/0101011.jpg","1","","prediction_trial","0","","false","","0","true","true","false","false","false","false","[0,2]","101","011","0","","","","","","",""
"","","","","","image-keyboard-response","75","415459","0.0-50.0","5ddd54259be183036763f081","665500ab8938657b03fbdba8","665792a799081d55cdd36c18","1711","stimuli/01010110.jpg"," ","","feedback_trial","0","","","","","","","","","","","","","","","","","","","","",""
"","","","","","image-keyboard-response","76","418867","0.0-51.0","5ddd54259be183036763f081","665500ab8938657b03fbdba8","665792a799081d55cdd36c18","3406","stimuli/0001000.jpg","0","","prediction_trial","0","","true","","0","true","true","true","true","true","true","[0]","001","000","1","","","","","","",""
"","","","","","image-keyboard-response","77","419618","0.0-52.0","5ddd54259be183036763f081","665500ab8938657b03fbdba8","665792a799081d55cdd36c18","749","stimuli/00010000.jpg"," ","","feedback_trial","0","","","","","","","","","","","","","","","","","","","","",""
"","","","","","image-keyboard-response","78","422083","0.0-53.0","5ddd54259be183036763f081","665500ab8938657b03fbdba8","665792a799081d55cdd36c18","2464","stimuli/2110011.jpg","1","","prediction_trial","2","","false","","2","false","false","true","true","false","false","[2]","110","011","0","","","","","","",""
"","","","","","image-keyboard-response","79","422754","0.0-54.0","5ddd54259be183036763f081","665500ab8938657b03fbdba8","665792a799081d55cdd36c18","669","stimuli/21100112.jpg"," ","","feedback_trial","2","","","","","","","","","","","","","","","","","","","","",""
"","","","","","image-keyboard-response","80","423592","0.0-55.0","5ddd54259be183036763f081","665500ab8938657b03fbdba8","665792a799081d55cdd36c18","836","stimuli/2010110.jpg","2","","prediction_trial","2","","true","","2","true","true","true","true","true","true","[2]","010","110","1","","","","","","",""
"","","","","","image-keyboard-response","81","424570","0.0-56.0","5ddd54259be183036763f081","665500ab8938657b03fbdba8","665792a799081d55cdd36c18","977","stimuli/20101102.jpg"," ","","feedback_trial","2","","","","","","","","","","","","","","","","","","","","",""
"","","","","","image-keyboard-response","82","425442","0.0-57.0","5ddd54259be183036763f081","665500ab8938657b03fbdba8","665792a799081d55cdd36c18","869","stimuli/0001010.jpg","0","","prediction_trial","0","","true","","0","true","true","true","true","true","true","[0]","001","010","1","","","","","","",""
"","","","","","image-keyboard-response","83","425901","0.0-58.0","5ddd54259be183036763f081","665500ab8938657b03fbdba8","665792a799081d55cdd36c18","458","stimuli/00010100.jpg"," ","","feedback_trial","0","","","","","","","","","","","","","","","","","","","","",""
"","","","","","image-keyboard-response","84","426668","0.0-59.0","5ddd54259be183036763f081","665500ab8938657b03fbdba8","665792a799081d55cdd36c18","765","stimuli/2100100.jpg","2","","prediction_trial","2","","true","","2","true","true","true","true","true","true","[2]","100","100","1","","","","","","",""
"","","","","","image-keyboard-response","85","427158","0.0-60.0","5ddd54259be183036763f081","665500ab8938657b03fbdba8","665792a799081d55cdd36c18","488","stimuli/21001002.jpg"," ","","feedback_trial","2","","","","","","","","","","","","","","","","","","","","",""
"","","","","","image-keyboard-response","86","428301","0.0-61.0","5ddd54259be183036763f081","665500ab8938657b03fbdba8","665792a799081d55cdd36c18","1140","stimuli/0001100.jpg","1","","prediction_trial","0","","false","","0","false","true","true","true","false","true","[0]","001","100","0","","","","","","",""
"","","","","","image-keyboard-response","87","428896","0.0-62.0","5ddd54259be183036763f081","665500ab8938657b03fbdba8","665792a799081d55cdd36c18","593","stimuli/00011000.jpg"," ","","feedback_trial","0","","","","","","","","","","","","","","","","","","","","",""
"","","","","","image-keyboard-response","88","430380","0.0-63.0","5ddd54259be183036763f081","665500ab8938657b03fbdba8","665792a799081d55cdd36c18","1483","stimuli/1111101.jpg","0","","prediction_trial","0","","true","","1","true","true","false","false","false","false","[2,1,0]","111","101","1","","","","","","",""
"","","","","","image-keyboard-response","89","431006","0.0-64.0","5ddd54259be183036763f081","665500ab8938657b03fbdba8","665792a799081d55cdd36c18","624","stimuli/11111010.jpg"," ","","feedback_trial","2","","","","","","","","","","","","","","","","","","","","",""
"","","","","","image-keyboard-response","90","432051","0.0-65.0","5ddd54259be183036763f081","665500ab8938657b03fbdba8","665792a799081d55cdd36c18","1044","stimuli/2001000.jpg","2","","prediction_trial","2","","true","","2","true","true","false","true","false","true","[2]","001","000","1","","","","","","",""
"","","","","","image-keyboard-response","91","432614","0.0-66.0","5ddd54259be183036763f081","665500ab8938657b03fbdba8","665792a799081d55cdd36c18","561","stimuli/20010002.jpg"," ","","feedback_trial","2","","","","","","","","","","","","","","","","","","","","",""
"","","","","","image-keyboard-response","92","437887","0.0-67.0","5ddd54259be183036763f081","665500ab8938657b03fbdba8","665792a799081d55cdd36c18","5271","stimuli/1100011.jpg","1","","prediction_trial","1","","true","","1","false","false","true","true","false","false","[1]","100","011","1","","","","","","",""
"","","","","","image-keyboard-response","93","438497","0.0-68.0","5ddd54259be183036763f081","665500ab8938657b03fbdba8","665792a799081d55cdd36c18","608","stimuli/11000111.jpg"," ","","feedback_trial","1","","","","","","","","","","","","","","","","","","","","",""
"","","","","","image-keyboard-response","94","440242","0.0-69.0","5ddd54259be183036763f081","665500ab8938657b03fbdba8","665792a799081d55cdd36c18","1744","stimuli/0111110.jpg","0","","prediction_trial","1","","false","","0","false","false","false","false","false","false","[0,2,1]","111","110","0","","","","","","",""
"","","","","","image-keyboard-response","95","441032","0.0-70.0","5ddd54259be183036763f081","665500ab8938657b03fbdba8","665792a799081d55cdd36c18","787","stimuli/01111101.jpg"," ","","feedback_trial","0","","","","","","","","","","","","","","","","","","","","",""
"","","","","","image-keyboard-response","96","442512","0.0-71.0","5ddd54259be183036763f081","665500ab8938657b03fbdba8","665792a799081d55cdd36c18","1478","stimuli/0111001.jpg","1","","prediction_trial","2","","false","","0","true","true","false","false","false","false","[2,1,0]","111","001","0","","","","","","",""
"","","","","","image-keyboard-response","97","443628","0.0-72.0","5ddd54259be183036763f081","665500ab8938657b03fbdba8","665792a799081d55cdd36c18","1114","stimuli/01110012.jpg"," ","","feedback_trial","2","","","","","","","","","","","","","","","","","","","","",""
"","","","","","image-keyboard-response","98","446518","0.0-73.0","5ddd54259be183036763f081","665500ab8938657b03fbdba8","665792a799081d55cdd36c18","2888","stimuli/2011111.jpg","1","","prediction_trial","1","","true","","2","false","false","false","false","false","false","[2,1]","011","111","1","","","","","","",""
"","","","","","image-keyboard-response","99","447291","0.0-74.0","5ddd54259be183036763f081","665500ab8938657b03fbdba8","665792a799081d55cdd36c18","771","stimuli/20111111.jpg"," ","","feedback_trial","2","","","","","","","","","","","","","","","","","","","","",""
"","","","","","image-keyboard-response","100","448284","0.0-75.0","5ddd54259be183036763f081","665500ab8938657b03fbdba8","665792a799081d55cdd36c18","991","stimuli/1101001.jpg","1","","prediction_trial","1","","true","","1","true","true","true","true","true","true","[1]","101","001","1","","","","","","",""
"","","","","","image-keyboard-response","101","449188","0.0-76.0","5ddd54259be183036763f081","665500ab8938657b03fbdba8","665792a799081d55cdd36c18","902","stimuli/11010011.jpg"," ","","feedback_trial","1","","","","","","","","","","","","","","","","","","","","",""
"","","","","","image-keyboard-response","102","450919","0.0-77.0","5ddd54259be183036763f081","665500ab8938657b03fbdba8","665792a799081d55cdd36c18","1730","stimuli/0110101.jpg","2","","prediction_trial","1","","false","","0","false","false","false","false","false","false","[0,1]","110","101","0","","","","","","",""
"","","","","","image-keyboard-response","103","451916","0.0-78.0","5ddd54259be183036763f081","665500ab8938657b03fbdba8","665792a799081d55cdd36c18","996","stimuli/01101011.jpg"," ","","feedback_trial","0","","","","","","","","","","","","","","","","","","","","",""
"","","","","","image-keyboard-response","104","455644","0.0-79.0","5ddd54259be183036763f081","665500ab8938657b03fbdba8","665792a799081d55cdd36c18","3726","stimuli/0010100.jpg","0","","prediction_trial","0","","true","","0","false","true","true","true","false","true","[0]","010","100","1","","","","","","",""
"","","","","","image-keyboard-response","105","456621","0.0-80.0","5ddd54259be183036763f081","665500ab8938657b03fbdba8","665792a799081d55cdd36c18","975","stimuli/00101000.jpg"," ","","feedback_trial","0","","","","","","","","","","","","","","","","","","","","",""
"","","","","","image-keyboard-response","106","457425","0.0-81.0","5ddd54259be183036763f081","665500ab8938657b03fbdba8","665792a799081d55cdd36c18","802","stimuli/0000000.jpg","0","","prediction_trial","0","","true","","0","true","true","true","true","true","true","[0]","000","000","1","","","","","","",""
"","","","","","image-keyboard-response","107","458177","0.0-82.0","5ddd54259be183036763f081","665500ab8938657b03fbdba8","665792a799081d55cdd36c18","749","stimuli/00000000.jpg"," ","","feedback_trial","0","","","","","","","","","","","","","","","","","","","","",""
"","","","","","image-keyboard-response","108","459802","0.0-83.0","5ddd54259be183036763f081","665500ab8938657b03fbdba8","665792a799081d55cdd36c18","1623","stimuli/2011101.jpg","1","","prediction_trial","1","","true","","2","false","false","false","false","false","false","[1,2]","011","101","1","","","","","","",""
"","","","","","image-keyboard-response","109","460517","0.0-84.0","5ddd54259be183036763f081","665500ab8938657b03fbdba8","665792a799081d55cdd36c18","714","stimuli/20111011.jpg"," ","","feedback_trial","1","","","","","","","","","","","","","","","","","","","","",""
"","","","","","image-keyboard-response","110","461352","0.0-85.0","5ddd54259be183036763f081","665500ab8938657b03fbdba8","665792a799081d55cdd36c18","832","stimuli/2110010.jpg","2","","prediction_trial","2","","true","","2","true","true","true","true","true","true","[2]","110","010","1","","","","","","",""
"","","","","","image-keyboard-response","111","461877","0.0-86.0","5ddd54259be183036763f081","665500ab8938657b03fbdba8","665792a799081d55cdd36c18","524","stimuli/21100102.jpg"," ","","feedback_trial","2","","","","","","","","","","","","","","","","","","","","",""
"","","","","","image-keyboard-response","112","463282","0.0-87.0","5ddd54259be183036763f081","665500ab8938657b03fbdba8","665792a799081d55cdd36c18","1403","stimuli/1010110.jpg","0","","prediction_trial","1","","false","","1","false","false","false","true","false","false","[1]","010","110","0","","","","","","",""
"","","","","","image-keyboard-response","113","463935","0.0-88.0","5ddd54259be183036763f081","665500ab8938657b03fbdba8","665792a799081d55cdd36c18","651","stimuli/10101101.jpg"," ","","feedback_trial","1","","","","","","","","","","","","","","","","","","","","",""
"","","","","","image-keyboard-response","114","464785","0.0-89.0","5ddd54259be183036763f081","665500ab8938657b03fbdba8","665792a799081d55cdd36c18","849","stimuli/2010010.jpg","2","","prediction_trial","2","","true","","2","true","true","true","true","true","true","[2]","010","010","1","","","","","","",""
"","","","","","image-keyboard-response","115","465312","0.0-90.0","5ddd54259be183036763f081","665500ab8938657b03fbdba8","665792a799081d55cdd36c18","525","stimuli/20100102.jpg"," ","","feedback_trial","2","","","","","","","","","","","","","","","","","","","","",""
"","","","","","image-keyboard-response","116","466819","0.0-91.0","5ddd54259be183036763f081","665500ab8938657b03fbdba8","665792a799081d55cdd36c18","1504","stimuli/1110100.jpg","0","","prediction_trial","1","","false","","1","true","true","false","false","false","false","[0,1]","110","100","0","","","","","","",""
"","","","","","image-keyboard-response","117","468093","0.0-92.0","5ddd54259be183036763f081","665500ab8938657b03fbdba8","665792a799081d55cdd36c18","1272","stimuli/11101001.jpg"," ","","feedback_trial","0","","","","","","","","","","","","","","","","","","","","",""
"","","","","","image-keyboard-response","118","469764","0.0-93.0","5ddd54259be183036763f081","665500ab8938657b03fbdba8","665792a799081d55cdd36c18","1669","stimuli/0100100.jpg","0","","prediction_trial","0","","true","","0","false","true","false","true","false","true","[0]","100","100","1","","","","","","",""
"","","","","","image-keyboard-response","119","470124","0.0-94.0","5ddd54259be183036763f081","665500ab8938657b03fbdba8","665792a799081d55cdd36c18","358","stimuli/01001000.jpg"," ","","feedback_trial","0","","","","","","","","","","","","","","","","","","","","",""
"","","","","","image-keyboard-response","120","471184","0.0-95.0","5ddd54259be183036763f081","665500ab8938657b03fbdba8","665792a799081d55cdd36c18","1057","stimuli/2010100.jpg","2","","prediction_trial","2","","true","","2","true","true","true","true","true","true","[2]","010","100","1","","","","","","",""
"","","","","","image-keyboard-response","121","471727","0.0-96.0","5ddd54259be183036763f081","665500ab8938657b03fbdba8","665792a799081d55cdd36c18","541","stimuli/20101002.jpg"," ","","feedback_trial","2","","","","","","","","","","","","","","","","","","","","",""
"","","","","","image-keyboard-response","122","472845","0.0-97.0","5ddd54259be183036763f081","665500ab8938657b03fbdba8","665792a799081d55cdd36c18","1116","stimuli/2001110.jpg","1","","prediction_trial","2","","false","","2","true","true","false","true","false","true","[2]","001","110","0","","","","","","",""
"","","","","","image-keyboard-response","123","473739","0.0-98.0","5ddd54259be183036763f081","665500ab8938657b03fbdba8","665792a799081d55cdd36c18","893","stimuli/20011102.jpg"," ","","feedback_trial","2","","","","","","","","","","","","","","","","","","","","",""
"","","","","","image-keyboard-response","124","477032","0.0-99.0","5ddd54259be183036763f081","665500ab8938657b03fbdba8","665792a799081d55cdd36c18","3290","stimuli/1000111.jpg","2","","prediction_trial","1","","false","","1","false","false","true","true","false","false","[1]","000","111","0","","","","","","",""
"","","","","","image-keyboard-response","125","477615","0.0-100.0","5ddd54259be183036763f081","665500ab8938657b03fbdba8","665792a799081d55cdd36c18","582","stimuli/10001111.jpg"," ","","feedback_trial","1","","","","","","","","","","","","","","","","","","","","",""
"","","","","","image-keyboard-response","126","478441","0.0-101.0","5ddd54259be183036763f081","665500ab8938657b03fbdba8","665792a799081d55cdd36c18","824","stimuli/1111010.jpg","1","","prediction_trial","1","","true","","1","false","true","false","false","false","false","[1,0,2]","111","010","1","","","","","","",""
"","","","","","image-keyboard-response","127","479310","0.0-102.0","5ddd54259be183036763f081","665500ab8938657b03fbdba8","665792a799081d55cdd36c18","867","stimuli/11110101.jpg"," ","","feedback_trial","1","","","","","","","","","","","","","","","","","","","","",""
"","","","","","image-keyboard-response","128","509340","0.0-103.0","5ddd54259be183036763f081","665500ab8938657b03fbdba8","665792a799081d55cdd36c18","30028","stimuli/2010111.jpg","1","","prediction_trial","2","","false","","2","false","false","true","true","false","false","[2]","010","111","0","","","","","","",""
"","","","","","image-keyboard-response","129","510891","0.0-104.0","5ddd54259be183036763f081","665500ab8938657b03fbdba8","665792a799081d55cdd36c18","1549","stimuli/20101112.jpg"," ","","feedback_trial","2","","","","","","","","","","","","","","","","","","","","",""
"","","","","","image-keyboard-response","130","511716","0.0-105.0","5ddd54259be183036763f081","665500ab8938657b03fbdba8","665792a799081d55cdd36c18","822","stimuli/0010010.jpg","0","","prediction_trial","0","","true","","0","true","true","true","true","true","true","[0]","010","010","1","","","","","","",""
"","","","","","image-keyboard-response","131","512129","0.0-106.0","5ddd54259be183036763f081","665500ab8938657b03fbdba8","665792a799081d55cdd36c18","410","stimuli/00100100.jpg"," ","","feedback_trial","0","","","","","","","","","","","","","","","","","","","","",""
"","","","","","image-keyboard-response","132","514166","0.0-107.0","5ddd54259be183036763f081","665500ab8938657b03fbdba8","665792a799081d55cdd36c18","2036","stimuli/1000110.jpg","1","","prediction_trial","1","","true","","1","false","false","true","true","false","false","[1]","000","110","1","","","","","","",""
"","","","","","image-keyboard-response","133","514826","0.0-108.0","5ddd54259be183036763f081","665500ab8938657b03fbdba8","665792a799081d55cdd36c18","658","stimuli/10001101.jpg"," ","","feedback_trial","1","","","","","","","","","","","","","","","","","","","","",""
"","","","","","image-keyboard-response","134","515428","0.0-109.0","5ddd54259be183036763f081","665500ab8938657b03fbdba8","665792a799081d55cdd36c18","600","stimuli/1001000.jpg","1","","prediction_trial","1","","true","","1","true","true","true","true","true","true","[1]","001","000","1","","","","","","",""
"","","","","","image-keyboard-response","135","515820","0.0-110.0","5ddd54259be183036763f081","665500ab8938657b03fbdba8","665792a799081d55cdd36c18","390","stimuli/10010001.jpg"," ","","feedback_trial","1","","","","","","","","","","","","","","","","","","","","",""
"","","","","","image-keyboard-response","136","517041","0.0-111.0","5ddd54259be183036763f081","665500ab8938657b03fbdba8","665792a799081d55cdd36c18","1219","stimuli/0100110.jpg","0","","prediction_trial","0","","true","","0","false","false","false","true","false","false","[0]","100","110","1","","","","","","",""
"","","","","","image-keyboard-response","137","517553","0.0-112.0","5ddd54259be183036763f081","665500ab8938657b03fbdba8","665792a799081d55cdd36c18","511","stimuli/01001100.jpg"," ","","feedback_trial","0","","","","","","","","","","","","","","","","","","","","",""
"","","","","","image-keyboard-response","138","518923","0.0-113.0","5ddd54259be183036763f081","665500ab8938657b03fbdba8","665792a799081d55cdd36c18","1369","stimuli/0100011.jpg","0","","prediction_trial","0","","true","","0","true","true","false","true","false","true","[0]","100","011","1","","","","","","",""
"","","","","","image-keyboard-response","139","519814","0.0-114.0","5ddd54259be183036763f081","665500ab8938657b03fbdba8","665792a799081d55cdd36c18","890","stimuli/01000110.jpg"," ","","feedback_trial","0","","","","","","","","","","","","","","","","","","","","",""
"","","","","","image-keyboard-response","140","520591","0.0-115.0","5ddd54259be183036763f081","665500ab8938657b03fbdba8","665792a799081d55cdd36c18","774","stimuli/2011010.jpg","2","","prediction_trial","1","","false","","2","true","true","false","false","false","false","[2,1]","011","010","0","","","","","","",""
"","","","","","image-keyboard-response","141","522707","0.0-116.0","5ddd54259be183036763f081","665500ab8938657b03fbdba8","665792a799081d55cdd36c18","2106","stimuli/20110101.jpg"," ","","feedback_trial","2","","","","","","","","","","","","","","","","","","","","",""
"","","","","","image-keyboard-response","142","524348","0.0-117.0","5ddd54259be183036763f081","665500ab8938657b03fbdba8","665792a799081d55cdd36c18","1640","stimuli/2111000.jpg","1","","prediction_trial","1","","true","","2","true","true","false","false","false","false","[2,1,0]","111","000","1","","","","","","",""
"","","","","","image-keyboard-response","143","525196","0.0-118.0","5ddd54259be183036763f081","665500ab8938657b03fbdba8","665792a799081d55cdd36c18","846","stimuli/21110001.jpg"," ","","feedback_trial","2","","","","","","","","","","","","","","","","","","","","",""
"","","","","","image-keyboard-response","144","526313","0.0-119.0","5ddd54259be183036763f081","665500ab8938657b03fbdba8","665792a799081d55cdd36c18","1115","stimuli/1000010.jpg","1","","prediction_trial","1","","true","","1","false","true","true","true","false","true","[1]","000","010","1","","","","","","",""
"","","","","","image-keyboard-response","145","526850","0.0-120.0","5ddd54259be183036763f081","665500ab8938657b03fbdba8","665792a799081d55cdd36c18","536","stimuli/10000101.jpg"," ","","feedback_trial","1","","","","","","","","","","","","","","","","","","","","",""
"","","","","","image-keyboard-response","146","528670","0.0-121.0","5ddd54259be183036763f081","665500ab8938657b03fbdba8","665792a799081d55cdd36c18","1818","stimuli/0010111.jpg","1","","prediction_trial","0","","false","","0","false","false","true","true","false","false","[0]","010","111","0","","","","","","",""
"","","","","","image-keyboard-response","147","529262","0.0-122.0","5ddd54259be183036763f081","665500ab8938657b03fbdba8","665792a799081d55cdd36c18","590","stimuli/00101110.jpg"," ","","feedback_trial","0","","","","","","","","","","","","","","","","","","","","",""
"","","","","","image-keyboard-response","148","529926","0.0-123.0","5ddd54259be183036763f081","665500ab8938657b03fbdba8","665792a799081d55cdd36c18","663","stimuli/0111000.jpg","0","","prediction_trial","2","","false","","0","true","true","false","false","false","false","[0,2,1]","111","000","0","","","","","","",""
"","","","","","image-keyboard-response","149","530740","0.0-124.0","5ddd54259be183036763f081","665500ab8938657b03fbdba8","665792a799081d55cdd36c18","812","stimuli/01110002.jpg"," ","","feedback_trial","0","","","","","","","","","","","","","","","","","","","","",""
"","","","","","image-keyboard-response","150","531683","0.0-125.0","5ddd54259be183036763f081","665500ab8938657b03fbdba8","665792a799081d55cdd36c18","941","stimuli/1101100.jpg","1","","prediction_trial","1","","true","","1","true","true","true","true","true","true","[1]","101","100","1","","","","","","",""
"","","","","","image-keyboard-response","151","532723","0.0-126.0","5ddd54259be183036763f081","665500ab8938657b03fbdba8","665792a799081d55cdd36c18","1038","stimuli/11011001.jpg"," ","","feedback_trial","1","","","","","","","","","","","","","","","","","","","","",""
"","","","","","image-keyboard-response","152","535249","0.0-127.0","5ddd54259be183036763f081","665500ab8938657b03fbdba8","665792a799081d55cdd36c18","2524","stimuli/2110000.jpg","2","","prediction_trial","2","","true","","2","true","true","true","true","true","true","[2]","110","000","1","","","","","","",""
"","","","","","image-keyboard-response","153","535843","0.0-128.0","5ddd54259be183036763f081","665500ab8938657b03fbdba8","665792a799081d55cdd36c18","592","stimuli/21100002.jpg"," ","","feedback_trial","2","","","","","","","","","","","","","","","","","","","","",""
"","","","","","image-keyboard-response","154","537914","0.0-129.0","5ddd54259be183036763f081","665500ab8938657b03fbdba8","665792a799081d55cdd36c18","2069","stimuli/1001010.jpg","1","","prediction_trial","1","","true","","1","false","true","true","true","false","true","[1]","001","010","1","","","","","","",""
"","","","","","image-keyboard-response","155","538498","0.0-130.0","5ddd54259be183036763f081","665500ab8938657b03fbdba8","665792a799081d55cdd36c18","582","stimuli/10010101.jpg"," ","","feedback_trial","1","","","","","","","","","","","","","","","","","","","","",""
"","","","","","image-keyboard-response","156","539437","0.0-131.0","5ddd54259be183036763f081","665500ab8938657b03fbdba8","665792a799081d55cdd36c18","937","stimuli/0000010.jpg","0","","prediction_trial","0","","true","","0","true","true","true","true","true","true","[0]","000","010","1","","","","","","",""
"","","","","","image-keyboard-response","157","539838","0.0-132.0","5ddd54259be183036763f081","665500ab8938657b03fbdba8","665792a799081d55cdd36c18","398","stimuli/00000100.jpg"," ","","feedback_trial","0","","","","","","","","","","","","","","","","","","","","",""
"","","","","","image-keyboard-response","158","541466","0.0-133.0","5ddd54259be183036763f081","665500ab8938657b03fbdba8","665792a799081d55cdd36c18","1627","stimuli/1001111.jpg","2","","prediction_trial","1","","false","","1","false","false","true","true","false","false","[1]","001","111","0","","","","","","",""
"","","","","","image-keyboard-response","159","542014","0.0-134.0","5ddd54259be183036763f081","665500ab8938657b03fbdba8","665792a799081d55cdd36c18","547","stimuli/10011111.jpg"," ","","feedback_trial","1","","","","","","","","","","","","","","","","","","","","",""
"","","","","","image-keyboard-response","160","542658","0.0-135.0","5ddd54259be183036763f081","665500ab8938657b03fbdba8","665792a799081d55cdd36c18","642","stimuli/0000011.jpg","0","","prediction_trial","0","","true","","0","true","true","true","true","true","true","[0]","000","011","1","","","","","","",""
"","","","","","image-keyboard-response","161","543080","0.0-136.0","5ddd54259be183036763f081","665500ab8938657b03fbdba8","665792a799081d55cdd36c18","421","stimuli/00000110.jpg"," ","","feedback_trial","0","","","","","","","","","","","","","","","","","","","","",""
"","","","","","image-keyboard-response","162","545183","0.0-137.0","5ddd54259be183036763f081","665500ab8938657b03fbdba8","665792a799081d55cdd36c18","2102","stimuli/1100110.jpg","0","","prediction_trial","1","","false","","1","false","false","true","true","false","false","[1]","100","110","0","","","","","","",""
"","","","","","image-keyboard-response","163","545842","0.0-138.0","5ddd54259be183036763f081","665500ab8938657b03fbdba8","665792a799081d55cdd36c18","657","stimuli/11001101.jpg"," ","","feedback_trial","1","","","","","","","","","","","","","","","","","","","","",""
"","","","","","image-keyboard-response","164","547945","0.0-139.0","5ddd54259be183036763f081","665500ab8938657b03fbdba8","665792a799081d55cdd36c18","2102","stimuli/1010011.jpg","1","","prediction_trial","1","","true","","1","false","false","false","true","false","false","[1]","010","011","1","","","","","","",""
"","","","","","image-keyboard-response","165","548518","0.0-140.0","5ddd54259be183036763f081","665500ab8938657b03fbdba8","665792a799081d55cdd36c18","571","stimuli/10100111.jpg"," ","","feedback_trial","1","","","","","","","","","","","","","","","","","","","","",""
"","","","","","image-keyboard-response","166","549670","0.0-141.0","5ddd54259be183036763f081","665500ab8938657b03fbdba8","665792a799081d55cdd36c18","1149","stimuli/1110111.jpg","0","","prediction_trial","0","","true","","1","false","false","false","false","false","false","[1,0]","110","111","1","","","","","","",""
"","","","","","image-keyboard-response","167","550232","0.0-142.0","5ddd54259be183036763f081","665500ab8938657b03fbdba8","665792a799081d55cdd36c18","561","stimuli/11101110.jpg"," ","","feedback_trial","1","","","","","","","","","","","","","","","","","","","","",""
"","","","","","image-keyboard-response","168","554135","0.0-143.0","5ddd54259be183036763f081","665500ab8938657b03fbdba8","665792a799081d55cdd36c18","3901","stimuli/0010101.jpg","0","","prediction_trial","0","","true","","0","false","false","true","true","false","false","[0]","010","101","1","","","","","","",""
"","","","","","image-keyboard-response","169","554680","0.0-144.0","5ddd54259be183036763f081","665500ab8938657b03fbdba8","665792a799081d55cdd36c18","543","stimuli/00101010.jpg"," ","","feedback_trial","0","","","","","","","","","","","","","","","","","","","","",""
"","","","","","image-keyboard-response","170","556165","0.0-145.0","5ddd54259be183036763f081","665500ab8938657b03fbdba8","665792a799081d55cdd36c18","1484","stimuli/2001100.jpg","2","","prediction_trial","2","","true","","2","true","true","false","true","false","true","[2]","001","100","1","","","","","","",""
"","","","","","image-keyboard-response","171","556579","0.0-146.0","5ddd54259be183036763f081","665500ab8938657b03fbdba8","665792a799081d55cdd36c18","413","stimuli/20011002.jpg"," ","","feedback_trial","2","","","","","","","","","","","","","","","","","","","","",""
"","","","","","image-keyboard-response","172","558756","0.0-147.0","5ddd54259be183036763f081","665500ab8938657b03fbdba8","665792a799081d55cdd36c18","2175","stimuli/2001011.jpg","2","","prediction_trial","2","","true","","2","false","false","false","true","false","false","[2]","001","011","1","","","","","","",""
"","","","","","image-keyboard-response","173","559267","0.0-148.0","5ddd54259be183036763f081","665500ab8938657b03fbdba8","665792a799081d55cdd36c18","510","stimuli/20010112.jpg"," ","","feedback_trial","2","","","","","","","","","","","","","","","","","","","","",""
"","","","","","image-keyboard-response","174","560059","0.0-149.0","5ddd54259be183036763f081","665500ab8938657b03fbdba8","665792a799081d55cdd36c18","791","stimuli/0001001.jpg","0","","prediction_trial","0","","true","","0","true","true","true","true","true","true","[0]","001","001","1","","","","","","",""
"","","","","","image-keyboard-response","175","560445","0.0-150.0","5ddd54259be183036763f081","665500ab8938657b03fbdba8","665792a799081d55cdd36c18","384","stimuli/00010010.jpg"," ","","feedback_trial","0","","","","","","","","","","","","","","","","","","","","",""
"","","","","","image-keyboard-response","176","562020","0.0-151.0","5ddd54259be183036763f081","665500ab8938657b03fbdba8","665792a799081d55cdd36c18","1573","stimuli/1011001.jpg","1","","prediction_trial","2","","false","","1","true","true","false","false","false","false","[1,2]","011","001","0","","","","","","",""
"","","","","","image-keyboard-response","177","562597","0.0-152.0","5ddd54259be183036763f081","665500ab8938657b03fbdba8","665792a799081d55cdd36c18","576","stimuli/10110012.jpg"," ","","feedback_trial","1","","","","","","","","","","","","","","","","","","","","",""
"","","","","","image-keyboard-response","178","563455","0.0-153.0","5ddd54259be183036763f081","665500ab8938657b03fbdba8","665792a799081d55cdd36c18","855","stimuli/0011000.jpg","0","","prediction_trial","0","","true","","0","true","true","true","true","true","true","[0]","011","000","1","","","","","","",""
"","","","","","image-keyboard-response","179","563948","0.0-154.0","5ddd54259be183036763f081","665500ab8938657b03fbdba8","665792a799081d55cdd36c18","491","stimuli/00110000.jpg"," ","","feedback_trial","0","","","","","","","","","","","","","","","","","","","","",""
"","","","","","image-keyboard-response","180","564807","0.0-155.0","5ddd54259be183036763f081","665500ab8938657b03fbdba8","665792a799081d55cdd36c18","858","stimuli/0011011.jpg","0","","prediction_trial","0","","true","","0","true","true","true","true","true","true","[0]","011","011","1","","","","","","",""
"","","","","","image-keyboard-response","181","565302","0.0-156.0","5ddd54259be183036763f081","665500ab8938657b03fbdba8","665792a799081d55cdd36c18","487","stimuli/00110110.jpg"," ","","feedback_trial","0","","","","","","","","","","","","","","","","","","","","",""
"","","","","","image-keyboard-response","182","566339","0.0-157.0","5ddd54259be183036763f081","665500ab8938657b03fbdba8","665792a799081d55cdd36c18","1035","stimuli/1010100.jpg","1","","prediction_trial","1","","true","","1","true","true","false","true","false","true","[1]","010","100","1","","","","","","",""
"","","","","","image-keyboard-response","183","566740","0.0-158.0","5ddd54259be183036763f081","665500ab8938657b03fbdba8","665792a799081d55cdd36c18","400","stimuli/10101001.jpg"," ","","feedback_trial","1","","","","","","","","","","","","","","","","","","","","",""
"","","","","","image-keyboard-response","184","568162","0.0-159.0","5ddd54259be183036763f081","665500ab8938657b03fbdba8","665792a799081d55cdd36c18","1420","stimuli/0110001.jpg","1","","prediction_trial","1","","true","","0","true","true","false","false","false","false","[0,1]","110","001","1","","","","","","",""
"","","","","","image-keyboard-response","185","568669","0.0-160.0","5ddd54259be183036763f081","665500ab8938657b03fbdba8","665792a799081d55cdd36c18","506","stimuli/01100011.jpg"," ","","feedback_trial","0","","","","","","","","","","","","","","","","","","","","",""
"","","","","","image-keyboard-response","186","570718","0.0-161.0","5ddd54259be183036763f081","665500ab8938657b03fbdba8","665792a799081d55cdd36c18","2048","stimuli/0001101.jpg","2","","prediction_trial","0","","false","","0","false","false","true","true","false","false","[0]","001","101","0","","","","","","",""
"","","","","","image-keyboard-response","187","571357","0.0-162.0","5ddd54259be183036763f081","665500ab8938657b03fbdba8","665792a799081d55cdd36c18","638","stimuli/00011010.jpg"," ","","feedback_trial","0","","","","","","","","","","","","","","","","","","","","",""
"","","","","","image-keyboard-response","188","572072","0.0-163.0","5ddd54259be183036763f081","665500ab8938657b03fbdba8","665792a799081d55cdd36c18","715","stimuli/0010000.jpg","0","","prediction_trial","0","","true","","0","true","true","true","true","true","true","[0]","010","000","1","","","","","","",""
"","","","","","image-keyboard-response","189","572453","0.0-164.0","5ddd54259be183036763f081","665500ab8938657b03fbdba8","665792a799081d55cdd36c18","379","stimuli/00100000.jpg"," ","","feedback_trial","0","","","","","","","","","","","","","","","","","","","","",""
"","","","","","image-keyboard-response","190","573932","0.0-165.0","5ddd54259be183036763f081","665500ab8938657b03fbdba8","665792a799081d55cdd36c18","1478","stimuli/1100010.jpg","1","","prediction_trial","1","","true","","1","false","true","true","true","false","true","[1]","100","010","1","","","","","","",""
"","","","","","image-keyboard-response","191","574493","0.0-166.0","5ddd54259be183036763f081","665500ab8938657b03fbdba8","665792a799081d55cdd36c18","559","stimuli/11000101.jpg"," ","","feedback_trial","1","","","","","","","","","","","","","","","","","","","","",""
"","","","","","image-keyboard-response","192","575653","0.0-167.0","5ddd54259be183036763f081","665500ab8938657b03fbdba8","665792a799081d55cdd36c18","1158","stimuli/0000101.jpg","2","","prediction_trial","0","","false","","0","false","false","true","true","false","false","[0]","000","101","0","","","","","","",""
"","","","","","image-keyboard-response","193","576301","0.0-168.0","5ddd54259be183036763f081","665500ab8938657b03fbdba8","665792a799081d55cdd36c18","646","stimuli/00001010.jpg"," ","","feedback_trial","0","","","","","","","","","","","","","","","","","","","","",""
"","","","","","image-keyboard-response","194","577771","0.0-169.0","5ddd54259be183036763f081","665500ab8938657b03fbdba8","665792a799081d55cdd36c18","1469","stimuli/0101100.jpg","0","","prediction_trial","0","","true","","0","false","true","false","false","false","false","[0,2]","101","100","1","","","","","","",""
"","","","","","image-keyboard-response","195","578191","0.0-170.0","5ddd54259be183036763f081","665500ab8938657b03fbdba8","665792a799081d55cdd36c18","418","stimuli/01011000.jpg"," ","","feedback_trial","0","","","","","","","","","","","","","","","","","","","","",""
"","","","","","image-keyboard-response","196","579920","0.0-171.0","5ddd54259be183036763f081","665500ab8938657b03fbdba8","665792a799081d55cdd36c18","1728","stimuli/1011101.jpg","1","","prediction_trial","1","","true","","1","true","true","false","false","false","false","[2,1]","011","101","1","","","","","","",""
"","","","","","image-keyboard-response","197","581035","0.0-172.0","5ddd54259be183036763f081","665500ab8938657b03fbdba8","665792a799081d55cdd36c18","1115","stimuli/10111011.jpg"," ","","feedback_trial","2","","","","","","","","","","","","","","","","","","","","",""
"","","","","","image-keyboard-response","198","582448","0.0-173.0","5ddd54259be183036763f081","665500ab8938657b03fbdba8","665792a799081d55cdd36c18","1411","stimuli/1000101.jpg","1","","prediction_trial","1","","true","","1","true","true","true","true","true","true","[1]","000","101","1","","","","","","",""
"","","","","","image-keyboard-response","199","583146","0.0-174.0","5ddd54259be183036763f081","665500ab8938657b03fbdba8","665792a799081d55cdd36c18","697","stimuli/10001011.jpg"," ","","feedback_trial","1","","","","","","","","","","","","","","","","","","","","",""
"","","","","","image-keyboard-response","200","584266","0.0-175.0","5ddd54259be183036763f081","665500ab8938657b03fbdba8","665792a799081d55cdd36c18","1118","stimuli/2100110.jpg","2","","prediction_trial","2","","true","","2","true","true","true","true","true","true","[2]","100","110","1","","","","","","",""
"","","","","","image-keyboard-response","201","584980","0.0-176.0","5ddd54259be183036763f081","665500ab8938657b03fbdba8","665792a799081d55cdd36c18","705","stimuli/21001102.jpg"," ","","feedback_trial","2","","","","","","","","","","","","","","","","","","","","",""
"","","","","","image-keyboard-response","202","587265","0.0-177.0","5ddd54259be183036763f081","665500ab8938657b03fbdba8","665792a799081d55cdd36c18","2283","stimuli/2101010.jpg","0","","prediction_trial","2","","false","","2","true","true","false","false","false","false","[2,0]","101","010","0","","","","","","",""
"","","","","","image-keyboard-response","203","587860","0.0-178.0","5ddd54259be183036763f081","665500ab8938657b03fbdba8","665792a799081d55cdd36c18","594","stimuli/21010102.jpg"," ","","feedback_trial","2","","","","","","","","","","","","","","","","","","","","",""
"","","","","","image-keyboard-response","204","590060","0.0-179.0","5ddd54259be183036763f081","665500ab8938657b03fbdba8","665792a799081d55cdd36c18","2198","stimuli/2011110.jpg","1","","prediction_trial","1","","true","","2","true","true","false","false","false","false","[2,1]","011","110","1","","","","","","",""
"","","","","","image-keyboard-response","205","590610","0.0-180.0","5ddd54259be183036763f081","665500ab8938657b03fbdba8","665792a799081d55cdd36c18","549","stimuli/20111101.jpg"," ","","feedback_trial","2","","","","","","","","","","","","","","","","","","","","",""
"","","","","","image-keyboard-response","206","593014","0.0-181.0","5ddd54259be183036763f081","665500ab8938657b03fbdba8","665792a799081d55cdd36c18","2402","stimuli/2100011.jpg","2","","prediction_trial","2","","true","","2","false","false","true","true","false","false","[2]","100","011","1","","","","","","",""
"","","","","","image-keyboard-response","207","593505","0.0-182.0","5ddd54259be183036763f081","665500ab8938657b03fbdba8","665792a799081d55cdd36c18","489","stimuli/21000112.jpg"," ","","feedback_trial","2","","","","","","","","","","","","","","","","","","","","",""
"","","","","","image-keyboard-response","208","596446","0.0-183.0","5ddd54259be183036763f081","665500ab8938657b03fbdba8","665792a799081d55cdd36c18","2939","stimuli/1110110.jpg","1","","prediction_trial","0","","false","","1","false","false","false","false","false","false","[1,0]","110","110","0","","","","","","",""
"","","","","","image-keyboard-response","209","596934","0.0-184.0","5ddd54259be183036763f081","665500ab8938657b03fbdba8","665792a799081d55cdd36c18","487","stimuli/11101100.jpg"," ","","feedback_trial","1","","","","","","","","","","","","","","","","","","","","",""
"","","","","","image-keyboard-response","210","598503","0.0-185.0","5ddd54259be183036763f081","665500ab8938657b03fbdba8","665792a799081d55cdd36c18","1566","stimuli/0100000.jpg","0","","prediction_trial","0","","true","","0","true","true","false","true","false","true","[0]","100","000","1","","","","","","",""
"","","","","","image-keyboard-response","211","598884","0.0-186.0","5ddd54259be183036763f081","665500ab8938657b03fbdba8","665792a799081d55cdd36c18","379","stimuli/01000000.jpg"," ","","feedback_trial","0","","","","","","","","","","","","","","","","","","","","",""
"","","","","","image-keyboard-response","212","600067","0.0-187.0","5ddd54259be183036763f081","665500ab8938657b03fbdba8","665792a799081d55cdd36c18","1181","stimuli/1010010.jpg","1","","prediction_trial","1","","true","","1","false","true","false","true","false","true","[1]","010","010","1","","","","","","",""
"","","","","","image-keyboard-response","213","600451","0.0-188.0","5ddd54259be183036763f081","665500ab8938657b03fbdba8","665792a799081d55cdd36c18","382","stimuli/10100101.jpg"," ","","feedback_trial","1","","","","","","","","","","","","","","","","","","","","",""
"","","","","","image-keyboard-response","214","602365","0.0-189.0","5ddd54259be183036763f081","665500ab8938657b03fbdba8","665792a799081d55cdd36c18","1912","stimuli/0101111.jpg","1","","prediction_trial","2","","false","","0","false","false","false","false","false","false","[2,0]","101","111","0","","","","","","",""
"","","","","","image-keyboard-response","215","602905","0.0-190.0","5ddd54259be183036763f081","665500ab8938657b03fbdba8","665792a799081d55cdd36c18","539","stimuli/01011112.jpg"," ","","feedback_trial","2","","","","","","","","","","","","","","","","","","","","",""
"","","","","","image-keyboard-response","216","603737","0.0-191.0","5ddd54259be183036763f081","665500ab8938657b03fbdba8","665792a799081d55cdd36c18","830","stimuli/2000110.jpg","2","","prediction_trial","2","","true","","2","true","true","true","true","true","true","[2]","000","110","1","","","","","","",""
"","","","","","image-keyboard-response","217","604119","0.0-192.0","5ddd54259be183036763f081","665500ab8938657b03fbdba8","665792a799081d55cdd36c18","380","stimuli/20001102.jpg"," ","","feedback_trial","2","","","","","","","","","","","","","","","","","","","","",""
"","","","","","image-keyboard-response","218","605389","0.0-193.0","5ddd54259be183036763f081","665500ab8938657b03fbdba8","665792a799081d55cdd36c18","1268","stimuli/1110011.jpg","0","","prediction_trial","0","","true","","1","false","false","false","false","false","false","[0,1]","110","011","1","","","","","","",""
"","","","","","image-keyboard-response","219","605769","0.0-194.0","5ddd54259be183036763f081","665500ab8938657b03fbdba8","665792a799081d55cdd36c18","379","stimuli/11100110.jpg"," ","","feedback_trial","0","","","","","","","","","","","","","","","","","","","","",""
"","","","","","image-keyboard-response","220","609117","0.0-195.0","5ddd54259be183036763f081","665500ab8938657b03fbdba8","665792a799081d55cdd36c18","3346","stimuli/2100001.jpg","0","","prediction_trial","2","","false","","2","false","true","true","true","false","true","[2]","100","001","0","","","","","","",""
"","","","","","image-keyboard-response","221","609869","0.0-196.0","5ddd54259be183036763f081","665500ab8938657b03fbdba8","665792a799081d55cdd36c18","743","stimuli/21000012.jpg"," ","","feedback_trial","2","","","","","","","","","","","","","","","","","","","","",""
"","","","","","image-keyboard-response","222","611095","0.0-197.0","5ddd54259be183036763f081","665500ab8938657b03fbdba8","665792a799081d55cdd36c18","1224","stimuli/1001100.jpg","1","","prediction_trial","1","","true","","1","true","true","true","true","true","true","[1]","001","100","1","","","","","","",""
"","","","","","image-keyboard-response","223","611618","0.0-198.0","5ddd54259be183036763f081","665500ab8938657b03fbdba8","665792a799081d55cdd36c18","521","stimuli/10011001.jpg"," ","","feedback_trial","1","","","","","","","","","","","","","","","","","","","","",""
"","","","","","image-keyboard-response","224","612505","0.0-199.0","5ddd54259be183036763f081","665500ab8938657b03fbdba8","665792a799081d55cdd36c18","885","stimuli/1000000.jpg","1","","prediction_trial","1","","true","","1","true","true","true","true","true","true","[1]","000","000","1","","","","","","",""
"","","","","","image-keyboard-response","225","613178","0.0-200.0","5ddd54259be183036763f081","665500ab8938657b03fbdba8","665792a799081d55cdd36c18","671","stimuli/10000001.jpg"," ","","feedback_trial","1","","","","","","","","","","","","","","","","","","","","",""
"","","","","","image-keyboard-response","226","614736","0.0-201.0","5ddd54259be183036763f081","665500ab8938657b03fbdba8","665792a799081d55cdd36c18","1556","stimuli/1101010.jpg","1","","prediction_trial","1","","true","","1","false","true","true","true","false","true","[1]","101","010","1","","","","","","",""
"","","","","","image-keyboard-response","227","615358","0.0-202.0","5ddd54259be183036763f081","665500ab8938657b03fbdba8","665792a799081d55cdd36c18","620","stimuli/11010101.jpg"," ","","feedback_trial","1","","","","","","","","","","","","","","","","","","","","",""
"","","","","","image-keyboard-response","228","617833","0.0-203.0","5ddd54259be183036763f081","665500ab8938657b03fbdba8","665792a799081d55cdd36c18","2472","stimuli/2011000.jpg","1","","prediction_trial","1","","true","","2","true","true","false","false","false","false","[1,2]","011","000","1","","","","","","",""
"","","","","","image-keyboard-response","229","618125","0.0-204.0","5ddd54259be183036763f081","665500ab8938657b03fbdba8","665792a799081d55cdd36c18","290","stimuli/20110001.jpg"," ","","feedback_trial","1","","","","","","","","","","","","","","","","","","","","",""
"","","","","","image-keyboard-response","230","620856","0.0-205.0","5ddd54259be183036763f081","665500ab8938657b03fbdba8","665792a799081d55cdd36c18","2729","stimuli/1001011.jpg","2","","prediction_trial","1","","false","","1","false","false","true","true","false","false","[1]","001","011","0","","","","","","",""
"","","","","","image-keyboard-response","231","621399","0.0-206.0","5ddd54259be183036763f081","665500ab8938657b03fbdba8","665792a799081d55cdd36c18","541","stimuli/10010111.jpg"," ","","feedback_trial","1","","","","","","","","","","","","","","","","","","","","",""
"","","","","","image-keyboard-response","232","622127","0.0-207.0","5ddd54259be183036763f081","665500ab8938657b03fbdba8","665792a799081d55cdd36c18","727","stimuli/1000001.jpg","1","","prediction_trial","1","","true","","1","true","true","true","true","true","true","[1]","000","001","1","","","","","","",""
"","","","","","image-keyboard-response","233","622514","0.0-208.0","5ddd54259be183036763f081","665500ab8938657b03fbdba8","665792a799081d55cdd36c18","385","stimuli/10000011.jpg"," ","","feedback_trial","1","","","","","","","","","","","","","","","","","","","","",""
"","","","","","image-keyboard-response","234","623508","0.0-209.0","5ddd54259be183036763f081","665500ab8938657b03fbdba8","665792a799081d55cdd36c18","992","stimuli/1000011.jpg","1","","prediction_trial","1","","true","","1","false","false","true","true","false","false","[1]","000","011","1","","","","","","",""
"","","","","","image-keyboard-response","235","623937","0.0-210.0","5ddd54259be183036763f081","665500ab8938657b03fbdba8","665792a799081d55cdd36c18","427","stimuli/10000111.jpg"," ","","feedback_trial","1","","","","","","","","","","","","","","","","","","","","",""
"","","","","","image-keyboard-response","236","625387","0.0-211.0","5ddd54259be183036763f081","665500ab8938657b03fbdba8","665792a799081d55cdd36c18","1448","stimuli/0100101.jpg","0","","prediction_trial","0","","true","","0","false","false","false","true","false","false","[0]","100","101","1","","","","","","",""
"","","","","","image-keyboard-response","237","625775","0.0-212.0","5ddd54259be183036763f081","665500ab8938657b03fbdba8","665792a799081d55cdd36c18","386","stimuli/01001010.jpg"," ","","feedback_trial","0","","","","","","","","","","","","","","","","","","","","",""
"","","","","","image-keyboard-response","238","627020","0.0-213.0","5ddd54259be183036763f081","665500ab8938657b03fbdba8","665792a799081d55cdd36c18","1243","stimuli/0111111.jpg","1","","prediction_trial","0","","false","","0","false","false","false","false","false","false","[2,1,0]","111","111","0","","","","","","",""
"","","","","","image-keyboard-response","239","627788","0.0-214.0","5ddd54259be183036763f081","665500ab8938657b03fbdba8","665792a799081d55cdd36c18","767","stimuli/01111110.jpg"," ","","feedback_trial","2","","","","","","","","","","","","","","","","","","","","",""
"","","","","","image-keyboard-response","240","629000","0.0-215.0","5ddd54259be183036763f081","665500ab8938657b03fbdba8","665792a799081d55cdd36c18","1210","stimuli/1010101.jpg","1","","prediction_trial","1","","true","","1","true","true","false","true","false","true","[1]","010","101","1","","","","","","",""
"","","","","","image-keyboard-response","241","629798","0.0-216.0","5ddd54259be183036763f081","665500ab8938657b03fbdba8","665792a799081d55cdd36c18","790","stimuli/10101011.jpg"," ","","feedback_trial","1","","","","","","","","","","","","","","","","","","","","",""
"","","","","","image-keyboard-response","242","631576","0.0-217.0","5ddd54259be183036763f081","665500ab8938657b03fbdba8","665792a799081d55cdd36c18","1775","stimuli/0100111.jpg","0","","prediction_trial","0","","true","","0","false","false","false","true","false","false","[0]","100","111","1","","","","","","",""
"","","","","","image-keyboard-response","243","632000","0.0-218.0","5ddd54259be183036763f081","665500ab8938657b03fbdba8","665792a799081d55cdd36c18","422","stimuli/01001110.jpg"," ","","feedback_trial","0","","","","","","","","","","","","","","","","","","","","",""
"","","","","","image-keyboard-response","244","634239","0.0-219.0","5ddd54259be183036763f081","665500ab8938657b03fbdba8","665792a799081d55cdd36c18","2238","stimuli/0101000.jpg","2","","prediction_trial","0","","false","","0","true","true","false","false","false","false","[0,2]","101","000","0","","","","","","",""
"","","","","","image-keyboard-response","245","634781","0.0-220.0","5ddd54259be183036763f081","665500ab8938657b03fbdba8","665792a799081d55cdd36c18","540","stimuli/01010000.jpg"," ","","feedback_trial","0","","","","","","","","","","","","","","","","","","","","",""
"","","","","","image-keyboard-response","246","635664","0.0-221.0","5ddd54259be183036763f081","665500ab8938657b03fbdba8","665792a799081d55cdd36c18","883","stimuli/2000000.jpg","2","","prediction_trial","2","","true","","2","true","true","true","true","true","true","[2]","000","000","1","","","","","","",""
"","","","","","image-keyboard-response","247","636155","0.0-222.0","5ddd54259be183036763f081","665500ab8938657b03fbdba8","665792a799081d55cdd36c18","490","stimuli/20000002.jpg"," ","","feedback_trial","2","","","","","","","","","","","","","","","","","","","","",""
"","","","","","image-keyboard-response","248","637365","0.0-223.0","5ddd54259be183036763f081","665500ab8938657b03fbdba8","665792a799081d55cdd36c18","1208","stimuli/2111011.jpg","1","","prediction_trial","2","","false","","2","false","false","false","false","false","false","[1,0,2]","111","011","0","","","","","","",""
"","","","","","image-keyboard-response","249","637751","0.0-224.0","5ddd54259be183036763f081","665500ab8938657b03fbdba8","665792a799081d55cdd36c18","384","stimuli/21110112.jpg"," ","","feedback_trial","1","","","","","","","","","","","","","","","","","","","","",""
"","","","","","image-keyboard-response","250","639903","0.0-225.0","5ddd54259be183036763f081","665500ab8938657b03fbdba8","665792a799081d55cdd36c18","2150","stimuli/0111010.jpg","1","","prediction_trial","0","","false","","0","true","true","false","false","false","false","[1,0,2]","111","010","0","","","","","","",""
"","","","","","image-keyboard-response","251","640392","0.0-226.0","5ddd54259be183036763f081","665500ab8938657b03fbdba8","665792a799081d55cdd36c18","488","stimuli/01110100.jpg"," ","","feedback_trial","1","","","","","","","","","","","","","","","","","","","","",""
"","","","","","image-keyboard-response","252","642539","0.0-227.0","5ddd54259be183036763f081","665500ab8938657b03fbdba8","665792a799081d55cdd36c18","2145","stimuli/0100010.jpg","0","","prediction_trial","0","","true","","0","true","true","false","true","false","true","[0]","100","010","1","","","","","","",""
"","","","","","image-keyboard-response","253","642999","0.0-228.0","5ddd54259be183036763f081","665500ab8938657b03fbdba8","665792a799081d55cdd36c18","457","stimuli/01000100.jpg"," ","","feedback_trial","0","","","","","","","","","","","","","","","","","","","","",""
"","","","","","image-keyboard-response","254","643989","0.0-229.0","5ddd54259be183036763f081","665500ab8938657b03fbdba8","665792a799081d55cdd36c18","989","stimuli/0000111.jpg","1","","prediction_trial","0","","false","","0","false","false","true","true","false","false","[0]","000","111","0","","","","","","",""
"","","","","","image-keyboard-response","255","644460","0.0-230.0","5ddd54259be183036763f081","665500ab8938657b03fbdba8","665792a799081d55cdd36c18","469","stimuli/00001110.jpg"," ","","feedback_trial","0","","","","","","","","","","","","","","","","","","","","",""
"","","","","","image-keyboard-response","256","645555","0.0-231.0","5ddd54259be183036763f081","665500ab8938657b03fbdba8","665792a799081d55cdd36c18","1093","stimuli/1010001.jpg","1","","prediction_trial","1","","true","","1","true","true","false","true","false","true","[1]","010","001","1","","","","","","",""
"","","","","","image-keyboard-response","257","645990","0.0-232.0","5ddd54259be183036763f081","665500ab8938657b03fbdba8","665792a799081d55cdd36c18","434","stimuli/10100011.jpg"," ","","feedback_trial","1","","","","","","","","","","","","","","","","","","","","",""
"","","","","","image-keyboard-response","258","648651","0.0-233.0","5ddd54259be183036763f081","665500ab8938657b03fbdba8","665792a799081d55cdd36c18","2659","stimuli/2111001.jpg","1","","prediction_trial","2","","false","","2","false","true","false","false","false","false","[0,1,2]","111","001","0","","","","","","",""
"","","","","","image-keyboard-response","259","649162","0.0-234.0","5ddd54259be183036763f081","665500ab8938657b03fbdba8","665792a799081d55cdd36c18","509","stimuli/21110012.jpg"," ","","feedback_trial","0","","","","","","","","","","","","","","","","","","","","",""
"","","","","","image-keyboard-response","260","650867","0.0-235.0","5ddd54259be183036763f081","665500ab8938657b03fbdba8","665792a799081d55cdd36c18","1703","stimuli/0111011.jpg","0","","prediction_trial","1","","false","","0","true","true","false","false","false","false","[0,1,2]","111","011","0","","","","","","",""
"","","","","","image-keyboard-response","261","651313","0.0-236.0","5ddd54259be183036763f081","665500ab8938657b03fbdba8","665792a799081d55cdd36c18","437","stimuli/01110111.jpg"," ","","feedback_trial","0","","","","","","","","","","","","","","","","","","","","",""
"","","","","","image-keyboard-response","262","652362","0.0-237.0","5ddd54259be183036763f081","665500ab8938657b03fbdba8","665792a799081d55cdd36c18","1047","stimuli/1011011.jpg","1","","prediction_trial","2","","false","","1","false","false","false","false","false","false","[1,2]","011","011","0","","","","","","",""
"","","","","","image-keyboard-response","263","652990","0.0-238.0","5ddd54259be183036763f081","665500ab8938657b03fbdba8","665792a799081d55cdd36c18","625","stimuli/10110112.jpg"," ","","feedback_trial","1","","","","","","","","","","","","","","","","","","","","",""
"","","","","","image-keyboard-response","264","654118","0.0-239.0","5ddd54259be183036763f081","665500ab8938657b03fbdba8","665792a799081d55cdd36c18","1126","stimuli/2111101.jpg","0","","prediction_trial","1","","false","","2","false","false","false","false","false","false","[0,1,2]","111","101","0","","","","","","",""
"","","","","","image-keyboard-response","265","654517","0.0-240.0","5ddd54259be183036763f081","665500ab8938657b03fbdba8","665792a799081d55cdd36c18","398","stimuli/21111011.jpg"," ","","feedback_trial","0","","","","","","","","","","","","","","","","","","","","",""
"","","","","","image-keyboard-response","266","656735","0.0-241.0","5ddd54259be183036763f081","665500ab8938657b03fbdba8","665792a799081d55cdd36c18","2216","stimuli/0000100.jpg","0","","prediction_trial","0","","true","","0","false","true","true","true","false","true","[0]","000","100","1","","","","","","",""
"","","","","","image-keyboard-response","267","657120","0.0-242.0","5ddd54259be183036763f081","665500ab8938657b03fbdba8","665792a799081d55cdd36c18","382","stimuli/00001000.jpg"," ","","feedback_trial","0","","","","","","","","","","","","","","","","","","","","",""
"","","","","","image-keyboard-response","268","658383","0.0-243.0","5ddd54259be183036763f081","665500ab8938657b03fbdba8","665792a799081d55cdd36c18","1261","stimuli/2101111.jpg","2","","prediction_trial","0","","false","","2","false","false","false","false","false","false","[0,2]","101","111","0","","","","","","",""
"","","","","","image-keyboard-response","269","658844","0.0-244.0","5ddd54259be183036763f081","665500ab8938657b03fbdba8","665792a799081d55cdd36c18","460","stimuli/21011110.jpg"," ","","feedback_trial","0","","","","","","","","","","","","","","","","","","","","",""
"","","","","","image-keyboard-response","270","659688","0.0-245.0","5ddd54259be183036763f081","665500ab8938657b03fbdba8","665792a799081d55cdd36c18","843","stimuli/1100001.jpg","1","","prediction_trial","1","","true","","1","true","true","true","true","true","true","[1]","100","001","1","","","","","","",""
"","","","","","image-keyboard-response","271","660086","0.0-246.0","5ddd54259be183036763f081","665500ab8938657b03fbdba8","665792a799081d55cdd36c18","396","stimuli/11000011.jpg"," ","","feedback_trial","1","","","","","","","","","","","","","","","","","","","","",""
"","","","","","image-keyboard-response","272","662972","0.0-247.0","5ddd54259be183036763f081","665500ab8938657b03fbdba8","665792a799081d55cdd36c18","2884","stimuli/0110111.jpg","2","","prediction_trial","1","","false","","0","false","false","false","false","false","false","[0,1]","110","111","0","","","","","","",""
"","","","","","image-keyboard-response","273","663426","0.0-248.0","5ddd54259be183036763f081","665500ab8938657b03fbdba8","665792a799081d55cdd36c18","452","stimuli/01101111.jpg"," ","","feedback_trial","0","","","","","","","","","","","","","","","","","","","","",""
"","","","","","image-keyboard-response","274","664596","0.0-249.0","5ddd54259be183036763f081","665500ab8938657b03fbdba8","665792a799081d55cdd36c18","1168","stimuli/0101001.jpg","0","","prediction_trial","2","","false","","0","true","true","false","false","false","false","[2,0]","101","001","0","","","","","","",""
"","","","","","image-keyboard-response","275","666015","0.0-250.0","5ddd54259be183036763f081","665500ab8938657b03fbdba8","665792a799081d55cdd36c18","1418","stimuli/01010012.jpg"," ","","feedback_trial","2","","","","","","","","","","","","","","","","","","","","",""
"","","","","","image-keyboard-response","276","667371","0.0-251.0","5ddd54259be183036763f081","665500ab8938657b03fbdba8","665792a799081d55cdd36c18","1354","stimuli/1111000.jpg","1","","prediction_trial","2","","false","","1","true","true","false","false","false","false","[1,2,0]","111","000","0","","","","","","",""
"","","","","","image-keyboard-response","277","667926","0.0-252.0","5ddd54259be183036763f081","665500ab8938657b03fbdba8","665792a799081d55cdd36c18","554","stimuli/11110002.jpg"," ","","feedback_trial","1","","","","","","","","","","","","","","","","","","","","",""
"","","","","","image-keyboard-response","278","671465","0.0-253.0","5ddd54259be183036763f081","665500ab8938657b03fbdba8","665792a799081d55cdd36c18","3537","stimuli/1001110.jpg","1","","prediction_trial","1","","true","","1","false","false","true","true","false","false","[1]","001","110","1","","","","","","",""
"","","","","","image-keyboard-response","279","671990","0.0-254.0","5ddd54259be183036763f081","665500ab8938657b03fbdba8","665792a799081d55cdd36c18","524","stimuli/10011101.jpg"," ","","feedback_trial","1","","","","","","","","","","","","","","","","","","","","",""
"","","","","","image-keyboard-response","280","673335","0.0-255.0","5ddd54259be183036763f081","665500ab8938657b03fbdba8","665792a799081d55cdd36c18","1343","stimuli/1101111.jpg","1","","prediction_trial","1","","true","","1","false","false","true","true","false","false","[1]","101","111","1","","","","","","",""
"","","","","","image-keyboard-response","281","673749","0.0-256.0","5ddd54259be183036763f081","665500ab8938657b03fbdba8","665792a799081d55cdd36c18","411","stimuli/11011111.jpg"," ","","feedback_trial","1","","","","","","","","","","","","","","","","","","","","",""
"","","","","","image-keyboard-response","282","674694","0.0-257.0","5ddd54259be183036763f081","665500ab8938657b03fbdba8","665792a799081d55cdd36c18","943","stimuli/2001001.jpg","2","","prediction_trial","2","","true","","2","false","true","false","true","false","true","[2]","001","001","1","","","","","","",""
"","","","","","image-keyboard-response","283","675136","0.0-258.0","5ddd54259be183036763f081","665500ab8938657b03fbdba8","665792a799081d55cdd36c18","440","stimuli/20010012.jpg"," ","","feedback_trial","2","","","","","","","","","","","","","","","","","","","","",""
"","","","","","image-keyboard-response","284","676922","0.0-259.0","5ddd54259be183036763f081","665500ab8938657b03fbdba8","665792a799081d55cdd36c18","1785","stimuli/2010001.jpg","2","","prediction_trial","2","","true","","2","false","true","true","true","false","true","[2]","010","001","1","","","","","","",""
"","","","","","image-keyboard-response","285","677335","0.0-260.0","5ddd54259be183036763f081","665500ab8938657b03fbdba8","665792a799081d55cdd36c18","411","stimuli/20100012.jpg"," ","","feedback_trial","2","","","","","","","","","","","","","","","","","","","","",""
"","","","","","image-keyboard-response","286","679610","0.0-261.0","5ddd54259be183036763f081","665500ab8938657b03fbdba8","665792a799081d55cdd36c18","2273","stimuli/0101010.jpg","0","","prediction_trial","2","","false","","0","true","true","false","false","false","false","[2,0]","101","010","0","","","","","","",""
"","","","","","image-keyboard-response","287","680074","0.0-262.0","5ddd54259be183036763f081","665500ab8938657b03fbdba8","665792a799081d55cdd36c18","463","stimuli/01010102.jpg"," ","","feedback_trial","2","","","","","","","","","","","","","","","","","","","","",""
"","","","","","image-keyboard-response","288","681406","0.0-263.0","5ddd54259be183036763f081","665500ab8938657b03fbdba8","665792a799081d55cdd36c18","1330","stimuli/2100111.jpg","0","","prediction_trial","2","","false","","2","false","false","true","true","false","false","[2]","100","111","0","","","","","","",""
"","","","","","image-keyboard-response","289","681885","0.0-264.0","5ddd54259be183036763f081","665500ab8938657b03fbdba8","665792a799081d55cdd36c18","477","stimuli/21001112.jpg"," ","","feedback_trial","2","","","","","","","","","","","","","","","","","","","","",""
"","","","","","image-keyboard-response","290","682710","0.0-265.0","5ddd54259be183036763f081","665500ab8938657b03fbdba8","665792a799081d55cdd36c18","823","stimuli/0000001.jpg","0","","prediction_trial","0","","true","","0","true","true","true","true","true","true","[0]","000","001","1","","","","","","",""
"","","","","","image-keyboard-response","291","683126","0.0-266.0","5ddd54259be183036763f081","665500ab8938657b03fbdba8","665792a799081d55cdd36c18","409","stimuli/00000010.jpg"," ","","feedback_trial","0","","","","","","","","","","","","","","","","","","","","",""
"","","","","","image-keyboard-response","292","684480","0.0-267.0","5ddd54259be183036763f081","665500ab8938657b03fbdba8","665792a799081d55cdd36c18","1352","stimuli/2111010.jpg","1","","prediction_trial","0","","false","","2","true","true","false","false","false","false","[0,2,1]","111","010","0","","","","","","",""
"","","","","","image-keyboard-response","293","684971","0.0-268.0","5ddd54259be183036763f081","665500ab8938657b03fbdba8","665792a799081d55cdd36c18","490","stimuli/21110100.jpg"," ","","feedback_trial","0","","","","","","","","","","","","","","","","","","","","",""
"","","","","","image-keyboard-response","294","685860","0.0-269.0","5ddd54259be183036763f081","665500ab8938657b03fbdba8","665792a799081d55cdd36c18","887","stimuli/1001001.jpg","1","","prediction_trial","1","","true","","1","true","true","true","true","true","true","[1]","001","001","1","","","","","","",""
"","","","","","image-keyboard-response","295","686270","0.0-270.0","5ddd54259be183036763f081","665500ab8938657b03fbdba8","665792a799081d55cdd36c18","408","stimuli/10010011.jpg"," ","","feedback_trial","1","","","","","","","","","","","","","","","","","","","","",""
"","","","","","image-keyboard-response","296","689643","0.0-271.0","5ddd54259be183036763f081","665500ab8938657b03fbdba8","665792a799081d55cdd36c18","3371","stimuli/1011010.jpg","1","","prediction_trial","2","","false","","1","false","true","false","false","false","false","[2,1]","011","010","0","","","","","","",""
"","","","","","image-keyboard-response","297","690309","0.0-272.0","5ddd54259be183036763f081","665500ab8938657b03fbdba8","665792a799081d55cdd36c18","664","stimuli/10110102.jpg"," ","","feedback_trial","2","","","","","","","","","","","","","","","","","","","","",""
"","","","","","image-keyboard-response","298","692367","0.0-273.0","5ddd54259be183036763f081","665500ab8938657b03fbdba8","665792a799081d55cdd36c18","2057","stimuli/2011001.jpg","2","","prediction_trial","1","","false","","2","false","true","false","false","false","false","[1,2]","011","001","0","","","","","","",""
"","","","","","image-keyboard-response","299","694383","0.0-274.0","5ddd54259be183036763f081","665500ab8938657b03fbdba8","665792a799081d55cdd36c18","2014","stimuli/20110011.jpg"," ","","feedback_trial","1","","","","","","","","","","","","","","","","","","","","",""
"","","","","","image-keyboard-response","300","696016","0.0-275.0","5ddd54259be183036763f081","665500ab8938657b03fbdba8","665792a799081d55cdd36c18","1631","stimuli/0010110.jpg","1","","prediction_trial","0","","false","","0","false","false","true","true","false","false","[0]","010","110","0","","","","","","",""
"","","","","","image-keyboard-response","301","696471","0.0-276.0","5ddd54259be183036763f081","665500ab8938657b03fbdba8","665792a799081d55cdd36c18","452","stimuli/00101100.jpg"," ","","feedback_trial","0","","","","","","","","","","","","","","","","","","","","",""
"","","","","","image-keyboard-response","302","698628","0.0-277.0","5ddd54259be183036763f081","665500ab8938657b03fbdba8","665792a799081d55cdd36c18","2155","stimuli/1110001.jpg","0","","prediction_trial","0","","true","","1","true","true","false","false","false","false","[0,1]","110","001","1","","","","","","",""
"","","","","","image-keyboard-response","303","698988","0.0-278.0","5ddd54259be183036763f081","665500ab8938657b03fbdba8","665792a799081d55cdd36c18","358","stimuli/11100010.jpg"," ","","feedback_trial","0","","","","","","","","","","","","","","","","","","","","",""
"","","","","","image-keyboard-response","304","699963","0.0-279.0","5ddd54259be183036763f081","665500ab8938657b03fbdba8","665792a799081d55cdd36c18","973","stimuli/2110110.jpg","2","","prediction_trial","2","","true","","2","true","true","true","true","true","true","[2]","110","110","1","","","","","","",""
"","","","","","image-keyboard-response","305","700330","0.0-280.0","5ddd54259be183036763f081","665500ab8938657b03fbdba8","665792a799081d55cdd36c18","366","stimuli/21101102.jpg"," ","","feedback_trial","2","","","","","","","","","","","","","","","","","","","","",""
"","","","","","image-keyboard-response","306","701798","0.0-281.0","5ddd54259be183036763f081","665500ab8938657b03fbdba8","665792a799081d55cdd36c18","1466","stimuli/2001010.jpg","2","","prediction_trial","2","","true","","2","true","true","false","true","false","true","[2]","001","010","1","","","","","","",""
"","","","","","image-keyboard-response","307","702210","0.0-282.0","5ddd54259be183036763f081","665500ab8938657b03fbdba8","665792a799081d55cdd36c18","410","stimuli/20010102.jpg"," ","","feedback_trial","2","","","","","","","","","","","","","","","","","","","","",""
"","","","","","image-keyboard-response","308","703090","0.0-283.0","5ddd54259be183036763f081","665500ab8938657b03fbdba8","665792a799081d55cdd36c18","878","stimuli/2111111.jpg","1","","prediction_trial","2","","false","","2","false","false","false","false","false","false","[2,1,0]","111","111","0","","","","","","",""
"","","","","","image-keyboard-response","309","703592","0.0-284.0","5ddd54259be183036763f081","665500ab8938657b03fbdba8","665792a799081d55cdd36c18","500","stimuli/21111112.jpg"," ","","feedback_trial","2","","","","","","","","","","","","","","","","","","","","",""
"","","","","","image-keyboard-response","310","704985","0.0-285.0","5ddd54259be183036763f081","665500ab8938657b03fbdba8","665792a799081d55cdd36c18","1391","stimuli/2001111.jpg","2","","prediction_trial","2","","true","","2","false","false","false","true","false","false","[2]","001","111","1","","","","","","",""
"","","","","","image-keyboard-response","311","705358","0.0-286.0","5ddd54259be183036763f081","665500ab8938657b03fbdba8","665792a799081d55cdd36c18","371","stimuli/20011112.jpg"," ","","feedback_trial","2","","","","","","","","","","","","","","","","","","","","",""
"","","","","","image-keyboard-response","312","706990","0.0-287.0","5ddd54259be183036763f081","665500ab8938657b03fbdba8","665792a799081d55cdd36c18","1629","stimuli/0110110.jpg","0","","prediction_trial","1","","false","","0","false","false","false","false","false","false","[0,1]","110","110","0","","","","","","",""
"","","","","","image-keyboard-response","313","707431","0.0-288.0","5ddd54259be183036763f081","665500ab8938657b03fbdba8","665792a799081d55cdd36c18","441","stimuli/01101101.jpg"," ","","feedback_trial","0","","","","","","","","","","","","","","","","","","","","",""
"","","","","","image-keyboard-response","314","708701","0.0-289.0","5ddd54259be183036763f081","665500ab8938657b03fbdba8","665792a799081d55cdd36c18","1269","stimuli/2111110.jpg","1","","prediction_trial","2","","false","","2","true","true","false","false","false","false","[1,0,2]","111","110","0","","","","","","",""
"","","","","","image-keyboard-response","315","709180","0.0-290.0","5ddd54259be183036763f081","665500ab8938657b03fbdba8","665792a799081d55cdd36c18","477","stimuli/21111102.jpg"," ","","feedback_trial","1","","","","","","","","","","","","","","","","","","","","",""
"","","","","","image-keyboard-response","316","711775","0.0-291.0","5ddd54259be183036763f081","665500ab8938657b03fbdba8","665792a799081d55cdd36c18","2594","stimuli/1110000.jpg","0","","prediction_trial","0","","true","","1","true","true","false","false","false","false","[1,0]","110","000","1","","","","","","",""
"","","","","","image-keyboard-response","317","712131","0.0-292.0","5ddd54259be183036763f081","665500ab8938657b03fbdba8","665792a799081d55cdd36c18","354","stimuli/11100000.jpg"," ","","feedback_trial","1","","","","","","","","","","","","","","","","","","","","",""
"","","","","","survey-html-form","318","729812","0.0-293.0","5ddd54259be183036763f081","665500ab8938657b03fbdba8","665792a799081d55cdd36c18","17677","","{""feedback"":"""",""age"":""37"",""gender"":""Female"",""other_gender"":"""",""race"":""White"",""other_race"":"""",""ethnicity"":""Non-Hispanic""}","","exit_survey","","","","","","","","","","","","","","","","","37","Non-Hispanic","Female","White","0.6388888888888888","0.6388888888888888"
