"success","timeout","failed_images","failed_audio","failed_video","trial_type","trial_index","time_elapsed","internal_node_id","prolific_id","prolific_study_id","prolific_session_id","rt","stimulus","response","view_history","trial","character_choice","stimulus_dict","accuracy","correct_response","ball_pos","ego_ball_visible","ego_can_infer","alter_ball_visible","alter_can_infer","collective_ball_visible","collective_can_infer","search_locations","alter_occluders","ego_occluders","accuracy_bool","feedback","age","ethnicity","gender","race","overall_accuracy","bonus"
"true","false","[]","[]","[]","preload","0","3751","0.0-0.0","642700bf265ab07308a02420","665500ab8938657b03fbdba8","6657929aea53e04216ff4831","","","","","","","","","","","","","","","","","","","","","","","","","","",""
"true","","","","","fullscreen","1","13307","0.0-1.0","642700bf265ab07308a02420","665500ab8938657b03fbdba8","6657929aea53e04216ff4831","","","","","","","","","","","","","","","","","","","","","","","","","","",""
"","","","","","html-button-response","2","74099","0.0-2.0","642700bf265ab07308a02420","665500ab8938657b03fbdba8","6657929aea53e04216ff4831","60787","<p><b>Consent Form</b></p> <div style=""text-align:left;background-color:lightgrey; padding:20px; max-width:900px;""><p>Please consider this information carefully before deciding whether to participate in this research.</p> <p>The purpose of this research is to examine which factors influence social judgment and decision-making. You will be asked to make judgements about individuals and actions in social scenarios. We are simply interested in your judgement. The study will take less than 1 hour to complete, and you will receive less than $20 on Prolific. Your compensation and time commitment are specified in the study description. There are no anticipated risks associated with participating in this study. The effects of participating should be comparable to those you would ordinarily experience from viewing a computer monitor and using a mouse or keyboard for a similar amount of time. At the end of the study, we will provide an explanation of the questions that motivate this line of research and will describe the potential implications. </p><p> Your participation in this study is completely voluntary and you may refuse to participate or you may choose to withdraw at any time without penalty or loss of benefits to you which are otherwise entitled. Your participation in this study will remain confidential. No personally identifiable information will be associated with your data. Also, all analyses of the data will be averaged across all the participants, so your individual responses will never be specifically analyzed. </p><p> If you have questions or concerns about your participation or payment, or want to request a summary of research findings, please contact Dr. Jonathan Phillips at Jonathan.S.Phillips@dartmouth.edu. </p><p> Please save a copy of this form for your records. </p><p><b>Agreement: </b>The nature and purpose of this research have been sufficiently explained and I agree to participate in this study. I understand that I am free to withdraw at any time without incurring any penalty. Please consent by clicking the button below to continue. Otherwise, please exit the study at any time. </p>","0","","","","","","","","","","","","","","","","","","","","","","","",""
"","","","","","instructions","3","214098","0.0-3.0-0.0","642700bf265ab07308a02420","665500ab8938657b03fbdba8","6657929aea53e04216ff4831","139991","","","[{""page_index"":0,""viewing_time"":3642},{""page_index"":1,""viewing_time"":5796},{""page_index"":2,""viewing_time"":4202},{""page_index"":3,""viewing_time"":8516},{""page_index"":4,""viewing_time"":5290},{""page_index"":5,""viewing_time"":6225},{""page_index"":6,""viewing_time"":6939},{""page_index"":7,""viewing_time"":7357},{""page_index"":8,""viewing_time"":8497},{""page_index"":9,""viewing_time"":4907},{""page_index"":10,""viewing_time"":40615},{""page_index"":11,""viewing_time"":21521},{""page_index"":12,""viewing_time"":13676},{""page_index"":13,""viewing_time"":2805}]","intro","","","","","","","","","","","","","","","","","","","","","",""
"","","","","","image-keyboard-response","4","216947","0.0-3.0-1.0","642700bf265ab07308a02420","665500ab8938657b03fbdba8","6657929aea53e04216ff4831","2838","stimuli/1000101.jpg","1","","prediction_practice","1","{""filepath"":""stimuli/1000101.jpg"",""ball_pos"":1,""ego_ball_visible"":true,""ego_can_infer"":true,""alter_ball_visible"":true,""alter_can_infer"":true,""collective_ball_visible"":true,""collective_can_infer"":true,""search_locations"":[1],""alter_occluders"":""000"",""ego_occluders"":""101""}","true","","","","","","","","","","","","","","","","","","",""
"","","","","","image-keyboard-response","5","219486","0.0-3.0-2.0","642700bf265ab07308a02420","665500ab8938657b03fbdba8","6657929aea53e04216ff4831","2535","stimuli/10001011.jpg"," ","","practrice_feedback","1","","","","","","","","","","","","","","","","","","","","",""
"","","","","","image-keyboard-response","6","221770","0.0-3.0-3.0","642700bf265ab07308a02420","665500ab8938657b03fbdba8","6657929aea53e04216ff4831","2265","stimuli/0010011.jpg","0","","prediction_practice","0","{""filepath"":""stimuli/0010011.jpg"",""ball_pos"":0,""ego_ball_visible"":true,""ego_can_infer"":true,""alter_ball_visible"":true,""alter_can_infer"":true,""collective_ball_visible"":true,""collective_can_infer"":true,""search_locations"":[0],""alter_occluders"":""010"",""ego_occluders"":""011""}","true","","","","","","","","","","","","","","","","","","",""
"","","","","","image-keyboard-response","7","223435","0.0-3.0-4.0","642700bf265ab07308a02420","665500ab8938657b03fbdba8","6657929aea53e04216ff4831","1662","stimuli/00100110.jpg"," ","","practrice_feedback","0","","","","","","","","","","","","","","","","","","","","",""
"","","","","","image-keyboard-response","8","224439","0.0-3.0-5.0","642700bf265ab07308a02420","665500ab8938657b03fbdba8","6657929aea53e04216ff4831","1001","stimuli/2010100.jpg","2","","prediction_practice","2","{""filepath"":""stimuli/2010100.jpg"",""ball_pos"":2,""ego_ball_visible"":true,""ego_can_infer"":true,""alter_ball_visible"":true,""alter_can_infer"":true,""collective_ball_visible"":true,""collective_can_infer"":true,""search_locations"":[2],""alter_occluders"":""010"",""ego_occluders"":""100""}","true","","","","","","","","","","","","","","","","","","",""
"","","","","","image-keyboard-response","9","225800","0.0-3.0-6.0","642700bf265ab07308a02420","665500ab8938657b03fbdba8","6657929aea53e04216ff4831","1344","stimuli/20101002.jpg"," ","","practrice_feedback","2","","","","","","","","","","","","","","","","","","","","",""
"","","","","","image-keyboard-response","10","227808","0.0-3.0-7.0","642700bf265ab07308a02420","665500ab8938657b03fbdba8","6657929aea53e04216ff4831","2006","stimuli/0001110.jpg","1","","prediction_practice","0","{""filepath"":""stimuli/0001110.jpg"",""ball_pos"":0,""ego_ball_visible"":false,""ego_can_infer"":false,""alter_ball_visible"":true,""alter_can_infer"":true,""collective_ball_visible"":false,""collective_can_infer"":false,""search_locations"":[0],""alter_occluders"":""001"",""ego_occluders"":""110""}","false","","","","","","","","","","","","","","","","","","",""
"","","","","","image-keyboard-response","11","229830","0.0-3.0-8.0","642700bf265ab07308a02420","665500ab8938657b03fbdba8","6657929aea53e04216ff4831","2019","stimuli/00011100.jpg"," ","","practrice_feedback","0","","","","","","","","","","","","","","","","","","","","",""
"","","","","","image-keyboard-response","12","3083605","0.0-3.0-9.0","642700bf265ab07308a02420","665500ab8938657b03fbdba8","6657929aea53e04216ff4831","2853704","stimuli/1001011.jpg","1","","prediction_practice","1","{""filepath"":""stimuli/1001011.jpg"",""ball_pos"":1,""ego_ball_visible"":false,""ego_can_infer"":false,""alter_ball_visible"":true,""alter_can_infer"":true,""collective_ball_visible"":false,""collective_can_infer"":false,""search_locations"":[1],""alter_occluders"":""001"",""ego_occluders"":""011""}","true","","","","","","","","","","","","","","","","","","",""
"","","","","","image-keyboard-response","13","3087084","0.0-3.0-10.0","642700bf265ab07308a02420","665500ab8938657b03fbdba8","6657929aea53e04216ff4831","3475","stimuli/10010111.jpg"," ","","practrice_feedback","1","","","","","","","","","","","","","","","","","","","","",""
"","","","","","image-keyboard-response","14","3089253","0.0-3.0-11.0","642700bf265ab07308a02420","665500ab8938657b03fbdba8","6657929aea53e04216ff4831","2167","stimuli/1010110.jpg","2","","prediction_practice","1","{""filepath"":""stimuli/1010110.jpg"",""ball_pos"":1,""ego_ball_visible"":false,""ego_can_infer"":false,""alter_ball_visible"":false,""alter_can_infer"":true,""collective_ball_visible"":false,""collective_can_infer"":false,""search_locations"":[1],""alter_occluders"":""010"",""ego_occluders"":""110""}","false","","","","","","","","","","","","","","","","","","",""
"","","","","","image-keyboard-response","15","3091709","0.0-3.0-12.0","642700bf265ab07308a02420","665500ab8938657b03fbdba8","6657929aea53e04216ff4831","2454","stimuli/10101101.jpg"," ","","practrice_feedback","1","","","","","","","","","","","","","","","","","","","","",""
"","","","","","image-keyboard-response","16","3094650","0.0-3.0-13.0","642700bf265ab07308a02420","665500ab8938657b03fbdba8","6657929aea53e04216ff4831","2939","stimuli/2101001.jpg","2","","prediction_practice","0","{""filepath"":""stimuli/2101001.jpg"",""ball_pos"":2,""ego_ball_visible"":false,""ego_can_infer"":true,""alter_ball_visible"":false,""alter_can_infer"":false,""collective_ball_visible"":false,""collective_can_infer"":false,""search_locations"":[2,0],""alter_occluders"":""101"",""ego_occluders"":""001""}","false","","","","","","","","","","","","","","","","","","",""
"","","","","","image-keyboard-response","17","3100533","0.0-3.0-14.0","642700bf265ab07308a02420","665500ab8938657b03fbdba8","6657929aea53e04216ff4831","5880","stimuli/21010010.jpg"," ","","practrice_feedback","2","","","","","","","","","","","","","","","","","","","","",""
"","","","","","image-keyboard-response","18","3105928","0.0-3.0-15.0","642700bf265ab07308a02420","665500ab8938657b03fbdba8","6657929aea53e04216ff4831","5393","stimuli/2001010.jpg","2","","prediction_practice","2","{""filepath"":""stimuli/2001010.jpg"",""ball_pos"":2,""ego_ball_visible"":true,""ego_can_infer"":true,""alter_ball_visible"":false,""alter_can_infer"":true,""collective_ball_visible"":false,""collective_can_infer"":true,""search_locations"":[2],""alter_occluders"":""001"",""ego_occluders"":""010""}","true","","","","","","","","","","","","","","","","","","",""
"","","","","","image-keyboard-response","19","3107370","0.0-3.0-16.0","642700bf265ab07308a02420","665500ab8938657b03fbdba8","6657929aea53e04216ff4831","1440","stimuli/20010102.jpg"," ","","practrice_feedback","2","","","","","","","","","","","","","","","","","","","","",""
"","","","","","image-keyboard-response","20","3108768","0.0-3.0-17.0","642700bf265ab07308a02420","665500ab8938657b03fbdba8","6657929aea53e04216ff4831","1396","stimuli/0000000.jpg","0","","prediction_practice","0","{""filepath"":""stimuli/0000000.jpg"",""ball_pos"":0,""ego_ball_visible"":true,""ego_can_infer"":true,""alter_ball_visible"":true,""alter_can_infer"":true,""collective_ball_visible"":true,""collective_can_infer"":true,""search_locations"":[0],""alter_occluders"":""000"",""ego_occluders"":""000""}","true","","","","","","","","","","","","","","","","","","",""
"","","","","","image-keyboard-response","21","3109317","0.0-3.0-18.0","642700bf265ab07308a02420","665500ab8938657b03fbdba8","6657929aea53e04216ff4831","547","stimuli/00000000.jpg"," ","","practrice_feedback","0","","","","","","","","","","","","","","","","","","","","",""
"","","","","","image-keyboard-response","22","3114165","0.0-3.0-19.0","642700bf265ab07308a02420","665500ab8938657b03fbdba8","6657929aea53e04216ff4831","4845","stimuli/0101100.jpg","0","","prediction_practice","2","{""filepath"":""stimuli/0101100.jpg"",""ball_pos"":0,""ego_ball_visible"":false,""ego_can_infer"":true,""alter_ball_visible"":false,""alter_can_infer"":false,""collective_ball_visible"":false,""collective_can_infer"":false,""search_locations"":[2,0],""alter_occluders"":""101"",""ego_occluders"":""100""}","false","","","","","","","","","","","","","","","","","","",""
"","","","","","image-keyboard-response","23","3115170","0.0-3.0-20.0","642700bf265ab07308a02420","665500ab8938657b03fbdba8","6657929aea53e04216ff4831","1003","stimuli/01011002.jpg"," ","","practrice_feedback","2","","","","","","","","","","","","","","","","","","","","",""
"","","","","","html-button-response","24","3123203","0.0-3.0-21.0","642700bf265ab07308a02420","665500ab8938657b03fbdba8","6657929aea53e04216ff4831","8031","Now that you've had some practice, you'll be tested with a couple of easy trials. If you correctly predict Sam's choice, you'll move on to complete the experiment!","0","","","","","","","","","","","","","","","","","","","","","","","",""
"","","","","","image-keyboard-response","25","3126632","0.0-3.0-22.0-0.0","642700bf265ab07308a02420","665500ab8938657b03fbdba8","6657929aea53e04216ff4831","3427","stimuli/0000011.jpg","arrowleft","","comprehension_quiz","","","true","arrowleft","","","","","","","","","","","","","","","","","",""
"","","","","","image-keyboard-response","26","3127737","0.0-3.0-22.0-1.0","642700bf265ab07308a02420","665500ab8938657b03fbdba8","6657929aea53e04216ff4831","1102","stimuli/00000110.jpg"," ","","comprehension_quiz","","","true"," ","","","","","","","","","","","","","","","","","",""
"","","","","","image-keyboard-response","27","3131266","0.0-3.0-22.0-2.0","642700bf265ab07308a02420","665500ab8938657b03fbdba8","6657929aea53e04216ff4831","3528","stimuli/1010010.jpg","arrowdown","","comprehension_quiz","","","true","arrowdown","","","","","","","","","","","","","","","","","",""
"","","","","","image-keyboard-response","28","3132272","0.0-3.0-22.0-3.0","642700bf265ab07308a02420","665500ab8938657b03fbdba8","6657929aea53e04216ff4831","1003","stimuli/10100101.jpg"," ","","comprehension_quiz","","","true"," ","","","","","","","","","","","","","","","","","",""
"","","","","","html-button-response","29","3134934","0.0-4.0","642700bf265ab07308a02420","665500ab8938657b03fbdba8","6657929aea53e04216ff4831","2658","The experiment will now begin.","0","","","","","","","","","","","","","","","","","","","","","","","",""
"","","","","","image-keyboard-response","30","3137424","0.0-5.0","642700bf265ab07308a02420","665500ab8938657b03fbdba8","6657929aea53e04216ff4831","2487","stimuli/2001010.jpg","2","","prediction_trial","2","","true","","2","true","true","false","true","false","true","[2]","001","010","1","","","","","","",""
"","","","","","image-keyboard-response","31","3138318","0.0-6.0","642700bf265ab07308a02420","665500ab8938657b03fbdba8","6657929aea53e04216ff4831","892","stimuli/20010102.jpg"," ","","feedback_trial","2","","","","","","","","","","","","","","","","","","","","",""
"","","","","","image-keyboard-response","32","3140892","0.0-7.0","642700bf265ab07308a02420","665500ab8938657b03fbdba8","6657929aea53e04216ff4831","2572","stimuli/0100001.jpg","0","","prediction_trial","0","","true","","0","true","true","false","true","false","true","[0]","100","001","1","","","","","","",""
"","","","","","image-keyboard-response","33","3141848","0.0-8.0","642700bf265ab07308a02420","665500ab8938657b03fbdba8","6657929aea53e04216ff4831","953","stimuli/01000010.jpg"," ","","feedback_trial","0","","","","","","","","","","","","","","","","","","","","",""
"","","","","","image-keyboard-response","34","3146435","0.0-9.0","642700bf265ab07308a02420","665500ab8938657b03fbdba8","6657929aea53e04216ff4831","4583","stimuli/0111001.jpg","0","","prediction_trial","0","","true","","0","true","true","false","false","false","false","[2,0,1]","111","001","1","","","","","","",""
"","","","","","image-keyboard-response","35","3147196","0.0-10.0","642700bf265ab07308a02420","665500ab8938657b03fbdba8","6657929aea53e04216ff4831","759","stimuli/01110010.jpg"," ","","feedback_trial","2","","","","","","","","","","","","","","","","","","","","",""
"","","","","","image-keyboard-response","36","3150329","0.0-11.0","642700bf265ab07308a02420","665500ab8938657b03fbdba8","6657929aea53e04216ff4831","3130","stimuli/1101110.jpg","1","","prediction_trial","1","","true","","1","false","false","true","true","false","false","[1]","101","110","1","","","","","","",""
"","","","","","image-keyboard-response","37","3151355","0.0-12.0","642700bf265ab07308a02420","665500ab8938657b03fbdba8","6657929aea53e04216ff4831","1024","stimuli/11011101.jpg"," ","","feedback_trial","1","","","","","","","","","","","","","","","","","","","","",""
"","","","","","image-keyboard-response","38","3153118","0.0-13.0","642700bf265ab07308a02420","665500ab8938657b03fbdba8","6657929aea53e04216ff4831","1760","stimuli/1000000.jpg","1","","prediction_trial","1","","true","","1","true","true","true","true","true","true","[1]","000","000","1","","","","","","",""
"","","","","","image-keyboard-response","39","3153819","0.0-14.0","642700bf265ab07308a02420","665500ab8938657b03fbdba8","6657929aea53e04216ff4831","700","stimuli/10000001.jpg"," ","","feedback_trial","1","","","","","","","","","","","","","","","","","","","","",""
"","","","","","image-keyboard-response","40","3156425","0.0-15.0","642700bf265ab07308a02420","665500ab8938657b03fbdba8","6657929aea53e04216ff4831","2604","stimuli/1001111.jpg","0","","prediction_trial","1","","false","","1","false","false","true","true","false","false","[1]","001","111","0","","","","","","",""
"","","","","","image-keyboard-response","41","3157382","0.0-16.0","642700bf265ab07308a02420","665500ab8938657b03fbdba8","6657929aea53e04216ff4831","954","stimuli/10011111.jpg"," ","","feedback_trial","1","","","","","","","","","","","","","","","","","","","","",""
"","","","","","image-keyboard-response","42","3162176","0.0-17.0","642700bf265ab07308a02420","665500ab8938657b03fbdba8","6657929aea53e04216ff4831","4793","stimuli/2001011.jpg","2","","prediction_trial","2","","true","","2","false","false","false","true","false","false","[2]","001","011","1","","","","","","",""
"","","","","","image-keyboard-response","43","3163141","0.0-18.0","642700bf265ab07308a02420","665500ab8938657b03fbdba8","6657929aea53e04216ff4831","962","stimuli/20010112.jpg"," ","","feedback_trial","2","","","","","","","","","","","","","","","","","","","","",""
"","","","","","image-keyboard-response","44","3167349","0.0-19.0","642700bf265ab07308a02420","665500ab8938657b03fbdba8","6657929aea53e04216ff4831","4206","stimuli/2110111.jpg","1","","prediction_trial","2","","false","","2","false","false","true","true","false","false","[2]","110","111","0","","","","","","",""
"","","","","","image-keyboard-response","45","3168254","0.0-20.0","642700bf265ab07308a02420","665500ab8938657b03fbdba8","6657929aea53e04216ff4831","888","stimuli/21101112.jpg"," ","","feedback_trial","2","","","","","","","","","","","","","","","","","","","","",""
"","","","","","image-keyboard-response","46","3171740","0.0-21.0","642700bf265ab07308a02420","665500ab8938657b03fbdba8","6657929aea53e04216ff4831","3484","stimuli/0100110.jpg","1","","prediction_trial","0","","false","","0","false","false","false","true","false","false","[0]","100","110","0","","","","","","",""
"","","","","","image-keyboard-response","47","3172969","0.0-22.0","642700bf265ab07308a02420","665500ab8938657b03fbdba8","6657929aea53e04216ff4831","1226","stimuli/01001100.jpg"," ","","feedback_trial","0","","","","","","","","","","","","","","","","","","","","",""
"","","","","","image-keyboard-response","48","3174915","0.0-23.0","642700bf265ab07308a02420","665500ab8938657b03fbdba8","6657929aea53e04216ff4831","1944","stimuli/0010000.jpg","0","","prediction_trial","0","","true","","0","true","true","true","true","true","true","[0]","010","000","1","","","","","","",""
"","","","","","image-keyboard-response","49","3175505","0.0-24.0","642700bf265ab07308a02420","665500ab8938657b03fbdba8","6657929aea53e04216ff4831","588","stimuli/00100000.jpg"," ","","feedback_trial","0","","","","","","","","","","","","","","","","","","","","",""
"","","","","","image-keyboard-response","50","3176741","0.0-25.0","642700bf265ab07308a02420","665500ab8938657b03fbdba8","6657929aea53e04216ff4831","1234","stimuli/0011001.jpg","0","","prediction_trial","0","","true","","0","true","true","true","true","true","true","[0]","011","001","1","","","","","","",""
"","","","","","image-keyboard-response","51","3177321","0.0-26.0","642700bf265ab07308a02420","665500ab8938657b03fbdba8","6657929aea53e04216ff4831","578","stimuli/00110010.jpg"," ","","feedback_trial","0","","","","","","","","","","","","","","","","","","","","",""
"","","","","","image-keyboard-response","52","3183000","0.0-27.0","642700bf265ab07308a02420","665500ab8938657b03fbdba8","6657929aea53e04216ff4831","5677","stimuli/1111100.jpg","1","","prediction_trial","2","","false","","1","true","true","false","false","false","false","[0,1,2]","111","100","0","","","","","","",""
"","","","","","image-keyboard-response","53","3183873","0.0-28.0","642700bf265ab07308a02420","665500ab8938657b03fbdba8","6657929aea53e04216ff4831","870","stimuli/11111002.jpg"," ","","feedback_trial","0","","","","","","","","","","","","","","","","","","","","",""
"","","","","","image-keyboard-response","54","3186621","0.0-29.0","642700bf265ab07308a02420","665500ab8938657b03fbdba8","6657929aea53e04216ff4831","2745","stimuli/2001001.jpg","2","","prediction_trial","2","","true","","2","false","true","false","true","false","true","[2]","001","001","1","","","","","","",""
"","","","","","image-keyboard-response","55","3187504","0.0-30.0","642700bf265ab07308a02420","665500ab8938657b03fbdba8","6657929aea53e04216ff4831","881","stimuli/20010012.jpg"," ","","feedback_trial","2","","","","","","","","","","","","","","","","","","","","",""
"","","","","","image-keyboard-response","56","3190647","0.0-31.0","642700bf265ab07308a02420","665500ab8938657b03fbdba8","6657929aea53e04216ff4831","3140","stimuli/0001100.jpg","0","","prediction_trial","0","","true","","0","false","true","true","true","false","true","[0]","001","100","1","","","","","","",""
"","","","","","image-keyboard-response","57","3191379","0.0-32.0","642700bf265ab07308a02420","665500ab8938657b03fbdba8","6657929aea53e04216ff4831","730","stimuli/00011000.jpg"," ","","feedback_trial","0","","","","","","","","","","","","","","","","","","","","",""
"","","","","","image-keyboard-response","58","3194473","0.0-33.0","642700bf265ab07308a02420","665500ab8938657b03fbdba8","6657929aea53e04216ff4831","3092","stimuli/0100101.jpg","2","","prediction_trial","0","","false","","0","false","false","false","true","false","false","[0]","100","101","0","","","","","","",""
"","","","","","image-keyboard-response","59","3195264","0.0-34.0","642700bf265ab07308a02420","665500ab8938657b03fbdba8","6657929aea53e04216ff4831","789","stimuli/01001010.jpg"," ","","feedback_trial","0","","","","","","","","","","","","","","","","","","","","",""
"","","","","","image-keyboard-response","60","3200284","0.0-35.0","642700bf265ab07308a02420","665500ab8938657b03fbdba8","6657929aea53e04216ff4831","5017","stimuli/1101111.jpg","1","","prediction_trial","1","","true","","1","false","false","true","true","false","false","[1]","101","111","1","","","","","","",""
"","","","","","image-keyboard-response","61","3201340","0.0-36.0","642700bf265ab07308a02420","665500ab8938657b03fbdba8","6657929aea53e04216ff4831","1054","stimuli/11011111.jpg"," ","","feedback_trial","1","","","","","","","","","","","","","","","","","","","","",""
"","","","","","image-keyboard-response","62","3204687","0.0-37.0","642700bf265ab07308a02420","665500ab8938657b03fbdba8","6657929aea53e04216ff4831","3345","stimuli/2111100.jpg","2","","prediction_trial","2","","true","","2","true","true","false","false","false","false","[0,2,1]","111","100","1","","","","","","",""
"","","","","","image-keyboard-response","63","3205621","0.0-38.0","642700bf265ab07308a02420","665500ab8938657b03fbdba8","6657929aea53e04216ff4831","931","stimuli/21111002.jpg"," ","","feedback_trial","0","","","","","","","","","","","","","","","","","","","","",""
"","","","","","image-keyboard-response","64","3208592","0.0-39.0","642700bf265ab07308a02420","665500ab8938657b03fbdba8","6657929aea53e04216ff4831","2967","stimuli/1001010.jpg","1","","prediction_trial","1","","true","","1","false","true","true","true","false","true","[1]","001","010","1","","","","","","",""
"","","","","","image-keyboard-response","65","3209395","0.0-40.0","642700bf265ab07308a02420","665500ab8938657b03fbdba8","6657929aea53e04216ff4831","799","stimuli/10010101.jpg"," ","","feedback_trial","1","","","","","","","","","","","","","","","","","","","","",""
"","","","","","image-keyboard-response","66","3211412","0.0-41.0","642700bf265ab07308a02420","665500ab8938657b03fbdba8","6657929aea53e04216ff4831","2015","stimuli/0001011.jpg","0","","prediction_trial","0","","true","","0","true","true","true","true","true","true","[0]","001","011","1","","","","","","",""
"","","","","","image-keyboard-response","67","3212012","0.0-42.0","642700bf265ab07308a02420","665500ab8938657b03fbdba8","6657929aea53e04216ff4831","598","stimuli/00010110.jpg"," ","","feedback_trial","0","","","","","","","","","","","","","","","","","","","","",""
"","","","","","image-keyboard-response","68","3214770","0.0-43.0","642700bf265ab07308a02420","665500ab8938657b03fbdba8","6657929aea53e04216ff4831","2756","stimuli/0110001.jpg","1","","prediction_trial","0","","false","","0","true","true","false","false","false","false","[1,0]","110","001","0","","","","","","",""
"","","","","","image-keyboard-response","69","3215612","0.0-44.0","642700bf265ab07308a02420","665500ab8938657b03fbdba8","6657929aea53e04216ff4831","839","stimuli/01100010.jpg"," ","","feedback_trial","1","","","","","","","","","","","","","","","","","","","","",""
"","","","","","image-keyboard-response","70","3219017","0.0-45.0","642700bf265ab07308a02420","665500ab8938657b03fbdba8","6657929aea53e04216ff4831","3388","stimuli/2100001.jpg","2","","prediction_trial","2","","true","","2","false","true","true","true","false","true","[2]","100","001","1","","","","","","",""
"","","","","","image-keyboard-response","71","3219749","0.0-46.0","642700bf265ab07308a02420","665500ab8938657b03fbdba8","6657929aea53e04216ff4831","730","stimuli/21000012.jpg"," ","","feedback_trial","2","","","","","","","","","","","","","","","","","","","","",""
"","","","","","image-keyboard-response","72","3222638","0.0-47.0","642700bf265ab07308a02420","665500ab8938657b03fbdba8","6657929aea53e04216ff4831","2887","stimuli/1001110.jpg","1","","prediction_trial","1","","true","","1","false","false","true","true","false","false","[1]","001","110","1","","","","","","",""
"","","","","","image-keyboard-response","73","3223806","0.0-48.0","642700bf265ab07308a02420","665500ab8938657b03fbdba8","6657929aea53e04216ff4831","1165","stimuli/10011101.jpg"," ","","feedback_trial","1","","","","","","","","","","","","","","","","","","","","",""
"","","","","","image-keyboard-response","74","3228947","0.0-49.0","642700bf265ab07308a02420","665500ab8938657b03fbdba8","6657929aea53e04216ff4831","5140","stimuli/0110101.jpg","0","","prediction_trial","1","","false","","0","false","false","false","false","false","false","[0,1]","110","101","0","","","","","","",""
"","","","","","image-keyboard-response","75","3229911","0.0-50.0","642700bf265ab07308a02420","665500ab8938657b03fbdba8","6657929aea53e04216ff4831","962","stimuli/01101011.jpg"," ","","feedback_trial","0","","","","","","","","","","","","","","","","","","","","",""
"","","","","","image-keyboard-response","76","3234372","0.0-51.0","642700bf265ab07308a02420","665500ab8938657b03fbdba8","6657929aea53e04216ff4831","4459","stimuli/1110100.jpg","1","","prediction_trial","1","","true","","1","true","true","false","false","false","false","[1,0]","110","100","1","","","","","","",""
"","","","","","image-keyboard-response","77","3235012","0.0-52.0","642700bf265ab07308a02420","665500ab8938657b03fbdba8","6657929aea53e04216ff4831","638","stimuli/11101001.jpg"," ","","feedback_trial","1","","","","","","","","","","","","","","","","","","","","",""
"","","","","","image-keyboard-response","78","3236583","0.0-53.0","642700bf265ab07308a02420","665500ab8938657b03fbdba8","6657929aea53e04216ff4831","1569","stimuli/2111101.jpg","2","","prediction_trial","0","","false","","2","false","false","false","false","false","false","[1,2,0]","111","101","0","","","","","","",""
"","","","","","image-keyboard-response","79","3237347","0.0-54.0","642700bf265ab07308a02420","665500ab8938657b03fbdba8","6657929aea53e04216ff4831","761","stimuli/21111010.jpg"," ","","feedback_trial","1","","","","","","","","","","","","","","","","","","","","",""
"","","","","","image-keyboard-response","80","3240875","0.0-55.0","642700bf265ab07308a02420","665500ab8938657b03fbdba8","6657929aea53e04216ff4831","3526","stimuli/0010100.jpg","0","","prediction_trial","0","","true","","0","false","true","true","true","false","true","[0]","010","100","1","","","","","","",""
"","","","","","image-keyboard-response","81","3241656","0.0-56.0","642700bf265ab07308a02420","665500ab8938657b03fbdba8","6657929aea53e04216ff4831","778","stimuli/00101000.jpg"," ","","feedback_trial","0","","","","","","","","","","","","","","","","","","","","",""
"","","","","","image-keyboard-response","82","3243055","0.0-57.0","642700bf265ab07308a02420","665500ab8938657b03fbdba8","6657929aea53e04216ff4831","1396","stimuli/2000100.jpg","2","","prediction_trial","2","","true","","2","true","true","true","true","true","true","[2]","000","100","1","","","","","","",""
"","","","","","image-keyboard-response","83","3243695","0.0-58.0","642700bf265ab07308a02420","665500ab8938657b03fbdba8","6657929aea53e04216ff4831","638","stimuli/20001002.jpg"," ","","feedback_trial","2","","","","","","","","","","","","","","","","","","","","",""
"","","","","","image-keyboard-response","84","3245053","0.0-59.0","642700bf265ab07308a02420","665500ab8938657b03fbdba8","6657929aea53e04216ff4831","1355","stimuli/2110000.jpg","2","","prediction_trial","2","","true","","2","true","true","true","true","true","true","[2]","110","000","1","","","","","","",""
"","","","","","image-keyboard-response","85","3245754","0.0-60.0","642700bf265ab07308a02420","665500ab8938657b03fbdba8","6657929aea53e04216ff4831","699","stimuli/21100002.jpg"," ","","feedback_trial","2","","","","","","","","","","","","","","","","","","","","",""
"","","","","","image-keyboard-response","86","3247730","0.0-61.0","642700bf265ab07308a02420","665500ab8938657b03fbdba8","6657929aea53e04216ff4831","1974","stimuli/0010101.jpg","0","","prediction_trial","0","","true","","0","false","false","true","true","false","false","[0]","010","101","1","","","","","","",""
"","","","","","image-keyboard-response","87","3248553","0.0-62.0","642700bf265ab07308a02420","665500ab8938657b03fbdba8","6657929aea53e04216ff4831","821","stimuli/00101010.jpg"," ","","feedback_trial","0","","","","","","","","","","","","","","","","","","","","",""
"","","","","","image-keyboard-response","88","3252854","0.0-63.0","642700bf265ab07308a02420","665500ab8938657b03fbdba8","6657929aea53e04216ff4831","4298","stimuli/1110010.jpg","1","","prediction_trial","1","","true","","1","false","true","false","false","false","false","[0,1]","110","010","1","","","","","","",""
"","","","","","image-keyboard-response","89","3253553","0.0-64.0","642700bf265ab07308a02420","665500ab8938657b03fbdba8","6657929aea53e04216ff4831","697","stimuli/11100101.jpg"," ","","feedback_trial","0","","","","","","","","","","","","","","","","","","","","",""
"","","","","","image-keyboard-response","90","3256523","0.0-65.0","642700bf265ab07308a02420","665500ab8938657b03fbdba8","6657929aea53e04216ff4831","2968","stimuli/1010010.jpg","1","","prediction_trial","1","","true","","1","false","true","false","true","false","true","[1]","010","010","1","","","","","","",""
"","","","","","image-keyboard-response","91","3257033","0.0-66.0","642700bf265ab07308a02420","665500ab8938657b03fbdba8","6657929aea53e04216ff4831","507","stimuli/10100101.jpg"," ","","feedback_trial","1","","","","","","","","","","","","","","","","","","","","",""
"","","","","","image-keyboard-response","92","3258003","0.0-67.0","642700bf265ab07308a02420","665500ab8938657b03fbdba8","6657929aea53e04216ff4831","968","stimuli/0010010.jpg","0","","prediction_trial","0","","true","","0","true","true","true","true","true","true","[0]","010","010","1","","","","","","",""
"","","","","","image-keyboard-response","93","3258472","0.0-68.0","642700bf265ab07308a02420","665500ab8938657b03fbdba8","6657929aea53e04216ff4831","468","stimuli/00100100.jpg"," ","","feedback_trial","0","","","","","","","","","","","","","","","","","","","","",""
"","","","","","image-keyboard-response","94","3260286","0.0-69.0","642700bf265ab07308a02420","665500ab8938657b03fbdba8","6657929aea53e04216ff4831","1812","stimuli/0101011.jpg","0","","prediction_trial","2","","false","","0","true","true","false","false","false","false","[2,0]","101","011","0","","","","","","",""
"","","","","","image-keyboard-response","95","3261059","0.0-70.0","642700bf265ab07308a02420","665500ab8938657b03fbdba8","6657929aea53e04216ff4831","770","stimuli/01010112.jpg"," ","","feedback_trial","2","","","","","","","","","","","","","","","","","","","","",""
"","","","","","image-keyboard-response","96","3261930","0.0-71.0","642700bf265ab07308a02420","665500ab8938657b03fbdba8","6657929aea53e04216ff4831","853","stimuli/0001000.jpg","0","","prediction_trial","0","","true","","0","true","true","true","true","true","true","[0]","001","000","1","","","","","","",""
"","","","","","image-keyboard-response","97","3262418","0.0-72.0","642700bf265ab07308a02420","665500ab8938657b03fbdba8","6657929aea53e04216ff4831","486","stimuli/00010000.jpg"," ","","feedback_trial","0","","","","","","","","","","","","","","","","","","","","",""
"","","","","","image-keyboard-response","98","3265258","0.0-73.0","642700bf265ab07308a02420","665500ab8938657b03fbdba8","6657929aea53e04216ff4831","2837","stimuli/0101100.jpg","0","","prediction_trial","0","","true","","0","false","true","false","false","false","false","[2,0]","101","100","1","","","","","","",""
"","","","","","image-keyboard-response","99","3265897","0.0-74.0","642700bf265ab07308a02420","665500ab8938657b03fbdba8","6657929aea53e04216ff4831","637","stimuli/01011000.jpg"," ","","feedback_trial","2","","","","","","","","","","","","","","","","","","","","",""
"","","","","","image-keyboard-response","100","3268004","0.0-75.0","642700bf265ab07308a02420","665500ab8938657b03fbdba8","6657929aea53e04216ff4831","2106","stimuli/1110111.jpg","2","","prediction_trial","1","","false","","1","false","false","false","false","false","false","[0,1]","110","111","0","","","","","","",""
"","","","","","image-keyboard-response","101","3269205","0.0-76.0","642700bf265ab07308a02420","665500ab8938657b03fbdba8","6657929aea53e04216ff4831","1196","stimuli/11101111.jpg"," ","","feedback_trial","0","","","","","","","","","","","","","","","","","","","","",""
"","","","","","image-keyboard-response","102","3272094","0.0-77.0","642700bf265ab07308a02420","665500ab8938657b03fbdba8","6657929aea53e04216ff4831","2887","stimuli/0001111.jpg","1","","prediction_trial","0","","false","","0","false","false","true","true","false","false","[0]","001","111","0","","","","","","",""
"","","","","","image-keyboard-response","103","3272907","0.0-78.0","642700bf265ab07308a02420","665500ab8938657b03fbdba8","6657929aea53e04216ff4831","811","stimuli/00011110.jpg"," ","","feedback_trial","0","","","","","","","","","","","","","","","","","","","","",""
"","","","","","image-keyboard-response","104","3277390","0.0-79.0","642700bf265ab07308a02420","665500ab8938657b03fbdba8","6657929aea53e04216ff4831","4481","stimuli/0110100.jpg","1","","prediction_trial","1","","true","","0","false","true","false","false","false","false","[1,0]","110","100","1","","","","","","",""
"","","","","","image-keyboard-response","105","3278212","0.0-80.0","642700bf265ab07308a02420","665500ab8938657b03fbdba8","6657929aea53e04216ff4831","819","stimuli/01101001.jpg"," ","","feedback_trial","1","","","","","","","","","","","","","","","","","","","","",""
"","","","","","image-keyboard-response","106","3282054","0.0-81.0","642700bf265ab07308a02420","665500ab8938657b03fbdba8","6657929aea53e04216ff4831","3825","stimuli/1011010.jpg","1","","prediction_trial","1","","true","","1","false","true","false","false","false","false","[2,1]","011","010","1","","","","","","",""
"","","","","","image-keyboard-response","107","3282908","0.0-82.0","642700bf265ab07308a02420","665500ab8938657b03fbdba8","6657929aea53e04216ff4831","851","stimuli/10110101.jpg"," ","","feedback_trial","2","","","","","","","","","","","","","","","","","","","","",""
"","","","","","image-keyboard-response","108","3284042","0.0-83.0","642700bf265ab07308a02420","665500ab8938657b03fbdba8","6657929aea53e04216ff4831","1133","stimuli/2010100.jpg","2","","prediction_trial","2","","true","","2","true","true","true","true","true","true","[2]","010","100","1","","","","","","",""
"","","","","","image-keyboard-response","109","3284652","0.0-84.0","642700bf265ab07308a02420","665500ab8938657b03fbdba8","6657929aea53e04216ff4831","609","stimuli/20101002.jpg"," ","","feedback_trial","2","","","","","","","","","","","","","","","","","","","","",""
"","","","","","image-keyboard-response","110","3286284","0.0-85.0","642700bf265ab07308a02420","665500ab8938657b03fbdba8","6657929aea53e04216ff4831","1629","stimuli/2001000.jpg","2","","prediction_trial","2","","true","","2","true","true","false","true","false","true","[2]","001","000","1","","","","","","",""
"","","","","","image-keyboard-response","111","3286843","0.0-86.0","642700bf265ab07308a02420","665500ab8938657b03fbdba8","6657929aea53e04216ff4831","557","stimuli/20010002.jpg"," ","","feedback_trial","2","","","","","","","","","","","","","","","","","","","","",""
"","","","","","image-keyboard-response","112","3288750","0.0-87.0","642700bf265ab07308a02420","665500ab8938657b03fbdba8","6657929aea53e04216ff4831","1905","stimuli/1111000.jpg","1","","prediction_trial","0","","false","","1","true","true","false","false","false","false","[0,2,1]","111","000","0","","","","","","",""
"","","","","","image-keyboard-response","113","3289491","0.0-88.0","642700bf265ab07308a02420","665500ab8938657b03fbdba8","6657929aea53e04216ff4831","739","stimuli/11110000.jpg"," ","","feedback_trial","0","","","","","","","","","","","","","","","","","","","","",""
"","","","","","image-keyboard-response","114","3290899","0.0-89.0","642700bf265ab07308a02420","665500ab8938657b03fbdba8","6657929aea53e04216ff4831","1406","stimuli/2100110.jpg","2","","prediction_trial","2","","true","","2","true","true","true","true","true","true","[2]","100","110","1","","","","","","",""
"","","","","","image-keyboard-response","115","3291336","0.0-90.0","642700bf265ab07308a02420","665500ab8938657b03fbdba8","6657929aea53e04216ff4831","435","stimuli/21001102.jpg"," ","","feedback_trial","2","","","","","","","","","","","","","","","","","","","","",""
"","","","","","image-keyboard-response","116","3294560","0.0-91.0","642700bf265ab07308a02420","665500ab8938657b03fbdba8","6657929aea53e04216ff4831","3221","stimuli/1011111.jpg","0","","prediction_trial","1","","false","","1","false","false","false","false","false","false","[1,2]","011","111","0","","","","","","",""
"","","","","","image-keyboard-response","117","3295616","0.0-92.0","642700bf265ab07308a02420","665500ab8938657b03fbdba8","6657929aea53e04216ff4831","1054","stimuli/10111111.jpg"," ","","feedback_trial","1","","","","","","","","","","","","","","","","","","","","",""
"","","","","","image-keyboard-response","118","3297228","0.0-93.0","642700bf265ab07308a02420","665500ab8938657b03fbdba8","6657929aea53e04216ff4831","1609","stimuli/0111111.jpg","2","","prediction_trial","1","","false","","0","false","false","false","false","false","false","[0,1,2]","111","111","0","","","","","","",""
"","","","","","image-keyboard-response","119","3298304","0.0-94.0","642700bf265ab07308a02420","665500ab8938657b03fbdba8","6657929aea53e04216ff4831","1074","stimuli/01111111.jpg"," ","","feedback_trial","0","","","","","","","","","","","","","","","","","","","","",""
"","","","","","image-keyboard-response","120","3300180","0.0-95.0","642700bf265ab07308a02420","665500ab8938657b03fbdba8","6657929aea53e04216ff4831","1874","stimuli/2011110.jpg","2","","prediction_trial","2","","true","","2","true","true","false","false","false","false","[2,1]","011","110","1","","","","","","",""
"","","","","","image-keyboard-response","121","3300860","0.0-96.0","642700bf265ab07308a02420","665500ab8938657b03fbdba8","6657929aea53e04216ff4831","678","stimuli/20111102.jpg"," ","","feedback_trial","2","","","","","","","","","","","","","","","","","","","","",""
"","","","","","image-keyboard-response","122","3301964","0.0-97.0","642700bf265ab07308a02420","665500ab8938657b03fbdba8","6657929aea53e04216ff4831","1101","stimuli/2101100.jpg","2","","prediction_trial","0","","false","","2","true","true","false","false","false","false","[2,0]","101","100","0","","","","","","",""
"","","","","","image-keyboard-response","123","3302594","0.0-98.0","642700bf265ab07308a02420","665500ab8938657b03fbdba8","6657929aea53e04216ff4831","628","stimuli/21011000.jpg"," ","","feedback_trial","2","","","","","","","","","","","","","","","","","","","","",""
"","","","","","image-keyboard-response","124","3304500","0.0-99.0","642700bf265ab07308a02420","665500ab8938657b03fbdba8","6657929aea53e04216ff4831","1903","stimuli/0100100.jpg","0","","prediction_trial","0","","true","","0","false","true","false","true","false","true","[0]","100","100","1","","","","","","",""
"","","","","","image-keyboard-response","125","3305029","0.0-100.0","642700bf265ab07308a02420","665500ab8938657b03fbdba8","6657929aea53e04216ff4831","527","stimuli/01001000.jpg"," ","","feedback_trial","0","","","","","","","","","","","","","","","","","","","","",""
"","","","","","image-keyboard-response","126","3307168","0.0-101.0","642700bf265ab07308a02420","665500ab8938657b03fbdba8","6657929aea53e04216ff4831","2137","stimuli/0101101.jpg","2","","prediction_trial","0","","false","","0","false","false","false","false","false","false","[2,0]","101","101","0","","","","","","",""
"","","","","","image-keyboard-response","127","3308011","0.0-102.0","642700bf265ab07308a02420","665500ab8938657b03fbdba8","6657929aea53e04216ff4831","840","stimuli/01011010.jpg"," ","","feedback_trial","2","","","","","","","","","","","","","","","","","","","","",""
"","","","","","image-keyboard-response","128","3310364","0.0-103.0","642700bf265ab07308a02420","665500ab8938657b03fbdba8","6657929aea53e04216ff4831","2350","stimuli/0111011.jpg","0","","prediction_trial","0","","true","","0","true","true","false","false","false","false","[0,1,2]","111","011","1","","","","","","",""
"","","","","","image-keyboard-response","129","3310973","0.0-104.0","642700bf265ab07308a02420","665500ab8938657b03fbdba8","6657929aea53e04216ff4831","606","stimuli/01110110.jpg"," ","","feedback_trial","0","","","","","","","","","","","","","","","","","","","","",""
"","","","","","image-keyboard-response","130","3312137","0.0-105.0","642700bf265ab07308a02420","665500ab8938657b03fbdba8","6657929aea53e04216ff4831","1162","stimuli/1010111.jpg","2","","prediction_trial","1","","false","","1","false","false","false","true","false","false","[1]","010","111","0","","","","","","",""
"","","","","","image-keyboard-response","131","3312809","0.0-106.0","642700bf265ab07308a02420","665500ab8938657b03fbdba8","6657929aea53e04216ff4831","669","stimuli/10101111.jpg"," ","","feedback_trial","1","","","","","","","","","","","","","","","","","","","","",""
"","","","","","image-keyboard-response","132","3314581","0.0-107.0","642700bf265ab07308a02420","665500ab8938657b03fbdba8","6657929aea53e04216ff4831","1770","stimuli/1111010.jpg","1","","prediction_trial","0","","false","","1","false","true","false","false","false","false","[1,2,0]","111","010","0","","","","","","",""
"","","","","","image-keyboard-response","133","3315232","0.0-108.0","642700bf265ab07308a02420","665500ab8938657b03fbdba8","6657929aea53e04216ff4831","648","stimuli/11110100.jpg"," ","","feedback_trial","1","","","","","","","","","","","","","","","","","","","","",""
"","","","","","image-keyboard-response","134","3318111","0.0-109.0","642700bf265ab07308a02420","665500ab8938657b03fbdba8","6657929aea53e04216ff4831","2877","stimuli/2001111.jpg","2","","prediction_trial","2","","true","","2","false","false","false","true","false","false","[2]","001","111","1","","","","","","",""
"","","","","","image-keyboard-response","135","3318671","0.0-110.0","642700bf265ab07308a02420","665500ab8938657b03fbdba8","6657929aea53e04216ff4831","557","stimuli/20011112.jpg"," ","","feedback_trial","2","","","","","","","","","","","","","","","","","","","","",""
"","","","","","image-keyboard-response","136","3322364","0.0-111.0","642700bf265ab07308a02420","665500ab8938657b03fbdba8","6657929aea53e04216ff4831","3690","stimuli/2010011.jpg","1","","prediction_trial","2","","false","","2","false","false","true","true","false","false","[2]","010","011","0","","","","","","",""
"","","","","","image-keyboard-response","137","3323439","0.0-112.0","642700bf265ab07308a02420","665500ab8938657b03fbdba8","6657929aea53e04216ff4831","1073","stimuli/20100112.jpg"," ","","feedback_trial","2","","","","","","","","","","","","","","","","","","","","",""
"","","","","","image-keyboard-response","138","3327302","0.0-113.0","642700bf265ab07308a02420","665500ab8938657b03fbdba8","6657929aea53e04216ff4831","3861","stimuli/2001100.jpg","2","","prediction_trial","2","","true","","2","true","true","false","true","false","true","[2]","001","100","1","","","","","","",""
"","","","","","image-keyboard-response","139","3327943","0.0-114.0","642700bf265ab07308a02420","665500ab8938657b03fbdba8","6657929aea53e04216ff4831","638","stimuli/20011002.jpg"," ","","feedback_trial","2","","","","","","","","","","","","","","","","","","","","",""
"","","","","","image-keyboard-response","140","3331483","0.0-115.0","642700bf265ab07308a02420","665500ab8938657b03fbdba8","6657929aea53e04216ff4831","3536","stimuli/0110111.jpg","2","","prediction_trial","1","","false","","0","false","false","false","false","false","false","[0,1]","110","111","0","","","","","","",""
"","","","","","image-keyboard-response","141","3332326","0.0-116.0","642700bf265ab07308a02420","665500ab8938657b03fbdba8","6657929aea53e04216ff4831","841","stimuli/01101111.jpg"," ","","feedback_trial","0","","","","","","","","","","","","","","","","","","","","",""
"","","","","","image-keyboard-response","142","3334183","0.0-117.0","642700bf265ab07308a02420","665500ab8938657b03fbdba8","6657929aea53e04216ff4831","1853","stimuli/2111111.jpg","0","","prediction_trial","1","","false","","2","false","false","false","false","false","false","[2,1,0]","111","111","0","","","","","","",""
"","","","","","image-keyboard-response","143","3335004","0.0-118.0","642700bf265ab07308a02420","665500ab8938657b03fbdba8","6657929aea53e04216ff4831","819","stimuli/21111111.jpg"," ","","feedback_trial","2","","","","","","","","","","","","","","","","","","","","",""
"","","","","","image-keyboard-response","144","3335652","0.0-119.0","642700bf265ab07308a02420","665500ab8938657b03fbdba8","6657929aea53e04216ff4831","645","stimuli/1010001.jpg","1","","prediction_trial","1","","true","","1","true","true","false","true","false","true","[1]","010","001","1","","","","","","",""
"","","","","","image-keyboard-response","145","3336364","0.0-120.0","642700bf265ab07308a02420","665500ab8938657b03fbdba8","6657929aea53e04216ff4831","711","stimuli/10100011.jpg"," ","","feedback_trial","1","","","","","","","","","","","","","","","","","","","","",""
"","","","","","image-keyboard-response","146","3338067","0.0-121.0","642700bf265ab07308a02420","665500ab8938657b03fbdba8","6657929aea53e04216ff4831","1700","stimuli/2100011.jpg","1","","prediction_trial","2","","false","","2","false","false","true","true","false","false","[2]","100","011","0","","","","","","",""
"","","","","","image-keyboard-response","147","3338839","0.0-122.0","642700bf265ab07308a02420","665500ab8938657b03fbdba8","6657929aea53e04216ff4831","770","stimuli/21000112.jpg"," ","","feedback_trial","2","","","","","","","","","","","","","","","","","","","","",""
"","","","","","image-keyboard-response","148","3341851","0.0-123.0","642700bf265ab07308a02420","665500ab8938657b03fbdba8","6657929aea53e04216ff4831","3010","stimuli/1010110.jpg","0","","prediction_trial","1","","false","","1","false","false","false","true","false","false","[1]","010","110","0","","","","","","",""
"","","","","","image-keyboard-response","149","3342796","0.0-124.0","642700bf265ab07308a02420","665500ab8938657b03fbdba8","6657929aea53e04216ff4831","943","stimuli/10101101.jpg"," ","","feedback_trial","1","","","","","","","","","","","","","","","","","","","","",""
"","","","","","image-keyboard-response","150","3344945","0.0-125.0","642700bf265ab07308a02420","665500ab8938657b03fbdba8","6657929aea53e04216ff4831","2133","stimuli/2000011.jpg","1","","prediction_trial","2","","false","","2","false","false","true","true","false","false","[2]","000","011","0","","","","","","",""
"","","","","","image-keyboard-response","151","3345758","0.0-126.0","642700bf265ab07308a02420","665500ab8938657b03fbdba8","6657929aea53e04216ff4831","812","stimuli/20000112.jpg"," ","","feedback_trial","2","","","","","","","","","","","","","","","","","","","","",""
"","","","","","image-keyboard-response","152","3348902","0.0-127.0","642700bf265ab07308a02420","665500ab8938657b03fbdba8","6657929aea53e04216ff4831","3142","stimuli/2000111.jpg","2","","prediction_trial","2","","true","","2","false","false","true","true","false","false","[2]","000","111","1","","","","","","",""
"","","","","","image-keyboard-response","153","3349431","0.0-128.0","642700bf265ab07308a02420","665500ab8938657b03fbdba8","6657929aea53e04216ff4831","526","stimuli/20001112.jpg"," ","","feedback_trial","2","","","","","","","","","","","","","","","","","","","","",""
"","","","","","image-keyboard-response","154","3352148","0.0-129.0","642700bf265ab07308a02420","665500ab8938657b03fbdba8","6657929aea53e04216ff4831","2715","stimuli/0010110.jpg","0","","prediction_trial","0","","true","","0","false","false","true","true","false","false","[0]","010","110","1","","","","","","",""
"","","","","","image-keyboard-response","155","3352829","0.0-130.0","642700bf265ab07308a02420","665500ab8938657b03fbdba8","6657929aea53e04216ff4831","679","stimuli/00101100.jpg"," ","","feedback_trial","0","","","","","","","","","","","","","","","","","","","","",""
"","","","","","image-keyboard-response","156","3354218","0.0-131.0","642700bf265ab07308a02420","665500ab8938657b03fbdba8","6657929aea53e04216ff4831","1386","stimuli/0001010.jpg","0","","prediction_trial","0","","true","","0","true","true","true","true","true","true","[0]","001","010","1","","","","","","",""
"","","","","","image-keyboard-response","157","3354798","0.0-132.0","642700bf265ab07308a02420","665500ab8938657b03fbdba8","6657929aea53e04216ff4831","577","stimuli/00010100.jpg"," ","","feedback_trial","0","","","","","","","","","","","","","","","","","","","","",""
"","","","","","image-keyboard-response","158","3356685","0.0-133.0","642700bf265ab07308a02420","665500ab8938657b03fbdba8","6657929aea53e04216ff4831","1885","stimuli/1010000.jpg","1","","prediction_trial","1","","true","","1","true","true","false","true","false","true","[1]","010","000","1","","","","","","",""
"","","","","","image-keyboard-response","159","3357192","0.0-134.0","642700bf265ab07308a02420","665500ab8938657b03fbdba8","6657929aea53e04216ff4831","505","stimuli/10100001.jpg"," ","","feedback_trial","1","","","","","","","","","","","","","","","","","","","","",""
"","","","","","image-keyboard-response","160","3358611","0.0-135.0","642700bf265ab07308a02420","665500ab8938657b03fbdba8","6657929aea53e04216ff4831","1416","stimuli/0011010.jpg","0","","prediction_trial","0","","true","","0","true","true","true","true","true","true","[0]","011","010","1","","","","","","",""
"","","","","","image-keyboard-response","161","3359039","0.0-136.0","642700bf265ab07308a02420","665500ab8938657b03fbdba8","6657929aea53e04216ff4831","425","stimuli/00110100.jpg"," ","","feedback_trial","0","","","","","","","","","","","","","","","","","","","","",""
"","","","","","image-keyboard-response","162","3360793","0.0-137.0","642700bf265ab07308a02420","665500ab8938657b03fbdba8","6657929aea53e04216ff4831","1751","stimuli/2001110.jpg","2","","prediction_trial","2","","true","","2","true","true","false","true","false","true","[2]","001","110","1","","","","","","",""
"","","","","","image-keyboard-response","163","3361301","0.0-138.0","642700bf265ab07308a02420","665500ab8938657b03fbdba8","6657929aea53e04216ff4831","506","stimuli/20011102.jpg"," ","","feedback_trial","2","","","","","","","","","","","","","","","","","","","","",""
"","","","","","image-keyboard-response","164","3362913","0.0-139.0","642700bf265ab07308a02420","665500ab8938657b03fbdba8","6657929aea53e04216ff4831","1609","stimuli/0011011.jpg","0","","prediction_trial","0","","true","","0","true","true","true","true","true","true","[0]","011","011","1","","","","","","",""
"","","","","","image-keyboard-response","165","3363645","0.0-140.0","642700bf265ab07308a02420","665500ab8938657b03fbdba8","6657929aea53e04216ff4831","730","stimuli/00110110.jpg"," ","","feedback_trial","0","","","","","","","","","","","","","","","","","","","","",""
"","","","","","image-keyboard-response","166","3368596","0.0-141.0","642700bf265ab07308a02420","665500ab8938657b03fbdba8","6657929aea53e04216ff4831","4949","stimuli/1001011.jpg","2","","prediction_trial","1","","false","","1","false","false","true","true","false","false","[1]","001","011","0","","","","","","",""
"","","","","","image-keyboard-response","167","3369448","0.0-142.0","642700bf265ab07308a02420","665500ab8938657b03fbdba8","6657929aea53e04216ff4831","849","stimuli/10010111.jpg"," ","","feedback_trial","1","","","","","","","","","","","","","","","","","","","","",""
"","","","","","image-keyboard-response","168","3372835","0.0-143.0","642700bf265ab07308a02420","665500ab8938657b03fbdba8","6657929aea53e04216ff4831","3384","stimuli/1100111.jpg","1","","prediction_trial","1","","true","","1","false","false","true","true","false","false","[1]","100","111","1","","","","","","",""
"","","","","","image-keyboard-response","169","3373687","0.0-144.0","642700bf265ab07308a02420","665500ab8938657b03fbdba8","6657929aea53e04216ff4831","838","stimuli/11001111.jpg"," ","","feedback_trial","1","","","","","","","","","","","","","","","","","","","","",""
"","","","","","image-keyboard-response","170","3376091","0.0-145.0","642700bf265ab07308a02420","665500ab8938657b03fbdba8","6657929aea53e04216ff4831","2402","stimuli/1101010.jpg","1","","prediction_trial","1","","true","","1","false","true","true","true","false","true","[1]","101","010","1","","","","","","",""
"","","","","","image-keyboard-response","171","3376609","0.0-146.0","642700bf265ab07308a02420","665500ab8938657b03fbdba8","6657929aea53e04216ff4831","516","stimuli/11010101.jpg"," ","","feedback_trial","1","","","","","","","","","","","","","","","","","","","","",""
"","","","","","image-keyboard-response","172","3380120","0.0-147.0","642700bf265ab07308a02420","665500ab8938657b03fbdba8","6657929aea53e04216ff4831","3508","stimuli/0111100.jpg","0","","prediction_trial","0","","true","","0","false","true","false","false","false","false","[0,1,2]","111","100","1","","","","","","",""
"","","","","","image-keyboard-response","173","3380576","0.0-148.0","642700bf265ab07308a02420","665500ab8938657b03fbdba8","6657929aea53e04216ff4831","454","stimuli/01111000.jpg"," ","","feedback_trial","0","","","","","","","","","","","","","","","","","","","","",""
"","","","","","image-keyboard-response","174","3384257","0.0-149.0","642700bf265ab07308a02420","665500ab8938657b03fbdba8","6657929aea53e04216ff4831","3679","stimuli/1111001.jpg","1","","prediction_trial","0","","false","","1","true","true","false","false","false","false","[0,1,2]","111","001","0","","","","","","",""
"","","","","","image-keyboard-response","175","3384877","0.0-150.0","642700bf265ab07308a02420","665500ab8938657b03fbdba8","6657929aea53e04216ff4831","618","stimuli/11110010.jpg"," ","","feedback_trial","0","","","","","","","","","","","","","","","","","","","","",""
"","","","","","image-keyboard-response","176","3386001","0.0-151.0","642700bf265ab07308a02420","665500ab8938657b03fbdba8","6657929aea53e04216ff4831","1122","stimuli/1000100.jpg","1","","prediction_trial","1","","true","","1","true","true","true","true","true","true","[1]","000","100","1","","","","","","",""
"","","","","","image-keyboard-response","177","3386520","0.0-152.0","642700bf265ab07308a02420","665500ab8938657b03fbdba8","6657929aea53e04216ff4831","517","stimuli/10001001.jpg"," ","","feedback_trial","1","","","","","","","","","","","","","","","","","","","","",""
"","","","","","image-keyboard-response","178","3387887","0.0-153.0","642700bf265ab07308a02420","665500ab8938657b03fbdba8","6657929aea53e04216ff4831","1365","stimuli/1000001.jpg","1","","prediction_trial","1","","true","","1","true","true","true","true","true","true","[1]","000","001","1","","","","","","",""
"","","","","","image-keyboard-response","179","3388518","0.0-154.0","642700bf265ab07308a02420","665500ab8938657b03fbdba8","6657929aea53e04216ff4831","630","stimuli/10000011.jpg"," ","","feedback_trial","1","","","","","","","","","","","","","","","","","","","","",""
"","","","","","image-keyboard-response","180","3389734","0.0-155.0","642700bf265ab07308a02420","665500ab8938657b03fbdba8","6657929aea53e04216ff4831","1200","stimuli/2111011.jpg","2","","prediction_trial","0","","false","","2","false","false","false","false","false","false","[0,1,2]","111","011","0","","","","","","",""
"","","","","","image-keyboard-response","181","3390883","0.0-156.0","642700bf265ab07308a02420","665500ab8938657b03fbdba8","6657929aea53e04216ff4831","1147","stimuli/21110110.jpg"," ","","feedback_trial","0","","","","","","","","","","","","","","","","","","","","",""
"","","","","","image-keyboard-response","182","3392282","0.0-157.0","642700bf265ab07308a02420","665500ab8938657b03fbdba8","6657929aea53e04216ff4831","1395","stimuli/1001100.jpg","1","","prediction_trial","1","","true","","1","true","true","true","true","true","true","[1]","001","100","1","","","","","","",""
"","","","","","image-keyboard-response","183","3392790","0.0-158.0","642700bf265ab07308a02420","665500ab8938657b03fbdba8","6657929aea53e04216ff4831","506","stimuli/10011001.jpg"," ","","feedback_trial","1","","","","","","","","","","","","","","","","","","","","",""
"","","","","","image-keyboard-response","184","3394118","0.0-159.0","642700bf265ab07308a02420","665500ab8938657b03fbdba8","6657929aea53e04216ff4831","1325","stimuli/2010010.jpg","2","","prediction_trial","2","","true","","2","true","true","true","true","true","true","[2]","010","010","1","","","","","","",""
"","","","","","image-keyboard-response","185","3394667","0.0-160.0","642700bf265ab07308a02420","665500ab8938657b03fbdba8","6657929aea53e04216ff4831","547","stimuli/20100102.jpg"," ","","feedback_trial","2","","","","","","","","","","","","","","","","","","","","",""
"","","","","","image-keyboard-response","186","3396705","0.0-161.0","642700bf265ab07308a02420","665500ab8938657b03fbdba8","6657929aea53e04216ff4831","2035","stimuli/2111000.jpg","1","","prediction_trial","1","","true","","2","true","true","false","false","false","false","[2,1,0]","111","000","1","","","","","","",""
"","","","","","image-keyboard-response","187","3397670","0.0-162.0","642700bf265ab07308a02420","665500ab8938657b03fbdba8","6657929aea53e04216ff4831","963","stimuli/21110001.jpg"," ","","feedback_trial","2","","","","","","","","","","","","","","","","","","","","",""
"","","","","","image-keyboard-response","188","3398926","0.0-163.0","642700bf265ab07308a02420","665500ab8938657b03fbdba8","6657929aea53e04216ff4831","1254","stimuli/2000000.jpg","2","","prediction_trial","2","","true","","2","true","true","true","true","true","true","[2]","000","000","1","","","","","","",""
"","","","","","image-keyboard-response","189","3399455","0.0-164.0","642700bf265ab07308a02420","665500ab8938657b03fbdba8","6657929aea53e04216ff4831","526","stimuli/20000002.jpg"," ","","feedback_trial","2","","","","","","","","","","","","","","","","","","","","",""
"","","","","","image-keyboard-response","190","3402052","0.0-165.0","642700bf265ab07308a02420","665500ab8938657b03fbdba8","6657929aea53e04216ff4831","2595","stimuli/0101000.jpg","0","","prediction_trial","0","","true","","0","true","true","false","false","false","false","[2,0]","101","000","1","","","","","","",""
"","","","","","image-keyboard-response","191","3402559","0.0-166.0","642700bf265ab07308a02420","665500ab8938657b03fbdba8","6657929aea53e04216ff4831","505","stimuli/01010000.jpg"," ","","feedback_trial","2","","","","","","","","","","","","","","","","","","","","",""
"","","","","","image-keyboard-response","192","3404018","0.0-167.0","642700bf265ab07308a02420","665500ab8938657b03fbdba8","6657929aea53e04216ff4831","1457","stimuli/1001001.jpg","1","","prediction_trial","1","","true","","1","true","true","true","true","true","true","[1]","001","001","1","","","","","","",""
"","","","","","image-keyboard-response","193","3405429","0.0-168.0","642700bf265ab07308a02420","665500ab8938657b03fbdba8","6657929aea53e04216ff4831","1409","stimuli/10010011.jpg"," ","","feedback_trial","1","","","","","","","","","","","","","","","","","","","","",""
"","","","","","image-keyboard-response","194","3406655","0.0-169.0","642700bf265ab07308a02420","665500ab8938657b03fbdba8","6657929aea53e04216ff4831","1223","stimuli/0011000.jpg","0","","prediction_trial","0","","true","","0","true","true","true","true","true","true","[0]","011","000","1","","","","","","",""
"","","","","","image-keyboard-response","195","3407701","0.0-170.0","642700bf265ab07308a02420","665500ab8938657b03fbdba8","6657929aea53e04216ff4831","1044","stimuli/00110000.jpg"," ","","feedback_trial","0","","","","","","","","","","","","","","","","","","","","",""
"","","","","","image-keyboard-response","196","3410104","0.0-171.0","642700bf265ab07308a02420","665500ab8938657b03fbdba8","6657929aea53e04216ff4831","2400","stimuli/1000111.jpg","1","","prediction_trial","1","","true","","1","false","false","true","true","false","false","[1]","000","111","1","","","","","","",""
"","","","","","image-keyboard-response","197","3410765","0.0-172.0","642700bf265ab07308a02420","665500ab8938657b03fbdba8","6657929aea53e04216ff4831","658","stimuli/10001111.jpg"," ","","feedback_trial","1","","","","","","","","","","","","","","","","","","","","",""
"","","","","","image-keyboard-response","198","3412408","0.0-173.0","642700bf265ab07308a02420","665500ab8938657b03fbdba8","6657929aea53e04216ff4831","1641","stimuli/2100010.jpg","2","","prediction_trial","2","","true","","2","true","true","true","true","true","true","[2]","100","010","1","","","","","","",""
"","","","","","image-keyboard-response","199","3412936","0.0-174.0","642700bf265ab07308a02420","665500ab8938657b03fbdba8","6657929aea53e04216ff4831","525","stimuli/21000102.jpg"," ","","feedback_trial","2","","","","","","","","","","","","","","","","","","","","",""
"","","","","","image-keyboard-response","200","3415694","0.0-175.0","642700bf265ab07308a02420","665500ab8938657b03fbdba8","6657929aea53e04216ff4831","2755","stimuli/0110110.jpg","1","","prediction_trial","1","","true","","0","false","false","false","false","false","false","[1,0]","110","110","1","","","","","","",""
"","","","","","image-keyboard-response","201","3416425","0.0-176.0","642700bf265ab07308a02420","665500ab8938657b03fbdba8","6657929aea53e04216ff4831","729","stimuli/01101101.jpg"," ","","feedback_trial","1","","","","","","","","","","","","","","","","","","","","",""
"","","","","","image-keyboard-response","202","3417733","0.0-177.0","642700bf265ab07308a02420","665500ab8938657b03fbdba8","6657929aea53e04216ff4831","1305","stimuli/0001001.jpg","0","","prediction_trial","0","","true","","0","true","true","true","true","true","true","[0]","001","001","1","","","","","","",""
"","","","","","image-keyboard-response","203","3418231","0.0-178.0","642700bf265ab07308a02420","665500ab8938657b03fbdba8","6657929aea53e04216ff4831","496","stimuli/00010010.jpg"," ","","feedback_trial","0","","","","","","","","","","","","","","","","","","","","",""
"","","","","","image-keyboard-response","204","3420573","0.0-179.0","642700bf265ab07308a02420","665500ab8938657b03fbdba8","6657929aea53e04216ff4831","2339","stimuli/0010111.jpg","1","","prediction_trial","0","","false","","0","false","false","true","true","false","false","[0]","010","111","0","","","","","","",""
"","","","","","image-keyboard-response","205","3421355","0.0-180.0","642700bf265ab07308a02420","665500ab8938657b03fbdba8","6657929aea53e04216ff4831","780","stimuli/00101110.jpg"," ","","feedback_trial","0","","","","","","","","","","","","","","","","","","","","",""
"","","","","","image-keyboard-response","206","3422491","0.0-181.0","642700bf265ab07308a02420","665500ab8938657b03fbdba8","6657929aea53e04216ff4831","1134","stimuli/2100100.jpg","2","","prediction_trial","2","","true","","2","true","true","true","true","true","true","[2]","100","100","1","","","","","","",""
"","","","","","image-keyboard-response","207","3422826","0.0-182.0","642700bf265ab07308a02420","665500ab8938657b03fbdba8","6657929aea53e04216ff4831","332","stimuli/21001002.jpg"," ","","feedback_trial","2","","","","","","","","","","","","","","","","","","","","",""
"","","","","","image-keyboard-response","208","3424478","0.0-183.0","642700bf265ab07308a02420","665500ab8938657b03fbdba8","6657929aea53e04216ff4831","1650","stimuli/0011111.jpg","0","","prediction_trial","0","","true","","0","false","false","true","true","false","false","[0]","011","111","1","","","","","","",""
"","","","","","image-keyboard-response","209","3424914","0.0-184.0","642700bf265ab07308a02420","665500ab8938657b03fbdba8","6657929aea53e04216ff4831","435","stimuli/00111110.jpg"," ","","feedback_trial","0","","","","","","","","","","","","","","","","","","","","",""
"","","","","","image-keyboard-response","210","3427552","0.0-185.0","642700bf265ab07308a02420","665500ab8938657b03fbdba8","6657929aea53e04216ff4831","2628","stimuli/2011100.jpg","2","","prediction_trial","1","","false","","2","true","true","false","false","false","false","[2,1]","011","100","0","","","","","","",""
"","","","","","image-keyboard-response","211","3428222","0.0-186.0","642700bf265ab07308a02420","665500ab8938657b03fbdba8","6657929aea53e04216ff4831","669","stimuli/20111001.jpg"," ","","feedback_trial","2","","","","","","","","","","","","","","","","","","","","",""
"","","","","","image-keyboard-response","212","3430331","0.0-187.0","642700bf265ab07308a02420","665500ab8938657b03fbdba8","6657929aea53e04216ff4831","2106","stimuli/0101010.jpg","0","","prediction_trial","0","","true","","0","true","true","false","false","false","false","[0,2]","101","010","1","","","","","","",""
"","","","","","image-keyboard-response","213","3430748","0.0-188.0","642700bf265ab07308a02420","665500ab8938657b03fbdba8","6657929aea53e04216ff4831","415","stimuli/01010100.jpg"," ","","feedback_trial","0","","","","","","","","","","","","","","","","","","","","",""
"","","","","","image-keyboard-response","214","3432015","0.0-189.0","642700bf265ab07308a02420","665500ab8938657b03fbdba8","6657929aea53e04216ff4831","1264","stimuli/1101000.jpg","1","","prediction_trial","1","","true","","1","true","true","true","true","true","true","[1]","101","000","1","","","","","","",""
"","","","","","image-keyboard-response","215","3432483","0.0-190.0","642700bf265ab07308a02420","665500ab8938657b03fbdba8","6657929aea53e04216ff4831","466","stimuli/11010001.jpg"," ","","feedback_trial","1","","","","","","","","","","","","","","","","","","","","",""
"","","","","","image-keyboard-response","216","3434796","0.0-191.0","642700bf265ab07308a02420","665500ab8938657b03fbdba8","6657929aea53e04216ff4831","2310","stimuli/2101110.jpg","2","","prediction_trial","2","","true","","2","true","true","false","false","false","false","[0,2]","101","110","1","","","","","","",""
"","","","","","image-keyboard-response","217","3435556","0.0-192.0","642700bf265ab07308a02420","665500ab8938657b03fbdba8","6657929aea53e04216ff4831","758","stimuli/21011102.jpg"," ","","feedback_trial","0","","","","","","","","","","","","","","","","","","","","",""
"","","","","","image-keyboard-response","218","3438223","0.0-193.0","642700bf265ab07308a02420","665500ab8938657b03fbdba8","6657929aea53e04216ff4831","2665","stimuli/1011011.jpg","1","","prediction_trial","1","","true","","1","false","false","false","false","false","false","[1,2]","011","011","1","","","","","","",""
"","","","","","image-keyboard-response","219","3438773","0.0-194.0","642700bf265ab07308a02420","665500ab8938657b03fbdba8","6657929aea53e04216ff4831","548","stimuli/10110111.jpg"," ","","feedback_trial","1","","","","","","","","","","","","","","","","","","","","",""
"","","","","","image-keyboard-response","220","3440364","0.0-195.0","642700bf265ab07308a02420","665500ab8938657b03fbdba8","6657929aea53e04216ff4831","1589","stimuli/2011010.jpg","2","","prediction_trial","1","","false","","2","true","true","false","false","false","false","[1,2]","011","010","0","","","","","","",""
"","","","","","image-keyboard-response","221","3440914","0.0-196.0","642700bf265ab07308a02420","665500ab8938657b03fbdba8","6657929aea53e04216ff4831","534","stimuli/20110101.jpg"," ","","feedback_trial","1","","","","","","","","","","","","","","","","","","","","",""
"","","","","","image-keyboard-response","222","3441765","0.0-197.0","642700bf265ab07308a02420","665500ab8938657b03fbdba8","6657929aea53e04216ff4831","848","stimuli/1010101.jpg","1","","prediction_trial","1","","true","","1","true","true","false","true","false","true","[1]","010","101","1","","","","","","",""
"","","","","","image-keyboard-response","223","3442699","0.0-198.0","642700bf265ab07308a02420","665500ab8938657b03fbdba8","6657929aea53e04216ff4831","932","stimuli/10101011.jpg"," ","","feedback_trial","1","","","","","","","","","","","","","","","","","","","","",""
"","","","","","image-keyboard-response","224","3445074","0.0-199.0","642700bf265ab07308a02420","665500ab8938657b03fbdba8","6657929aea53e04216ff4831","2372","stimuli/2011011.jpg","1","","prediction_trial","1","","true","","2","false","false","false","false","false","false","[1,2]","011","011","1","","","","","","",""
"","","","","","image-keyboard-response","225","3445479","0.0-200.0","642700bf265ab07308a02420","665500ab8938657b03fbdba8","6657929aea53e04216ff4831","404","stimuli/20110111.jpg"," ","","feedback_trial","1","","","","","","","","","","","","","","","","","","","","",""
"","","","","","image-keyboard-response","226","3448470","0.0-201.0","642700bf265ab07308a02420","665500ab8938657b03fbdba8","6657929aea53e04216ff4831","2989","stimuli/2111110.jpg","1","","prediction_trial","1","","true","","2","true","true","false","false","false","false","[0,1,2]","111","110","1","","","","","","",""
"","","","","","image-keyboard-response","227","3449040","0.0-202.0","642700bf265ab07308a02420","665500ab8938657b03fbdba8","6657929aea53e04216ff4831","567","stimuli/21111101.jpg"," ","","feedback_trial","0","","","","","","","","","","","","","","","","","","","","",""
"","","","","","image-keyboard-response","228","3451239","0.0-203.0","642700bf265ab07308a02420","665500ab8938657b03fbdba8","6657929aea53e04216ff4831","2197","stimuli/0011100.jpg","0","","prediction_trial","0","","true","","0","false","true","true","true","false","true","[0]","011","100","1","","","","","","",""
"","","","","","image-keyboard-response","229","3451647","0.0-204.0","642700bf265ab07308a02420","665500ab8938657b03fbdba8","6657929aea53e04216ff4831","405","stimuli/00111000.jpg"," ","","feedback_trial","0","","","","","","","","","","","","","","","","","","","","",""
"","","","","","image-keyboard-response","230","3458781","0.0-205.0","642700bf265ab07308a02420","665500ab8938657b03fbdba8","6657929aea53e04216ff4831","7130","stimuli/1011110.jpg","0","","prediction_trial","1","","false","","1","false","false","false","false","false","false","[1,2]","011","110","0","","","","","","",""
"","","","","","image-keyboard-response","231","3459390","0.0-206.0","642700bf265ab07308a02420","665500ab8938657b03fbdba8","6657929aea53e04216ff4831","606","stimuli/10111101.jpg"," ","","feedback_trial","1","","","","","","","","","","","","","","","","","","","","",""
"","","","","","image-keyboard-response","232","3462430","0.0-207.0","642700bf265ab07308a02420","665500ab8938657b03fbdba8","6657929aea53e04216ff4831","3031","stimuli/2101011.jpg","1","","prediction_trial","2","","false","","2","false","false","false","false","false","false","[0,2]","101","011","0","","","","","","",""
"","","","","","image-keyboard-response","233","3463072","0.0-208.0","642700bf265ab07308a02420","665500ab8938657b03fbdba8","6657929aea53e04216ff4831","640","stimuli/21010112.jpg"," ","","feedback_trial","0","","","","","","","","","","","","","","","","","","","","",""
"","","","","","image-keyboard-response","234","3464125","0.0-209.0","642700bf265ab07308a02420","665500ab8938657b03fbdba8","6657929aea53e04216ff4831","1051","stimuli/1111101.jpg","1","","prediction_trial","2","","false","","1","true","true","false","false","false","false","[2,1,0]","111","101","0","","","","","","",""
"","","","","","image-keyboard-response","235","3464654","0.0-210.0","642700bf265ab07308a02420","665500ab8938657b03fbdba8","6657929aea53e04216ff4831","527","stimuli/11111012.jpg"," ","","feedback_trial","2","","","","","","","","","","","","","","","","","","","","",""
"","","","","","image-keyboard-response","236","3466185","0.0-211.0","642700bf265ab07308a02420","665500ab8938657b03fbdba8","6657929aea53e04216ff4831","1528","stimuli/1100101.jpg","1","","prediction_trial","1","","true","","1","true","true","true","true","true","true","[1]","100","101","1","","","","","","",""
"","","","","","image-keyboard-response","237","3466632","0.0-212.0","642700bf265ab07308a02420","665500ab8938657b03fbdba8","6657929aea53e04216ff4831","445","stimuli/11001011.jpg"," ","","feedback_trial","1","","","","","","","","","","","","","","","","","","","","",""
"","","","","","image-keyboard-response","238","3468936","0.0-213.0","642700bf265ab07308a02420","665500ab8938657b03fbdba8","6657929aea53e04216ff4831","2301","stimuli/1000110.jpg","0","","prediction_trial","1","","false","","1","false","false","true","true","false","false","[1]","000","110","0","","","","","","",""
"","","","","","image-keyboard-response","239","3469717","0.0-214.0","642700bf265ab07308a02420","665500ab8938657b03fbdba8","6657929aea53e04216ff4831","779","stimuli/10001101.jpg"," ","","feedback_trial","1","","","","","","","","","","","","","","","","","","","","",""
"","","","","","image-keyboard-response","240","3471450","0.0-215.0","642700bf265ab07308a02420","665500ab8938657b03fbdba8","6657929aea53e04216ff4831","1731","stimuli/0001110.jpg","0","","prediction_trial","0","","true","","0","false","false","true","true","false","false","[0]","001","110","1","","","","","","",""
"","","","","","image-keyboard-response","241","3471888","0.0-216.0","642700bf265ab07308a02420","665500ab8938657b03fbdba8","6657929aea53e04216ff4831","436","stimuli/00011100.jpg"," ","","feedback_trial","0","","","","","","","","","","","","","","","","","","","","",""
"","","","","","image-keyboard-response","242","3473854","0.0-217.0","642700bf265ab07308a02420","665500ab8938657b03fbdba8","6657929aea53e04216ff4831","1964","stimuli/0111000.jpg","1","","prediction_trial","2","","false","","0","true","true","false","false","false","false","[2,0,1]","111","000","0","","","","","","",""
"","","","","","image-keyboard-response","243","3474434","0.0-218.0","642700bf265ab07308a02420","665500ab8938657b03fbdba8","6657929aea53e04216ff4831","563","stimuli/01110002.jpg"," ","","feedback_trial","2","","","","","","","","","","","","","","","","","","","","",""
"","","","","","image-keyboard-response","244","3475508","0.0-219.0","642700bf265ab07308a02420","665500ab8938657b03fbdba8","6657929aea53e04216ff4831","1071","stimuli/0111110.jpg","1","","prediction_trial","0","","false","","0","false","false","false","false","false","false","[1,2,0]","111","110","0","","","","","","",""
"","","","","","image-keyboard-response","245","3477000","0.0-220.0","642700bf265ab07308a02420","665500ab8938657b03fbdba8","6657929aea53e04216ff4831","1490","stimuli/01111100.jpg"," ","","feedback_trial","1","","","","","","","","","","","","","","","","","","","","",""
"","","","","","image-keyboard-response","246","3477993","0.0-221.0","642700bf265ab07308a02420","665500ab8938657b03fbdba8","6657929aea53e04216ff4831","990","stimuli/1000101.jpg","1","","prediction_trial","1","","true","","1","true","true","true","true","true","true","[1]","000","101","1","","","","","","",""
"","","","","","image-keyboard-response","247","3478360","0.0-222.0","642700bf265ab07308a02420","665500ab8938657b03fbdba8","6657929aea53e04216ff4831","364","stimuli/10001011.jpg"," ","","feedback_trial","1","","","","","","","","","","","","","","","","","","","","",""
"","","","","","image-keyboard-response","248","3479283","0.0-223.0","642700bf265ab07308a02420","665500ab8938657b03fbdba8","6657929aea53e04216ff4831","920","stimuli/0000010.jpg","0","","prediction_trial","0","","true","","0","true","true","true","true","true","true","[0]","000","010","1","","","","","","",""
"","","","","","image-keyboard-response","249","3479618","0.0-224.0","642700bf265ab07308a02420","665500ab8938657b03fbdba8","6657929aea53e04216ff4831","333","stimuli/00000100.jpg"," ","","feedback_trial","0","","","","","","","","","","","","","","","","","","","","",""
"","","","","","image-keyboard-response","250","3480479","0.0-225.0","642700bf265ab07308a02420","665500ab8938657b03fbdba8","6657929aea53e04216ff4831","858","stimuli/2000010.jpg","2","","prediction_trial","2","","true","","2","true","true","true","true","true","true","[2]","000","010","1","","","","","","",""
"","","","","","image-keyboard-response","251","3480866","0.0-226.0","642700bf265ab07308a02420","665500ab8938657b03fbdba8","6657929aea53e04216ff4831","384","stimuli/20000102.jpg"," ","","feedback_trial","2","","","","","","","","","","","","","","","","","","","","",""
"","","","","","image-keyboard-response","252","3481970","0.0-227.0","642700bf265ab07308a02420","665500ab8938657b03fbdba8","6657929aea53e04216ff4831","1101","stimuli/0000000.jpg","0","","prediction_trial","0","","true","","0","true","true","true","true","true","true","[0]","000","000","1","","","","","","",""
"","","","","","image-keyboard-response","253","3482529","0.0-228.0","642700bf265ab07308a02420","665500ab8938657b03fbdba8","6657929aea53e04216ff4831","557","stimuli/00000000.jpg"," ","","feedback_trial","0","","","","","","","","","","","","","","","","","","","","",""
"","","","","","image-keyboard-response","254","3483837","0.0-229.0","642700bf265ab07308a02420","665500ab8938657b03fbdba8","6657929aea53e04216ff4831","1305","stimuli/2110010.jpg","2","","prediction_trial","2","","true","","2","true","true","true","true","true","true","[2]","110","010","1","","","","","","",""
"","","","","","image-keyboard-response","255","3484712","0.0-230.0","642700bf265ab07308a02420","665500ab8938657b03fbdba8","6657929aea53e04216ff4831","872","stimuli/21100102.jpg"," ","","feedback_trial","2","","","","","","","","","","","","","","","","","","","","",""
"","","","","","image-keyboard-response","256","3487165","0.0-231.0","642700bf265ab07308a02420","665500ab8938657b03fbdba8","6657929aea53e04216ff4831","2450","stimuli/2101000.jpg","0","","prediction_trial","2","","false","","2","true","true","false","false","false","false","[0,2]","101","000","0","","","","","","",""
"","","","","","image-keyboard-response","257","3489024","0.0-232.0","642700bf265ab07308a02420","665500ab8938657b03fbdba8","6657929aea53e04216ff4831","1856","stimuli/21010002.jpg"," ","","feedback_trial","0","","","","","","","","","","","","","","","","","","","","",""
"","","","","","image-keyboard-response","258","3492847","0.0-233.0","642700bf265ab07308a02420","665500ab8938657b03fbdba8","6657929aea53e04216ff4831","3820","stimuli/0110011.jpg","0","","prediction_trial","1","","false","","0","true","true","false","false","false","false","[0,1]","110","011","0","","","","","","",""
"","","","","","image-keyboard-response","259","3494015","0.0-234.0","642700bf265ab07308a02420","665500ab8938657b03fbdba8","6657929aea53e04216ff4831","1167","stimuli/01100111.jpg"," ","","feedback_trial","0","","","","","","","","","","","","","","","","","","","","",""
"","","","","","image-keyboard-response","260","3496469","0.0-235.0","642700bf265ab07308a02420","665500ab8938657b03fbdba8","6657929aea53e04216ff4831","2451","stimuli/0100111.jpg","1","","prediction_trial","0","","false","","0","false","false","false","true","false","false","[0]","100","111","0","","","","","","",""
"","","","","","image-keyboard-response","261","3496977","0.0-236.0","642700bf265ab07308a02420","665500ab8938657b03fbdba8","6657929aea53e04216ff4831","507","stimuli/01001110.jpg"," ","","feedback_trial","0","","","","","","","","","","","","","","","","","","","","",""
"","","","","","image-keyboard-response","262","3498953","0.0-237.0","642700bf265ab07308a02420","665500ab8938657b03fbdba8","6657929aea53e04216ff4831","1960","stimuli/1100001.jpg","1","","prediction_trial","1","","true","","1","true","true","true","true","true","true","[1]","100","001","1","","","","","","",""
"","","","","","image-keyboard-response","263","3499361","0.0-238.0","642700bf265ab07308a02420","665500ab8938657b03fbdba8","6657929aea53e04216ff4831","407","stimuli/11000011.jpg"," ","","feedback_trial","1","","","","","","","","","","","","","","","","","","","","",""
"","","","","","image-keyboard-response","264","3500425","0.0-239.0","642700bf265ab07308a02420","665500ab8938657b03fbdba8","6657929aea53e04216ff4831","1061","stimuli/1001101.jpg","1","","prediction_trial","1","","true","","1","true","true","true","true","true","true","[1]","001","101","1","","","","","","",""
"","","","","","image-keyboard-response","265","3500791","0.0-240.0","642700bf265ab07308a02420","665500ab8938657b03fbdba8","6657929aea53e04216ff4831","365","stimuli/10011011.jpg"," ","","feedback_trial","1","","","","","","","","","","","","","","","","","","","","",""
"","","","","","image-keyboard-response","266","3503257","0.0-241.0","642700bf265ab07308a02420","665500ab8938657b03fbdba8","6657929aea53e04216ff4831","2463","stimuli/2011001.jpg","2","","prediction_trial","2","","true","","2","false","true","false","false","false","false","[1,2]","011","001","1","","","","","","",""
"","","","","","image-keyboard-response","267","3503824","0.0-242.0","642700bf265ab07308a02420","665500ab8938657b03fbdba8","6657929aea53e04216ff4831","566","stimuli/20110012.jpg"," ","","feedback_trial","1","","","","","","","","","","","","","","","","","","","","",""
"","","","","","image-keyboard-response","268","3504808","0.0-243.0","642700bf265ab07308a02420","665500ab8938657b03fbdba8","6657929aea53e04216ff4831","981","stimuli/0000001.jpg","0","","prediction_trial","0","","true","","0","true","true","true","true","true","true","[0]","000","001","1","","","","","","",""
"","","","","","image-keyboard-response","269","3505204","0.0-244.0","642700bf265ab07308a02420","665500ab8938657b03fbdba8","6657929aea53e04216ff4831","395","stimuli/00000010.jpg"," ","","feedback_trial","0","","","","","","","","","","","","","","","","","","","","",""
"","","","","","image-keyboard-response","270","3508541","0.0-245.0","642700bf265ab07308a02420","665500ab8938657b03fbdba8","6657929aea53e04216ff4831","3334","stimuli/2110011.jpg","1","","prediction_trial","2","","false","","2","false","false","true","true","false","false","[2]","110","011","0","","","","","","",""
"","","","","","image-keyboard-response","271","3509161","0.0-246.0","642700bf265ab07308a02420","665500ab8938657b03fbdba8","6657929aea53e04216ff4831","618","stimuli/21100112.jpg"," ","","feedback_trial","2","","","","","","","","","","","","","","","","","","","","",""
"","","","","","image-keyboard-response","272","3510996","0.0-247.0","642700bf265ab07308a02420","665500ab8938657b03fbdba8","6657929aea53e04216ff4831","1832","stimuli/2101101.jpg","0","","prediction_trial","0","","true","","2","false","false","false","false","false","false","[0,2]","101","101","1","","","","","","",""
"","","","","","image-keyboard-response","273","3511514","0.0-248.0","642700bf265ab07308a02420","665500ab8938657b03fbdba8","6657929aea53e04216ff4831","516","stimuli/21011010.jpg"," ","","feedback_trial","0","","","","","","","","","","","","","","","","","","","","",""
"","","","","","image-keyboard-response","274","3513909","0.0-249.0","642700bf265ab07308a02420","665500ab8938657b03fbdba8","6657929aea53e04216ff4831","2392","stimuli/2000001.jpg","2","","prediction_trial","2","","true","","2","false","true","true","true","false","true","[2]","000","001","1","","","","","","",""
"","","","","","image-keyboard-response","275","3514304","0.0-250.0","642700bf265ab07308a02420","665500ab8938657b03fbdba8","6657929aea53e04216ff4831","393","stimuli/20000012.jpg"," ","","feedback_trial","2","","","","","","","","","","","","","","","","","","","","",""
"","","","","","image-keyboard-response","276","3516494","0.0-251.0","642700bf265ab07308a02420","665500ab8938657b03fbdba8","6657929aea53e04216ff4831","2187","stimuli/2110100.jpg","2","","prediction_trial","2","","true","","2","true","true","true","true","true","true","[2]","110","100","1","","","","","","",""
"","","","","","image-keyboard-response","277","3516841","0.0-252.0","642700bf265ab07308a02420","665500ab8938657b03fbdba8","6657929aea53e04216ff4831","344","stimuli/21101002.jpg"," ","","feedback_trial","2","","","","","","","","","","","","","","","","","","","","",""
"","","","","","image-keyboard-response","278","3519864","0.0-253.0","642700bf265ab07308a02420","665500ab8938657b03fbdba8","6657929aea53e04216ff4831","3019","stimuli/2100111.jpg","0","","prediction_trial","2","","false","","2","false","false","true","true","false","false","[2]","100","111","0","","","","","","",""
"","","","","","image-keyboard-response","279","3520484","0.0-254.0","642700bf265ab07308a02420","665500ab8938657b03fbdba8","6657929aea53e04216ff4831","618","stimuli/21001112.jpg"," ","","feedback_trial","2","","","","","","","","","","","","","","","","","","","","",""
"","","","","","image-keyboard-response","280","3523851","0.0-255.0","642700bf265ab07308a02420","665500ab8938657b03fbdba8","6657929aea53e04216ff4831","3365","stimuli/0001101.jpg","2","","prediction_trial","0","","false","","0","false","false","true","true","false","false","[0]","001","101","0","","","","","","",""
"","","","","","image-keyboard-response","281","3524848","0.0-256.0","642700bf265ab07308a02420","665500ab8938657b03fbdba8","6657929aea53e04216ff4831","980","stimuli/00011010.jpg"," ","","feedback_trial","0","","","","","","","","","","","","","","","","","","","","",""
"","","","","","image-keyboard-response","282","3525911","0.0-257.0","642700bf265ab07308a02420","665500ab8938657b03fbdba8","6657929aea53e04216ff4831","1060","stimuli/0010011.jpg","0","","prediction_trial","0","","true","","0","true","true","true","true","true","true","[0]","010","011","1","","","","","","",""
"","","","","","image-keyboard-response","283","3526256","0.0-258.0","642700bf265ab07308a02420","665500ab8938657b03fbdba8","6657929aea53e04216ff4831","343","stimuli/00100110.jpg"," ","","feedback_trial","0","","","","","","","","","","","","","","","","","","","","",""
"","","","","","image-keyboard-response","284","3527950","0.0-259.0","642700bf265ab07308a02420","665500ab8938657b03fbdba8","6657929aea53e04216ff4831","1690","stimuli/0000101.jpg","2","","prediction_trial","0","","false","","0","false","false","true","true","false","false","[0]","000","101","0","","","","","","",""
"","","","","","image-keyboard-response","285","3529199","0.0-260.0","642700bf265ab07308a02420","665500ab8938657b03fbdba8","6657929aea53e04216ff4831","1247","stimuli/00001010.jpg"," ","","feedback_trial","0","","","","","","","","","","","","","","","","","","","","",""
"","","","","","image-keyboard-response","286","3530770","0.0-261.0","642700bf265ab07308a02420","665500ab8938657b03fbdba8","6657929aea53e04216ff4831","1569","stimuli/2010111.jpg","2","","prediction_trial","2","","true","","2","false","false","true","true","false","false","[2]","010","111","1","","","","","","",""
"","","","","","image-keyboard-response","287","3531512","0.0-262.0","642700bf265ab07308a02420","665500ab8938657b03fbdba8","6657929aea53e04216ff4831","739","stimuli/20101112.jpg"," ","","feedback_trial","2","","","","","","","","","","","","","","","","","","","","",""
"","","","","","image-keyboard-response","288","3533367","0.0-263.0","642700bf265ab07308a02420","665500ab8938657b03fbdba8","6657929aea53e04216ff4831","1853","stimuli/1100011.jpg","1","","prediction_trial","1","","true","","1","false","false","true","true","false","false","[1]","100","011","1","","","","","","",""
"","","","","","image-keyboard-response","289","3533845","0.0-264.0","642700bf265ab07308a02420","665500ab8938657b03fbdba8","6657929aea53e04216ff4831","476","stimuli/11000111.jpg"," ","","feedback_trial","1","","","","","","","","","","","","","","","","","","","","",""
"","","","","","image-keyboard-response","290","3535773","0.0-265.0","642700bf265ab07308a02420","665500ab8938657b03fbdba8","6657929aea53e04216ff4831","1912","stimuli/1110000.jpg","1","","prediction_trial","1","","true","","1","true","true","false","false","false","false","[0,1]","110","000","1","","","","","","",""
"","","","","","image-keyboard-response","291","3536250","0.0-266.0","642700bf265ab07308a02420","665500ab8938657b03fbdba8","6657929aea53e04216ff4831","475","stimuli/11100001.jpg"," ","","feedback_trial","0","","","","","","","","","","","","","","","","","","","","",""
"","","","","","image-keyboard-response","292","3537902","0.0-267.0","642700bf265ab07308a02420","665500ab8938657b03fbdba8","6657929aea53e04216ff4831","1650","stimuli/2111001.jpg","2","","prediction_trial","2","","true","","2","false","true","false","false","false","false","[0,2,1]","111","001","1","","","","","","",""
"","","","","","image-keyboard-response","293","3538573","0.0-268.0","642700bf265ab07308a02420","665500ab8938657b03fbdba8","6657929aea53e04216ff4831","668","stimuli/21110012.jpg"," ","","feedback_trial","0","","","","","","","","","","","","","","","","","","","","",""
"","","","","","image-keyboard-response","294","3539485","0.0-269.0","642700bf265ab07308a02420","665500ab8938657b03fbdba8","6657929aea53e04216ff4831","909","stimuli/0000011.jpg","0","","prediction_trial","0","","true","","0","true","true","true","true","true","true","[0]","000","011","1","","","","","","",""
"","","","","","image-keyboard-response","295","3539780","0.0-270.0","642700bf265ab07308a02420","665500ab8938657b03fbdba8","6657929aea53e04216ff4831","293","stimuli/00000110.jpg"," ","","feedback_trial","0","","","","","","","","","","","","","","","","","","","","",""
"","","","","","image-keyboard-response","296","3541068","0.0-271.0","642700bf265ab07308a02420","665500ab8938657b03fbdba8","6657929aea53e04216ff4831","1284","stimuli/2001101.jpg","2","","prediction_trial","2","","true","","2","false","false","false","true","false","false","[2]","001","101","1","","","","","","",""
"","","","","","image-keyboard-response","297","3541688","0.0-272.0","642700bf265ab07308a02420","665500ab8938657b03fbdba8","6657929aea53e04216ff4831","618","stimuli/20011012.jpg"," ","","feedback_trial","2","","","","","","","","","","","","","","","","","","","","",""
"","","","","","image-keyboard-response","298","3543028","0.0-273.0","642700bf265ab07308a02420","665500ab8938657b03fbdba8","6657929aea53e04216ff4831","1337","stimuli/1101100.jpg","1","","prediction_trial","1","","true","","1","true","true","true","true","true","true","[1]","101","100","1","","","","","","",""
"","","","","","image-keyboard-response","299","3543453","0.0-274.0","642700bf265ab07308a02420","665500ab8938657b03fbdba8","6657929aea53e04216ff4831","420","stimuli/11011001.jpg"," ","","feedback_trial","1","","","","","","","","","","","","","","","","","","","","",""
"","","","","","image-keyboard-response","300","3544821","0.0-275.0","642700bf265ab07308a02420","665500ab8938657b03fbdba8","6657929aea53e04216ff4831","1365","stimuli/1010011.jpg","2","","prediction_trial","1","","false","","1","false","false","false","true","false","false","[1]","010","011","0","","","","","","",""
"","","","","","image-keyboard-response","301","3545330","0.0-276.0","642700bf265ab07308a02420","665500ab8938657b03fbdba8","6657929aea53e04216ff4831","506","stimuli/10100111.jpg"," ","","feedback_trial","1","","","","","","","","","","","","","","","","","","","","",""
"","","","","","image-keyboard-response","302","3546110","0.0-277.0","642700bf265ab07308a02420","665500ab8938657b03fbdba8","6657929aea53e04216ff4831","778","stimuli/0100010.jpg","0","","prediction_trial","0","","true","","0","true","true","false","true","false","true","[0]","100","010","1","","","","","","",""
"","","","","","image-keyboard-response","303","3546516","0.0-278.0","642700bf265ab07308a02420","665500ab8938657b03fbdba8","6657929aea53e04216ff4831","404","stimuli/01000100.jpg"," ","","feedback_trial","0","","","","","","","","","","","","","","","","","","","","",""
"","","","","","image-keyboard-response","304","3547986","0.0-279.0","642700bf265ab07308a02420","665500ab8938657b03fbdba8","6657929aea53e04216ff4831","1469","stimuli/1011100.jpg","1","","prediction_trial","2","","false","","1","true","true","false","false","false","false","[1,2]","011","100","0","","","","","","",""
"","","","","","image-keyboard-response","305","3548414","0.0-280.0","642700bf265ab07308a02420","665500ab8938657b03fbdba8","6657929aea53e04216ff4831","424","stimuli/10111002.jpg"," ","","feedback_trial","1","","","","","","","","","","","","","","","","","","","","",""
"","","","","","image-keyboard-response","306","3549427","0.0-281.0","642700bf265ab07308a02420","665500ab8938657b03fbdba8","6657929aea53e04216ff4831","1011","stimuli/1011001.jpg","1","","prediction_trial","2","","false","","1","true","true","false","false","false","false","[1,2]","011","001","0","","","","","","",""
"","","","","","image-keyboard-response","307","3549895","0.0-282.0","642700bf265ab07308a02420","665500ab8938657b03fbdba8","6657929aea53e04216ff4831","465","stimuli/10110012.jpg"," ","","feedback_trial","1","","","","","","","","","","","","","","","","","","","","",""
"","","","","","image-keyboard-response","308","3551770","0.0-283.0","642700bf265ab07308a02420","665500ab8938657b03fbdba8","6657929aea53e04216ff4831","1873","stimuli/0000110.jpg","1","","prediction_trial","0","","false","","0","false","false","true","true","false","false","[0]","000","110","0","","","","","","",""
"","","","","","image-keyboard-response","309","3552380","0.0-284.0","642700bf265ab07308a02420","665500ab8938657b03fbdba8","6657929aea53e04216ff4831","593","stimuli/00001100.jpg"," ","","feedback_trial","0","","","","","","","","","","","","","","","","","","","","",""
"","","","","","image-keyboard-response","310","3553789","0.0-285.0","642700bf265ab07308a02420","665500ab8938657b03fbdba8","6657929aea53e04216ff4831","1406","stimuli/2011101.jpg","2","","prediction_trial","2","","true","","2","false","false","false","false","false","false","[1,2]","011","101","1","","","","","","",""
"","","","","","image-keyboard-response","311","3554267","0.0-286.0","642700bf265ab07308a02420","665500ab8938657b03fbdba8","6657929aea53e04216ff4831","475","stimuli/20111012.jpg"," ","","feedback_trial","1","","","","","","","","","","","","","","","","","","","","",""
"","","","","","image-keyboard-response","312","3557980","0.0-287.0","642700bf265ab07308a02420","665500ab8938657b03fbdba8","6657929aea53e04216ff4831","3710","stimuli/2010001.jpg","2","","prediction_trial","2","","true","","2","false","true","true","true","false","true","[2]","010","001","1","","","","","","",""
"","","","","","image-keyboard-response","313","3558416","0.0-288.0","642700bf265ab07308a02420","665500ab8938657b03fbdba8","6657929aea53e04216ff4831","434","stimuli/20100012.jpg"," ","","feedback_trial","2","","","","","","","","","","","","","","","","","","","","",""
"","","","","","image-keyboard-response","314","3564522","0.0-289.0","642700bf265ab07308a02420","665500ab8938657b03fbdba8","6657929aea53e04216ff4831","6103","stimuli/2101001.jpg","2","","prediction_trial","0","","false","","2","false","true","false","false","false","false","[2,0]","101","001","0","","","","","","",""
"","","","","","image-keyboard-response","315","3565050","0.0-290.0","642700bf265ab07308a02420","665500ab8938657b03fbdba8","6657929aea53e04216ff4831","526","stimuli/21010010.jpg"," ","","feedback_trial","2","","","","","","","","","","","","","","","","","","","","",""
"","","","","","image-keyboard-response","316","3566673","0.0-291.0","642700bf265ab07308a02420","665500ab8938657b03fbdba8","6657929aea53e04216ff4831","1622","stimuli/0110000.jpg","0","","prediction_trial","1","","false","","0","true","true","false","false","false","false","[0,1]","110","000","0","","","","","","",""
"","","","","","image-keyboard-response","317","3567171","0.0-292.0","642700bf265ab07308a02420","665500ab8938657b03fbdba8","6657929aea53e04216ff4831","496","stimuli/01100001.jpg"," ","","feedback_trial","0","","","","","","","","","","","","","","","","","","","","",""
"","","","","","survey-html-form","318","3663581","0.0-293.0","642700bf265ab07308a02420","665500ab8938657b03fbdba8","6657929aea53e04216ff4831","96400","","{""feedback"":""Whether or not he could see the ball. everything else was a simple guess."",""age"":""56"",""other_gender"":"""",""race"":""Black/African American"",""other_race"":"""",""ethnicity"":""Hispanic""}","","exit_survey","","","","","","","","","","","","","","","","Whether or not he could see the ball. everything else was a simple guess.","56","Hispanic","","Black/African American","0.6597222222222222","0.6597222222222222"
