"success","timeout","failed_images","failed_audio","failed_video","trial_type","trial_index","time_elapsed","internal_node_id","prolific_id","prolific_study_id","prolific_session_id","rt","stimulus","response","view_history","trial","character_choice","stimulus_dict","accuracy","correct_response","ball_pos","ego_ball_visible","ego_can_infer","alter_ball_visible","alter_can_infer","collective_ball_visible","collective_can_infer","search_locations","alter_occluders","ego_occluders","accuracy_bool","feedback","age","ethnicity","gender","race","overall_accuracy","bonus"
"true","false","[]","[]","[]","preload","0","2665","0.0-0.0","59d8ae913e5ea00001e1d05f","665500ab8938657b03fbdba8","665793374271bb527e6e63ea","","","","","","","","","","","","","","","","","","","","","","","","","","",""
"true","","","","","fullscreen","1","179708","0.0-1.0","59d8ae913e5ea00001e1d05f","665500ab8938657b03fbdba8","665793374271bb527e6e63ea","","","","","","","","","","","","","","","","","","","","","","","","","","",""
"","","","","","html-button-response","2","181672","0.0-2.0","59d8ae913e5ea00001e1d05f","665500ab8938657b03fbdba8","665793374271bb527e6e63ea","1962","<p><b>Consent Form</b></p> <div style=""text-align:left;background-color:lightgrey; padding:20px; max-width:900px;""><p>Please consider this information carefully before deciding whether to participate in this research.</p> <p>The purpose of this research is to examine which factors influence social judgment and decision-making. You will be asked to make judgements about individuals and actions in social scenarios. We are simply interested in your judgement. The study will take less than 1 hour to complete, and you will receive less than $20 on Prolific. Your compensation and time commitment are specified in the study description. There are no anticipated risks associated with participating in this study. The effects of participating should be comparable to those you would ordinarily experience from viewing a computer monitor and using a mouse or keyboard for a similar amount of time. At the end of the study, we will provide an explanation of the questions that motivate this line of research and will describe the potential implications. </p><p> Your participation in this study is completely voluntary and you may refuse to participate or you may choose to withdraw at any time without penalty or loss of benefits to you which are otherwise entitled. Your participation in this study will remain confidential. No personally identifiable information will be associated with your data. Also, all analyses of the data will be averaged across all the participants, so your individual responses will never be specifically analyzed. </p><p> If you have questions or concerns about your participation or payment, or want to request a summary of research findings, please contact Dr. Jonathan Phillips at Jonathan.S.Phillips@dartmouth.edu. </p><p> Please save a copy of this form for your records. </p><p><b>Agreement: </b>The nature and purpose of this research have been sufficiently explained and I agree to participate in this study. I understand that I am free to withdraw at any time without incurring any penalty. Please consent by clicking the button below to continue. Otherwise, please exit the study at any time. </p>","0","","","","","","","","","","","","","","","","","","","","","","","",""
"","","","","","instructions","3","296721","0.0-3.0-0.0","59d8ae913e5ea00001e1d05f","665500ab8938657b03fbdba8","665793374271bb527e6e63ea","115048","","","[{""page_index"":0,""viewing_time"":1085},{""page_index"":1,""viewing_time"":2473},{""page_index"":2,""viewing_time"":3870},{""page_index"":3,""viewing_time"":7952},{""page_index"":4,""viewing_time"":4528},{""page_index"":5,""viewing_time"":17646},{""page_index"":6,""viewing_time"":5002},{""page_index"":7,""viewing_time"":5210},{""page_index"":8,""viewing_time"":5428},{""page_index"":9,""viewing_time"":12175},{""page_index"":10,""viewing_time"":25641},{""page_index"":11,""viewing_time"":17734},{""page_index"":12,""viewing_time"":4350},{""page_index"":13,""viewing_time"":1954}]","intro","","","","","","","","","","","","","","","","","","","","","",""
"","","","","","image-keyboard-response","4","299339","0.0-3.0-1.0","59d8ae913e5ea00001e1d05f","665500ab8938657b03fbdba8","665793374271bb527e6e63ea","2616","stimuli/2000110.jpg","2","","prediction_practice","2","{""filepath"":""stimuli/2000110.jpg"",""ball_pos"":2,""ego_ball_visible"":true,""ego_can_infer"":true,""alter_ball_visible"":true,""alter_can_infer"":true,""collective_ball_visible"":true,""collective_can_infer"":true,""search_locations"":[2],""alter_occluders"":""000"",""ego_occluders"":""110""}","true","","","","","","","","","","","","","","","","","","",""
"","","","","","image-keyboard-response","5","302021","0.0-3.0-2.0","59d8ae913e5ea00001e1d05f","665500ab8938657b03fbdba8","665793374271bb527e6e63ea","2680","stimuli/20001102.jpg"," ","","practrice_feedback","2","","","","","","","","","","","","","","","","","","","","",""
"","","","","","image-keyboard-response","6","307203","0.0-3.0-3.0","59d8ae913e5ea00001e1d05f","665500ab8938657b03fbdba8","665793374271bb527e6e63ea","5182","stimuli/2011000.jpg","2","","prediction_practice","2","{""filepath"":""stimuli/2011000.jpg"",""ball_pos"":2,""ego_ball_visible"":true,""ego_can_infer"":true,""alter_ball_visible"":false,""alter_can_infer"":false,""collective_ball_visible"":false,""collective_can_infer"":false,""search_locations"":[1,2],""alter_occluders"":""011"",""ego_occluders"":""000""}","true","","","","","","","","","","","","","","","","","","",""
"","","","","","image-keyboard-response","7","308406","0.0-3.0-4.0","59d8ae913e5ea00001e1d05f","665500ab8938657b03fbdba8","665793374271bb527e6e63ea","1203","stimuli/20110002.jpg"," ","","practrice_feedback","1","","","","","","","","","","","","","","","","","","","","",""
"","","","","","image-keyboard-response","8","313754","0.0-3.0-5.0","59d8ae913e5ea00001e1d05f","665500ab8938657b03fbdba8","665793374271bb527e6e63ea","5347","stimuli/2011010.jpg","2","","prediction_practice","1","{""filepath"":""stimuli/2011010.jpg"",""ball_pos"":2,""ego_ball_visible"":true,""ego_can_infer"":true,""alter_ball_visible"":false,""alter_can_infer"":false,""collective_ball_visible"":false,""collective_can_infer"":false,""search_locations"":[2,1],""alter_occluders"":""011"",""ego_occluders"":""010""}","false","","","","","","","","","","","","","","","","","","",""
"","","","","","image-keyboard-response","9","314962","0.0-3.0-6.0","59d8ae913e5ea00001e1d05f","665500ab8938657b03fbdba8","665793374271bb527e6e63ea","1207","stimuli/20110101.jpg"," ","","practrice_feedback","2","","","","","","","","","","","","","","","","","","","","",""
"","","","","","image-keyboard-response","10","321165","0.0-3.0-7.0","59d8ae913e5ea00001e1d05f","665500ab8938657b03fbdba8","665793374271bb527e6e63ea","6198","stimuli/0101100.jpg","0","","prediction_practice","0","{""filepath"":""stimuli/0101100.jpg"",""ball_pos"":0,""ego_ball_visible"":false,""ego_can_infer"":true,""alter_ball_visible"":false,""alter_can_infer"":false,""collective_ball_visible"":false,""collective_can_infer"":false,""search_locations"":[0,2],""alter_occluders"":""101"",""ego_occluders"":""100""}","true","","","","","","","","","","","","","","","","","","",""
"","","","","","image-keyboard-response","11","322403","0.0-3.0-8.0","59d8ae913e5ea00001e1d05f","665500ab8938657b03fbdba8","665793374271bb527e6e63ea","1237","stimuli/01011000.jpg"," ","","practrice_feedback","0","","","","","","","","","","","","","","","","","","","","",""
"","","","","","image-keyboard-response","12","324707","0.0-3.0-9.0","59d8ae913e5ea00001e1d05f","665500ab8938657b03fbdba8","665793374271bb527e6e63ea","2303","stimuli/2000010.jpg","2","","prediction_practice","2","{""filepath"":""stimuli/2000010.jpg"",""ball_pos"":2,""ego_ball_visible"":true,""ego_can_infer"":true,""alter_ball_visible"":true,""alter_can_infer"":true,""collective_ball_visible"":true,""collective_can_infer"":true,""search_locations"":[2],""alter_occluders"":""000"",""ego_occluders"":""010""}","true","","","","","","","","","","","","","","","","","","",""
"","","","","","image-keyboard-response","13","325483","0.0-3.0-10.0","59d8ae913e5ea00001e1d05f","665500ab8938657b03fbdba8","665793374271bb527e6e63ea","776","stimuli/20000102.jpg"," ","","practrice_feedback","2","","","","","","","","","","","","","","","","","","","","",""
"","","","","","image-keyboard-response","14","332259","0.0-3.0-11.0","59d8ae913e5ea00001e1d05f","665500ab8938657b03fbdba8","665793374271bb527e6e63ea","6775","stimuli/2101111.jpg","2","","prediction_practice","2","{""filepath"":""stimuli/2101111.jpg"",""ball_pos"":2,""ego_ball_visible"":false,""ego_can_infer"":false,""alter_ball_visible"":false,""alter_can_infer"":false,""collective_ball_visible"":false,""collective_can_infer"":false,""search_locations"":[0,2],""alter_occluders"":""101"",""ego_occluders"":""111""}","true","","","","","","","","","","","","","","","","","","",""
"","","","","","image-keyboard-response","15","333569","0.0-3.0-12.0","59d8ae913e5ea00001e1d05f","665500ab8938657b03fbdba8","665793374271bb527e6e63ea","1310","stimuli/21011112.jpg"," ","","practrice_feedback","0","","","","","","","","","","","","","","","","","","","","",""
"","","","","","image-keyboard-response","16","342052","0.0-3.0-13.0","59d8ae913e5ea00001e1d05f","665500ab8938657b03fbdba8","665793374271bb527e6e63ea","8478","stimuli/2001111.jpg","2","","prediction_practice","2","{""filepath"":""stimuli/2001111.jpg"",""ball_pos"":2,""ego_ball_visible"":false,""ego_can_infer"":false,""alter_ball_visible"":false,""alter_can_infer"":true,""collective_ball_visible"":false,""collective_can_infer"":false,""search_locations"":[2],""alter_occluders"":""001"",""ego_occluders"":""111""}","true","","","","","","","","","","","","","","","","","","",""
"","","","","","image-keyboard-response","17","343575","0.0-3.0-14.0","59d8ae913e5ea00001e1d05f","665500ab8938657b03fbdba8","665793374271bb527e6e63ea","1522","stimuli/20011112.jpg"," ","","practrice_feedback","2","","","","","","","","","","","","","","","","","","","","",""
"","","","","","image-keyboard-response","18","348447","0.0-3.0-15.0","59d8ae913e5ea00001e1d05f","665500ab8938657b03fbdba8","665793374271bb527e6e63ea","4872","stimuli/1010110.jpg","1","","prediction_practice","1","{""filepath"":""stimuli/1010110.jpg"",""ball_pos"":1,""ego_ball_visible"":false,""ego_can_infer"":false,""alter_ball_visible"":false,""alter_can_infer"":true,""collective_ball_visible"":false,""collective_can_infer"":false,""search_locations"":[1],""alter_occluders"":""010"",""ego_occluders"":""110""}","true","","","","","","","","","","","","","","","","","","",""
"","","","","","image-keyboard-response","19","349235","0.0-3.0-16.0","59d8ae913e5ea00001e1d05f","665500ab8938657b03fbdba8","665793374271bb527e6e63ea","788","stimuli/10101101.jpg"," ","","practrice_feedback","1","","","","","","","","","","","","","","","","","","","","",""
"","","","","","image-keyboard-response","20","354584","0.0-3.0-17.0","59d8ae913e5ea00001e1d05f","665500ab8938657b03fbdba8","665793374271bb527e6e63ea","5348","stimuli/1000010.jpg","1","","prediction_practice","1","{""filepath"":""stimuli/1000010.jpg"",""ball_pos"":1,""ego_ball_visible"":false,""ego_can_infer"":true,""alter_ball_visible"":true,""alter_can_infer"":true,""collective_ball_visible"":false,""collective_can_infer"":true,""search_locations"":[1],""alter_occluders"":""000"",""ego_occluders"":""010""}","true","","","","","","","","","","","","","","","","","","",""
"","","","","","image-keyboard-response","21","355353","0.0-3.0-18.0","59d8ae913e5ea00001e1d05f","665500ab8938657b03fbdba8","665793374271bb527e6e63ea","768","stimuli/10000101.jpg"," ","","practrice_feedback","1","","","","","","","","","","","","","","","","","","","","",""
"","","","","","image-keyboard-response","22","360724","0.0-3.0-19.0","59d8ae913e5ea00001e1d05f","665500ab8938657b03fbdba8","665793374271bb527e6e63ea","5366","stimuli/2010001.jpg","2","","prediction_practice","2","{""filepath"":""stimuli/2010001.jpg"",""ball_pos"":2,""ego_ball_visible"":false,""ego_can_infer"":true,""alter_ball_visible"":true,""alter_can_infer"":true,""collective_ball_visible"":false,""collective_can_infer"":true,""search_locations"":[2],""alter_occluders"":""010"",""ego_occluders"":""001""}","true","","","","","","","","","","","","","","","","","","",""
"","","","","","image-keyboard-response","23","361521","0.0-3.0-20.0","59d8ae913e5ea00001e1d05f","665500ab8938657b03fbdba8","665793374271bb527e6e63ea","797","stimuli/20100012.jpg"," ","","practrice_feedback","2","","","","","","","","","","","","","","","","","","","","",""
"","","","","","html-button-response","24","367895","0.0-3.0-21.0","59d8ae913e5ea00001e1d05f","665500ab8938657b03fbdba8","665793374271bb527e6e63ea","6372","Now that you've had some practice, you'll be tested with a couple of easy trials. If you correctly predict Sam's choice, you'll move on to complete the experiment!","0","","","","","","","","","","","","","","","","","","","","","","","",""
"","","","","","image-keyboard-response","25","371128","0.0-3.0-22.0-0.0","59d8ae913e5ea00001e1d05f","665500ab8938657b03fbdba8","665793374271bb527e6e63ea","3233","stimuli/0000011.jpg","arrowleft","","comprehension_quiz","","","true","arrowleft","","","","","","","","","","","","","","","","","",""
"","","","","","image-keyboard-response","26","372119","0.0-3.0-22.0-1.0","59d8ae913e5ea00001e1d05f","665500ab8938657b03fbdba8","665793374271bb527e6e63ea","990","stimuli/00000110.jpg"," ","","comprehension_quiz","","","true"," ","","","","","","","","","","","","","","","","","",""
"","","","","","image-keyboard-response","27","374397","0.0-3.0-22.0-2.0","59d8ae913e5ea00001e1d05f","665500ab8938657b03fbdba8","665793374271bb527e6e63ea","2277","stimuli/1010010.jpg","arrowdown","","comprehension_quiz","","","true","arrowdown","","","","","","","","","","","","","","","","","",""
"","","","","","image-keyboard-response","28","374875","0.0-3.0-22.0-3.0","59d8ae913e5ea00001e1d05f","665500ab8938657b03fbdba8","665793374271bb527e6e63ea","477","stimuli/10100101.jpg"," ","","comprehension_quiz","","","true"," ","","","","","","","","","","","","","","","","","",""
"","","","","","html-button-response","29","376938","0.0-4.0","59d8ae913e5ea00001e1d05f","665500ab8938657b03fbdba8","665793374271bb527e6e63ea","2062","The experiment will now begin.","0","","","","","","","","","","","","","","","","","","","","","","","",""
"","","","","","image-keyboard-response","30","380524","0.0-5.0","59d8ae913e5ea00001e1d05f","665500ab8938657b03fbdba8","665793374271bb527e6e63ea","3580","stimuli/2011010.jpg","2","","prediction_trial","1","","false","","2","true","true","false","false","false","false","[2,1]","011","010","0","","","","","","",""
"","","","","","image-keyboard-response","31","381617","0.0-6.0","59d8ae913e5ea00001e1d05f","665500ab8938657b03fbdba8","665793374271bb527e6e63ea","1093","stimuli/20110101.jpg"," ","","feedback_trial","2","","","","","","","","","","","","","","","","","","","","",""
"","","","","","image-keyboard-response","32","385233","0.0-7.0","59d8ae913e5ea00001e1d05f","665500ab8938657b03fbdba8","665793374271bb527e6e63ea","3616","stimuli/1110001.jpg","1","","prediction_trial","0","","false","","1","true","true","false","false","false","false","[1,0]","110","001","0","","","","","","",""
"","","","","","image-keyboard-response","33","386086","0.0-8.0","59d8ae913e5ea00001e1d05f","665500ab8938657b03fbdba8","665793374271bb527e6e63ea","853","stimuli/11100010.jpg"," ","","feedback_trial","1","","","","","","","","","","","","","","","","","","","","",""
"","","","","","image-keyboard-response","34","389309","0.0-9.0","59d8ae913e5ea00001e1d05f","665500ab8938657b03fbdba8","665793374271bb527e6e63ea","3222","stimuli/1110000.jpg","1","","prediction_trial","1","","true","","1","true","true","false","false","false","false","[1,0]","110","000","1","","","","","","",""
"","","","","","image-keyboard-response","35","389956","0.0-10.0","59d8ae913e5ea00001e1d05f","665500ab8938657b03fbdba8","665793374271bb527e6e63ea","646","stimuli/11100001.jpg"," ","","feedback_trial","1","","","","","","","","","","","","","","","","","","","","",""
"","","","","","image-keyboard-response","36","393429","0.0-11.0","59d8ae913e5ea00001e1d05f","665500ab8938657b03fbdba8","665793374271bb527e6e63ea","3468","stimuli/2110111.jpg","1","","prediction_trial","2","","false","","2","false","false","true","true","false","false","[2]","110","111","0","","","","","","",""
"","","","","","image-keyboard-response","37","395586","0.0-12.0","59d8ae913e5ea00001e1d05f","665500ab8938657b03fbdba8","665793374271bb527e6e63ea","2157","stimuli/21101112.jpg"," ","","feedback_trial","2","","","","","","","","","","","","","","","","","","","","",""
"","","","","","image-keyboard-response","38","398608","0.0-13.0","59d8ae913e5ea00001e1d05f","665500ab8938657b03fbdba8","665793374271bb527e6e63ea","3022","stimuli/0001111.jpg","2","","prediction_trial","0","","false","","0","false","false","true","true","false","false","[0]","001","111","0","","","","","","",""
"","","","","","image-keyboard-response","39","399288","0.0-14.0","59d8ae913e5ea00001e1d05f","665500ab8938657b03fbdba8","665793374271bb527e6e63ea","679","stimuli/00011110.jpg"," ","","feedback_trial","0","","","","","","","","","","","","","","","","","","","","",""
"","","","","","image-keyboard-response","40","403149","0.0-15.0","59d8ae913e5ea00001e1d05f","665500ab8938657b03fbdba8","665793374271bb527e6e63ea","3861","stimuli/1010011.jpg","1","","prediction_trial","1","","true","","1","false","false","false","true","false","false","[1]","010","011","1","","","","","","",""
"","","","","","image-keyboard-response","41","403871","0.0-16.0","59d8ae913e5ea00001e1d05f","665500ab8938657b03fbdba8","665793374271bb527e6e63ea","722","stimuli/10100111.jpg"," ","","feedback_trial","1","","","","","","","","","","","","","","","","","","","","",""
"","","","","","image-keyboard-response","42","405563","0.0-17.0","59d8ae913e5ea00001e1d05f","665500ab8938657b03fbdba8","665793374271bb527e6e63ea","1687","stimuli/2111101.jpg","0","","prediction_trial","2","","false","","2","false","false","false","false","false","false","[1,2,0]","111","101","0","","","","","","",""
"","","","","","image-keyboard-response","43","406210","0.0-18.0","59d8ae913e5ea00001e1d05f","665500ab8938657b03fbdba8","665793374271bb527e6e63ea","646","stimuli/21111012.jpg"," ","","feedback_trial","1","","","","","","","","","","","","","","","","","","","","",""
"","","","","","image-keyboard-response","44","407791","0.0-19.0","59d8ae913e5ea00001e1d05f","665500ab8938657b03fbdba8","665793374271bb527e6e63ea","1581","stimuli/0111000.jpg","0","","prediction_trial","2","","false","","0","true","true","false","false","false","false","[0,1,2]","111","000","0","","","","","","",""
"","","","","","image-keyboard-response","45","408749","0.0-20.0","59d8ae913e5ea00001e1d05f","665500ab8938657b03fbdba8","665793374271bb527e6e63ea","957","stimuli/01110002.jpg"," ","","feedback_trial","0","","","","","","","","","","","","","","","","","","","","",""
"","","","","","image-keyboard-response","46","412037","0.0-21.0","59d8ae913e5ea00001e1d05f","665500ab8938657b03fbdba8","665793374271bb527e6e63ea","3288","stimuli/1100010.jpg","1","","prediction_trial","1","","true","","1","false","true","true","true","false","true","[1]","100","010","1","","","","","","",""
"","","","","","image-keyboard-response","47","412476","0.0-22.0","59d8ae913e5ea00001e1d05f","665500ab8938657b03fbdba8","665793374271bb527e6e63ea","437","stimuli/11000101.jpg"," ","","feedback_trial","1","","","","","","","","","","","","","","","","","","","","",""
"","","","","","image-keyboard-response","48","415420","0.0-23.0","59d8ae913e5ea00001e1d05f","665500ab8938657b03fbdba8","665793374271bb527e6e63ea","2940","stimuli/0111100.jpg","0","","prediction_trial","0","","true","","0","false","true","false","false","false","false","[1,2,0]","111","100","1","","","","","","",""
"","","","","","image-keyboard-response","49","416039","0.0-24.0","59d8ae913e5ea00001e1d05f","665500ab8938657b03fbdba8","665793374271bb527e6e63ea","619","stimuli/01111000.jpg"," ","","feedback_trial","1","","","","","","","","","","","","","","","","","","","","",""
"","","","","","image-keyboard-response","50","417375","0.0-25.0","59d8ae913e5ea00001e1d05f","665500ab8938657b03fbdba8","665793374271bb527e6e63ea","1335","stimuli/1100000.jpg","1","","prediction_trial","1","","true","","1","true","true","true","true","true","true","[1]","100","000","1","","","","","","",""
"","","","","","image-keyboard-response","51","417722","0.0-26.0","59d8ae913e5ea00001e1d05f","665500ab8938657b03fbdba8","665793374271bb527e6e63ea","346","stimuli/11000001.jpg"," ","","feedback_trial","1","","","","","","","","","","","","","","","","","","","","",""
"","","","","","image-keyboard-response","52","420224","0.0-27.0","59d8ae913e5ea00001e1d05f","665500ab8938657b03fbdba8","665793374271bb527e6e63ea","2501","stimuli/1110010.jpg","1","","prediction_trial","1","","true","","1","false","true","false","false","false","false","[1,0]","110","010","1","","","","","","",""
"","","","","","image-keyboard-response","53","420707","0.0-28.0","59d8ae913e5ea00001e1d05f","665500ab8938657b03fbdba8","665793374271bb527e6e63ea","483","stimuli/11100101.jpg"," ","","feedback_trial","1","","","","","","","","","","","","","","","","","","","","",""
"","","","","","image-keyboard-response","54","421919","0.0-29.0","59d8ae913e5ea00001e1d05f","665500ab8938657b03fbdba8","665793374271bb527e6e63ea","1207","stimuli/0010010.jpg","0","","prediction_trial","0","","true","","0","true","true","true","true","true","true","[0]","010","010","1","","","","","","",""
"","","","","","image-keyboard-response","55","422304","0.0-30.0","59d8ae913e5ea00001e1d05f","665500ab8938657b03fbdba8","665793374271bb527e6e63ea","384","stimuli/00100100.jpg"," ","","feedback_trial","0","","","","","","","","","","","","","","","","","","","","",""
"","","","","","image-keyboard-response","56","426656","0.0-31.0","59d8ae913e5ea00001e1d05f","665500ab8938657b03fbdba8","665793374271bb527e6e63ea","4351","stimuli/2010111.jpg","1","","prediction_trial","2","","false","","2","false","false","true","true","false","false","[2]","010","111","0","","","","","","",""
"","","","","","image-keyboard-response","57","427228","0.0-32.0","59d8ae913e5ea00001e1d05f","665500ab8938657b03fbdba8","665793374271bb527e6e63ea","571","stimuli/20101112.jpg"," ","","feedback_trial","2","","","","","","","","","","","","","","","","","","","","",""
"","","","","","image-keyboard-response","58","428493","0.0-33.0","59d8ae913e5ea00001e1d05f","665500ab8938657b03fbdba8","665793374271bb527e6e63ea","1266","stimuli/0011001.jpg","0","","prediction_trial","0","","true","","0","true","true","true","true","true","true","[0]","011","001","1","","","","","","",""
"","","","","","image-keyboard-response","59","429024","0.0-34.0","59d8ae913e5ea00001e1d05f","665500ab8938657b03fbdba8","665793374271bb527e6e63ea","530","stimuli/00110010.jpg"," ","","feedback_trial","0","","","","","","","","","","","","","","","","","","","","",""
"","","","","","image-keyboard-response","60","432123","0.0-35.0","59d8ae913e5ea00001e1d05f","665500ab8938657b03fbdba8","665793374271bb527e6e63ea","3094","stimuli/0010111.jpg","1","","prediction_trial","0","","false","","0","false","false","true","true","false","false","[0]","010","111","0","","","","","","",""
"","","","","","image-keyboard-response","61","433494","0.0-36.0","59d8ae913e5ea00001e1d05f","665500ab8938657b03fbdba8","665793374271bb527e6e63ea","1370","stimuli/00101110.jpg"," ","","feedback_trial","0","","","","","","","","","","","","","","","","","","","","",""
"","","","","","image-keyboard-response","62","437048","0.0-37.0","59d8ae913e5ea00001e1d05f","665500ab8938657b03fbdba8","665793374271bb527e6e63ea","3553","stimuli/1110011.jpg","1","","prediction_trial","1","","true","","1","false","false","false","false","false","false","[1,0]","110","011","1","","","","","","",""
"","","","","","image-keyboard-response","63","437438","0.0-38.0","59d8ae913e5ea00001e1d05f","665500ab8938657b03fbdba8","665793374271bb527e6e63ea","389","stimuli/11100111.jpg"," ","","feedback_trial","1","","","","","","","","","","","","","","","","","","","","",""
"","","","","","image-keyboard-response","64","438706","0.0-39.0","59d8ae913e5ea00001e1d05f","665500ab8938657b03fbdba8","665793374271bb527e6e63ea","1268","stimuli/0000001.jpg","0","","prediction_trial","0","","true","","0","true","true","true","true","true","true","[0]","000","001","1","","","","","","",""
"","","","","","image-keyboard-response","65","439101","0.0-40.0","59d8ae913e5ea00001e1d05f","665500ab8938657b03fbdba8","665793374271bb527e6e63ea","394","stimuli/00000010.jpg"," ","","feedback_trial","0","","","","","","","","","","","","","","","","","","","","",""
"","","","","","image-keyboard-response","66","441066","0.0-41.0","59d8ae913e5ea00001e1d05f","665500ab8938657b03fbdba8","665793374271bb527e6e63ea","1960","stimuli/1010111.jpg","1","","prediction_trial","1","","true","","1","false","false","false","true","false","false","[1]","010","111","1","","","","","","",""
"","","","","","image-keyboard-response","67","441449","0.0-42.0","59d8ae913e5ea00001e1d05f","665500ab8938657b03fbdba8","665793374271bb527e6e63ea","383","stimuli/10101111.jpg"," ","","feedback_trial","1","","","","","","","","","","","","","","","","","","","","",""
"","","","","","image-keyboard-response","68","445152","0.0-43.0","59d8ae913e5ea00001e1d05f","665500ab8938657b03fbdba8","665793374271bb527e6e63ea","3702","stimuli/0100110.jpg","0","","prediction_trial","0","","true","","0","false","false","false","true","false","false","[0]","100","110","1","","","","","","",""
"","","","","","image-keyboard-response","69","445785","0.0-44.0","59d8ae913e5ea00001e1d05f","665500ab8938657b03fbdba8","665793374271bb527e6e63ea","633","stimuli/01001100.jpg"," ","","feedback_trial","0","","","","","","","","","","","","","","","","","","","","",""
"","","","","","image-keyboard-response","70","447806","0.0-45.0","59d8ae913e5ea00001e1d05f","665500ab8938657b03fbdba8","665793374271bb527e6e63ea","2020","stimuli/2000011.jpg","1","","prediction_trial","2","","false","","2","false","false","true","true","false","false","[2]","000","011","0","","","","","","",""
"","","","","","image-keyboard-response","71","448291","0.0-46.0","59d8ae913e5ea00001e1d05f","665500ab8938657b03fbdba8","665793374271bb527e6e63ea","484","stimuli/20000112.jpg"," ","","feedback_trial","2","","","","","","","","","","","","","","","","","","","","",""
"","","","","","image-keyboard-response","72","449220","0.0-47.0","59d8ae913e5ea00001e1d05f","665500ab8938657b03fbdba8","665793374271bb527e6e63ea","924","stimuli/0111011.jpg","0","","prediction_trial","1","","false","","0","true","true","false","false","false","false","[2,0,1]","111","011","0","","","","","","",""
"","","","","","image-keyboard-response","73","449975","0.0-48.0","59d8ae913e5ea00001e1d05f","665500ab8938657b03fbdba8","665793374271bb527e6e63ea","755","stimuli/01110111.jpg"," ","","feedback_trial","2","","","","","","","","","","","","","","","","","","","","",""
"","","","","","image-keyboard-response","74","452537","0.0-49.0","59d8ae913e5ea00001e1d05f","665500ab8938657b03fbdba8","665793374271bb527e6e63ea","2562","stimuli/1100100.jpg","1","","prediction_trial","1","","true","","1","true","true","true","true","true","true","[1]","100","100","1","","","","","","",""
"","","","","","image-keyboard-response","75","453001","0.0-50.0","59d8ae913e5ea00001e1d05f","665500ab8938657b03fbdba8","665793374271bb527e6e63ea","463","stimuli/11001001.jpg"," ","","feedback_trial","1","","","","","","","","","","","","","","","","","","","","",""
"","","","","","image-keyboard-response","76","454021","0.0-51.0","59d8ae913e5ea00001e1d05f","665500ab8938657b03fbdba8","665793374271bb527e6e63ea","1019","stimuli/1000000.jpg","1","","prediction_trial","1","","true","","1","true","true","true","true","true","true","[1]","000","000","1","","","","","","",""
"","","","","","image-keyboard-response","77","454429","0.0-52.0","59d8ae913e5ea00001e1d05f","665500ab8938657b03fbdba8","665793374271bb527e6e63ea","408","stimuli/10000001.jpg"," ","","feedback_trial","1","","","","","","","","","","","","","","","","","","","","",""
"","","","","","image-keyboard-response","78","456146","0.0-53.0","59d8ae913e5ea00001e1d05f","665500ab8938657b03fbdba8","665793374271bb527e6e63ea","1711","stimuli/0101100.jpg","0","","prediction_trial","2","","false","","0","false","true","false","false","false","false","[0,2]","101","100","0","","","","","","",""
"","","","","","image-keyboard-response","79","456909","0.0-54.0","59d8ae913e5ea00001e1d05f","665500ab8938657b03fbdba8","665793374271bb527e6e63ea","763","stimuli/01011002.jpg"," ","","feedback_trial","0","","","","","","","","","","","","","","","","","","","","",""
"","","","","","image-keyboard-response","80","458086","0.0-55.0","59d8ae913e5ea00001e1d05f","665500ab8938657b03fbdba8","665793374271bb527e6e63ea","1177","stimuli/1001100.jpg","1","","prediction_trial","1","","true","","1","true","true","true","true","true","true","[1]","001","100","1","","","","","","",""
"","","","","","image-keyboard-response","81","458516","0.0-56.0","59d8ae913e5ea00001e1d05f","665500ab8938657b03fbdba8","665793374271bb527e6e63ea","429","stimuli/10011001.jpg"," ","","feedback_trial","1","","","","","","","","","","","","","","","","","","","","",""
"","","","","","image-keyboard-response","82","462368","0.0-57.0","59d8ae913e5ea00001e1d05f","665500ab8938657b03fbdba8","665793374271bb527e6e63ea","3851","stimuli/0110110.jpg","1","","prediction_trial","1","","true","","0","false","false","false","false","false","false","[0,1]","110","110","1","","","","","","",""
"","","","","","image-keyboard-response","83","462767","0.0-58.0","59d8ae913e5ea00001e1d05f","665500ab8938657b03fbdba8","665793374271bb527e6e63ea","398","stimuli/01101101.jpg"," ","","feedback_trial","0","","","","","","","","","","","","","","","","","","","","",""
"","","","","","image-keyboard-response","84","463944","0.0-59.0","59d8ae913e5ea00001e1d05f","665500ab8938657b03fbdba8","665793374271bb527e6e63ea","1172","stimuli/0011010.jpg","0","","prediction_trial","0","","true","","0","true","true","true","true","true","true","[0]","011","010","1","","","","","","",""
"","","","","","image-keyboard-response","85","464381","0.0-60.0","59d8ae913e5ea00001e1d05f","665500ab8938657b03fbdba8","665793374271bb527e6e63ea","436","stimuli/00110100.jpg"," ","","feedback_trial","0","","","","","","","","","","","","","","","","","","","","",""
"","","","","","image-keyboard-response","86","466514","0.0-61.0","59d8ae913e5ea00001e1d05f","665500ab8938657b03fbdba8","665793374271bb527e6e63ea","2133","stimuli/0101011.jpg","0","","prediction_trial","0","","true","","0","true","true","false","false","false","false","[0,2]","101","011","1","","","","","","",""
"","","","","","image-keyboard-response","87","467032","0.0-62.0","59d8ae913e5ea00001e1d05f","665500ab8938657b03fbdba8","665793374271bb527e6e63ea","517","stimuli/01010110.jpg"," ","","feedback_trial","0","","","","","","","","","","","","","","","","","","","","",""
"","","","","","image-keyboard-response","88","468233","0.0-63.0","59d8ae913e5ea00001e1d05f","665500ab8938657b03fbdba8","665793374271bb527e6e63ea","1201","stimuli/0100100.jpg","0","","prediction_trial","0","","true","","0","false","true","false","true","false","true","[0]","100","100","1","","","","","","",""
"","","","","","image-keyboard-response","89","468699","0.0-64.0","59d8ae913e5ea00001e1d05f","665500ab8938657b03fbdba8","665793374271bb527e6e63ea","465","stimuli/01001000.jpg"," ","","feedback_trial","0","","","","","","","","","","","","","","","","","","","","",""
"","","","","","image-keyboard-response","90","469896","0.0-65.0","59d8ae913e5ea00001e1d05f","665500ab8938657b03fbdba8","665793374271bb527e6e63ea","1192","stimuli/0000000.jpg","0","","prediction_trial","0","","true","","0","true","true","true","true","true","true","[0]","000","000","1","","","","","","",""
"","","","","","image-keyboard-response","91","470318","0.0-66.0","59d8ae913e5ea00001e1d05f","665500ab8938657b03fbdba8","665793374271bb527e6e63ea","421","stimuli/00000000.jpg"," ","","feedback_trial","0","","","","","","","","","","","","","","","","","","","","",""
"","","","","","image-keyboard-response","92","472220","0.0-67.0","59d8ae913e5ea00001e1d05f","665500ab8938657b03fbdba8","665793374271bb527e6e63ea","1902","stimuli/1111010.jpg","1","","prediction_trial","1","","true","","1","false","true","false","false","false","false","[0,1,2]","111","010","1","","","","","","",""
"","","","","","image-keyboard-response","93","472707","0.0-68.0","59d8ae913e5ea00001e1d05f","665500ab8938657b03fbdba8","665793374271bb527e6e63ea","487","stimuli/11110101.jpg"," ","","feedback_trial","0","","","","","","","","","","","","","","","","","","","","",""
"","","","","","image-keyboard-response","94","475394","0.0-69.0","59d8ae913e5ea00001e1d05f","665500ab8938657b03fbdba8","665793374271bb527e6e63ea","2686","stimuli/2101111.jpg","2","","prediction_trial","2","","true","","2","false","false","false","false","false","false","[0,2]","101","111","1","","","","","","",""
"","","","","","image-keyboard-response","95","476068","0.0-70.0","59d8ae913e5ea00001e1d05f","665500ab8938657b03fbdba8","665793374271bb527e6e63ea","674","stimuli/21011112.jpg"," ","","feedback_trial","0","","","","","","","","","","","","","","","","","","","","",""
"","","","","","image-keyboard-response","96","477013","0.0-71.0","59d8ae913e5ea00001e1d05f","665500ab8938657b03fbdba8","665793374271bb527e6e63ea","940","stimuli/2101000.jpg","2","","prediction_trial","0","","false","","2","true","true","false","false","false","false","[2,0]","101","000","0","","","","","","",""
"","","","","","image-keyboard-response","97","477999","0.0-72.0","59d8ae913e5ea00001e1d05f","665500ab8938657b03fbdba8","665793374271bb527e6e63ea","986","stimuli/21010000.jpg"," ","","feedback_trial","2","","","","","","","","","","","","","","","","","","","","",""
"","","","","","image-keyboard-response","98","479077","0.0-73.0","59d8ae913e5ea00001e1d05f","665500ab8938657b03fbdba8","665793374271bb527e6e63ea","1078","stimuli/0001001.jpg","0","","prediction_trial","0","","true","","0","true","true","true","true","true","true","[0]","001","001","1","","","","","","",""
"","","","","","image-keyboard-response","99","479399","0.0-74.0","59d8ae913e5ea00001e1d05f","665500ab8938657b03fbdba8","665793374271bb527e6e63ea","321","stimuli/00010010.jpg"," ","","feedback_trial","0","","","","","","","","","","","","","","","","","","","","",""
"","","","","","image-keyboard-response","100","482758","0.0-75.0","59d8ae913e5ea00001e1d05f","665500ab8938657b03fbdba8","665793374271bb527e6e63ea","3358","stimuli/2011101.jpg","2","","prediction_trial","1","","false","","2","false","false","false","false","false","false","[2,1]","011","101","0","","","","","","",""
"","","","","","image-keyboard-response","101","484945","0.0-76.0","59d8ae913e5ea00001e1d05f","665500ab8938657b03fbdba8","665793374271bb527e6e63ea","2186","stimuli/20111011.jpg"," ","","feedback_trial","2","","","","","","","","","","","","","","","","","","","","",""
"","","","","","image-keyboard-response","102","487572","0.0-77.0","59d8ae913e5ea00001e1d05f","665500ab8938657b03fbdba8","665793374271bb527e6e63ea","2622","stimuli/0101110.jpg","0","","prediction_trial","0","","true","","0","false","false","false","false","false","false","[2,0]","101","110","1","","","","","","",""
"","","","","","image-keyboard-response","103","488018","0.0-78.0","59d8ae913e5ea00001e1d05f","665500ab8938657b03fbdba8","665793374271bb527e6e63ea","446","stimuli/01011100.jpg"," ","","feedback_trial","2","","","","","","","","","","","","","","","","","","","","",""
"","","","","","image-keyboard-response","104","489006","0.0-79.0","59d8ae913e5ea00001e1d05f","665500ab8938657b03fbdba8","665793374271bb527e6e63ea","987","stimuli/1011101.jpg","1","","prediction_trial","1","","true","","1","true","true","false","false","false","false","[1,2]","011","101","1","","","","","","",""
"","","","","","image-keyboard-response","105","489504","0.0-80.0","59d8ae913e5ea00001e1d05f","665500ab8938657b03fbdba8","665793374271bb527e6e63ea","498","stimuli/10111011.jpg"," ","","feedback_trial","1","","","","","","","","","","","","","","","","","","","","",""
"","","","","","image-keyboard-response","106","491277","0.0-81.0","59d8ae913e5ea00001e1d05f","665500ab8938657b03fbdba8","665793374271bb527e6e63ea","1773","stimuli/1010001.jpg","1","","prediction_trial","1","","true","","1","true","true","false","true","false","true","[1]","010","001","1","","","","","","",""
"","","","","","image-keyboard-response","107","491778","0.0-82.0","59d8ae913e5ea00001e1d05f","665500ab8938657b03fbdba8","665793374271bb527e6e63ea","500","stimuli/10100011.jpg"," ","","feedback_trial","1","","","","","","","","","","","","","","","","","","","","",""
"","","","","","image-keyboard-response","108","494186","0.0-83.0","59d8ae913e5ea00001e1d05f","665500ab8938657b03fbdba8","665793374271bb527e6e63ea","2403","stimuli/1000110.jpg","1","","prediction_trial","1","","true","","1","false","false","true","true","false","false","[1]","000","110","1","","","","","","",""
"","","","","","image-keyboard-response","109","494716","0.0-84.0","59d8ae913e5ea00001e1d05f","665500ab8938657b03fbdba8","665793374271bb527e6e63ea","529","stimuli/10001101.jpg"," ","","feedback_trial","1","","","","","","","","","","","","","","","","","","","","",""
"","","","","","image-keyboard-response","110","495839","0.0-85.0","59d8ae913e5ea00001e1d05f","665500ab8938657b03fbdba8","665793374271bb527e6e63ea","1122","stimuli/2011110.jpg","2","","prediction_trial","1","","false","","2","true","true","false","false","false","false","[1,2]","011","110","0","","","","","","",""
"","","","","","image-keyboard-response","111","496447","0.0-86.0","59d8ae913e5ea00001e1d05f","665500ab8938657b03fbdba8","665793374271bb527e6e63ea","608","stimuli/20111101.jpg"," ","","feedback_trial","1","","","","","","","","","","","","","","","","","","","","",""
"","","","","","image-keyboard-response","112","498468","0.0-87.0","59d8ae913e5ea00001e1d05f","665500ab8938657b03fbdba8","665793374271bb527e6e63ea","2021","stimuli/0100111.jpg","0","","prediction_trial","0","","true","","0","false","false","false","true","false","false","[0]","100","111","1","","","","","","",""
"","","","","","image-keyboard-response","113","498915","0.0-88.0","59d8ae913e5ea00001e1d05f","665500ab8938657b03fbdba8","665793374271bb527e6e63ea","445","stimuli/01001110.jpg"," ","","feedback_trial","0","","","","","","","","","","","","","","","","","","","","",""
"","","","","","image-keyboard-response","114","500020","0.0-89.0","59d8ae913e5ea00001e1d05f","665500ab8938657b03fbdba8","665793374271bb527e6e63ea","1100","stimuli/2100010.jpg","2","","prediction_trial","2","","true","","2","true","true","true","true","true","true","[2]","100","010","1","","","","","","",""
"","","","","","image-keyboard-response","115","500466","0.0-90.0","59d8ae913e5ea00001e1d05f","665500ab8938657b03fbdba8","665793374271bb527e6e63ea","445","stimuli/21000102.jpg"," ","","feedback_trial","2","","","","","","","","","","","","","","","","","","","","",""
"","","","","","image-keyboard-response","116","501753","0.0-91.0","59d8ae913e5ea00001e1d05f","665500ab8938657b03fbdba8","665793374271bb527e6e63ea","1286","stimuli/2010110.jpg","2","","prediction_trial","2","","true","","2","true","true","true","true","true","true","[2]","010","110","1","","","","","","",""
"","","","","","image-keyboard-response","117","502131","0.0-92.0","59d8ae913e5ea00001e1d05f","665500ab8938657b03fbdba8","665793374271bb527e6e63ea","378","stimuli/20101102.jpg"," ","","feedback_trial","2","","","","","","","","","","","","","","","","","","","","",""
"","","","","","image-keyboard-response","118","503561","0.0-93.0","59d8ae913e5ea00001e1d05f","665500ab8938657b03fbdba8","665793374271bb527e6e63ea","1429","stimuli/2100000.jpg","2","","prediction_trial","2","","true","","2","true","true","true","true","true","true","[2]","100","000","1","","","","","","",""
"","","","","","image-keyboard-response","119","504075","0.0-94.0","59d8ae913e5ea00001e1d05f","665500ab8938657b03fbdba8","665793374271bb527e6e63ea","514","stimuli/21000002.jpg"," ","","feedback_trial","2","","","","","","","","","","","","","","","","","","","","",""
"","","","","","image-keyboard-response","120","506656","0.0-95.0","59d8ae913e5ea00001e1d05f","665500ab8938657b03fbdba8","665793374271bb527e6e63ea","2576","stimuli/0101000.jpg","0","","prediction_trial","0","","true","","0","true","true","false","false","false","false","[0,2]","101","000","1","","","","","","",""
"","","","","","image-keyboard-response","121","507219","0.0-96.0","59d8ae913e5ea00001e1d05f","665500ab8938657b03fbdba8","665793374271bb527e6e63ea","563","stimuli/01010000.jpg"," ","","feedback_trial","0","","","","","","","","","","","","","","","","","","","","",""
"","","","","","image-keyboard-response","122","509235","0.0-97.0","59d8ae913e5ea00001e1d05f","665500ab8938657b03fbdba8","665793374271bb527e6e63ea","2016","stimuli/0010100.jpg","0","","prediction_trial","0","","true","","0","false","true","true","true","false","true","[0]","010","100","1","","","","","","",""
"","","","","","image-keyboard-response","123","509769","0.0-98.0","59d8ae913e5ea00001e1d05f","665500ab8938657b03fbdba8","665793374271bb527e6e63ea","533","stimuli/00101000.jpg"," ","","feedback_trial","0","","","","","","","","","","","","","","","","","","","","",""
"","","","","","image-keyboard-response","124","514086","0.0-99.0","59d8ae913e5ea00001e1d05f","665500ab8938657b03fbdba8","665793374271bb527e6e63ea","4316","stimuli/2001111.jpg","2","","prediction_trial","2","","true","","2","false","false","false","true","false","false","[2]","001","111","1","","","","","","",""
"","","","","","image-keyboard-response","125","514697","0.0-100.0","59d8ae913e5ea00001e1d05f","665500ab8938657b03fbdba8","665793374271bb527e6e63ea","610","stimuli/20011112.jpg"," ","","feedback_trial","2","","","","","","","","","","","","","","","","","","","","",""
"","","","","","image-keyboard-response","126","516347","0.0-101.0","59d8ae913e5ea00001e1d05f","665500ab8938657b03fbdba8","665793374271bb527e6e63ea","1645","stimuli/1010100.jpg","1","","prediction_trial","1","","true","","1","true","true","false","true","false","true","[1]","010","100","1","","","","","","",""
"","","","","","image-keyboard-response","127","516797","0.0-102.0","59d8ae913e5ea00001e1d05f","665500ab8938657b03fbdba8","665793374271bb527e6e63ea","449","stimuli/10101001.jpg"," ","","feedback_trial","1","","","","","","","","","","","","","","","","","","","","",""
"","","","","","image-keyboard-response","128","518123","0.0-103.0","59d8ae913e5ea00001e1d05f","665500ab8938657b03fbdba8","665793374271bb527e6e63ea","1325","stimuli/1111000.jpg","1","","prediction_trial","0","","false","","1","true","true","false","false","false","false","[1,0,2]","111","000","0","","","","","","",""
"","","","","","image-keyboard-response","129","518685","0.0-104.0","59d8ae913e5ea00001e1d05f","665500ab8938657b03fbdba8","665793374271bb527e6e63ea","561","stimuli/11110000.jpg"," ","","feedback_trial","1","","","","","","","","","","","","","","","","","","","","",""
"","","","","","image-keyboard-response","130","520278","0.0-105.0","59d8ae913e5ea00001e1d05f","665500ab8938657b03fbdba8","665793374271bb527e6e63ea","1593","stimuli/0110011.jpg","0","","prediction_trial","1","","false","","0","true","true","false","false","false","false","[1,0]","110","011","0","","","","","","",""
"","","","","","image-keyboard-response","131","520680","0.0-106.0","59d8ae913e5ea00001e1d05f","665500ab8938657b03fbdba8","665793374271bb527e6e63ea","402","stimuli/01100111.jpg"," ","","feedback_trial","1","","","","","","","","","","","","","","","","","","","","",""
"","","","","","image-keyboard-response","132","523109","0.0-107.0","59d8ae913e5ea00001e1d05f","665500ab8938657b03fbdba8","665793374271bb527e6e63ea","2424","stimuli/2110001.jpg","2","","prediction_trial","2","","true","","2","false","true","true","true","false","true","[2]","110","001","1","","","","","","",""
"","","","","","image-keyboard-response","133","523562","0.0-108.0","59d8ae913e5ea00001e1d05f","665500ab8938657b03fbdba8","665793374271bb527e6e63ea","452","stimuli/21100012.jpg"," ","","feedback_trial","2","","","","","","","","","","","","","","","","","","","","",""
"","","","","","image-keyboard-response","134","525508","0.0-109.0","59d8ae913e5ea00001e1d05f","665500ab8938657b03fbdba8","665793374271bb527e6e63ea","1945","stimuli/1000100.jpg","1","","prediction_trial","1","","true","","1","true","true","true","true","true","true","[1]","000","100","1","","","","","","",""
"","","","","","image-keyboard-response","135","525911","0.0-110.0","59d8ae913e5ea00001e1d05f","665500ab8938657b03fbdba8","665793374271bb527e6e63ea","402","stimuli/10001001.jpg"," ","","feedback_trial","1","","","","","","","","","","","","","","","","","","","","",""
"","","","","","image-keyboard-response","136","526819","0.0-111.0","59d8ae913e5ea00001e1d05f","665500ab8938657b03fbdba8","665793374271bb527e6e63ea","908","stimuli/2000100.jpg","2","","prediction_trial","2","","true","","2","true","true","true","true","true","true","[2]","000","100","1","","","","","","",""
"","","","","","image-keyboard-response","137","527226","0.0-112.0","59d8ae913e5ea00001e1d05f","665500ab8938657b03fbdba8","665793374271bb527e6e63ea","406","stimuli/20001002.jpg"," ","","feedback_trial","2","","","","","","","","","","","","","","","","","","","","",""
"","","","","","image-keyboard-response","138","530505","0.0-113.0","59d8ae913e5ea00001e1d05f","665500ab8938657b03fbdba8","665793374271bb527e6e63ea","3274","stimuli/2100101.jpg","0","","prediction_trial","2","","false","","2","false","false","true","true","false","false","[2]","100","101","0","","","","","","",""
"","","","","","image-keyboard-response","139","530961","0.0-114.0","59d8ae913e5ea00001e1d05f","665500ab8938657b03fbdba8","665793374271bb527e6e63ea","455","stimuli/21001012.jpg"," ","","feedback_trial","2","","","","","","","","","","","","","","","","","","","","",""
"","","","","","image-keyboard-response","140","533593","0.0-115.0","59d8ae913e5ea00001e1d05f","665500ab8938657b03fbdba8","665793374271bb527e6e63ea","2631","stimuli/2110011.jpg","1","","prediction_trial","2","","false","","2","false","false","true","true","false","false","[2]","110","011","0","","","","","","",""
"","","","","","image-keyboard-response","141","534016","0.0-116.0","59d8ae913e5ea00001e1d05f","665500ab8938657b03fbdba8","665793374271bb527e6e63ea","422","stimuli/21100112.jpg"," ","","feedback_trial","2","","","","","","","","","","","","","","","","","","","","",""
"","","","","","image-keyboard-response","142","535882","0.0-117.0","59d8ae913e5ea00001e1d05f","665500ab8938657b03fbdba8","665793374271bb527e6e63ea","1866","stimuli/1101111.jpg","0","","prediction_trial","1","","false","","1","false","false","true","true","false","false","[1]","101","111","0","","","","","","",""
"","","","","","image-keyboard-response","143","536462","0.0-118.0","59d8ae913e5ea00001e1d05f","665500ab8938657b03fbdba8","665793374271bb527e6e63ea","579","stimuli/11011111.jpg"," ","","feedback_trial","1","","","","","","","","","","","","","","","","","","","","",""
"","","","","","image-keyboard-response","144","538717","0.0-119.0","59d8ae913e5ea00001e1d05f","665500ab8938657b03fbdba8","665793374271bb527e6e63ea","2250","stimuli/2111001.jpg","2","","prediction_trial","2","","true","","2","false","true","false","false","false","false","[0,2,1]","111","001","1","","","","","","",""
"","","","","","image-keyboard-response","145","539043","0.0-120.0","59d8ae913e5ea00001e1d05f","665500ab8938657b03fbdba8","665793374271bb527e6e63ea","325","stimuli/21110012.jpg"," ","","feedback_trial","0","","","","","","","","","","","","","","","","","","","","",""
"","","","","","image-keyboard-response","146","542216","0.0-121.0","59d8ae913e5ea00001e1d05f","665500ab8938657b03fbdba8","665793374271bb527e6e63ea","3173","stimuli/0001101.jpg","2","","prediction_trial","0","","false","","0","false","false","true","true","false","false","[0]","001","101","0","","","","","","",""
"","","","","","image-keyboard-response","147","542678","0.0-122.0","59d8ae913e5ea00001e1d05f","665500ab8938657b03fbdba8","665793374271bb527e6e63ea","462","stimuli/00011010.jpg"," ","","feedback_trial","0","","","","","","","","","","","","","","","","","","","","",""
"","","","","","image-keyboard-response","148","544177","0.0-123.0","59d8ae913e5ea00001e1d05f","665500ab8938657b03fbdba8","665793374271bb527e6e63ea","1499","stimuli/1000101.jpg","1","","prediction_trial","1","","true","","1","true","true","true","true","true","true","[1]","000","101","1","","","","","","",""
"","","","","","image-keyboard-response","149","544534","0.0-124.0","59d8ae913e5ea00001e1d05f","665500ab8938657b03fbdba8","665793374271bb527e6e63ea","356","stimuli/10001011.jpg"," ","","feedback_trial","1","","","","","","","","","","","","","","","","","","","","",""
"","","","","","image-keyboard-response","150","545614","0.0-125.0","59d8ae913e5ea00001e1d05f","665500ab8938657b03fbdba8","665793374271bb527e6e63ea","1075","stimuli/0100010.jpg","0","","prediction_trial","0","","true","","0","true","true","false","true","false","true","[0]","100","010","1","","","","","","",""
"","","","","","image-keyboard-response","151","545941","0.0-126.0","59d8ae913e5ea00001e1d05f","665500ab8938657b03fbdba8","665793374271bb527e6e63ea","326","stimuli/01000100.jpg"," ","","feedback_trial","0","","","","","","","","","","","","","","","","","","","","",""
"","","","","","image-keyboard-response","152","548766","0.0-127.0","59d8ae913e5ea00001e1d05f","665500ab8938657b03fbdba8","665793374271bb527e6e63ea","2825","stimuli/1010101.jpg","1","","prediction_trial","1","","true","","1","true","true","false","true","false","true","[1]","010","101","1","","","","","","",""
"","","","","","image-keyboard-response","153","549216","0.0-128.0","59d8ae913e5ea00001e1d05f","665500ab8938657b03fbdba8","665793374271bb527e6e63ea","450","stimuli/10101011.jpg"," ","","feedback_trial","1","","","","","","","","","","","","","","","","","","","","",""
"","","","","","image-keyboard-response","154","550068","0.0-129.0","59d8ae913e5ea00001e1d05f","665500ab8938657b03fbdba8","665793374271bb527e6e63ea","851","stimuli/2110110.jpg","2","","prediction_trial","2","","true","","2","true","true","true","true","true","true","[2]","110","110","1","","","","","","",""
"","","","","","image-keyboard-response","155","550450","0.0-130.0","59d8ae913e5ea00001e1d05f","665500ab8938657b03fbdba8","665793374271bb527e6e63ea","381","stimuli/21101102.jpg"," ","","feedback_trial","2","","","","","","","","","","","","","","","","","","","","",""
"","","","","","image-keyboard-response","156","551145","0.0-131.0","59d8ae913e5ea00001e1d05f","665500ab8938657b03fbdba8","665793374271bb527e6e63ea","691","stimuli/2111010.jpg","2","","prediction_trial","2","","true","","2","true","true","false","false","false","false","[1,2,0]","111","010","1","","","","","","",""
"","","","","","image-keyboard-response","157","551861","0.0-132.0","59d8ae913e5ea00001e1d05f","665500ab8938657b03fbdba8","665793374271bb527e6e63ea","715","stimuli/21110102.jpg"," ","","feedback_trial","1","","","","","","","","","","","","","","","","","","","","",""
"","","","","","image-keyboard-response","158","553771","0.0-133.0","59d8ae913e5ea00001e1d05f","665500ab8938657b03fbdba8","665793374271bb527e6e63ea","1909","stimuli/2001010.jpg","2","","prediction_trial","2","","true","","2","true","true","false","true","false","true","[2]","001","010","1","","","","","","",""
"","","","","","image-keyboard-response","159","554267","0.0-134.0","59d8ae913e5ea00001e1d05f","665500ab8938657b03fbdba8","665793374271bb527e6e63ea","495","stimuli/20010102.jpg"," ","","feedback_trial","2","","","","","","","","","","","","","","","","","","","","",""
"","","","","","image-keyboard-response","160","556672","0.0-135.0","59d8ae913e5ea00001e1d05f","665500ab8938657b03fbdba8","665793374271bb527e6e63ea","2405","stimuli/0111111.jpg","1","","prediction_trial","1","","true","","0","false","false","false","false","false","false","[1,0,2]","111","111","1","","","","","","",""
"","","","","","image-keyboard-response","161","557088","0.0-136.0","59d8ae913e5ea00001e1d05f","665500ab8938657b03fbdba8","665793374271bb527e6e63ea","415","stimuli/01111111.jpg"," ","","feedback_trial","1","","","","","","","","","","","","","","","","","","","","",""
"","","","","","image-keyboard-response","162","559116","0.0-137.0","59d8ae913e5ea00001e1d05f","665500ab8938657b03fbdba8","665793374271bb527e6e63ea","2022","stimuli/0111010.jpg","0","","prediction_trial","1","","false","","0","true","true","false","false","false","false","[0,1,2]","111","010","0","","","","","","",""
"","","","","","image-keyboard-response","163","559778","0.0-138.0","59d8ae913e5ea00001e1d05f","665500ab8938657b03fbdba8","665793374271bb527e6e63ea","661","stimuli/01110101.jpg"," ","","feedback_trial","0","","","","","","","","","","","","","","","","","","","","",""
"","","","","","image-keyboard-response","164","562368","0.0-139.0","59d8ae913e5ea00001e1d05f","665500ab8938657b03fbdba8","665793374271bb527e6e63ea","2590","stimuli/0110101.jpg","0","","prediction_trial","0","","true","","0","false","false","false","false","false","false","[1,0]","110","101","1","","","","","","",""
"","","","","","image-keyboard-response","165","562851","0.0-140.0","59d8ae913e5ea00001e1d05f","665500ab8938657b03fbdba8","665793374271bb527e6e63ea","482","stimuli/01101010.jpg"," ","","feedback_trial","1","","","","","","","","","","","","","","","","","","","","",""
"","","","","","image-keyboard-response","166","564379","0.0-141.0","59d8ae913e5ea00001e1d05f","665500ab8938657b03fbdba8","665793374271bb527e6e63ea","1527","stimuli/2001100.jpg","2","","prediction_trial","2","","true","","2","true","true","false","true","false","true","[2]","001","100","1","","","","","","",""
"","","","","","image-keyboard-response","167","564901","0.0-142.0","59d8ae913e5ea00001e1d05f","665500ab8938657b03fbdba8","665793374271bb527e6e63ea","521","stimuli/20011002.jpg"," ","","feedback_trial","2","","","","","","","","","","","","","","","","","","","","",""
"","","","","","image-keyboard-response","168","568431","0.0-143.0","59d8ae913e5ea00001e1d05f","665500ab8938657b03fbdba8","665793374271bb527e6e63ea","3525","stimuli/1000011.jpg","2","","prediction_trial","1","","false","","1","false","false","true","true","false","false","[1]","000","011","0","","","","","","",""
"","","","","","image-keyboard-response","169","568896","0.0-144.0","59d8ae913e5ea00001e1d05f","665500ab8938657b03fbdba8","665793374271bb527e6e63ea","465","stimuli/10000111.jpg"," ","","feedback_trial","1","","","","","","","","","","","","","","","","","","","","",""
"","","","","","image-keyboard-response","170","570938","0.0-145.0","59d8ae913e5ea00001e1d05f","665500ab8938657b03fbdba8","665793374271bb527e6e63ea","2041","stimuli/2100011.jpg","1","","prediction_trial","2","","false","","2","false","false","true","true","false","false","[2]","100","011","0","","","","","","",""
"","","","","","image-keyboard-response","171","571632","0.0-146.0","59d8ae913e5ea00001e1d05f","665500ab8938657b03fbdba8","665793374271bb527e6e63ea","694","stimuli/21000112.jpg"," ","","feedback_trial","2","","","","","","","","","","","","","","","","","","","","",""
"","","","","","image-keyboard-response","172","572730","0.0-147.0","59d8ae913e5ea00001e1d05f","665500ab8938657b03fbdba8","665793374271bb527e6e63ea","1097","stimuli/1101001.jpg","1","","prediction_trial","1","","true","","1","true","true","true","true","true","true","[1]","101","001","1","","","","","","",""
"","","","","","image-keyboard-response","173","573187","0.0-148.0","59d8ae913e5ea00001e1d05f","665500ab8938657b03fbdba8","665793374271bb527e6e63ea","457","stimuli/11010011.jpg"," ","","feedback_trial","1","","","","","","","","","","","","","","","","","","","","",""
"","","","","","image-keyboard-response","174","573984","0.0-149.0","59d8ae913e5ea00001e1d05f","665500ab8938657b03fbdba8","665793374271bb527e6e63ea","792","stimuli/2101010.jpg","2","","prediction_trial","0","","false","","2","true","true","false","false","false","false","[2,0]","101","010","0","","","","","","",""
"","","","","","image-keyboard-response","175","574932","0.0-150.0","59d8ae913e5ea00001e1d05f","665500ab8938657b03fbdba8","665793374271bb527e6e63ea","947","stimuli/21010100.jpg"," ","","feedback_trial","2","","","","","","","","","","","","","","","","","","","","",""
"","","","","","image-keyboard-response","176","576509","0.0-151.0","59d8ae913e5ea00001e1d05f","665500ab8938657b03fbdba8","665793374271bb527e6e63ea","1577","stimuli/0101101.jpg","0","","prediction_trial","2","","false","","0","false","false","false","false","false","false","[0,2]","101","101","0","","","","","","",""
"","","","","","image-keyboard-response","177","576944","0.0-152.0","59d8ae913e5ea00001e1d05f","665500ab8938657b03fbdba8","665793374271bb527e6e63ea","434","stimuli/01011012.jpg"," ","","feedback_trial","0","","","","","","","","","","","","","","","","","","","","",""
"","","","","","image-keyboard-response","178","578409","0.0-153.0","59d8ae913e5ea00001e1d05f","665500ab8938657b03fbdba8","665793374271bb527e6e63ea","1464","stimuli/1011111.jpg","1","","prediction_trial","2","","false","","1","false","false","false","false","false","false","[2,1]","011","111","0","","","","","","",""
"","","","","","image-keyboard-response","179","578952","0.0-154.0","59d8ae913e5ea00001e1d05f","665500ab8938657b03fbdba8","665793374271bb527e6e63ea","542","stimuli/10111112.jpg"," ","","feedback_trial","2","","","","","","","","","","","","","","","","","","","","",""
"","","","","","image-keyboard-response","180","580193","0.0-155.0","59d8ae913e5ea00001e1d05f","665500ab8938657b03fbdba8","665793374271bb527e6e63ea","1236","stimuli/1001111.jpg","2","","prediction_trial","1","","false","","1","false","false","true","true","false","false","[1]","001","111","0","","","","","","",""
"","","","","","image-keyboard-response","181","580670","0.0-156.0","59d8ae913e5ea00001e1d05f","665500ab8938657b03fbdba8","665793374271bb527e6e63ea","477","stimuli/10011111.jpg"," ","","feedback_trial","1","","","","","","","","","","","","","","","","","","","","",""
"","","","","","image-keyboard-response","182","582326","0.0-157.0","59d8ae913e5ea00001e1d05f","665500ab8938657b03fbdba8","665793374271bb527e6e63ea","1655","stimuli/1110110.jpg","0","","prediction_trial","0","","true","","1","false","false","false","false","false","false","[1,0]","110","110","1","","","","","","",""
"","","","","","image-keyboard-response","183","582756","0.0-158.0","59d8ae913e5ea00001e1d05f","665500ab8938657b03fbdba8","665793374271bb527e6e63ea","430","stimuli/11101100.jpg"," ","","feedback_trial","1","","","","","","","","","","","","","","","","","","","","",""
"","","","","","image-keyboard-response","184","585860","0.0-159.0","59d8ae913e5ea00001e1d05f","665500ab8938657b03fbdba8","665793374271bb527e6e63ea","3104","stimuli/2100111.jpg","1","","prediction_trial","2","","false","","2","false","false","true","true","false","false","[2]","100","111","0","","","","","","",""
"","","","","","image-keyboard-response","185","586415","0.0-160.0","59d8ae913e5ea00001e1d05f","665500ab8938657b03fbdba8","665793374271bb527e6e63ea","554","stimuli/21001112.jpg"," ","","feedback_trial","2","","","","","","","","","","","","","","","","","","","","",""
"","","","","","image-keyboard-response","186","587764","0.0-161.0","59d8ae913e5ea00001e1d05f","665500ab8938657b03fbdba8","665793374271bb527e6e63ea","1344","stimuli/2011111.jpg","2","","prediction_trial","1","","false","","2","false","false","false","false","false","false","[2,1]","011","111","0","","","","","","",""
"","","","","","image-keyboard-response","187","588350","0.0-162.0","59d8ae913e5ea00001e1d05f","665500ab8938657b03fbdba8","665793374271bb527e6e63ea","586","stimuli/20111111.jpg"," ","","feedback_trial","2","","","","","","","","","","","","","","","","","","","","",""
"","","","","","image-keyboard-response","188","589336","0.0-163.0","59d8ae913e5ea00001e1d05f","665500ab8938657b03fbdba8","665793374271bb527e6e63ea","985","stimuli/2000001.jpg","2","","prediction_trial","2","","true","","2","false","true","true","true","false","true","[2]","000","001","1","","","","","","",""
"","","","","","image-keyboard-response","189","589783","0.0-164.0","59d8ae913e5ea00001e1d05f","665500ab8938657b03fbdba8","665793374271bb527e6e63ea","447","stimuli/20000012.jpg"," ","","feedback_trial","2","","","","","","","","","","","","","","","","","","","","",""
"","","","","","image-keyboard-response","190","590671","0.0-165.0","59d8ae913e5ea00001e1d05f","665500ab8938657b03fbdba8","665793374271bb527e6e63ea","887","stimuli/2110000.jpg","2","","prediction_trial","2","","true","","2","true","true","true","true","true","true","[2]","110","000","1","","","","","","",""
"","","","","","image-keyboard-response","191","590982","0.0-166.0","59d8ae913e5ea00001e1d05f","665500ab8938657b03fbdba8","665793374271bb527e6e63ea","310","stimuli/21100002.jpg"," ","","feedback_trial","2","","","","","","","","","","","","","","","","","","","","",""
"","","","","","image-keyboard-response","192","593250","0.0-167.0","59d8ae913e5ea00001e1d05f","665500ab8938657b03fbdba8","665793374271bb527e6e63ea","2262","stimuli/1011110.jpg","1","","prediction_trial","1","","true","","1","false","false","false","false","false","false","[1,2]","011","110","1","","","","","","",""
"","","","","","image-keyboard-response","193","593588","0.0-168.0","59d8ae913e5ea00001e1d05f","665500ab8938657b03fbdba8","665793374271bb527e6e63ea","338","stimuli/10111101.jpg"," ","","feedback_trial","1","","","","","","","","","","","","","","","","","","","","",""
"","","","","","image-keyboard-response","194","594612","0.0-169.0","59d8ae913e5ea00001e1d05f","665500ab8938657b03fbdba8","665793374271bb527e6e63ea","1023","stimuli/0101001.jpg","0","","prediction_trial","0","","true","","0","true","true","false","false","false","false","[2,0]","101","001","1","","","","","","",""
"","","","","","image-keyboard-response","195","595004","0.0-170.0","59d8ae913e5ea00001e1d05f","665500ab8938657b03fbdba8","665793374271bb527e6e63ea","392","stimuli/01010010.jpg"," ","","feedback_trial","2","","","","","","","","","","","","","","","","","","","","",""
"","","","","","image-keyboard-response","196","595982","0.0-171.0","59d8ae913e5ea00001e1d05f","665500ab8938657b03fbdba8","665793374271bb527e6e63ea","977","stimuli/0010000.jpg","0","","prediction_trial","0","","true","","0","true","true","true","true","true","true","[0]","010","000","1","","","","","","",""
"","","","","","image-keyboard-response","197","596322","0.0-172.0","59d8ae913e5ea00001e1d05f","665500ab8938657b03fbdba8","665793374271bb527e6e63ea","340","stimuli/00100000.jpg"," ","","feedback_trial","0","","","","","","","","","","","","","","","","","","","","",""
"","","","","","image-keyboard-response","198","597712","0.0-173.0","59d8ae913e5ea00001e1d05f","665500ab8938657b03fbdba8","665793374271bb527e6e63ea","1385","stimuli/2101110.jpg","2","","prediction_trial","0","","false","","2","true","true","false","false","false","false","[0,2]","101","110","0","","","","","","",""
"","","","","","image-keyboard-response","199","598447","0.0-174.0","59d8ae913e5ea00001e1d05f","665500ab8938657b03fbdba8","665793374271bb527e6e63ea","734","stimuli/21011100.jpg"," ","","feedback_trial","0","","","","","","","","","","","","","","","","","","","","",""
"","","","","","image-keyboard-response","200","599869","0.0-175.0","59d8ae913e5ea00001e1d05f","665500ab8938657b03fbdba8","665793374271bb527e6e63ea","1422","stimuli/2111011.jpg","1","","prediction_trial","2","","false","","2","false","false","false","false","false","false","[0,1,2]","111","011","0","","","","","","",""
"","","","","","image-keyboard-response","201","600327","0.0-176.0","59d8ae913e5ea00001e1d05f","665500ab8938657b03fbdba8","665793374271bb527e6e63ea","458","stimuli/21110112.jpg"," ","","feedback_trial","0","","","","","","","","","","","","","","","","","","","","",""
"","","","","","image-keyboard-response","202","601943","0.0-177.0","59d8ae913e5ea00001e1d05f","665500ab8938657b03fbdba8","665793374271bb527e6e63ea","1615","stimuli/2111110.jpg","2","","prediction_trial","0","","false","","2","true","true","false","false","false","false","[0,2,1]","111","110","0","","","","","","",""
"","","","","","image-keyboard-response","203","602342","0.0-178.0","59d8ae913e5ea00001e1d05f","665500ab8938657b03fbdba8","665793374271bb527e6e63ea","399","stimuli/21111100.jpg"," ","","feedback_trial","0","","","","","","","","","","","","","","","","","","","","",""
"","","","","","image-keyboard-response","204","603840","0.0-179.0","59d8ae913e5ea00001e1d05f","665500ab8938657b03fbdba8","665793374271bb527e6e63ea","1493","stimuli/1111100.jpg","1","","prediction_trial","0","","false","","1","true","true","false","false","false","false","[2,0,1]","111","100","0","","","","","","",""
"","","","","","image-keyboard-response","205","604193","0.0-180.0","59d8ae913e5ea00001e1d05f","665500ab8938657b03fbdba8","665793374271bb527e6e63ea","353","stimuli/11111000.jpg"," ","","feedback_trial","2","","","","","","","","","","","","","","","","","","","","",""
"","","","","","image-keyboard-response","206","608425","0.0-181.0","59d8ae913e5ea00001e1d05f","665500ab8938657b03fbdba8","665793374271bb527e6e63ea","4232","stimuli/2001101.jpg","2","","prediction_trial","2","","true","","2","false","false","false","true","false","false","[2]","001","101","1","","","","","","",""
"","","","","","image-keyboard-response","207","608875","0.0-182.0","59d8ae913e5ea00001e1d05f","665500ab8938657b03fbdba8","665793374271bb527e6e63ea","450","stimuli/20011012.jpg"," ","","feedback_trial","2","","","","","","","","","","","","","","","","","","","","",""
"","","","","","image-keyboard-response","208","611202","0.0-183.0","59d8ae913e5ea00001e1d05f","665500ab8938657b03fbdba8","665793374271bb527e6e63ea","2325","stimuli/1111011.jpg","2","","prediction_trial","0","","false","","1","false","false","false","false","false","false","[2,1,0]","111","011","0","","","","","","",""
"","","","","","image-keyboard-response","209","611635","0.0-184.0","59d8ae913e5ea00001e1d05f","665500ab8938657b03fbdba8","665793374271bb527e6e63ea","433","stimuli/11110110.jpg"," ","","feedback_trial","2","","","","","","","","","","","","","","","","","","","","",""
"","","","","","image-keyboard-response","210","618138","0.0-185.0","59d8ae913e5ea00001e1d05f","665500ab8938657b03fbdba8","665793374271bb527e6e63ea","6498","stimuli/0011110.jpg","1","","prediction_trial","0","","false","","0","false","false","true","true","false","false","[0]","011","110","0","","","","","","",""
"","","","","","image-keyboard-response","211","618635","0.0-186.0","59d8ae913e5ea00001e1d05f","665500ab8938657b03fbdba8","665793374271bb527e6e63ea","496","stimuli/00111100.jpg"," ","","feedback_trial","0","","","","","","","","","","","","","","","","","","","","",""
"","","","","","image-keyboard-response","212","621365","0.0-187.0","59d8ae913e5ea00001e1d05f","665500ab8938657b03fbdba8","665793374271bb527e6e63ea","2729","stimuli/2010101.jpg","2","","prediction_trial","2","","true","","2","false","false","true","true","false","false","[2]","010","101","1","","","","","","",""
"","","","","","image-keyboard-response","213","621933","0.0-188.0","59d8ae913e5ea00001e1d05f","665500ab8938657b03fbdba8","665793374271bb527e6e63ea","567","stimuli/20101012.jpg"," ","","feedback_trial","2","","","","","","","","","","","","","","","","","","","","",""
"","","","","","image-keyboard-response","214","623584","0.0-189.0","59d8ae913e5ea00001e1d05f","665500ab8938657b03fbdba8","665793374271bb527e6e63ea","1651","stimuli/0000110.jpg","1","","prediction_trial","0","","false","","0","false","false","true","true","false","false","[0]","000","110","0","","","","","","",""
"","","","","","image-keyboard-response","215","624235","0.0-190.0","59d8ae913e5ea00001e1d05f","665500ab8938657b03fbdba8","665793374271bb527e6e63ea","651","stimuli/00001100.jpg"," ","","feedback_trial","0","","","","","","","","","","","","","","","","","","","","",""
"","","","","","image-keyboard-response","216","626233","0.0-191.0","59d8ae913e5ea00001e1d05f","665500ab8938657b03fbdba8","665793374271bb527e6e63ea","1993","stimuli/0111001.jpg","0","","prediction_trial","0","","true","","0","true","true","false","false","false","false","[1,0,2]","111","001","1","","","","","","",""
"","","","","","image-keyboard-response","217","626772","0.0-192.0","59d8ae913e5ea00001e1d05f","665500ab8938657b03fbdba8","665793374271bb527e6e63ea","538","stimuli/01110010.jpg"," ","","feedback_trial","1","","","","","","","","","","","","","","","","","","","","",""
"","","","","","image-keyboard-response","218","628371","0.0-193.0","59d8ae913e5ea00001e1d05f","665500ab8938657b03fbdba8","665793374271bb527e6e63ea","1598","stimuli/0001010.jpg","0","","prediction_trial","0","","true","","0","true","true","true","true","true","true","[0]","001","010","1","","","","","","",""
"","","","","","image-keyboard-response","219","628775","0.0-194.0","59d8ae913e5ea00001e1d05f","665500ab8938657b03fbdba8","665793374271bb527e6e63ea","403","stimuli/00010100.jpg"," ","","feedback_trial","0","","","","","","","","","","","","","","","","","","","","",""
"","","","","","image-keyboard-response","220","636413","0.0-195.0","59d8ae913e5ea00001e1d05f","665500ab8938657b03fbdba8","665793374271bb527e6e63ea","7637","stimuli/1110100.jpg","1","","prediction_trial","1","","true","","1","true","true","false","false","false","false","[1,0]","110","100","1","","","","","","",""
"","","","","","image-keyboard-response","221","636773","0.0-196.0","59d8ae913e5ea00001e1d05f","665500ab8938657b03fbdba8","665793374271bb527e6e63ea","359","stimuli/11101001.jpg"," ","","feedback_trial","1","","","","","","","","","","","","","","","","","","","","",""
"","","","","","image-keyboard-response","222","638019","0.0-197.0","59d8ae913e5ea00001e1d05f","665500ab8938657b03fbdba8","665793374271bb527e6e63ea","1241","stimuli/2001000.jpg","2","","prediction_trial","2","","true","","2","true","true","false","true","false","true","[2]","001","000","1","","","","","","",""
"","","","","","image-keyboard-response","223","638453","0.0-198.0","59d8ae913e5ea00001e1d05f","665500ab8938657b03fbdba8","665793374271bb527e6e63ea","433","stimuli/20010002.jpg"," ","","feedback_trial","2","","","","","","","","","","","","","","","","","","","","",""
"","","","","","image-keyboard-response","224","639781","0.0-199.0","59d8ae913e5ea00001e1d05f","665500ab8938657b03fbdba8","665793374271bb527e6e63ea","1328","stimuli/2000110.jpg","2","","prediction_trial","2","","true","","2","true","true","true","true","true","true","[2]","000","110","1","","","","","","",""
"","","","","","image-keyboard-response","225","640211","0.0-200.0","59d8ae913e5ea00001e1d05f","665500ab8938657b03fbdba8","665793374271bb527e6e63ea","429","stimuli/20001102.jpg"," ","","feedback_trial","2","","","","","","","","","","","","","","","","","","","","",""
"","","","","","image-keyboard-response","226","645295","0.0-201.0","59d8ae913e5ea00001e1d05f","665500ab8938657b03fbdba8","665793374271bb527e6e63ea","5084","stimuli/0100101.jpg","2","","prediction_trial","0","","false","","0","false","false","false","true","false","false","[0]","100","101","0","","","","","","",""
"","","","","","image-keyboard-response","227","645533","0.0-202.0","59d8ae913e5ea00001e1d05f","665500ab8938657b03fbdba8","665793374271bb527e6e63ea","237","stimuli/01001010.jpg"," ","","feedback_trial","0","","","","","","","","","","","","","","","","","","","","",""
"","","","","","image-keyboard-response","228","646771","0.0-203.0","59d8ae913e5ea00001e1d05f","665500ab8938657b03fbdba8","665793374271bb527e6e63ea","1233","stimuli/2010000.jpg","2","","prediction_trial","2","","true","","2","true","true","true","true","true","true","[2]","010","000","1","","","","","","",""
"","","","","","image-keyboard-response","229","647139","0.0-204.0","59d8ae913e5ea00001e1d05f","665500ab8938657b03fbdba8","665793374271bb527e6e63ea","367","stimuli/20100002.jpg"," ","","feedback_trial","2","","","","","","","","","","","","","","","","","","","","",""
"","","","","","image-keyboard-response","230","648521","0.0-205.0","59d8ae913e5ea00001e1d05f","665500ab8938657b03fbdba8","665793374271bb527e6e63ea","1382","stimuli/0111101.jpg","0","","prediction_trial","2","","false","","0","false","false","false","false","false","false","[1,2,0]","111","101","0","","","","","","",""
"","","","","","image-keyboard-response","231","648910","0.0-206.0","59d8ae913e5ea00001e1d05f","665500ab8938657b03fbdba8","665793374271bb527e6e63ea","389","stimuli/01111012.jpg"," ","","feedback_trial","1","","","","","","","","","","","","","","","","","","","","",""
"","","","","","image-keyboard-response","232","650080","0.0-207.0","59d8ae913e5ea00001e1d05f","665500ab8938657b03fbdba8","665793374271bb527e6e63ea","1169","stimuli/1011100.jpg","1","","prediction_trial","2","","false","","1","true","true","false","false","false","false","[2,1]","011","100","0","","","","","","",""
"","","","","","image-keyboard-response","233","650622","0.0-208.0","59d8ae913e5ea00001e1d05f","665500ab8938657b03fbdba8","665793374271bb527e6e63ea","541","stimuli/10111002.jpg"," ","","feedback_trial","2","","","","","","","","","","","","","","","","","","","","",""
"","","","","","image-keyboard-response","234","652075","0.0-209.0","59d8ae913e5ea00001e1d05f","665500ab8938657b03fbdba8","665793374271bb527e6e63ea","1448","stimuli/1001101.jpg","1","","prediction_trial","1","","true","","1","true","true","true","true","true","true","[1]","001","101","1","","","","","","",""
"","","","","","image-keyboard-response","235","652368","0.0-210.0","59d8ae913e5ea00001e1d05f","665500ab8938657b03fbdba8","665793374271bb527e6e63ea","293","stimuli/10011011.jpg"," ","","feedback_trial","1","","","","","","","","","","","","","","","","","","","","",""
"","","","","","image-keyboard-response","236","654640","0.0-211.0","59d8ae913e5ea00001e1d05f","665500ab8938657b03fbdba8","665793374271bb527e6e63ea","2271","stimuli/1000010.jpg","1","","prediction_trial","1","","true","","1","false","true","true","true","false","true","[1]","000","010","1","","","","","","",""
"","","","","","image-keyboard-response","237","654962","0.0-212.0","59d8ae913e5ea00001e1d05f","665500ab8938657b03fbdba8","665793374271bb527e6e63ea","322","stimuli/10000101.jpg"," ","","feedback_trial","1","","","","","","","","","","","","","","","","","","","","",""
"","","","","","image-keyboard-response","238","656992","0.0-213.0","59d8ae913e5ea00001e1d05f","665500ab8938657b03fbdba8","665793374271bb527e6e63ea","2029","stimuli/1011001.jpg","1","","prediction_trial","1","","true","","1","true","true","false","false","false","false","[2,1]","011","001","1","","","","","","",""
"","","","","","image-keyboard-response","239","657283","0.0-214.0","59d8ae913e5ea00001e1d05f","665500ab8938657b03fbdba8","665793374271bb527e6e63ea","290","stimuli/10110011.jpg"," ","","feedback_trial","2","","","","","","","","","","","","","","","","","","","","",""
"","","","","","image-keyboard-response","240","659211","0.0-215.0","59d8ae913e5ea00001e1d05f","665500ab8938657b03fbdba8","665793374271bb527e6e63ea","1923","stimuli/1111101.jpg","1","","prediction_trial","0","","false","","1","true","true","false","false","false","false","[1,0,2]","111","101","0","","","","","","",""
"","","","","","image-keyboard-response","241","660571","0.0-216.0","59d8ae913e5ea00001e1d05f","665500ab8938657b03fbdba8","665793374271bb527e6e63ea","1359","stimuli/11111010.jpg"," ","","feedback_trial","1","","","","","","","","","","","","","","","","","","","","",""
"","","","","","image-keyboard-response","242","662691","0.0-217.0","59d8ae913e5ea00001e1d05f","665500ab8938657b03fbdba8","665793374271bb527e6e63ea","2120","stimuli/2011000.jpg","2","","prediction_trial","2","","true","","2","true","true","false","false","false","false","[1,2]","011","000","1","","","","","","",""
"","","","","","image-keyboard-response","243","663174","0.0-218.0","59d8ae913e5ea00001e1d05f","665500ab8938657b03fbdba8","665793374271bb527e6e63ea","482","stimuli/20110002.jpg"," ","","feedback_trial","1","","","","","","","","","","","","","","","","","","","","",""
"","","","","","image-keyboard-response","244","664582","0.0-219.0","59d8ae913e5ea00001e1d05f","665500ab8938657b03fbdba8","665793374271bb527e6e63ea","1408","stimuli/1101010.jpg","1","","prediction_trial","1","","true","","1","false","true","true","true","false","true","[1]","101","010","1","","","","","","",""
"","","","","","image-keyboard-response","245","664890","0.0-220.0","59d8ae913e5ea00001e1d05f","665500ab8938657b03fbdba8","665793374271bb527e6e63ea","307","stimuli/11010101.jpg"," ","","feedback_trial","1","","","","","","","","","","","","","","","","","","","","",""
"","","","","","image-keyboard-response","246","666837","0.0-221.0","59d8ae913e5ea00001e1d05f","665500ab8938657b03fbdba8","665793374271bb527e6e63ea","1942","stimuli/0110100.jpg","0","","prediction_trial","0","","true","","0","false","true","false","false","false","false","[0,1]","110","100","1","","","","","","",""
"","","","","","image-keyboard-response","247","667236","0.0-222.0","59d8ae913e5ea00001e1d05f","665500ab8938657b03fbdba8","665793374271bb527e6e63ea","399","stimuli/01101000.jpg"," ","","feedback_trial","0","","","","","","","","","","","","","","","","","","","","",""
"","","","","","image-keyboard-response","248","669533","0.0-223.0","59d8ae913e5ea00001e1d05f","665500ab8938657b03fbdba8","665793374271bb527e6e63ea","2296","stimuli/1100111.jpg","0","","prediction_trial","1","","false","","1","false","false","true","true","false","false","[1]","100","111","0","","","","","","",""
"","","","","","image-keyboard-response","249","669894","0.0-224.0","59d8ae913e5ea00001e1d05f","665500ab8938657b03fbdba8","665793374271bb527e6e63ea","361","stimuli/11001111.jpg"," ","","feedback_trial","1","","","","","","","","","","","","","","","","","","","","",""
"","","","","","image-keyboard-response","250","672482","0.0-225.0","59d8ae913e5ea00001e1d05f","665500ab8938657b03fbdba8","665793374271bb527e6e63ea","2588","stimuli/1100011.jpg","2","","prediction_trial","1","","false","","1","false","false","true","true","false","false","[1]","100","011","0","","","","","","",""
"","","","","","image-keyboard-response","251","672893","0.0-226.0","59d8ae913e5ea00001e1d05f","665500ab8938657b03fbdba8","665793374271bb527e6e63ea","410","stimuli/11000111.jpg"," ","","feedback_trial","1","","","","","","","","","","","","","","","","","","","","",""
"","","","","","image-keyboard-response","252","674858","0.0-227.0","59d8ae913e5ea00001e1d05f","665500ab8938657b03fbdba8","665793374271bb527e6e63ea","1960","stimuli/0001110.jpg","0","","prediction_trial","0","","true","","0","false","false","true","true","false","false","[0]","001","110","1","","","","","","",""
"","","","","","image-keyboard-response","253","675229","0.0-228.0","59d8ae913e5ea00001e1d05f","665500ab8938657b03fbdba8","665793374271bb527e6e63ea","370","stimuli/00011100.jpg"," ","","feedback_trial","0","","","","","","","","","","","","","","","","","","","","",""
"","","","","","image-keyboard-response","254","677503","0.0-229.0","59d8ae913e5ea00001e1d05f","665500ab8938657b03fbdba8","665793374271bb527e6e63ea","2274","stimuli/1011000.jpg","1","","prediction_trial","2","","false","","1","true","true","false","false","false","false","[2,1]","011","000","0","","","","","","",""
"","","","","","image-keyboard-response","255","677905","0.0-230.0","59d8ae913e5ea00001e1d05f","665500ab8938657b03fbdba8","665793374271bb527e6e63ea","402","stimuli/10110002.jpg"," ","","feedback_trial","2","","","","","","","","","","","","","","","","","","","","",""
"","","","","","image-keyboard-response","256","678975","0.0-231.0","59d8ae913e5ea00001e1d05f","665500ab8938657b03fbdba8","665793374271bb527e6e63ea","1069","stimuli/0000010.jpg","0","","prediction_trial","0","","true","","0","true","true","true","true","true","true","[0]","000","010","1","","","","","","",""
"","","","","","image-keyboard-response","257","679384","0.0-232.0","59d8ae913e5ea00001e1d05f","665500ab8938657b03fbdba8","665793374271bb527e6e63ea","409","stimuli/00000100.jpg"," ","","feedback_trial","0","","","","","","","","","","","","","","","","","","","","",""
"","","","","","image-keyboard-response","258","681226","0.0-233.0","59d8ae913e5ea00001e1d05f","665500ab8938657b03fbdba8","665793374271bb527e6e63ea","1836","stimuli/0110010.jpg","0","","prediction_trial","0","","true","","0","true","true","false","false","false","false","[0,1]","110","010","1","","","","","","",""
"","","","","","image-keyboard-response","259","681570","0.0-234.0","59d8ae913e5ea00001e1d05f","665500ab8938657b03fbdba8","665793374271bb527e6e63ea","343","stimuli/01100100.jpg"," ","","feedback_trial","0","","","","","","","","","","","","","","","","","","","","",""
"","","","","","image-keyboard-response","260","683119","0.0-235.0","59d8ae913e5ea00001e1d05f","665500ab8938657b03fbdba8","665793374271bb527e6e63ea","1549","stimuli/0000100.jpg","0","","prediction_trial","0","","true","","0","false","true","true","true","false","true","[0]","000","100","1","","","","","","",""
"","","","","","image-keyboard-response","261","683452","0.0-236.0","59d8ae913e5ea00001e1d05f","665500ab8938657b03fbdba8","665793374271bb527e6e63ea","332","stimuli/00001000.jpg"," ","","feedback_trial","0","","","","","","","","","","","","","","","","","","","","",""
"","","","","","image-keyboard-response","262","684321","0.0-237.0","59d8ae913e5ea00001e1d05f","665500ab8938657b03fbdba8","665793374271bb527e6e63ea","868","stimuli/1101101.jpg","1","","prediction_trial","1","","true","","1","true","true","true","true","true","true","[1]","101","101","1","","","","","","",""
"","","","","","image-keyboard-response","263","684677","0.0-238.0","59d8ae913e5ea00001e1d05f","665500ab8938657b03fbdba8","665793374271bb527e6e63ea","355","stimuli/11011011.jpg"," ","","feedback_trial","1","","","","","","","","","","","","","","","","","","","","",""
"","","","","","image-keyboard-response","264","686498","0.0-239.0","59d8ae913e5ea00001e1d05f","665500ab8938657b03fbdba8","665793374271bb527e6e63ea","1816","stimuli/1001110.jpg","1","","prediction_trial","1","","true","","1","false","false","true","true","false","false","[1]","001","110","1","","","","","","",""
"","","","","","image-keyboard-response","265","686924","0.0-240.0","59d8ae913e5ea00001e1d05f","665500ab8938657b03fbdba8","665793374271bb527e6e63ea","425","stimuli/10011101.jpg"," ","","feedback_trial","1","","","","","","","","","","","","","","","","","","","","",""
"","","","","","image-keyboard-response","266","690156","0.0-241.0","59d8ae913e5ea00001e1d05f","665500ab8938657b03fbdba8","665793374271bb527e6e63ea","3232","stimuli/2000111.jpg","2","","prediction_trial","2","","true","","2","false","false","true","true","false","false","[2]","000","111","1","","","","","","",""
"","","","","","image-keyboard-response","267","690675","0.0-242.0","59d8ae913e5ea00001e1d05f","665500ab8938657b03fbdba8","665793374271bb527e6e63ea","518","stimuli/20001112.jpg"," ","","feedback_trial","2","","","","","","","","","","","","","","","","","","","","",""
"","","","","","image-keyboard-response","268","692597","0.0-243.0","59d8ae913e5ea00001e1d05f","665500ab8938657b03fbdba8","665793374271bb527e6e63ea","1921","stimuli/0010110.jpg","1","","prediction_trial","0","","false","","0","false","false","true","true","false","false","[0]","010","110","0","","","","","","",""
"","","","","","image-keyboard-response","269","692899","0.0-244.0","59d8ae913e5ea00001e1d05f","665500ab8938657b03fbdba8","665793374271bb527e6e63ea","301","stimuli/00101100.jpg"," ","","feedback_trial","0","","","","","","","","","","","","","","","","","","","","",""
"","","","","","image-keyboard-response","270","693904","0.0-245.0","59d8ae913e5ea00001e1d05f","665500ab8938657b03fbdba8","665793374271bb527e6e63ea","1000","stimuli/0011000.jpg","0","","prediction_trial","0","","true","","0","true","true","true","true","true","true","[0]","011","000","1","","","","","","",""
"","","","","","image-keyboard-response","271","694218","0.0-246.0","59d8ae913e5ea00001e1d05f","665500ab8938657b03fbdba8","665793374271bb527e6e63ea","313","stimuli/00110000.jpg"," ","","feedback_trial","0","","","","","","","","","","","","","","","","","","","","",""
"","","","","","image-keyboard-response","272","696131","0.0-247.0","59d8ae913e5ea00001e1d05f","665500ab8938657b03fbdba8","665793374271bb527e6e63ea","1913","stimuli/0111110.jpg","1","","prediction_trial","2","","false","","0","false","false","false","false","false","false","[2,0,1]","111","110","0","","","","","","",""
"","","","","","image-keyboard-response","273","696428","0.0-248.0","59d8ae913e5ea00001e1d05f","665500ab8938657b03fbdba8","665793374271bb527e6e63ea","296","stimuli/01111102.jpg"," ","","feedback_trial","2","","","","","","","","","","","","","","","","","","","","",""
"","","","","","image-keyboard-response","274","699810","0.0-249.0","59d8ae913e5ea00001e1d05f","665500ab8938657b03fbdba8","665793374271bb527e6e63ea","3381","stimuli/1101011.jpg","2","","prediction_trial","1","","false","","1","false","false","true","true","false","false","[1]","101","011","0","","","","","","",""
"","","","","","image-keyboard-response","275","700222","0.0-250.0","59d8ae913e5ea00001e1d05f","665500ab8938657b03fbdba8","665793374271bb527e6e63ea","412","stimuli/11010111.jpg"," ","","feedback_trial","1","","","","","","","","","","","","","","","","","","","","",""
"","","","","","image-keyboard-response","276","701679","0.0-251.0","59d8ae913e5ea00001e1d05f","665500ab8938657b03fbdba8","665793374271bb527e6e63ea","1452","stimuli/1001011.jpg","2","","prediction_trial","1","","false","","1","false","false","true","true","false","false","[1]","001","011","0","","","","","","",""
"","","","","","image-keyboard-response","277","702039","0.0-252.0","59d8ae913e5ea00001e1d05f","665500ab8938657b03fbdba8","665793374271bb527e6e63ea","360","stimuli/10010111.jpg"," ","","feedback_trial","1","","","","","","","","","","","","","","","","","","","","",""
"","","","","","image-keyboard-response","278","703045","0.0-253.0","59d8ae913e5ea00001e1d05f","665500ab8938657b03fbdba8","665793374271bb527e6e63ea","1005","stimuli/2100001.jpg","2","","prediction_trial","2","","true","","2","false","true","true","true","false","true","[2]","100","001","1","","","","","","",""
"","","","","","image-keyboard-response","279","703389","0.0-254.0","59d8ae913e5ea00001e1d05f","665500ab8938657b03fbdba8","665793374271bb527e6e63ea","343","stimuli/21000012.jpg"," ","","feedback_trial","2","","","","","","","","","","","","","","","","","","","","",""
"","","","","","image-keyboard-response","280","705119","0.0-255.0","59d8ae913e5ea00001e1d05f","665500ab8938657b03fbdba8","665793374271bb527e6e63ea","1730","stimuli/2101101.jpg","0","","prediction_trial","0","","true","","2","false","false","false","false","false","false","[2,0]","101","101","1","","","","","","",""
"","","","","","image-keyboard-response","281","705417","0.0-256.0","59d8ae913e5ea00001e1d05f","665500ab8938657b03fbdba8","665793374271bb527e6e63ea","296","stimuli/21011010.jpg"," ","","feedback_trial","2","","","","","","","","","","","","","","","","","","","","",""
"","","","","","image-keyboard-response","282","707698","0.0-257.0","59d8ae913e5ea00001e1d05f","665500ab8938657b03fbdba8","665793374271bb527e6e63ea","2276","stimuli/2110101.jpg","0","","prediction_trial","2","","false","","2","false","false","true","true","false","false","[2]","110","101","0","","","","","","",""
"","","","","","image-keyboard-response","283","707995","0.0-258.0","59d8ae913e5ea00001e1d05f","665500ab8938657b03fbdba8","665793374271bb527e6e63ea","297","stimuli/21101012.jpg"," ","","feedback_trial","2","","","","","","","","","","","","","","","","","","","","",""
"","","","","","image-keyboard-response","284","709147","0.0-259.0","59d8ae913e5ea00001e1d05f","665500ab8938657b03fbdba8","665793374271bb527e6e63ea","1151","stimuli/2001001.jpg","2","","prediction_trial","2","","true","","2","false","true","false","true","false","true","[2]","001","001","1","","","","","","",""
"","","","","","image-keyboard-response","285","709594","0.0-260.0","59d8ae913e5ea00001e1d05f","665500ab8938657b03fbdba8","665793374271bb527e6e63ea","446","stimuli/20010012.jpg"," ","","feedback_trial","2","","","","","","","","","","","","","","","","","","","","",""
"","","","","","image-keyboard-response","286","714551","0.0-261.0","59d8ae913e5ea00001e1d05f","665500ab8938657b03fbdba8","665793374271bb527e6e63ea","4957","stimuli/2011011.jpg","1","","prediction_trial","1","","true","","2","false","false","false","false","false","false","[1,2]","011","011","1","","","","","","",""
"","","","","","image-keyboard-response","287","715042","0.0-262.0","59d8ae913e5ea00001e1d05f","665500ab8938657b03fbdba8","665793374271bb527e6e63ea","490","stimuli/20110111.jpg"," ","","feedback_trial","1","","","","","","","","","","","","","","","","","","","","",""
"","","","","","image-keyboard-response","288","716866","0.0-263.0","59d8ae913e5ea00001e1d05f","665500ab8938657b03fbdba8","665793374271bb527e6e63ea","1820","stimuli/2011100.jpg","2","","prediction_trial","2","","true","","2","true","true","false","false","false","false","[2,1]","011","100","1","","","","","","",""
"","","","","","image-keyboard-response","289","717360","0.0-264.0","59d8ae913e5ea00001e1d05f","665500ab8938657b03fbdba8","665793374271bb527e6e63ea","493","stimuli/20111002.jpg"," ","","feedback_trial","2","","","","","","","","","","","","","","","","","","","","",""
"","","","","","image-keyboard-response","290","718656","0.0-265.0","59d8ae913e5ea00001e1d05f","665500ab8938657b03fbdba8","665793374271bb527e6e63ea","1295","stimuli/0010001.jpg","0","","prediction_trial","0","","true","","0","true","true","true","true","true","true","[0]","010","001","1","","","","","","",""
"","","","","","image-keyboard-response","291","719565","0.0-266.0","59d8ae913e5ea00001e1d05f","665500ab8938657b03fbdba8","665793374271bb527e6e63ea","908","stimuli/00100010.jpg"," ","","feedback_trial","0","","","","","","","","","","","","","","","","","","","","",""
"","","","","","image-keyboard-response","292","721848","0.0-267.0","59d8ae913e5ea00001e1d05f","665500ab8938657b03fbdba8","665793374271bb527e6e63ea","2283","stimuli/0000111.jpg","1","","prediction_trial","0","","false","","0","false","false","true","true","false","false","[0]","000","111","0","","","","","","",""
"","","","","","image-keyboard-response","293","722222","0.0-268.0","59d8ae913e5ea00001e1d05f","665500ab8938657b03fbdba8","665793374271bb527e6e63ea","374","stimuli/00001110.jpg"," ","","feedback_trial","0","","","","","","","","","","","","","","","","","","","","",""
"","","","","","image-keyboard-response","294","723148","0.0-269.0","59d8ae913e5ea00001e1d05f","665500ab8938657b03fbdba8","665793374271bb527e6e63ea","921","stimuli/0010011.jpg","0","","prediction_trial","0","","true","","0","true","true","true","true","true","true","[0]","010","011","1","","","","","","",""
"","","","","","image-keyboard-response","295","723411","0.0-270.0","59d8ae913e5ea00001e1d05f","665500ab8938657b03fbdba8","665793374271bb527e6e63ea","262","stimuli/00100110.jpg"," ","","feedback_trial","0","","","","","","","","","","","","","","","","","","","","",""
"","","","","","image-keyboard-response","296","724580","0.0-271.0","59d8ae913e5ea00001e1d05f","665500ab8938657b03fbdba8","665793374271bb527e6e63ea","1168","stimuli/2101001.jpg","2","","prediction_trial","2","","true","","2","false","true","false","false","false","false","[0,2]","101","001","1","","","","","","",""
"","","","","","image-keyboard-response","297","724930","0.0-272.0","59d8ae913e5ea00001e1d05f","665500ab8938657b03fbdba8","665793374271bb527e6e63ea","349","stimuli/21010012.jpg"," ","","feedback_trial","0","","","","","","","","","","","","","","","","","","","","",""
"","","","","","image-keyboard-response","298","726172","0.0-273.0","59d8ae913e5ea00001e1d05f","665500ab8938657b03fbdba8","665793374271bb527e6e63ea","1242","stimuli/2110010.jpg","2","","prediction_trial","2","","true","","2","true","true","true","true","true","true","[2]","110","010","1","","","","","","",""
"","","","","","image-keyboard-response","299","726544","0.0-274.0","59d8ae913e5ea00001e1d05f","665500ab8938657b03fbdba8","665793374271bb527e6e63ea","371","stimuli/21100102.jpg"," ","","feedback_trial","2","","","","","","","","","","","","","","","","","","","","",""
"","","","","","image-keyboard-response","300","727428","0.0-275.0","59d8ae913e5ea00001e1d05f","665500ab8938657b03fbdba8","665793374271bb527e6e63ea","880","stimuli/2000000.jpg","2","","prediction_trial","2","","true","","2","true","true","true","true","true","true","[2]","000","000","1","","","","","","",""
"","","","","","image-keyboard-response","301","727785","0.0-276.0","59d8ae913e5ea00001e1d05f","665500ab8938657b03fbdba8","665793374271bb527e6e63ea","357","stimuli/20000002.jpg"," ","","feedback_trial","2","","","","","","","","","","","","","","","","","","","","",""
"","","","","","image-keyboard-response","302","728696","0.0-277.0","59d8ae913e5ea00001e1d05f","665500ab8938657b03fbdba8","665793374271bb527e6e63ea","911","stimuli/0011100.jpg","0","","prediction_trial","0","","true","","0","false","true","true","true","false","true","[0]","011","100","1","","","","","","",""
"","","","","","image-keyboard-response","303","729008","0.0-278.0","59d8ae913e5ea00001e1d05f","665500ab8938657b03fbdba8","665793374271bb527e6e63ea","311","stimuli/00111000.jpg"," ","","feedback_trial","0","","","","","","","","","","","","","","","","","","","","",""
"","","","","","image-keyboard-response","304","730582","0.0-279.0","59d8ae913e5ea00001e1d05f","665500ab8938657b03fbdba8","665793374271bb527e6e63ea","1573","stimuli/1011010.jpg","1","","prediction_trial","2","","false","","1","false","true","false","false","false","false","[1,2]","011","010","0","","","","","","",""
"","","","","","image-keyboard-response","305","731283","0.0-280.0","59d8ae913e5ea00001e1d05f","665500ab8938657b03fbdba8","665793374271bb527e6e63ea","701","stimuli/10110102.jpg"," ","","feedback_trial","1","","","","","","","","","","","","","","","","","","","","",""
"","","","","","image-keyboard-response","306","732102","0.0-281.0","59d8ae913e5ea00001e1d05f","665500ab8938657b03fbdba8","665793374271bb527e6e63ea","813","stimuli/0011011.jpg","0","","prediction_trial","0","","true","","0","true","true","true","true","true","true","[0]","011","011","1","","","","","","",""
"","","","","","image-keyboard-response","307","732441","0.0-282.0","59d8ae913e5ea00001e1d05f","665500ab8938657b03fbdba8","665793374271bb527e6e63ea","339","stimuli/00110110.jpg"," ","","feedback_trial","0","","","","","","","","","","","","","","","","","","","","",""
"","","","","","image-keyboard-response","308","734222","0.0-283.0","59d8ae913e5ea00001e1d05f","665500ab8938657b03fbdba8","665793374271bb527e6e63ea","1781","stimuli/0011101.jpg","2","","prediction_trial","0","","false","","0","false","false","true","true","false","false","[0]","011","101","0","","","","","","",""
"","","","","","image-keyboard-response","309","734669","0.0-284.0","59d8ae913e5ea00001e1d05f","665500ab8938657b03fbdba8","665793374271bb527e6e63ea","446","stimuli/00111010.jpg"," ","","feedback_trial","0","","","","","","","","","","","","","","","","","","","","",""
"","","","","","image-keyboard-response","310","735616","0.0-285.0","59d8ae913e5ea00001e1d05f","665500ab8938657b03fbdba8","665793374271bb527e6e63ea","946","stimuli/0001000.jpg","0","","prediction_trial","0","","true","","0","true","true","true","true","true","true","[0]","001","000","1","","","","","","",""
"","","","","","image-keyboard-response","311","735969","0.0-286.0","59d8ae913e5ea00001e1d05f","665500ab8938657b03fbdba8","665793374271bb527e6e63ea","352","stimuli/00010000.jpg"," ","","feedback_trial","0","","","","","","","","","","","","","","","","","","","","",""
"","","","","","image-keyboard-response","312","737518","0.0-287.0","59d8ae913e5ea00001e1d05f","665500ab8938657b03fbdba8","665793374271bb527e6e63ea","1544","stimuli/0110000.jpg","0","","prediction_trial","0","","true","","0","true","true","false","false","false","false","[1,0]","110","000","1","","","","","","",""
"","","","","","image-keyboard-response","313","737852","0.0-288.0","59d8ae913e5ea00001e1d05f","665500ab8938657b03fbdba8","665793374271bb527e6e63ea","333","stimuli/01100000.jpg"," ","","feedback_trial","1","","","","","","","","","","","","","","","","","","","","",""
"","","","","","image-keyboard-response","314","739007","0.0-289.0","59d8ae913e5ea00001e1d05f","665500ab8938657b03fbdba8","665793374271bb527e6e63ea","1155","stimuli/1110101.jpg","1","","prediction_trial","0","","false","","1","true","true","false","false","false","false","[0,1]","110","101","0","","","","","","",""
"","","","","","image-keyboard-response","315","739300","0.0-290.0","59d8ae913e5ea00001e1d05f","665500ab8938657b03fbdba8","665793374271bb527e6e63ea","292","stimuli/11101010.jpg"," ","","feedback_trial","0","","","","","","","","","","","","","","","","","","","","",""
"","","","","","image-keyboard-response","316","740485","0.0-291.0","59d8ae913e5ea00001e1d05f","665500ab8938657b03fbdba8","665793374271bb527e6e63ea","1185","stimuli/1001010.jpg","1","","prediction_trial","1","","true","","1","false","true","true","true","false","true","[1]","001","010","1","","","","","","",""
"","","","","","image-keyboard-response","317","740749","0.0-292.0","59d8ae913e5ea00001e1d05f","665500ab8938657b03fbdba8","665793374271bb527e6e63ea","262","stimuli/10010101.jpg"," ","","feedback_trial","1","","","","","","","","","","","","","","","","","","","","",""
"","","","","","survey-html-form","318","786065","0.0-293.0","59d8ae913e5ea00001e1d05f","665500ab8938657b03fbdba8","665793374271bb527e6e63ea","45315","","{""feedback"":""Whether or not he could see the ball."",""age"":""35"",""gender"":""Male"",""other_gender"":"""",""race"":""White"",""other_race"":"""",""ethnicity"":""Non-Hispanic""}","","exit_survey","","","","","","","","","","","","","","","","Whether or not he could see the ball.","35","Non-Hispanic","Male","White","0.6388888888888888","0.6388888888888888"
