"success","timeout","failed_images","failed_audio","failed_video","trial_type","trial_index","time_elapsed","internal_node_id","prolific_id","prolific_study_id","prolific_session_id","rt","stimulus","response","view_history","trial","character_choice","stimulus_dict","accuracy","correct_response","ball_pos","ego_ball_visible","ego_can_infer","alter_ball_visible","alter_can_infer","collective_ball_visible","collective_can_infer","search_locations","alter_occluders","ego_occluders","accuracy_bool","feedback","age","ethnicity","gender","race","overall_accuracy","bonus"
"true","false","[]","[]","[]","preload","0","1857","0.0-0.0","55fc2b4377f33b000ecb21ed","665500ab8938657b03fbdba8","66577f56c69c7faa76e7386f","","","","","","","","","","","","","","","","","","","","","","","","","","",""
"true","","","","","fullscreen","1","3740","0.0-1.0","55fc2b4377f33b000ecb21ed","665500ab8938657b03fbdba8","66577f56c69c7faa76e7386f","","","","","","","","","","","","","","","","","","","","","","","","","","",""
"","","","","","html-button-response","2","4960","0.0-2.0","55fc2b4377f33b000ecb21ed","665500ab8938657b03fbdba8","66577f56c69c7faa76e7386f","1219","<p><b>Consent Form</b></p> <div style=""text-align:left;background-color:lightgrey; padding:20px; max-width:900px;""><p>Please consider this information carefully before deciding whether to participate in this research.</p> <p>The purpose of this research is to examine which factors influence social judgment and decision-making. You will be asked to make judgements about individuals and actions in social scenarios. We are simply interested in your judgement. The study will take less than 1 hour to complete, and you will receive less than $20 on Prolific. Your compensation and time commitment are specified in the study description. There are no anticipated risks associated with participating in this study. The effects of participating should be comparable to those you would ordinarily experience from viewing a computer monitor and using a mouse or keyboard for a similar amount of time. At the end of the study, we will provide an explanation of the questions that motivate this line of research and will describe the potential implications. </p><p> Your participation in this study is completely voluntary and you may refuse to participate or you may choose to withdraw at any time without penalty or loss of benefits to you which are otherwise entitled. Your participation in this study will remain confidential. No personally identifiable information will be associated with your data. Also, all analyses of the data will be averaged across all the participants, so your individual responses will never be specifically analyzed. </p><p> If you have questions or concerns about your participation or payment, or want to request a summary of research findings, please contact Dr. Jonathan Phillips at Jonathan.S.Phillips@dartmouth.edu. </p><p> Please save a copy of this form for your records. </p><p><b>Agreement: </b>The nature and purpose of this research have been sufficiently explained and I agree to participate in this study. I understand that I am free to withdraw at any time without incurring any penalty. Please consent by clicking the button below to continue. Otherwise, please exit the study at any time. </p>","0","","","","","","","","","","","","","","","","","","","","","","","",""
"","","","","","instructions","3","201937","0.0-3.0-0.0","55fc2b4377f33b000ecb21ed","665500ab8938657b03fbdba8","66577f56c69c7faa76e7386f","196976","","","[{""page_index"":0,""viewing_time"":1187},{""page_index"":1,""viewing_time"":1208},{""page_index"":2,""viewing_time"":851},{""page_index"":3,""viewing_time"":1613},{""page_index"":4,""viewing_time"":1196},{""page_index"":5,""viewing_time"":178650},{""page_index"":6,""viewing_time"":1546},{""page_index"":7,""viewing_time"":1054},{""page_index"":8,""viewing_time"":1385},{""page_index"":9,""viewing_time"":1085},{""page_index"":10,""viewing_time"":3568},{""page_index"":11,""viewing_time"":1522},{""page_index"":12,""viewing_time"":1519},{""page_index"":13,""viewing_time"":592}]","intro","","","","","","","","","","","","","","","","","","","","","",""
"","","","","","image-keyboard-response","4","204634","0.0-3.0-1.0","55fc2b4377f33b000ecb21ed","665500ab8938657b03fbdba8","66577f56c69c7faa76e7386f","2696","stimuli/1011011.jpg","1","","prediction_practice","1","{""filepath"":""stimuli/1011011.jpg"",""ball_pos"":1,""ego_ball_visible"":false,""ego_can_infer"":false,""alter_ball_visible"":false,""alter_can_infer"":false,""collective_ball_visible"":false,""collective_can_infer"":false,""search_locations"":[2,1],""alter_occluders"":""011"",""ego_occluders"":""011""}","true","","","","","","","","","","","","","","","","","","",""
"","","","","","image-keyboard-response","5","206253","0.0-3.0-2.0","55fc2b4377f33b000ecb21ed","665500ab8938657b03fbdba8","66577f56c69c7faa76e7386f","1618","stimuli/10110111.jpg"," ","","practrice_feedback","2","","","","","","","","","","","","","","","","","","","","",""
"","","","","","image-keyboard-response","6","208144","0.0-3.0-3.0","55fc2b4377f33b000ecb21ed","665500ab8938657b03fbdba8","66577f56c69c7faa76e7386f","1891","stimuli/2001110.jpg","1","","prediction_practice","2","{""filepath"":""stimuli/2001110.jpg"",""ball_pos"":2,""ego_ball_visible"":true,""ego_can_infer"":true,""alter_ball_visible"":false,""alter_can_infer"":true,""collective_ball_visible"":false,""collective_can_infer"":true,""search_locations"":[2],""alter_occluders"":""001"",""ego_occluders"":""110""}","false","","","","","","","","","","","","","","","","","","",""
"","","","","","image-keyboard-response","7","209101","0.0-3.0-4.0","55fc2b4377f33b000ecb21ed","665500ab8938657b03fbdba8","66577f56c69c7faa76e7386f","956","stimuli/20011102.jpg"," ","","practrice_feedback","2","","","","","","","","","","","","","","","","","","","","",""
"","","","","","image-keyboard-response","8","211273","0.0-3.0-5.0","55fc2b4377f33b000ecb21ed","665500ab8938657b03fbdba8","66577f56c69c7faa76e7386f","2172","stimuli/1000000.jpg","1","","prediction_practice","1","{""filepath"":""stimuli/1000000.jpg"",""ball_pos"":1,""ego_ball_visible"":true,""ego_can_infer"":true,""alter_ball_visible"":true,""alter_can_infer"":true,""collective_ball_visible"":true,""collective_can_infer"":true,""search_locations"":[1],""alter_occluders"":""000"",""ego_occluders"":""000""}","true","","","","","","","","","","","","","","","","","","",""
"","","","","","image-keyboard-response","9","212199","0.0-3.0-6.0","55fc2b4377f33b000ecb21ed","665500ab8938657b03fbdba8","66577f56c69c7faa76e7386f","925","stimuli/10000001.jpg"," ","","practrice_feedback","1","","","","","","","","","","","","","","","","","","","","",""
"","","","","","image-keyboard-response","10","215438","0.0-3.0-7.0","55fc2b4377f33b000ecb21ed","665500ab8938657b03fbdba8","66577f56c69c7faa76e7386f","3234","stimuli/1001010.jpg","1","","prediction_practice","1","{""filepath"":""stimuli/1001010.jpg"",""ball_pos"":1,""ego_ball_visible"":false,""ego_can_infer"":true,""alter_ball_visible"":true,""alter_can_infer"":true,""collective_ball_visible"":false,""collective_can_infer"":true,""search_locations"":[1],""alter_occluders"":""001"",""ego_occluders"":""010""}","true","","","","","","","","","","","","","","","","","","",""
"","","","","","image-keyboard-response","11","216162","0.0-3.0-8.0","55fc2b4377f33b000ecb21ed","665500ab8938657b03fbdba8","66577f56c69c7faa76e7386f","723","stimuli/10010101.jpg"," ","","practrice_feedback","1","","","","","","","","","","","","","","","","","","","","",""
"","","","","","image-keyboard-response","12","217727","0.0-3.0-9.0","55fc2b4377f33b000ecb21ed","665500ab8938657b03fbdba8","66577f56c69c7faa76e7386f","1565","stimuli/0010011.jpg","0","","prediction_practice","0","{""filepath"":""stimuli/0010011.jpg"",""ball_pos"":0,""ego_ball_visible"":true,""ego_can_infer"":true,""alter_ball_visible"":true,""alter_can_infer"":true,""collective_ball_visible"":true,""collective_can_infer"":true,""search_locations"":[0],""alter_occluders"":""010"",""ego_occluders"":""011""}","true","","","","","","","","","","","","","","","","","","",""
"","","","","","image-keyboard-response","13","218025","0.0-3.0-10.0","55fc2b4377f33b000ecb21ed","665500ab8938657b03fbdba8","66577f56c69c7faa76e7386f","298","stimuli/00100110.jpg"," ","","practrice_feedback","0","","","","","","","","","","","","","","","","","","","","",""
"","","","","","image-keyboard-response","14","218968","0.0-3.0-11.0","55fc2b4377f33b000ecb21ed","665500ab8938657b03fbdba8","66577f56c69c7faa76e7386f","942","stimuli/0011010.jpg","0","","prediction_practice","0","{""filepath"":""stimuli/0011010.jpg"",""ball_pos"":0,""ego_ball_visible"":true,""ego_can_infer"":true,""alter_ball_visible"":true,""alter_can_infer"":true,""collective_ball_visible"":true,""collective_can_infer"":true,""search_locations"":[0],""alter_occluders"":""011"",""ego_occluders"":""010""}","true","","","","","","","","","","","","","","","","","","",""
"","","","","","image-keyboard-response","15","219271","0.0-3.0-12.0","55fc2b4377f33b000ecb21ed","665500ab8938657b03fbdba8","66577f56c69c7faa76e7386f","303","stimuli/00110100.jpg"," ","","practrice_feedback","0","","","","","","","","","","","","","","","","","","","","",""
"","","","","","image-keyboard-response","16","220034","0.0-3.0-13.0","55fc2b4377f33b000ecb21ed","665500ab8938657b03fbdba8","66577f56c69c7faa76e7386f","758","stimuli/2010010.jpg","2","","prediction_practice","2","{""filepath"":""stimuli/2010010.jpg"",""ball_pos"":2,""ego_ball_visible"":true,""ego_can_infer"":true,""alter_ball_visible"":true,""alter_can_infer"":true,""collective_ball_visible"":true,""collective_can_infer"":true,""search_locations"":[2],""alter_occluders"":""010"",""ego_occluders"":""010""}","true","","","","","","","","","","","","","","","","","","",""
"","","","","","image-keyboard-response","17","220269","0.0-3.0-14.0","55fc2b4377f33b000ecb21ed","665500ab8938657b03fbdba8","66577f56c69c7faa76e7386f","235","stimuli/20100102.jpg"," ","","practrice_feedback","2","","","","","","","","","","","","","","","","","","","","",""
"","","","","","image-keyboard-response","18","224429","0.0-3.0-15.0","55fc2b4377f33b000ecb21ed","665500ab8938657b03fbdba8","66577f56c69c7faa76e7386f","4159","stimuli/2010011.jpg","2","","prediction_practice","2","{""filepath"":""stimuli/2010011.jpg"",""ball_pos"":2,""ego_ball_visible"":false,""ego_can_infer"":false,""alter_ball_visible"":true,""alter_can_infer"":true,""collective_ball_visible"":false,""collective_can_infer"":false,""search_locations"":[2],""alter_occluders"":""010"",""ego_occluders"":""011""}","true","","","","","","","","","","","","","","","","","","",""
"","","","","","image-keyboard-response","19","224953","0.0-3.0-16.0","55fc2b4377f33b000ecb21ed","665500ab8938657b03fbdba8","66577f56c69c7faa76e7386f","523","stimuli/20100112.jpg"," ","","practrice_feedback","2","","","","","","","","","","","","","","","","","","","","",""
"","","","","","image-keyboard-response","20","226466","0.0-3.0-17.0","55fc2b4377f33b000ecb21ed","665500ab8938657b03fbdba8","66577f56c69c7faa76e7386f","1512","stimuli/2110001.jpg","2","","prediction_practice","2","{""filepath"":""stimuli/2110001.jpg"",""ball_pos"":2,""ego_ball_visible"":false,""ego_can_infer"":true,""alter_ball_visible"":true,""alter_can_infer"":true,""collective_ball_visible"":false,""collective_can_infer"":true,""search_locations"":[2],""alter_occluders"":""110"",""ego_occluders"":""001""}","true","","","","","","","","","","","","","","","","","","",""
"","","","","","image-keyboard-response","21","226597","0.0-3.0-18.0","55fc2b4377f33b000ecb21ed","665500ab8938657b03fbdba8","66577f56c69c7faa76e7386f","131","stimuli/21100012.jpg"," ","","practrice_feedback","2","","","","","","","","","","","","","","","","","","","","",""
"","","","","","image-keyboard-response","22","229473","0.0-3.0-19.0","55fc2b4377f33b000ecb21ed","665500ab8938657b03fbdba8","66577f56c69c7faa76e7386f","2872","stimuli/2001111.jpg","1","","prediction_practice","2","{""filepath"":""stimuli/2001111.jpg"",""ball_pos"":2,""ego_ball_visible"":false,""ego_can_infer"":false,""alter_ball_visible"":false,""alter_can_infer"":true,""collective_ball_visible"":false,""collective_can_infer"":false,""search_locations"":[2],""alter_occluders"":""001"",""ego_occluders"":""111""}","false","","","","","","","","","","","","","","","","","","",""
"","","","","","image-keyboard-response","23","230268","0.0-3.0-20.0","55fc2b4377f33b000ecb21ed","665500ab8938657b03fbdba8","66577f56c69c7faa76e7386f","795","stimuli/20011112.jpg"," ","","practrice_feedback","2","","","","","","","","","","","","","","","","","","","","",""
"","","","","","html-button-response","24","308935","0.0-3.0-21.0","55fc2b4377f33b000ecb21ed","665500ab8938657b03fbdba8","66577f56c69c7faa76e7386f","78668","Now that you've had some practice, you'll be tested with a couple of easy trials. If you correctly predict Sam's choice, you'll move on to complete the experiment!","0","","","","","","","","","","","","","","","","","","","","","","","",""
"","","","","","image-keyboard-response","25","310226","0.0-3.0-22.0-0.0","55fc2b4377f33b000ecb21ed","665500ab8938657b03fbdba8","66577f56c69c7faa76e7386f","1290","stimuli/0000011.jpg","arrowleft","","comprehension_quiz","","","true","arrowleft","","","","","","","","","","","","","","","","","",""
"","","","","","image-keyboard-response","26","310580","0.0-3.0-22.0-1.0","55fc2b4377f33b000ecb21ed","665500ab8938657b03fbdba8","66577f56c69c7faa76e7386f","353","stimuli/00000110.jpg"," ","","comprehension_quiz","","","true"," ","","","","","","","","","","","","","","","","","",""
"","","","","","image-keyboard-response","27","311481","0.0-3.0-22.0-2.0","55fc2b4377f33b000ecb21ed","665500ab8938657b03fbdba8","66577f56c69c7faa76e7386f","900","stimuli/1010010.jpg","arrowdown","","comprehension_quiz","","","true","arrowdown","","","","","","","","","","","","","","","","","",""
"","","","","","image-keyboard-response","28","311681","0.0-3.0-22.0-3.0","55fc2b4377f33b000ecb21ed","665500ab8938657b03fbdba8","66577f56c69c7faa76e7386f","199","stimuli/10100101.jpg"," ","","comprehension_quiz","","","true"," ","","","","","","","","","","","","","","","","","",""
"","","","","","html-button-response","29","313335","0.0-4.0","55fc2b4377f33b000ecb21ed","665500ab8938657b03fbdba8","66577f56c69c7faa76e7386f","1653","The experiment will now begin.","0","","","","","","","","","","","","","","","","","","","","","","","",""
"","","","","","image-keyboard-response","30","314811","0.0-5.0","55fc2b4377f33b000ecb21ed","665500ab8938657b03fbdba8","66577f56c69c7faa76e7386f","1474","stimuli/1110011.jpg","2","","prediction_trial","0","","false","","1","false","false","false","false","false","false","[1,0]","110","011","0","","","","","","",""
"","","","","","image-keyboard-response","31","315206","0.0-6.0","55fc2b4377f33b000ecb21ed","665500ab8938657b03fbdba8","66577f56c69c7faa76e7386f","390","stimuli/11100110.jpg"," ","","feedback_trial","1","","","","","","","","","","","","","","","","","","","","",""
"","","","","","image-keyboard-response","32","316063","0.0-7.0","55fc2b4377f33b000ecb21ed","665500ab8938657b03fbdba8","66577f56c69c7faa76e7386f","857","stimuli/0000010.jpg","0","","prediction_trial","0","","true","","0","true","true","true","true","true","true","[0]","000","010","1","","","","","","",""
"","","","","","image-keyboard-response","33","316325","0.0-8.0","55fc2b4377f33b000ecb21ed","665500ab8938657b03fbdba8","66577f56c69c7faa76e7386f","262","stimuli/00000100.jpg"," ","","feedback_trial","0","","","","","","","","","","","","","","","","","","","","",""
"","","","","","image-keyboard-response","34","319093","0.0-9.0","55fc2b4377f33b000ecb21ed","665500ab8938657b03fbdba8","66577f56c69c7faa76e7386f","2767","stimuli/2110011.jpg","2","","prediction_trial","2","","true","","2","false","false","true","true","false","false","[2]","110","011","1","","","","","","",""
"","","","","","image-keyboard-response","35","319513","0.0-10.0","55fc2b4377f33b000ecb21ed","665500ab8938657b03fbdba8","66577f56c69c7faa76e7386f","419","stimuli/21100112.jpg"," ","","feedback_trial","2","","","","","","","","","","","","","","","","","","","","",""
"","","","","","image-keyboard-response","36","320196","0.0-11.0","55fc2b4377f33b000ecb21ed","665500ab8938657b03fbdba8","66577f56c69c7faa76e7386f","683","stimuli/0010011.jpg","0","","prediction_trial","0","","true","","0","true","true","true","true","true","true","[0]","010","011","1","","","","","","",""
"","","","","","image-keyboard-response","37","320500","0.0-12.0","55fc2b4377f33b000ecb21ed","665500ab8938657b03fbdba8","66577f56c69c7faa76e7386f","299","stimuli/00100110.jpg"," ","","feedback_trial","0","","","","","","","","","","","","","","","","","","","","",""
"","","","","","image-keyboard-response","38","321920","0.0-13.0","55fc2b4377f33b000ecb21ed","665500ab8938657b03fbdba8","66577f56c69c7faa76e7386f","1420","stimuli/0010100.jpg","0","","prediction_trial","0","","true","","0","false","true","true","true","false","true","[0]","010","100","1","","","","","","",""
"","","","","","image-keyboard-response","39","322157","0.0-14.0","55fc2b4377f33b000ecb21ed","665500ab8938657b03fbdba8","66577f56c69c7faa76e7386f","237","stimuli/00101000.jpg"," ","","feedback_trial","0","","","","","","","","","","","","","","","","","","","","",""
"","","","","","image-keyboard-response","40","323186","0.0-15.0","55fc2b4377f33b000ecb21ed","665500ab8938657b03fbdba8","66577f56c69c7faa76e7386f","1029","stimuli/0000111.jpg","1","","prediction_trial","0","","false","","0","false","false","true","true","false","false","[0]","000","111","0","","","","","","",""
"","","","","","image-keyboard-response","41","323578","0.0-16.0","55fc2b4377f33b000ecb21ed","665500ab8938657b03fbdba8","66577f56c69c7faa76e7386f","392","stimuli/00001110.jpg"," ","","feedback_trial","0","","","","","","","","","","","","","","","","","","","","",""
"","","","","","image-keyboard-response","42","324315","0.0-17.0","55fc2b4377f33b000ecb21ed","665500ab8938657b03fbdba8","66577f56c69c7faa76e7386f","737","stimuli/1001000.jpg","1","","prediction_trial","1","","true","","1","true","true","true","true","true","true","[1]","001","000","1","","","","","","",""
"","","","","","image-keyboard-response","43","324489","0.0-18.0","55fc2b4377f33b000ecb21ed","665500ab8938657b03fbdba8","66577f56c69c7faa76e7386f","168","stimuli/10010001.jpg"," ","","feedback_trial","1","","","","","","","","","","","","","","","","","","","","",""
"","","","","","image-keyboard-response","44","325109","0.0-19.0","55fc2b4377f33b000ecb21ed","665500ab8938657b03fbdba8","66577f56c69c7faa76e7386f","620","stimuli/1101101.jpg","1","","prediction_trial","1","","true","","1","true","true","true","true","true","true","[1]","101","101","1","","","","","","",""
"","","","","","image-keyboard-response","45","325310","0.0-20.0","55fc2b4377f33b000ecb21ed","665500ab8938657b03fbdba8","66577f56c69c7faa76e7386f","201","stimuli/11011011.jpg"," ","","feedback_trial","1","","","","","","","","","","","","","","","","","","","","",""
"","","","","","image-keyboard-response","46","326413","0.0-21.0","55fc2b4377f33b000ecb21ed","665500ab8938657b03fbdba8","66577f56c69c7faa76e7386f","1102","stimuli/1010000.jpg","1","","prediction_trial","1","","true","","1","true","true","false","true","false","true","[1]","010","000","1","","","","","","",""
"","","","","","image-keyboard-response","47","326570","0.0-22.0","55fc2b4377f33b000ecb21ed","665500ab8938657b03fbdba8","66577f56c69c7faa76e7386f","156","stimuli/10100001.jpg"," ","","feedback_trial","1","","","","","","","","","","","","","","","","","","","","",""
"","","","","","image-keyboard-response","48","327245","0.0-23.0","55fc2b4377f33b000ecb21ed","665500ab8938657b03fbdba8","66577f56c69c7faa76e7386f","674","stimuli/2100100.jpg","2","","prediction_trial","2","","true","","2","true","true","true","true","true","true","[2]","100","100","1","","","","","","",""
"","","","","","image-keyboard-response","49","327377","0.0-24.0","55fc2b4377f33b000ecb21ed","665500ab8938657b03fbdba8","66577f56c69c7faa76e7386f","128","stimuli/21001002.jpg"," ","","feedback_trial","2","","","","","","","","","","","","","","","","","","","","",""
"","","","","","image-keyboard-response","50","327985","0.0-25.0","55fc2b4377f33b000ecb21ed","665500ab8938657b03fbdba8","66577f56c69c7faa76e7386f","607","stimuli/2110100.jpg","2","","prediction_trial","2","","true","","2","true","true","true","true","true","true","[2]","110","100","1","","","","","","",""
"","","","","","image-keyboard-response","51","328095","0.0-26.0","55fc2b4377f33b000ecb21ed","665500ab8938657b03fbdba8","66577f56c69c7faa76e7386f","110","stimuli/21101002.jpg"," ","","feedback_trial","2","","","","","","","","","","","","","","","","","","","","",""
"","","","","","image-keyboard-response","52","329707","0.0-27.0","55fc2b4377f33b000ecb21ed","665500ab8938657b03fbdba8","66577f56c69c7faa76e7386f","1611","stimuli/2010111.jpg","0","","prediction_trial","2","","false","","2","false","false","true","true","false","false","[2]","010","111","0","","","","","","",""
"","","","","","image-keyboard-response","53","330102","0.0-28.0","55fc2b4377f33b000ecb21ed","665500ab8938657b03fbdba8","66577f56c69c7faa76e7386f","394","stimuli/20101112.jpg"," ","","feedback_trial","2","","","","","","","","","","","","","","","","","","","","",""
"","","","","","image-keyboard-response","54","330735","0.0-29.0","55fc2b4377f33b000ecb21ed","665500ab8938657b03fbdba8","66577f56c69c7faa76e7386f","632","stimuli/0101010.jpg","0","","prediction_trial","2","","false","","0","true","true","false","false","false","false","[0,2]","101","010","0","","","","","","",""
"","","","","","image-keyboard-response","55","331318","0.0-30.0","55fc2b4377f33b000ecb21ed","665500ab8938657b03fbdba8","66577f56c69c7faa76e7386f","579","stimuli/01010102.jpg"," ","","feedback_trial","0","","","","","","","","","","","","","","","","","","","","",""
"","","","","","image-keyboard-response","56","332116","0.0-31.0","55fc2b4377f33b000ecb21ed","665500ab8938657b03fbdba8","66577f56c69c7faa76e7386f","797","stimuli/1011101.jpg","1","","prediction_trial","2","","false","","1","true","true","false","false","false","false","[2,1]","011","101","0","","","","","","",""
"","","","","","image-keyboard-response","57","333547","0.0-32.0","55fc2b4377f33b000ecb21ed","665500ab8938657b03fbdba8","66577f56c69c7faa76e7386f","1431","stimuli/10111012.jpg"," ","","feedback_trial","2","","","","","","","","","","","","","","","","","","","","",""
"","","","","","image-keyboard-response","58","334829","0.0-33.0","55fc2b4377f33b000ecb21ed","665500ab8938657b03fbdba8","66577f56c69c7faa76e7386f","1282","stimuli/2111010.jpg","2","","prediction_trial","1","","false","","2","true","true","false","false","false","false","[0,2,1]","111","010","0","","","","","","",""
"","","","","","image-keyboard-response","59","335900","0.0-34.0","55fc2b4377f33b000ecb21ed","665500ab8938657b03fbdba8","66577f56c69c7faa76e7386f","1071","stimuli/21110101.jpg"," ","","feedback_trial","0","","","","","","","","","","","","","","","","","","","","",""
"","","","","","image-keyboard-response","60","337485","0.0-35.0","55fc2b4377f33b000ecb21ed","665500ab8938657b03fbdba8","66577f56c69c7faa76e7386f","1584","stimuli/1011000.jpg","1","","prediction_trial","2","","false","","1","true","true","false","false","false","false","[1,2]","011","000","0","","","","","","",""
"","","","","","image-keyboard-response","61","337862","0.0-36.0","55fc2b4377f33b000ecb21ed","665500ab8938657b03fbdba8","66577f56c69c7faa76e7386f","372","stimuli/10110002.jpg"," ","","feedback_trial","1","","","","","","","","","","","","","","","","","","","","",""
"","","","","","image-keyboard-response","62","338853","0.0-37.0","55fc2b4377f33b000ecb21ed","665500ab8938657b03fbdba8","66577f56c69c7faa76e7386f","991","stimuli/0111110.jpg","1","","prediction_trial","2","","false","","0","false","false","false","false","false","false","[1,2,0]","111","110","0","","","","","","",""
"","","","","","image-keyboard-response","63","339308","0.0-38.0","55fc2b4377f33b000ecb21ed","665500ab8938657b03fbdba8","66577f56c69c7faa76e7386f","454","stimuli/01111102.jpg"," ","","feedback_trial","1","","","","","","","","","","","","","","","","","","","","",""
"","","","","","image-keyboard-response","64","340101","0.0-39.0","55fc2b4377f33b000ecb21ed","665500ab8938657b03fbdba8","66577f56c69c7faa76e7386f","792","stimuli/1100000.jpg","1","","prediction_trial","1","","true","","1","true","true","true","true","true","true","[1]","100","000","1","","","","","","",""
"","","","","","image-keyboard-response","65","340328","0.0-40.0","55fc2b4377f33b000ecb21ed","665500ab8938657b03fbdba8","66577f56c69c7faa76e7386f","227","stimuli/11000001.jpg"," ","","feedback_trial","1","","","","","","","","","","","","","","","","","","","","",""
"","","","","","image-keyboard-response","66","341104","0.0-41.0","55fc2b4377f33b000ecb21ed","665500ab8938657b03fbdba8","66577f56c69c7faa76e7386f","775","stimuli/2100010.jpg","2","","prediction_trial","2","","true","","2","true","true","true","true","true","true","[2]","100","010","1","","","","","","",""
"","","","","","image-keyboard-response","67","341357","0.0-42.0","55fc2b4377f33b000ecb21ed","665500ab8938657b03fbdba8","66577f56c69c7faa76e7386f","248","stimuli/21000102.jpg"," ","","feedback_trial","2","","","","","","","","","","","","","","","","","","","","",""
"","","","","","image-keyboard-response","68","343362","0.0-43.0","55fc2b4377f33b000ecb21ed","665500ab8938657b03fbdba8","66577f56c69c7faa76e7386f","2005","stimuli/2101001.jpg","2","","prediction_trial","0","","false","","2","false","true","false","false","false","false","[2,0]","101","001","0","","","","","","",""
"","","","","","image-keyboard-response","69","343834","0.0-44.0","55fc2b4377f33b000ecb21ed","665500ab8938657b03fbdba8","66577f56c69c7faa76e7386f","471","stimuli/21010010.jpg"," ","","feedback_trial","2","","","","","","","","","","","","","","","","","","","","",""
"","","","","","image-keyboard-response","70","345165","0.0-45.0","55fc2b4377f33b000ecb21ed","665500ab8938657b03fbdba8","66577f56c69c7faa76e7386f","1331","stimuli/0011100.jpg","0","","prediction_trial","0","","true","","0","false","true","true","true","false","true","[0]","011","100","1","","","","","","",""
"","","","","","image-keyboard-response","71","345470","0.0-46.0","55fc2b4377f33b000ecb21ed","665500ab8938657b03fbdba8","66577f56c69c7faa76e7386f","304","stimuli/00111000.jpg"," ","","feedback_trial","0","","","","","","","","","","","","","","","","","","","","",""
"","","","","","image-keyboard-response","72","346633","0.0-47.0","55fc2b4377f33b000ecb21ed","665500ab8938657b03fbdba8","66577f56c69c7faa76e7386f","1163","stimuli/0111011.jpg","0","","prediction_trial","1","","false","","0","true","true","false","false","false","false","[2,0,1]","111","011","0","","","","","","",""
"","","","","","image-keyboard-response","73","346972","0.0-48.0","55fc2b4377f33b000ecb21ed","665500ab8938657b03fbdba8","66577f56c69c7faa76e7386f","334","stimuli/01110111.jpg"," ","","feedback_trial","2","","","","","","","","","","","","","","","","","","","","",""
"","","","","","image-keyboard-response","74","347528","0.0-49.0","55fc2b4377f33b000ecb21ed","665500ab8938657b03fbdba8","66577f56c69c7faa76e7386f","556","stimuli/2100000.jpg","2","","prediction_trial","2","","true","","2","true","true","true","true","true","true","[2]","100","000","1","","","","","","",""
"","","","","","image-keyboard-response","75","347765","0.0-50.0","55fc2b4377f33b000ecb21ed","665500ab8938657b03fbdba8","66577f56c69c7faa76e7386f","237","stimuli/21000002.jpg"," ","","feedback_trial","2","","","","","","","","","","","","","","","","","","","","",""
"","","","","","image-keyboard-response","76","349558","0.0-51.0","55fc2b4377f33b000ecb21ed","665500ab8938657b03fbdba8","66577f56c69c7faa76e7386f","1792","stimuli/1011100.jpg","1","","prediction_trial","1","","true","","1","true","true","false","false","false","false","[2,1]","011","100","1","","","","","","",""
"","","","","","image-keyboard-response","77","349921","0.0-52.0","55fc2b4377f33b000ecb21ed","665500ab8938657b03fbdba8","66577f56c69c7faa76e7386f","363","stimuli/10111001.jpg"," ","","feedback_trial","2","","","","","","","","","","","","","","","","","","","","",""
"","","","","","image-keyboard-response","78","350740","0.0-53.0","55fc2b4377f33b000ecb21ed","665500ab8938657b03fbdba8","66577f56c69c7faa76e7386f","818","stimuli/1001001.jpg","1","","prediction_trial","1","","true","","1","true","true","true","true","true","true","[1]","001","001","1","","","","","","",""
"","","","","","image-keyboard-response","79","350972","0.0-54.0","55fc2b4377f33b000ecb21ed","665500ab8938657b03fbdba8","66577f56c69c7faa76e7386f","229","stimuli/10010011.jpg"," ","","feedback_trial","1","","","","","","","","","","","","","","","","","","","","",""
"","","","","","image-keyboard-response","80","352060","0.0-55.0","55fc2b4377f33b000ecb21ed","665500ab8938657b03fbdba8","66577f56c69c7faa76e7386f","1087","stimuli/1010110.jpg","1","","prediction_trial","1","","true","","1","false","false","false","true","false","false","[1]","010","110","1","","","","","","",""
"","","","","","image-keyboard-response","81","352544","0.0-56.0","55fc2b4377f33b000ecb21ed","665500ab8938657b03fbdba8","66577f56c69c7faa76e7386f","484","stimuli/10101101.jpg"," ","","feedback_trial","1","","","","","","","","","","","","","","","","","","","","",""
"","","","","","image-keyboard-response","82","353306","0.0-57.0","55fc2b4377f33b000ecb21ed","665500ab8938657b03fbdba8","66577f56c69c7faa76e7386f","761","stimuli/1110110.jpg","1","","prediction_trial","0","","false","","1","false","false","false","false","false","false","[1,0]","110","110","0","","","","","","",""
"","","","","","image-keyboard-response","83","353706","0.0-58.0","55fc2b4377f33b000ecb21ed","665500ab8938657b03fbdba8","66577f56c69c7faa76e7386f","399","stimuli/11101100.jpg"," ","","feedback_trial","1","","","","","","","","","","","","","","","","","","","","",""
"","","","","","image-keyboard-response","84","354486","0.0-59.0","55fc2b4377f33b000ecb21ed","665500ab8938657b03fbdba8","66577f56c69c7faa76e7386f","780","stimuli/2000110.jpg","2","","prediction_trial","2","","true","","2","true","true","true","true","true","true","[2]","000","110","1","","","","","","",""
"","","","","","image-keyboard-response","85","354776","0.0-60.0","55fc2b4377f33b000ecb21ed","665500ab8938657b03fbdba8","66577f56c69c7faa76e7386f","286","stimuli/20001102.jpg"," ","","feedback_trial","2","","","","","","","","","","","","","","","","","","","","",""
"","","","","","image-keyboard-response","86","355860","0.0-61.0","55fc2b4377f33b000ecb21ed","665500ab8938657b03fbdba8","66577f56c69c7faa76e7386f","1084","stimuli/0001110.jpg","1","","prediction_trial","0","","false","","0","false","false","true","true","false","false","[0]","001","110","0","","","","","","",""
"","","","","","image-keyboard-response","87","356213","0.0-62.0","55fc2b4377f33b000ecb21ed","665500ab8938657b03fbdba8","66577f56c69c7faa76e7386f","352","stimuli/00011100.jpg"," ","","feedback_trial","0","","","","","","","","","","","","","","","","","","","","",""
"","","","","","image-keyboard-response","88","357377","0.0-63.0","55fc2b4377f33b000ecb21ed","665500ab8938657b03fbdba8","66577f56c69c7faa76e7386f","1163","stimuli/0100000.jpg","0","","prediction_trial","0","","true","","0","true","true","false","true","false","true","[0]","100","000","1","","","","","","",""
"","","","","","image-keyboard-response","89","357579","0.0-64.0","55fc2b4377f33b000ecb21ed","665500ab8938657b03fbdba8","66577f56c69c7faa76e7386f","202","stimuli/01000000.jpg"," ","","feedback_trial","0","","","","","","","","","","","","","","","","","","","","",""
"","","","","","image-keyboard-response","90","358795","0.0-65.0","55fc2b4377f33b000ecb21ed","665500ab8938657b03fbdba8","66577f56c69c7faa76e7386f","1215","stimuli/0100101.jpg","2","","prediction_trial","0","","false","","0","false","false","false","true","false","false","[0]","100","101","0","","","","","","",""
"","","","","","image-keyboard-response","91","359172","0.0-66.0","55fc2b4377f33b000ecb21ed","665500ab8938657b03fbdba8","66577f56c69c7faa76e7386f","372","stimuli/01001010.jpg"," ","","feedback_trial","0","","","","","","","","","","","","","","","","","","","","",""
"","","","","","image-keyboard-response","92","359832","0.0-67.0","55fc2b4377f33b000ecb21ed","665500ab8938657b03fbdba8","66577f56c69c7faa76e7386f","660","stimuli/0001010.jpg","0","","prediction_trial","0","","true","","0","true","true","true","true","true","true","[0]","001","010","1","","","","","","",""
"","","","","","image-keyboard-response","93","360064","0.0-68.0","55fc2b4377f33b000ecb21ed","665500ab8938657b03fbdba8","66577f56c69c7faa76e7386f","231","stimuli/00010100.jpg"," ","","feedback_trial","0","","","","","","","","","","","","","","","","","","","","",""
"","","","","","image-keyboard-response","94","360829","0.0-69.0","55fc2b4377f33b000ecb21ed","665500ab8938657b03fbdba8","66577f56c69c7faa76e7386f","764","stimuli/1011011.jpg","2","","prediction_trial","1","","false","","1","false","false","false","false","false","false","[2,1]","011","011","0","","","","","","",""
"","","","","","image-keyboard-response","95","361124","0.0-70.0","55fc2b4377f33b000ecb21ed","665500ab8938657b03fbdba8","66577f56c69c7faa76e7386f","295","stimuli/10110111.jpg"," ","","feedback_trial","2","","","","","","","","","","","","","","","","","","","","",""
"","","","","","image-keyboard-response","96","362086","0.0-71.0","55fc2b4377f33b000ecb21ed","665500ab8938657b03fbdba8","66577f56c69c7faa76e7386f","961","stimuli/1111110.jpg","1","","prediction_trial","0","","false","","1","false","false","false","false","false","false","[0,1,2]","111","110","0","","","","","","",""
"","","","","","image-keyboard-response","97","362547","0.0-72.0","55fc2b4377f33b000ecb21ed","665500ab8938657b03fbdba8","66577f56c69c7faa76e7386f","457","stimuli/11111100.jpg"," ","","feedback_trial","0","","","","","","","","","","","","","","","","","","","","",""
"","","","","","image-keyboard-response","98","363122","0.0-73.0","55fc2b4377f33b000ecb21ed","665500ab8938657b03fbdba8","66577f56c69c7faa76e7386f","575","stimuli/1010100.jpg","1","","prediction_trial","1","","true","","1","true","true","false","true","false","true","[1]","010","100","1","","","","","","",""
"","","","","","image-keyboard-response","99","363524","0.0-74.0","55fc2b4377f33b000ecb21ed","665500ab8938657b03fbdba8","66577f56c69c7faa76e7386f","401","stimuli/10101001.jpg"," ","","feedback_trial","1","","","","","","","","","","","","","","","","","","","","",""
"","","","","","image-keyboard-response","100","491145","0.0-75.0","55fc2b4377f33b000ecb21ed","665500ab8938657b03fbdba8","66577f56c69c7faa76e7386f","127621","stimuli/1010011.jpg","2","","prediction_trial","1","","false","","1","false","false","false","true","false","false","[1]","010","011","0","","","","","","",""
"","","","","","image-keyboard-response","101","491489","0.0-76.0","55fc2b4377f33b000ecb21ed","665500ab8938657b03fbdba8","66577f56c69c7faa76e7386f","343","stimuli/10100111.jpg"," ","","feedback_trial","1","","","","","","","","","","","","","","","","","","","","",""
"","","","","","image-keyboard-response","102","492253","0.0-77.0","55fc2b4377f33b000ecb21ed","665500ab8938657b03fbdba8","66577f56c69c7faa76e7386f","764","stimuli/1101100.jpg","1","","prediction_trial","1","","true","","1","true","true","true","true","true","true","[1]","101","100","1","","","","","","",""
"","","","","","image-keyboard-response","103","492477","0.0-78.0","55fc2b4377f33b000ecb21ed","665500ab8938657b03fbdba8","66577f56c69c7faa76e7386f","219","stimuli/11011001.jpg"," ","","feedback_trial","1","","","","","","","","","","","","","","","","","","","","",""
"","","","","","image-keyboard-response","104","493033","0.0-79.0","55fc2b4377f33b000ecb21ed","665500ab8938657b03fbdba8","66577f56c69c7faa76e7386f","555","stimuli/0010010.jpg","0","","prediction_trial","0","","true","","0","true","true","true","true","true","true","[0]","010","010","1","","","","","","",""
"","","","","","image-keyboard-response","105","493231","0.0-80.0","55fc2b4377f33b000ecb21ed","665500ab8938657b03fbdba8","66577f56c69c7faa76e7386f","198","stimuli/00100100.jpg"," ","","feedback_trial","0","","","","","","","","","","","","","","","","","","","","",""
"","","","","","image-keyboard-response","106","493810","0.0-81.0","55fc2b4377f33b000ecb21ed","665500ab8938657b03fbdba8","66577f56c69c7faa76e7386f","579","stimuli/1000001.jpg","1","","prediction_trial","1","","true","","1","true","true","true","true","true","true","[1]","000","001","1","","","","","","",""
"","","","","","image-keyboard-response","107","494069","0.0-82.0","55fc2b4377f33b000ecb21ed","665500ab8938657b03fbdba8","66577f56c69c7faa76e7386f","259","stimuli/10000011.jpg"," ","","feedback_trial","1","","","","","","","","","","","","","","","","","","","","",""
"","","","","","image-keyboard-response","108","495216","0.0-83.0","55fc2b4377f33b000ecb21ed","665500ab8938657b03fbdba8","66577f56c69c7faa76e7386f","1146","stimuli/0101101.jpg","0","","prediction_trial","0","","true","","0","false","false","false","false","false","false","[2,0]","101","101","1","","","","","","",""
"","","","","","image-keyboard-response","109","495533","0.0-84.0","55fc2b4377f33b000ecb21ed","665500ab8938657b03fbdba8","66577f56c69c7faa76e7386f","313","stimuli/01011010.jpg"," ","","feedback_trial","2","","","","","","","","","","","","","","","","","","","","",""
"","","","","","image-keyboard-response","110","496156","0.0-85.0","55fc2b4377f33b000ecb21ed","665500ab8938657b03fbdba8","66577f56c69c7faa76e7386f","622","stimuli/2000010.jpg","2","","prediction_trial","2","","true","","2","true","true","true","true","true","true","[2]","000","010","1","","","","","","",""
"","","","","","image-keyboard-response","111","496385","0.0-86.0","55fc2b4377f33b000ecb21ed","665500ab8938657b03fbdba8","66577f56c69c7faa76e7386f","229","stimuli/20000102.jpg"," ","","feedback_trial","2","","","","","","","","","","","","","","","","","","","","",""
"","","","","","image-keyboard-response","112","497213","0.0-87.0","55fc2b4377f33b000ecb21ed","665500ab8938657b03fbdba8","66577f56c69c7faa76e7386f","827","stimuli/0100100.jpg","0","","prediction_trial","0","","true","","0","false","true","false","true","false","true","[0]","100","100","1","","","","","","",""
"","","","","","image-keyboard-response","113","497446","0.0-88.0","55fc2b4377f33b000ecb21ed","665500ab8938657b03fbdba8","66577f56c69c7faa76e7386f","232","stimuli/01001000.jpg"," ","","feedback_trial","0","","","","","","","","","","","","","","","","","","","","",""
"","","","","","image-keyboard-response","114","498152","0.0-89.0","55fc2b4377f33b000ecb21ed","665500ab8938657b03fbdba8","66577f56c69c7faa76e7386f","706","stimuli/2110110.jpg","2","","prediction_trial","2","","true","","2","true","true","true","true","true","true","[2]","110","110","1","","","","","","",""
"","","","","","image-keyboard-response","115","498381","0.0-90.0","55fc2b4377f33b000ecb21ed","665500ab8938657b03fbdba8","66577f56c69c7faa76e7386f","225","stimuli/21101102.jpg"," ","","feedback_trial","2","","","","","","","","","","","","","","","","","","","","",""
"","","","","","image-keyboard-response","116","498948","0.0-91.0","55fc2b4377f33b000ecb21ed","665500ab8938657b03fbdba8","66577f56c69c7faa76e7386f","567","stimuli/1111100.jpg","1","","prediction_trial","2","","false","","1","true","true","false","false","false","false","[2,1,0]","111","100","0","","","","","","",""
"","","","","","image-keyboard-response","117","499298","0.0-92.0","55fc2b4377f33b000ecb21ed","665500ab8938657b03fbdba8","66577f56c69c7faa76e7386f","349","stimuli/11111002.jpg"," ","","feedback_trial","2","","","","","","","","","","","","","","","","","","","","",""
"","","","","","image-keyboard-response","118","500032","0.0-93.0","55fc2b4377f33b000ecb21ed","665500ab8938657b03fbdba8","66577f56c69c7faa76e7386f","733","stimuli/2101110.jpg","2","","prediction_trial","0","","false","","2","true","true","false","false","false","false","[2,0]","101","110","0","","","","","","",""
"","","","","","image-keyboard-response","119","500354","0.0-94.0","55fc2b4377f33b000ecb21ed","665500ab8938657b03fbdba8","66577f56c69c7faa76e7386f","322","stimuli/21011100.jpg"," ","","feedback_trial","2","","","","","","","","","","","","","","","","","","","","",""
"","","","","","image-keyboard-response","120","501844","0.0-95.0","55fc2b4377f33b000ecb21ed","665500ab8938657b03fbdba8","66577f56c69c7faa76e7386f","1490","stimuli/0010111.jpg","2","","prediction_trial","0","","false","","0","false","false","true","true","false","false","[0]","010","111","0","","","","","","",""
"","","","","","image-keyboard-response","121","502199","0.0-96.0","55fc2b4377f33b000ecb21ed","665500ab8938657b03fbdba8","66577f56c69c7faa76e7386f","350","stimuli/00101110.jpg"," ","","feedback_trial","0","","","","","","","","","","","","","","","","","","","","",""
"","","","","","image-keyboard-response","122","503064","0.0-97.0","55fc2b4377f33b000ecb21ed","665500ab8938657b03fbdba8","66577f56c69c7faa76e7386f","864","stimuli/1000010.jpg","1","","prediction_trial","1","","true","","1","false","true","true","true","false","true","[1]","000","010","1","","","","","","",""
"","","","","","image-keyboard-response","123","503308","0.0-98.0","55fc2b4377f33b000ecb21ed","665500ab8938657b03fbdba8","66577f56c69c7faa76e7386f","244","stimuli/10000101.jpg"," ","","feedback_trial","1","","","","","","","","","","","","","","","","","","","","",""
"","","","","","image-keyboard-response","124","504055","0.0-99.0","55fc2b4377f33b000ecb21ed","665500ab8938657b03fbdba8","66577f56c69c7faa76e7386f","747","stimuli/0110010.jpg","0","","prediction_trial","0","","true","","0","true","true","false","false","false","false","[0,1]","110","010","1","","","","","","",""
"","","","","","image-keyboard-response","125","504408","0.0-100.0","55fc2b4377f33b000ecb21ed","665500ab8938657b03fbdba8","66577f56c69c7faa76e7386f","353","stimuli/01100100.jpg"," ","","feedback_trial","0","","","","","","","","","","","","","","","","","","","","",""
"","","","","","image-keyboard-response","126","505030","0.0-101.0","55fc2b4377f33b000ecb21ed","665500ab8938657b03fbdba8","66577f56c69c7faa76e7386f","621","stimuli/0010000.jpg","0","","prediction_trial","0","","true","","0","true","true","true","true","true","true","[0]","010","000","1","","","","","","",""
"","","","","","image-keyboard-response","127","505330","0.0-102.0","55fc2b4377f33b000ecb21ed","665500ab8938657b03fbdba8","66577f56c69c7faa76e7386f","295","stimuli/00100000.jpg"," ","","feedback_trial","0","","","","","","","","","","","","","","","","","","","","",""
"","","","","","image-keyboard-response","128","506369","0.0-103.0","55fc2b4377f33b000ecb21ed","665500ab8938657b03fbdba8","66577f56c69c7faa76e7386f","1039","stimuli/2000101.jpg","2","","prediction_trial","2","","true","","2","false","false","true","true","false","false","[2]","000","101","1","","","","","","",""
"","","","","","image-keyboard-response","129","506694","0.0-104.0","55fc2b4377f33b000ecb21ed","665500ab8938657b03fbdba8","66577f56c69c7faa76e7386f","325","stimuli/20001012.jpg"," ","","feedback_trial","2","","","","","","","","","","","","","","","","","","","","",""
"","","","","","image-keyboard-response","130","507214","0.0-105.0","55fc2b4377f33b000ecb21ed","665500ab8938657b03fbdba8","66577f56c69c7faa76e7386f","519","stimuli/2100110.jpg","2","","prediction_trial","2","","true","","2","true","true","true","true","true","true","[2]","100","110","1","","","","","","",""
"","","","","","image-keyboard-response","131","507457","0.0-106.0","55fc2b4377f33b000ecb21ed","665500ab8938657b03fbdba8","66577f56c69c7faa76e7386f","242","stimuli/21001102.jpg"," ","","feedback_trial","2","","","","","","","","","","","","","","","","","","","","",""
"","","","","","image-keyboard-response","132","508447","0.0-107.0","55fc2b4377f33b000ecb21ed","665500ab8938657b03fbdba8","66577f56c69c7faa76e7386f","989","stimuli/0001111.jpg","0","","prediction_trial","0","","true","","0","false","false","true","true","false","false","[0]","001","111","1","","","","","","",""
"","","","","","image-keyboard-response","133","508769","0.0-108.0","55fc2b4377f33b000ecb21ed","665500ab8938657b03fbdba8","66577f56c69c7faa76e7386f","317","stimuli/00011110.jpg"," ","","feedback_trial","0","","","","","","","","","","","","","","","","","","","","",""
"","","","","","image-keyboard-response","134","509344","0.0-109.0","55fc2b4377f33b000ecb21ed","665500ab8938657b03fbdba8","66577f56c69c7faa76e7386f","574","stimuli/1101001.jpg","1","","prediction_trial","1","","true","","1","true","true","true","true","true","true","[1]","101","001","1","","","","","","",""
"","","","","","image-keyboard-response","135","509610","0.0-110.0","55fc2b4377f33b000ecb21ed","665500ab8938657b03fbdba8","66577f56c69c7faa76e7386f","266","stimuli/11010011.jpg"," ","","feedback_trial","1","","","","","","","","","","","","","","","","","","","","",""
"","","","","","image-keyboard-response","136","511611","0.0-111.0","55fc2b4377f33b000ecb21ed","665500ab8938657b03fbdba8","66577f56c69c7faa76e7386f","2001","stimuli/1011111.jpg","0","","prediction_trial","2","","false","","1","false","false","false","false","false","false","[1,2]","011","111","0","","","","","","",""
"","","","","","image-keyboard-response","137","511965","0.0-112.0","55fc2b4377f33b000ecb21ed","665500ab8938657b03fbdba8","66577f56c69c7faa76e7386f","354","stimuli/10111112.jpg"," ","","feedback_trial","1","","","","","","","","","","","","","","","","","","","","",""
"","","","","","image-keyboard-response","138","550816","0.0-113.0","55fc2b4377f33b000ecb21ed","665500ab8938657b03fbdba8","66577f56c69c7faa76e7386f","38850","stimuli/2110101.jpg","2","","prediction_trial","2","","true","","2","false","false","true","true","false","false","[2]","110","101","1","","","","","","",""
"","","","","","image-keyboard-response","139","551150","0.0-114.0","55fc2b4377f33b000ecb21ed","665500ab8938657b03fbdba8","66577f56c69c7faa76e7386f","329","stimuli/21101012.jpg"," ","","feedback_trial","2","","","","","","","","","","","","","","","","","","","","",""
"","","","","","image-keyboard-response","140","551717","0.0-115.0","55fc2b4377f33b000ecb21ed","665500ab8938657b03fbdba8","66577f56c69c7faa76e7386f","566","stimuli/2010100.jpg","2","","prediction_trial","2","","true","","2","true","true","true","true","true","true","[2]","010","100","1","","","","","","",""
"","","","","","image-keyboard-response","141","551919","0.0-116.0","55fc2b4377f33b000ecb21ed","665500ab8938657b03fbdba8","66577f56c69c7faa76e7386f","202","stimuli/20101002.jpg"," ","","feedback_trial","2","","","","","","","","","","","","","","","","","","","","",""
"","","","","","image-keyboard-response","142","553189","0.0-117.0","55fc2b4377f33b000ecb21ed","665500ab8938657b03fbdba8","66577f56c69c7faa76e7386f","1269","stimuli/2011110.jpg","2","","prediction_trial","2","","true","","2","true","true","false","false","false","false","[2,1]","011","110","1","","","","","","",""
"","","","","","image-keyboard-response","143","553460","0.0-118.0","55fc2b4377f33b000ecb21ed","665500ab8938657b03fbdba8","66577f56c69c7faa76e7386f","271","stimuli/20111102.jpg"," ","","feedback_trial","2","","","","","","","","","","","","","","","","","","","","",""
"","","","","","image-keyboard-response","144","553949","0.0-119.0","55fc2b4377f33b000ecb21ed","665500ab8938657b03fbdba8","66577f56c69c7faa76e7386f","489","stimuli/2110000.jpg","2","","prediction_trial","2","","true","","2","true","true","true","true","true","true","[2]","110","000","1","","","","","","",""
"","","","","","image-keyboard-response","145","554146","0.0-120.0","55fc2b4377f33b000ecb21ed","665500ab8938657b03fbdba8","66577f56c69c7faa76e7386f","192","stimuli/21100002.jpg"," ","","feedback_trial","2","","","","","","","","","","","","","","","","","","","","",""
"","","","","","image-keyboard-response","146","555791","0.0-121.0","55fc2b4377f33b000ecb21ed","665500ab8938657b03fbdba8","66577f56c69c7faa76e7386f","1645","stimuli/0111100.jpg","1","","prediction_trial","1","","true","","0","false","true","false","false","false","false","[2,1,0]","111","100","1","","","","","","",""
"","","","","","image-keyboard-response","147","556114","0.0-122.0","55fc2b4377f33b000ecb21ed","665500ab8938657b03fbdba8","66577f56c69c7faa76e7386f","323","stimuli/01111001.jpg"," ","","feedback_trial","2","","","","","","","","","","","","","","","","","","","","",""
"","","","","","image-keyboard-response","148","557050","0.0-123.0","55fc2b4377f33b000ecb21ed","665500ab8938657b03fbdba8","66577f56c69c7faa76e7386f","936","stimuli/2100111.jpg","1","","prediction_trial","2","","false","","2","false","false","true","true","false","false","[2]","100","111","0","","","","","","",""
"","","","","","image-keyboard-response","149","557383","0.0-124.0","55fc2b4377f33b000ecb21ed","665500ab8938657b03fbdba8","66577f56c69c7faa76e7386f","333","stimuli/21001112.jpg"," ","","feedback_trial","2","","","","","","","","","","","","","","","","","","","","",""
"","","","","","image-keyboard-response","150","558265","0.0-125.0","55fc2b4377f33b000ecb21ed","665500ab8938657b03fbdba8","66577f56c69c7faa76e7386f","881","stimuli/2010101.jpg","2","","prediction_trial","2","","true","","2","false","false","true","true","false","false","[2]","010","101","1","","","","","","",""
"","","","","","image-keyboard-response","151","558605","0.0-126.0","55fc2b4377f33b000ecb21ed","665500ab8938657b03fbdba8","66577f56c69c7faa76e7386f","336","stimuli/20101012.jpg"," ","","feedback_trial","2","","","","","","","","","","","","","","","","","","","","",""
"","","","","","image-keyboard-response","152","559342","0.0-127.0","55fc2b4377f33b000ecb21ed","665500ab8938657b03fbdba8","66577f56c69c7faa76e7386f","737","stimuli/1100111.jpg","2","","prediction_trial","1","","false","","1","false","false","true","true","false","false","[1]","100","111","0","","","","","","",""
"","","","","","image-keyboard-response","153","559678","0.0-128.0","55fc2b4377f33b000ecb21ed","665500ab8938657b03fbdba8","66577f56c69c7faa76e7386f","336","stimuli/11001111.jpg"," ","","feedback_trial","1","","","","","","","","","","","","","","","","","","","","",""
"","","","","","image-keyboard-response","154","560858","0.0-129.0","55fc2b4377f33b000ecb21ed","665500ab8938657b03fbdba8","66577f56c69c7faa76e7386f","1180","stimuli/0101000.jpg","0","","prediction_trial","0","","true","","0","true","true","false","false","false","false","[2,0]","101","000","1","","","","","","",""
"","","","","","image-keyboard-response","155","561126","0.0-130.0","55fc2b4377f33b000ecb21ed","665500ab8938657b03fbdba8","66577f56c69c7faa76e7386f","267","stimuli/01010000.jpg"," ","","feedback_trial","2","","","","","","","","","","","","","","","","","","","","",""
"","","","","","image-keyboard-response","156","561824","0.0-131.0","55fc2b4377f33b000ecb21ed","665500ab8938657b03fbdba8","66577f56c69c7faa76e7386f","698","stimuli/1001111.jpg","1","","prediction_trial","1","","true","","1","false","false","true","true","false","false","[1]","001","111","1","","","","","","",""
"","","","","","image-keyboard-response","157","562124","0.0-132.0","55fc2b4377f33b000ecb21ed","665500ab8938657b03fbdba8","66577f56c69c7faa76e7386f","295","stimuli/10011111.jpg"," ","","feedback_trial","1","","","","","","","","","","","","","","","","","","","","",""
"","","","","","image-keyboard-response","158","562667","0.0-133.0","55fc2b4377f33b000ecb21ed","665500ab8938657b03fbdba8","66577f56c69c7faa76e7386f","542","stimuli/1100001.jpg","1","","prediction_trial","1","","true","","1","true","true","true","true","true","true","[1]","100","001","1","","","","","","",""
"","","","","","image-keyboard-response","159","562900","0.0-134.0","55fc2b4377f33b000ecb21ed","665500ab8938657b03fbdba8","66577f56c69c7faa76e7386f","233","stimuli/11000011.jpg"," ","","feedback_trial","1","","","","","","","","","","","","","","","","","","","","",""
"","","","","","image-keyboard-response","160","564389","0.0-135.0","55fc2b4377f33b000ecb21ed","665500ab8938657b03fbdba8","66577f56c69c7faa76e7386f","1488","stimuli/1111010.jpg","0","","prediction_trial","2","","false","","1","false","true","false","false","false","false","[1,0,2]","111","010","0","","","","","","",""
"","","","","","image-keyboard-response","161","564719","0.0-136.0","55fc2b4377f33b000ecb21ed","665500ab8938657b03fbdba8","66577f56c69c7faa76e7386f","330","stimuli/11110102.jpg"," ","","feedback_trial","1","","","","","","","","","","","","","","","","","","","","",""
"","","","","","image-keyboard-response","162","565333","0.0-137.0","55fc2b4377f33b000ecb21ed","665500ab8938657b03fbdba8","66577f56c69c7faa76e7386f","614","stimuli/0101110.jpg","0","","prediction_trial","2","","false","","0","false","false","false","false","false","false","[0,2]","101","110","0","","","","","","",""
"","","","","","image-keyboard-response","163","565944","0.0-138.0","55fc2b4377f33b000ecb21ed","665500ab8938657b03fbdba8","66577f56c69c7faa76e7386f","606","stimuli/01011102.jpg"," ","","feedback_trial","0","","","","","","","","","","","","","","","","","","","","",""
"","","","","","image-keyboard-response","164","566542","0.0-139.0","55fc2b4377f33b000ecb21ed","665500ab8938657b03fbdba8","66577f56c69c7faa76e7386f","597","stimuli/0101001.jpg","0","","prediction_trial","2","","false","","0","true","true","false","false","false","false","[0,2]","101","001","0","","","","","","",""
"","","","","","image-keyboard-response","165","567074","0.0-140.0","55fc2b4377f33b000ecb21ed","665500ab8938657b03fbdba8","66577f56c69c7faa76e7386f","531","stimuli/01010012.jpg"," ","","feedback_trial","0","","","","","","","","","","","","","","","","","","","","",""
"","","","","","image-keyboard-response","166","568116","0.0-141.0","55fc2b4377f33b000ecb21ed","665500ab8938657b03fbdba8","66577f56c69c7faa76e7386f","1042","stimuli/1111011.jpg","2","","prediction_trial","0","","false","","1","false","false","false","false","false","false","[2,1,0]","111","011","0","","","","","","",""
"","","","","","image-keyboard-response","167","568548","0.0-142.0","55fc2b4377f33b000ecb21ed","665500ab8938657b03fbdba8","66577f56c69c7faa76e7386f","431","stimuli/11110110.jpg"," ","","feedback_trial","2","","","","","","","","","","","","","","","","","","","","",""
"","","","","","image-keyboard-response","168","569131","0.0-143.0","55fc2b4377f33b000ecb21ed","665500ab8938657b03fbdba8","66577f56c69c7faa76e7386f","583","stimuli/1110100.jpg","1","","prediction_trial","1","","true","","1","true","true","false","false","false","false","[0,1]","110","100","1","","","","","","",""
"","","","","","image-keyboard-response","169","569741","0.0-144.0","55fc2b4377f33b000ecb21ed","665500ab8938657b03fbdba8","66577f56c69c7faa76e7386f","605","stimuli/11101001.jpg"," ","","feedback_trial","0","","","","","","","","","","","","","","","","","","","","",""
"","","","","","image-keyboard-response","170","570401","0.0-145.0","55fc2b4377f33b000ecb21ed","665500ab8938657b03fbdba8","66577f56c69c7faa76e7386f","660","stimuli/1110111.jpg","2","","prediction_trial","0","","false","","1","false","false","false","false","false","false","[0,1]","110","111","0","","","","","","",""
"","","","","","image-keyboard-response","171","571066","0.0-146.0","55fc2b4377f33b000ecb21ed","665500ab8938657b03fbdba8","66577f56c69c7faa76e7386f","665","stimuli/11101110.jpg"," ","","feedback_trial","0","","","","","","","","","","","","","","","","","","","","",""
"","","","","","image-keyboard-response","172","572622","0.0-147.0","55fc2b4377f33b000ecb21ed","665500ab8938657b03fbdba8","66577f56c69c7faa76e7386f","1555","stimuli/0110100.jpg","0","","prediction_trial","1","","false","","0","false","true","false","false","false","false","[1,0]","110","100","0","","","","","","",""
"","","","","","image-keyboard-response","173","572936","0.0-148.0","55fc2b4377f33b000ecb21ed","665500ab8938657b03fbdba8","66577f56c69c7faa76e7386f","314","stimuli/01101001.jpg"," ","","feedback_trial","1","","","","","","","","","","","","","","","","","","","","",""
"","","","","","image-keyboard-response","174","573760","0.0-149.0","55fc2b4377f33b000ecb21ed","665500ab8938657b03fbdba8","66577f56c69c7faa76e7386f","823","stimuli/2111101.jpg","1","","prediction_trial","1","","true","","2","false","false","false","false","false","false","[1,0,2]","111","101","1","","","","","","",""
"","","","","","image-keyboard-response","175","574074","0.0-150.0","55fc2b4377f33b000ecb21ed","665500ab8938657b03fbdba8","66577f56c69c7faa76e7386f","310","stimuli/21111011.jpg"," ","","feedback_trial","1","","","","","","","","","","","","","","","","","","","","",""
"","","","","","image-keyboard-response","176","574738","0.0-151.0","55fc2b4377f33b000ecb21ed","665500ab8938657b03fbdba8","66577f56c69c7faa76e7386f","663","stimuli/2010110.jpg","2","","prediction_trial","2","","true","","2","true","true","true","true","true","true","[2]","010","110","1","","","","","","",""
"","","","","","image-keyboard-response","177","574922","0.0-152.0","55fc2b4377f33b000ecb21ed","665500ab8938657b03fbdba8","66577f56c69c7faa76e7386f","184","stimuli/20101102.jpg"," ","","feedback_trial","2","","","","","","","","","","","","","","","","","","","","",""
"","","","","","image-keyboard-response","178","575610","0.0-153.0","55fc2b4377f33b000ecb21ed","665500ab8938657b03fbdba8","66577f56c69c7faa76e7386f","687","stimuli/2100011.jpg","1","","prediction_trial","2","","false","","2","false","false","true","true","false","false","[2]","100","011","0","","","","","","",""
"","","","","","image-keyboard-response","179","575974","0.0-154.0","55fc2b4377f33b000ecb21ed","665500ab8938657b03fbdba8","66577f56c69c7faa76e7386f","364","stimuli/21000112.jpg"," ","","feedback_trial","2","","","","","","","","","","","","","","","","","","","","",""
"","","","","","image-keyboard-response","180","576819","0.0-155.0","55fc2b4377f33b000ecb21ed","665500ab8938657b03fbdba8","66577f56c69c7faa76e7386f","845","stimuli/1000011.jpg","2","","prediction_trial","1","","false","","1","false","false","true","true","false","false","[1]","000","011","0","","","","","","",""
"","","","","","image-keyboard-response","181","577167","0.0-156.0","55fc2b4377f33b000ecb21ed","665500ab8938657b03fbdba8","66577f56c69c7faa76e7386f","347","stimuli/10000111.jpg"," ","","feedback_trial","1","","","","","","","","","","","","","","","","","","","","",""
"","","","","","image-keyboard-response","182","577726","0.0-157.0","55fc2b4377f33b000ecb21ed","665500ab8938657b03fbdba8","66577f56c69c7faa76e7386f","559","stimuli/2101111.jpg","1","","prediction_trial","2","","false","","2","false","false","false","false","false","false","[0,2]","101","111","0","","","","","","",""
"","","","","","image-keyboard-response","183","578452","0.0-158.0","55fc2b4377f33b000ecb21ed","665500ab8938657b03fbdba8","66577f56c69c7faa76e7386f","726","stimuli/21011112.jpg"," ","","feedback_trial","0","","","","","","","","","","","","","","","","","","","","",""
"","","","","","image-keyboard-response","184","578985","0.0-159.0","55fc2b4377f33b000ecb21ed","665500ab8938657b03fbdba8","66577f56c69c7faa76e7386f","533","stimuli/2110010.jpg","2","","prediction_trial","2","","true","","2","true","true","true","true","true","true","[2]","110","010","1","","","","","","",""
"","","","","","image-keyboard-response","185","579222","0.0-160.0","55fc2b4377f33b000ecb21ed","665500ab8938657b03fbdba8","66577f56c69c7faa76e7386f","237","stimuli/21100102.jpg"," ","","feedback_trial","2","","","","","","","","","","","","","","","","","","","","",""
"","","","","","image-keyboard-response","186","579938","0.0-161.0","55fc2b4377f33b000ecb21ed","665500ab8938657b03fbdba8","66577f56c69c7faa76e7386f","715","stimuli/1011110.jpg","0","","prediction_trial","1","","false","","1","false","false","false","false","false","false","[1,2]","011","110","0","","","","","","",""
"","","","","","image-keyboard-response","187","580598","0.0-162.0","55fc2b4377f33b000ecb21ed","665500ab8938657b03fbdba8","66577f56c69c7faa76e7386f","656","stimuli/10111101.jpg"," ","","feedback_trial","1","","","","","","","","","","","","","","","","","","","","",""
"","","","","","image-keyboard-response","188","581299","0.0-163.0","55fc2b4377f33b000ecb21ed","665500ab8938657b03fbdba8","66577f56c69c7faa76e7386f","701","stimuli/0011110.jpg","1","","prediction_trial","0","","false","","0","false","false","true","true","false","false","[0]","011","110","0","","","","","","",""
"","","","","","image-keyboard-response","189","581588","0.0-164.0","55fc2b4377f33b000ecb21ed","665500ab8938657b03fbdba8","66577f56c69c7faa76e7386f","288","stimuli/00111100.jpg"," ","","feedback_trial","0","","","","","","","","","","","","","","","","","","","","",""
"","","","","","image-keyboard-response","190","582120","0.0-165.0","55fc2b4377f33b000ecb21ed","665500ab8938657b03fbdba8","66577f56c69c7faa76e7386f","532","stimuli/0000001.jpg","0","","prediction_trial","0","","true","","0","true","true","true","true","true","true","[0]","000","001","1","","","","","","",""
"","","","","","image-keyboard-response","191","582289","0.0-166.0","55fc2b4377f33b000ecb21ed","665500ab8938657b03fbdba8","66577f56c69c7faa76e7386f","169","stimuli/00000010.jpg"," ","","feedback_trial","0","","","","","","","","","","","","","","","","","","","","",""
"","","","","","image-keyboard-response","192","584066","0.0-167.0","55fc2b4377f33b000ecb21ed","665500ab8938657b03fbdba8","66577f56c69c7faa76e7386f","1777","stimuli/1010001.jpg","1","","prediction_trial","1","","true","","1","true","true","false","true","false","true","[1]","010","001","1","","","","","","",""
"","","","","","image-keyboard-response","193","584307","0.0-168.0","55fc2b4377f33b000ecb21ed","665500ab8938657b03fbdba8","66577f56c69c7faa76e7386f","236","stimuli/10100011.jpg"," ","","feedback_trial","1","","","","","","","","","","","","","","","","","","","","",""
"","","","","","image-keyboard-response","194","585254","0.0-169.0","55fc2b4377f33b000ecb21ed","665500ab8938657b03fbdba8","66577f56c69c7faa76e7386f","946","stimuli/1010111.jpg","2","","prediction_trial","1","","false","","1","false","false","false","true","false","false","[1]","010","111","0","","","","","","",""
"","","","","","image-keyboard-response","195","585668","0.0-170.0","55fc2b4377f33b000ecb21ed","665500ab8938657b03fbdba8","66577f56c69c7faa76e7386f","414","stimuli/10101111.jpg"," ","","feedback_trial","1","","","","","","","","","","","","","","","","","","","","",""
"","","","","","image-keyboard-response","196","586249","0.0-171.0","55fc2b4377f33b000ecb21ed","665500ab8938657b03fbdba8","66577f56c69c7faa76e7386f","581","stimuli/1000101.jpg","1","","prediction_trial","1","","true","","1","true","true","true","true","true","true","[1]","000","101","1","","","","","","",""
"","","","","","image-keyboard-response","197","586452","0.0-172.0","55fc2b4377f33b000ecb21ed","665500ab8938657b03fbdba8","66577f56c69c7faa76e7386f","202","stimuli/10001011.jpg"," ","","feedback_trial","1","","","","","","","","","","","","","","","","","","","","",""
"","","","","","image-keyboard-response","198","587534","0.0-173.0","55fc2b4377f33b000ecb21ed","665500ab8938657b03fbdba8","66577f56c69c7faa76e7386f","1082","stimuli/2001001.jpg","2","","prediction_trial","2","","true","","2","false","true","false","true","false","true","[2]","001","001","1","","","","","","",""
"","","","","","image-keyboard-response","199","587759","0.0-174.0","55fc2b4377f33b000ecb21ed","665500ab8938657b03fbdba8","66577f56c69c7faa76e7386f","220","stimuli/20010012.jpg"," ","","feedback_trial","2","","","","","","","","","","","","","","","","","","","","",""
"","","","","","image-keyboard-response","200","588529","0.0-175.0","55fc2b4377f33b000ecb21ed","665500ab8938657b03fbdba8","66577f56c69c7faa76e7386f","769","stimuli/1101010.jpg","1","","prediction_trial","1","","true","","1","false","true","true","true","false","true","[1]","101","010","1","","","","","","",""
"","","","","","image-keyboard-response","201","588775","0.0-176.0","55fc2b4377f33b000ecb21ed","665500ab8938657b03fbdba8","66577f56c69c7faa76e7386f","245","stimuli/11010101.jpg"," ","","feedback_trial","1","","","","","","","","","","","","","","","","","","","","",""
"","","","","","image-keyboard-response","202","589946","0.0-177.0","55fc2b4377f33b000ecb21ed","665500ab8938657b03fbdba8","66577f56c69c7faa76e7386f","1170","stimuli/2011101.jpg","0","","prediction_trial","2","","false","","2","false","false","false","false","false","false","[2,1]","011","101","0","","","","","","",""
"","","","","","image-keyboard-response","203","590283","0.0-178.0","55fc2b4377f33b000ecb21ed","665500ab8938657b03fbdba8","66577f56c69c7faa76e7386f","337","stimuli/20111012.jpg"," ","","feedback_trial","2","","","","","","","","","","","","","","","","","","","","",""
"","","","","","image-keyboard-response","204","591314","0.0-179.0","55fc2b4377f33b000ecb21ed","665500ab8938657b03fbdba8","66577f56c69c7faa76e7386f","1031","stimuli/1101110.jpg","1","","prediction_trial","1","","true","","1","false","false","true","true","false","false","[1]","101","110","1","","","","","","",""
"","","","","","image-keyboard-response","205","591593","0.0-180.0","55fc2b4377f33b000ecb21ed","665500ab8938657b03fbdba8","66577f56c69c7faa76e7386f","275","stimuli/11011101.jpg"," ","","feedback_trial","1","","","","","","","","","","","","","","","","","","","","",""
"","","","","","image-keyboard-response","206","593068","0.0-181.0","55fc2b4377f33b000ecb21ed","665500ab8938657b03fbdba8","66577f56c69c7faa76e7386f","1475","stimuli/0111010.jpg","0","","prediction_trial","0","","true","","0","true","true","false","false","false","false","[0,1,2]","111","010","1","","","","","","",""
"","","","","","image-keyboard-response","207","593397","0.0-182.0","55fc2b4377f33b000ecb21ed","665500ab8938657b03fbdba8","66577f56c69c7faa76e7386f","328","stimuli/01110100.jpg"," ","","feedback_trial","0","","","","","","","","","","","","","","","","","","","","",""
"","","","","","image-keyboard-response","208","594460","0.0-183.0","55fc2b4377f33b000ecb21ed","665500ab8938657b03fbdba8","66577f56c69c7faa76e7386f","1062","stimuli/0000101.jpg","2","","prediction_trial","0","","false","","0","false","false","true","true","false","false","[0]","000","101","0","","","","","","",""
"","","","","","image-keyboard-response","209","594748","0.0-184.0","55fc2b4377f33b000ecb21ed","665500ab8938657b03fbdba8","66577f56c69c7faa76e7386f","288","stimuli/00001010.jpg"," ","","feedback_trial","0","","","","","","","","","","","","","","","","","","","","",""
"","","","","","image-keyboard-response","210","595825","0.0-185.0","55fc2b4377f33b000ecb21ed","665500ab8938657b03fbdba8","66577f56c69c7faa76e7386f","1076","stimuli/1110101.jpg","1","","prediction_trial","1","","true","","1","true","true","false","false","false","false","[0,1]","110","101","1","","","","","","",""
"","","","","","image-keyboard-response","211","596132","0.0-186.0","55fc2b4377f33b000ecb21ed","665500ab8938657b03fbdba8","66577f56c69c7faa76e7386f","303","stimuli/11101011.jpg"," ","","feedback_trial","0","","","","","","","","","","","","","","","","","","","","",""
"","","","","","image-keyboard-response","212","597322","0.0-187.0","55fc2b4377f33b000ecb21ed","665500ab8938657b03fbdba8","66577f56c69c7faa76e7386f","1189","stimuli/2111111.jpg","0","","prediction_trial","1","","false","","2","false","false","false","false","false","false","[1,2,0]","111","111","0","","","","","","",""
"","","","","","image-keyboard-response","213","597661","0.0-188.0","55fc2b4377f33b000ecb21ed","665500ab8938657b03fbdba8","66577f56c69c7faa76e7386f","338","stimuli/21111111.jpg"," ","","feedback_trial","1","","","","","","","","","","","","","","","","","","","","",""
"","","","","","image-keyboard-response","214","598504","0.0-189.0","55fc2b4377f33b000ecb21ed","665500ab8938657b03fbdba8","66577f56c69c7faa76e7386f","843","stimuli/1011001.jpg","1","","prediction_trial","2","","false","","1","true","true","false","false","false","false","[2,1]","011","001","0","","","","","","",""
"","","","","","image-keyboard-response","215","598822","0.0-190.0","55fc2b4377f33b000ecb21ed","665500ab8938657b03fbdba8","66577f56c69c7faa76e7386f","317","stimuli/10110012.jpg"," ","","feedback_trial","2","","","","","","","","","","","","","","","","","","","","",""
"","","","","","image-keyboard-response","216","599538","0.0-191.0","55fc2b4377f33b000ecb21ed","665500ab8938657b03fbdba8","66577f56c69c7faa76e7386f","716","stimuli/2101011.jpg","1","","prediction_trial","0","","false","","2","false","false","false","false","false","false","[0,2]","101","011","0","","","","","","",""
"","","","","","image-keyboard-response","217","599808","0.0-192.0","55fc2b4377f33b000ecb21ed","665500ab8938657b03fbdba8","66577f56c69c7faa76e7386f","266","stimuli/21010110.jpg"," ","","feedback_trial","0","","","","","","","","","","","","","","","","","","","","",""
"","","","","","image-keyboard-response","218","600535","0.0-193.0","55fc2b4377f33b000ecb21ed","665500ab8938657b03fbdba8","66577f56c69c7faa76e7386f","727","stimuli/0100011.jpg","0","","prediction_trial","0","","true","","0","true","true","false","true","false","true","[0]","100","011","1","","","","","","",""
"","","","","","image-keyboard-response","219","600821","0.0-194.0","55fc2b4377f33b000ecb21ed","665500ab8938657b03fbdba8","66577f56c69c7faa76e7386f","285","stimuli/01000110.jpg"," ","","feedback_trial","0","","","","","","","","","","","","","","","","","","","","",""
"","","","","","image-keyboard-response","220","602099","0.0-195.0","55fc2b4377f33b000ecb21ed","665500ab8938657b03fbdba8","66577f56c69c7faa76e7386f","1278","stimuli/0101011.jpg","0","","prediction_trial","2","","false","","0","true","true","false","false","false","false","[2,0]","101","011","0","","","","","","",""
"","","","","","image-keyboard-response","221","602351","0.0-196.0","55fc2b4377f33b000ecb21ed","665500ab8938657b03fbdba8","66577f56c69c7faa76e7386f","251","stimuli/01010112.jpg"," ","","feedback_trial","2","","","","","","","","","","","","","","","","","","","","",""
"","","","","","image-keyboard-response","222","603572","0.0-197.0","55fc2b4377f33b000ecb21ed","665500ab8938657b03fbdba8","66577f56c69c7faa76e7386f","1220","stimuli/2010001.jpg","2","","prediction_trial","2","","true","","2","false","true","true","true","false","true","[2]","010","001","1","","","","","","",""
"","","","","","image-keyboard-response","223","603802","0.0-198.0","55fc2b4377f33b000ecb21ed","665500ab8938657b03fbdba8","66577f56c69c7faa76e7386f","225","stimuli/20100012.jpg"," ","","feedback_trial","2","","","","","","","","","","","","","","","","","","","","",""
"","","","","","image-keyboard-response","224","604809","0.0-199.0","55fc2b4377f33b000ecb21ed","665500ab8938657b03fbdba8","66577f56c69c7faa76e7386f","1007","stimuli/2001110.jpg","2","","prediction_trial","2","","true","","2","true","true","false","true","false","true","[2]","001","110","1","","","","","","",""
"","","","","","image-keyboard-response","225","605060","0.0-200.0","55fc2b4377f33b000ecb21ed","665500ab8938657b03fbdba8","66577f56c69c7faa76e7386f","250","stimuli/20011102.jpg"," ","","feedback_trial","2","","","","","","","","","","","","","","","","","","","","",""
"","","","","","image-keyboard-response","226","606146","0.0-201.0","55fc2b4377f33b000ecb21ed","665500ab8938657b03fbdba8","66577f56c69c7faa76e7386f","1086","stimuli/1111001.jpg","1","","prediction_trial","2","","false","","1","true","true","false","false","false","false","[2,0,1]","111","001","0","","","","","","",""
"","","","","","image-keyboard-response","227","606454","0.0-202.0","55fc2b4377f33b000ecb21ed","665500ab8938657b03fbdba8","66577f56c69c7faa76e7386f","307","stimuli/11110012.jpg"," ","","feedback_trial","2","","","","","","","","","","","","","","","","","","","","",""
"","","","","","image-keyboard-response","228","607355","0.0-203.0","55fc2b4377f33b000ecb21ed","665500ab8938657b03fbdba8","66577f56c69c7faa76e7386f","901","stimuli/1001011.jpg","1","","prediction_trial","1","","true","","1","false","false","true","true","false","false","[1]","001","011","1","","","","","","",""
"","","","","","image-keyboard-response","229","607646","0.0-204.0","55fc2b4377f33b000ecb21ed","665500ab8938657b03fbdba8","66577f56c69c7faa76e7386f","287","stimuli/10010111.jpg"," ","","feedback_trial","1","","","","","","","","","","","","","","","","","","","","",""
"","","","","","image-keyboard-response","230","608623","0.0-205.0","55fc2b4377f33b000ecb21ed","665500ab8938657b03fbdba8","66577f56c69c7faa76e7386f","976","stimuli/0110110.jpg","0","","prediction_trial","0","","true","","0","false","false","false","false","false","false","[0,1]","110","110","1","","","","","","",""
"","","","","","image-keyboard-response","231","608923","0.0-206.0","55fc2b4377f33b000ecb21ed","665500ab8938657b03fbdba8","66577f56c69c7faa76e7386f","300","stimuli/01101100.jpg"," ","","feedback_trial","0","","","","","","","","","","","","","","","","","","","","",""
"","","","","","image-keyboard-response","232","609582","0.0-207.0","55fc2b4377f33b000ecb21ed","665500ab8938657b03fbdba8","66577f56c69c7faa76e7386f","658","stimuli/1000100.jpg","1","","prediction_trial","1","","true","","1","true","true","true","true","true","true","[1]","000","100","1","","","","","","",""
"","","","","","image-keyboard-response","233","609835","0.0-208.0","55fc2b4377f33b000ecb21ed","665500ab8938657b03fbdba8","66577f56c69c7faa76e7386f","253","stimuli/10001001.jpg"," ","","feedback_trial","1","","","","","","","","","","","","","","","","","","","","",""
"","","","","","image-keyboard-response","234","611016","0.0-209.0","55fc2b4377f33b000ecb21ed","665500ab8938657b03fbdba8","66577f56c69c7faa76e7386f","1180","stimuli/0000110.jpg","1","","prediction_trial","0","","false","","0","false","false","true","true","false","false","[0]","000","110","0","","","","","","",""
"","","","","","image-keyboard-response","235","611296","0.0-210.0","55fc2b4377f33b000ecb21ed","665500ab8938657b03fbdba8","66577f56c69c7faa76e7386f","276","stimuli/00001100.jpg"," ","","feedback_trial","0","","","","","","","","","","","","","","","","","","","","",""
"","","","","","image-keyboard-response","236","612023","0.0-211.0","55fc2b4377f33b000ecb21ed","665500ab8938657b03fbdba8","66577f56c69c7faa76e7386f","727","stimuli/0110101.jpg","2","","prediction_trial","1","","false","","0","false","false","false","false","false","false","[1,0]","110","101","0","","","","","","",""
"","","","","","image-keyboard-response","237","612253","0.0-212.0","55fc2b4377f33b000ecb21ed","665500ab8938657b03fbdba8","66577f56c69c7faa76e7386f","230","stimuli/01101011.jpg"," ","","feedback_trial","1","","","","","","","","","","","","","","","","","","","","",""
"","","","","","image-keyboard-response","238","613689","0.0-213.0","55fc2b4377f33b000ecb21ed","665500ab8938657b03fbdba8","66577f56c69c7faa76e7386f","1435","stimuli/0111000.jpg","0","","prediction_trial","1","","false","","0","true","true","false","false","false","false","[0,1,2]","111","000","0","","","","","","",""
"","","","","","image-keyboard-response","239","613943","0.0-214.0","55fc2b4377f33b000ecb21ed","665500ab8938657b03fbdba8","66577f56c69c7faa76e7386f","253","stimuli/01110001.jpg"," ","","feedback_trial","0","","","","","","","","","","","","","","","","","","","","",""
"","","","","","image-keyboard-response","240","614646","0.0-215.0","55fc2b4377f33b000ecb21ed","665500ab8938657b03fbdba8","66577f56c69c7faa76e7386f","702","stimuli/1111101.jpg","1","","prediction_trial","2","","false","","1","true","true","false","false","false","false","[2,1,0]","111","101","0","","","","","","",""
"","","","","","image-keyboard-response","241","614929","0.0-216.0","55fc2b4377f33b000ecb21ed","665500ab8938657b03fbdba8","66577f56c69c7faa76e7386f","279","stimuli/11111012.jpg"," ","","feedback_trial","2","","","","","","","","","","","","","","","","","","","","",""
"","","","","","image-keyboard-response","242","615571","0.0-217.0","55fc2b4377f33b000ecb21ed","665500ab8938657b03fbdba8","66577f56c69c7faa76e7386f","642","stimuli/2111000.jpg","2","","prediction_trial","2","","true","","2","true","true","false","false","false","false","[0,2,1]","111","000","1","","","","","","",""
"","","","","","image-keyboard-response","243","615862","0.0-218.0","55fc2b4377f33b000ecb21ed","665500ab8938657b03fbdba8","66577f56c69c7faa76e7386f","290","stimuli/21110002.jpg"," ","","feedback_trial","0","","","","","","","","","","","","","","","","","","","","",""
"","","","","","image-keyboard-response","244","616852","0.0-219.0","55fc2b4377f33b000ecb21ed","665500ab8938657b03fbdba8","66577f56c69c7faa76e7386f","990","stimuli/2011011.jpg","1","","prediction_trial","2","","false","","2","false","false","false","false","false","false","[1,2]","011","011","0","","","","","","",""
"","","","","","image-keyboard-response","245","617205","0.0-220.0","55fc2b4377f33b000ecb21ed","665500ab8938657b03fbdba8","66577f56c69c7faa76e7386f","353","stimuli/20110112.jpg"," ","","feedback_trial","1","","","","","","","","","","","","","","","","","","","","",""
"","","","","","image-keyboard-response","246","618066","0.0-221.0","55fc2b4377f33b000ecb21ed","665500ab8938657b03fbdba8","66577f56c69c7faa76e7386f","860","stimuli/0001100.jpg","0","","prediction_trial","0","","true","","0","false","true","true","true","false","true","[0]","001","100","1","","","","","","",""
"","","","","","image-keyboard-response","247","618294","0.0-222.0","55fc2b4377f33b000ecb21ed","665500ab8938657b03fbdba8","66577f56c69c7faa76e7386f","224","stimuli/00011000.jpg"," ","","feedback_trial","0","","","","","","","","","","","","","","","","","","","","",""
"","","","","","image-keyboard-response","248","619157","0.0-223.0","55fc2b4377f33b000ecb21ed","665500ab8938657b03fbdba8","66577f56c69c7faa76e7386f","862","stimuli/0100111.jpg","1","","prediction_trial","0","","false","","0","false","false","false","true","false","false","[0]","100","111","0","","","","","","",""
"","","","","","image-keyboard-response","249","619451","0.0-224.0","55fc2b4377f33b000ecb21ed","665500ab8938657b03fbdba8","66577f56c69c7faa76e7386f","294","stimuli/01001110.jpg"," ","","feedback_trial","0","","","","","","","","","","","","","","","","","","","","",""
"","","","","","image-keyboard-response","250","620896","0.0-225.0","55fc2b4377f33b000ecb21ed","665500ab8938657b03fbdba8","66577f56c69c7faa76e7386f","1445","stimuli/1100011.jpg","1","","prediction_trial","1","","true","","1","false","false","true","true","false","false","[1]","100","011","1","","","","","","",""
"","","","","","image-keyboard-response","251","621170","0.0-226.0","55fc2b4377f33b000ecb21ed","665500ab8938657b03fbdba8","66577f56c69c7faa76e7386f","273","stimuli/11000111.jpg"," ","","feedback_trial","1","","","","","","","","","","","","","","","","","","","","",""
"","","","","","image-keyboard-response","252","621843","0.0-227.0","55fc2b4377f33b000ecb21ed","665500ab8938657b03fbdba8","66577f56c69c7faa76e7386f","673","stimuli/0000000.jpg","0","","prediction_trial","0","","true","","0","true","true","true","true","true","true","[0]","000","000","1","","","","","","",""
"","","","","","image-keyboard-response","253","622063","0.0-228.0","55fc2b4377f33b000ecb21ed","665500ab8938657b03fbdba8","66577f56c69c7faa76e7386f","215","stimuli/00000000.jpg"," ","","feedback_trial","0","","","","","","","","","","","","","","","","","","","","",""
"","","","","","image-keyboard-response","254","622931","0.0-229.0","55fc2b4377f33b000ecb21ed","665500ab8938657b03fbdba8","66577f56c69c7faa76e7386f","868","stimuli/2100101.jpg","2","","prediction_trial","2","","true","","2","false","false","true","true","false","false","[2]","100","101","1","","","","","","",""
"","","","","","image-keyboard-response","255","623222","0.0-230.0","55fc2b4377f33b000ecb21ed","665500ab8938657b03fbdba8","66577f56c69c7faa76e7386f","290","stimuli/21001012.jpg"," ","","feedback_trial","2","","","","","","","","","","","","","","","","","","","","",""
"","","","","","image-keyboard-response","256","624024","0.0-231.0","55fc2b4377f33b000ecb21ed","665500ab8938657b03fbdba8","66577f56c69c7faa76e7386f","801","stimuli/2111011.jpg","0","","prediction_trial","2","","false","","2","false","false","false","false","false","false","[2,1,0]","111","011","0","","","","","","",""
"","","","","","image-keyboard-response","257","624345","0.0-232.0","55fc2b4377f33b000ecb21ed","665500ab8938657b03fbdba8","66577f56c69c7faa76e7386f","321","stimuli/21110112.jpg"," ","","feedback_trial","2","","","","","","","","","","","","","","","","","","","","",""
"","","","","","image-keyboard-response","258","624983","0.0-233.0","55fc2b4377f33b000ecb21ed","665500ab8938657b03fbdba8","66577f56c69c7faa76e7386f","637","stimuli/0100001.jpg","0","","prediction_trial","0","","true","","0","true","true","false","true","false","true","[0]","100","001","1","","","","","","",""
"","","","","","image-keyboard-response","259","625245","0.0-234.0","55fc2b4377f33b000ecb21ed","665500ab8938657b03fbdba8","66577f56c69c7faa76e7386f","257","stimuli/01000010.jpg"," ","","feedback_trial","0","","","","","","","","","","","","","","","","","","","","",""
"","","","","","image-keyboard-response","260","626429","0.0-235.0","55fc2b4377f33b000ecb21ed","665500ab8938657b03fbdba8","66577f56c69c7faa76e7386f","1183","stimuli/0011111.jpg","0","","prediction_trial","0","","true","","0","false","false","true","true","false","false","[0]","011","111","1","","","","","","",""
"","","","","","image-keyboard-response","261","626660","0.0-236.0","55fc2b4377f33b000ecb21ed","665500ab8938657b03fbdba8","66577f56c69c7faa76e7386f","230","stimuli/00111110.jpg"," ","","feedback_trial","0","","","","","","","","","","","","","","","","","","","","",""
"","","","","","image-keyboard-response","262","628098","0.0-237.0","55fc2b4377f33b000ecb21ed","665500ab8938657b03fbdba8","66577f56c69c7faa76e7386f","1438","stimuli/1110001.jpg","1","","prediction_trial","1","","true","","1","true","true","false","false","false","false","[0,1]","110","001","1","","","","","","",""
"","","","","","image-keyboard-response","263","628395","0.0-238.0","55fc2b4377f33b000ecb21ed","665500ab8938657b03fbdba8","66577f56c69c7faa76e7386f","297","stimuli/11100011.jpg"," ","","feedback_trial","0","","","","","","","","","","","","","","","","","","","","",""
"","","","","","image-keyboard-response","264","628986","0.0-239.0","55fc2b4377f33b000ecb21ed","665500ab8938657b03fbdba8","66577f56c69c7faa76e7386f","591","stimuli/1001101.jpg","1","","prediction_trial","1","","true","","1","true","true","true","true","true","true","[1]","001","101","1","","","","","","",""
"","","","","","image-keyboard-response","265","629183","0.0-240.0","55fc2b4377f33b000ecb21ed","665500ab8938657b03fbdba8","66577f56c69c7faa76e7386f","193","stimuli/10011011.jpg"," ","","feedback_trial","1","","","","","","","","","","","","","","","","","","","","",""
"","","","","","image-keyboard-response","266","630743","0.0-241.0","55fc2b4377f33b000ecb21ed","665500ab8938657b03fbdba8","66577f56c69c7faa76e7386f","1559","stimuli/0001101.jpg","0","","prediction_trial","0","","true","","0","false","false","true","true","false","false","[0]","001","101","1","","","","","","",""
"","","","","","image-keyboard-response","267","631007","0.0-242.0","55fc2b4377f33b000ecb21ed","665500ab8938657b03fbdba8","66577f56c69c7faa76e7386f","263","stimuli/00011010.jpg"," ","","feedback_trial","0","","","","","","","","","","","","","","","","","","","","",""
"","","","","","image-keyboard-response","268","632409","0.0-243.0","55fc2b4377f33b000ecb21ed","665500ab8938657b03fbdba8","66577f56c69c7faa76e7386f","1402","stimuli/1111000.jpg","1","","prediction_trial","2","","false","","1","true","true","false","false","false","false","[1,2,0]","111","000","0","","","","","","",""
"","","","","","image-keyboard-response","269","632697","0.0-244.0","55fc2b4377f33b000ecb21ed","665500ab8938657b03fbdba8","66577f56c69c7faa76e7386f","287","stimuli/11110002.jpg"," ","","feedback_trial","1","","","","","","","","","","","","","","","","","","","","",""
"","","","","","image-keyboard-response","270","633295","0.0-245.0","55fc2b4377f33b000ecb21ed","665500ab8938657b03fbdba8","66577f56c69c7faa76e7386f","598","stimuli/0001011.jpg","0","","prediction_trial","0","","true","","0","true","true","true","true","true","true","[0]","001","011","1","","","","","","",""
"","","","","","image-keyboard-response","271","633481","0.0-246.0","55fc2b4377f33b000ecb21ed","665500ab8938657b03fbdba8","66577f56c69c7faa76e7386f","182","stimuli/00010110.jpg"," ","","feedback_trial","0","","","","","","","","","","","","","","","","","","","","",""
"","","","","","image-keyboard-response","272","633964","0.0-247.0","55fc2b4377f33b000ecb21ed","665500ab8938657b03fbdba8","66577f56c69c7faa76e7386f","483","stimuli/0011001.jpg","0","","prediction_trial","0","","true","","0","true","true","true","true","true","true","[0]","011","001","1","","","","","","",""
"","","","","","image-keyboard-response","273","634172","0.0-248.0","55fc2b4377f33b000ecb21ed","665500ab8938657b03fbdba8","66577f56c69c7faa76e7386f","208","stimuli/00110010.jpg"," ","","feedback_trial","0","","","","","","","","","","","","","","","","","","","","",""
"","","","","","image-keyboard-response","274","634826","0.0-249.0","55fc2b4377f33b000ecb21ed","665500ab8938657b03fbdba8","66577f56c69c7faa76e7386f","654","stimuli/0101111.jpg","1","","prediction_trial","2","","false","","0","false","false","false","false","false","false","[2,0]","101","111","0","","","","","","",""
"","","","","","image-keyboard-response","275","635112","0.0-250.0","55fc2b4377f33b000ecb21ed","665500ab8938657b03fbdba8","66577f56c69c7faa76e7386f","285","stimuli/01011112.jpg"," ","","feedback_trial","2","","","","","","","","","","","","","","","","","","","","",""
"","","","","","image-keyboard-response","276","635694","0.0-251.0","55fc2b4377f33b000ecb21ed","665500ab8938657b03fbdba8","66577f56c69c7faa76e7386f","582","stimuli/1000000.jpg","1","","prediction_trial","1","","true","","1","true","true","true","true","true","true","[1]","000","000","1","","","","","","",""
"","","","","","image-keyboard-response","277","635896","0.0-252.0","55fc2b4377f33b000ecb21ed","665500ab8938657b03fbdba8","66577f56c69c7faa76e7386f","197","stimuli/10000001.jpg"," ","","feedback_trial","1","","","","","","","","","","","","","","","","","","","","",""
"","","","","","image-keyboard-response","278","636816","0.0-253.0","55fc2b4377f33b000ecb21ed","665500ab8938657b03fbdba8","66577f56c69c7faa76e7386f","920","stimuli/1011010.jpg","1","","prediction_trial","2","","false","","1","false","true","false","false","false","false","[2,1]","011","010","0","","","","","","",""
"","","","","","image-keyboard-response","279","637095","0.0-254.0","55fc2b4377f33b000ecb21ed","665500ab8938657b03fbdba8","66577f56c69c7faa76e7386f","278","stimuli/10110102.jpg"," ","","feedback_trial","2","","","","","","","","","","","","","","","","","","","","",""
"","","","","","image-keyboard-response","280","637702","0.0-255.0","55fc2b4377f33b000ecb21ed","665500ab8938657b03fbdba8","66577f56c69c7faa76e7386f","606","stimuli/1001110.jpg","1","","prediction_trial","1","","true","","1","false","false","true","true","false","false","[1]","001","110","1","","","","","","",""
"","","","","","image-keyboard-response","281","637965","0.0-256.0","55fc2b4377f33b000ecb21ed","665500ab8938657b03fbdba8","66577f56c69c7faa76e7386f","263","stimuli/10011101.jpg"," ","","feedback_trial","1","","","","","","","","","","","","","","","","","","","","",""
"","","","","","image-keyboard-response","282","638636","0.0-257.0","55fc2b4377f33b000ecb21ed","665500ab8938657b03fbdba8","66577f56c69c7faa76e7386f","670","stimuli/2101100.jpg","2","","prediction_trial","0","","false","","2","true","true","false","false","false","false","[2,0]","101","100","0","","","","","","",""
"","","","","","image-keyboard-response","283","638968","0.0-258.0","55fc2b4377f33b000ecb21ed","665500ab8938657b03fbdba8","66577f56c69c7faa76e7386f","328","stimuli/21011000.jpg"," ","","feedback_trial","2","","","","","","","","","","","","","","","","","","","","",""
"","","","","","image-keyboard-response","284","640034","0.0-259.0","55fc2b4377f33b000ecb21ed","665500ab8938657b03fbdba8","66577f56c69c7faa76e7386f","1066","stimuli/2110001.jpg","2","","prediction_trial","2","","true","","2","false","true","true","true","false","true","[2]","110","001","1","","","","","","",""
"","","","","","image-keyboard-response","285","640246","0.0-260.0","55fc2b4377f33b000ecb21ed","665500ab8938657b03fbdba8","66577f56c69c7faa76e7386f","211","stimuli/21100012.jpg"," ","","feedback_trial","2","","","","","","","","","","","","","","","","","","","","",""
"","","","","","image-keyboard-response","286","641398","0.0-261.0","55fc2b4377f33b000ecb21ed","665500ab8938657b03fbdba8","66577f56c69c7faa76e7386f","1152","stimuli/0111101.jpg","0","","prediction_trial","1","","false","","0","false","false","false","false","false","false","[1,2,0]","111","101","0","","","","","","",""
"","","","","","image-keyboard-response","287","641675","0.0-262.0","55fc2b4377f33b000ecb21ed","665500ab8938657b03fbdba8","66577f56c69c7faa76e7386f","277","stimuli/01111011.jpg"," ","","feedback_trial","1","","","","","","","","","","","","","","","","","","","","",""
"","","","","","image-keyboard-response","288","642684","0.0-263.0","55fc2b4377f33b000ecb21ed","665500ab8938657b03fbdba8","66577f56c69c7faa76e7386f","1009","stimuli/0100110.jpg","1","","prediction_trial","0","","false","","0","false","false","false","true","false","false","[0]","100","110","0","","","","","","",""
"","","","","","image-keyboard-response","289","643027","0.0-264.0","55fc2b4377f33b000ecb21ed","665500ab8938657b03fbdba8","66577f56c69c7faa76e7386f","339","stimuli/01001100.jpg"," ","","feedback_trial","0","","","","","","","","","","","","","","","","","","","","",""
"","","","","","image-keyboard-response","290","643986","0.0-265.0","55fc2b4377f33b000ecb21ed","665500ab8938657b03fbdba8","66577f56c69c7faa76e7386f","959","stimuli/2001011.jpg","1","","prediction_trial","2","","false","","2","false","false","false","true","false","false","[2]","001","011","0","","","","","","",""
"","","","","","image-keyboard-response","291","644301","0.0-266.0","55fc2b4377f33b000ecb21ed","665500ab8938657b03fbdba8","66577f56c69c7faa76e7386f","314","stimuli/20010112.jpg"," ","","feedback_trial","2","","","","","","","","","","","","","","","","","","","","",""
"","","","","","image-keyboard-response","292","645011","0.0-267.0","55fc2b4377f33b000ecb21ed","665500ab8938657b03fbdba8","66577f56c69c7faa76e7386f","710","stimuli/1000110.jpg","1","","prediction_trial","1","","true","","1","false","false","true","true","false","false","[1]","000","110","1","","","","","","",""
"","","","","","image-keyboard-response","293","645335","0.0-268.0","55fc2b4377f33b000ecb21ed","665500ab8938657b03fbdba8","66577f56c69c7faa76e7386f","324","stimuli/10001101.jpg"," ","","feedback_trial","1","","","","","","","","","","","","","","","","","","","","",""
"","","","","","image-keyboard-response","294","645899","0.0-269.0","55fc2b4377f33b000ecb21ed","665500ab8938657b03fbdba8","66577f56c69c7faa76e7386f","563","stimuli/0011011.jpg","0","","prediction_trial","0","","true","","0","true","true","true","true","true","true","[0]","011","011","1","","","","","","",""
"","","","","","image-keyboard-response","295","646143","0.0-270.0","55fc2b4377f33b000ecb21ed","665500ab8938657b03fbdba8","66577f56c69c7faa76e7386f","240","stimuli/00110110.jpg"," ","","feedback_trial","0","","","","","","","","","","","","","","","","","","","","",""
"","","","","","image-keyboard-response","296","646671","0.0-271.0","55fc2b4377f33b000ecb21ed","665500ab8938657b03fbdba8","66577f56c69c7faa76e7386f","527","stimuli/0010001.jpg","0","","prediction_trial","0","","true","","0","true","true","true","true","true","true","[0]","010","001","1","","","","","","",""
"","","","","","image-keyboard-response","297","646909","0.0-272.0","55fc2b4377f33b000ecb21ed","665500ab8938657b03fbdba8","66577f56c69c7faa76e7386f","238","stimuli/00100010.jpg"," ","","feedback_trial","0","","","","","","","","","","","","","","","","","","","","",""
"","","","","","image-keyboard-response","298","648011","0.0-273.0","55fc2b4377f33b000ecb21ed","665500ab8938657b03fbdba8","66577f56c69c7faa76e7386f","1101","stimuli/0101100.jpg","0","","prediction_trial","0","","true","","0","false","true","false","false","false","false","[2,0]","101","100","1","","","","","","",""
"","","","","","image-keyboard-response","299","648285","0.0-274.0","55fc2b4377f33b000ecb21ed","665500ab8938657b03fbdba8","66577f56c69c7faa76e7386f","273","stimuli/01011000.jpg"," ","","feedback_trial","2","","","","","","","","","","","","","","","","","","","","",""
"","","","","","image-keyboard-response","300","648974","0.0-275.0","55fc2b4377f33b000ecb21ed","665500ab8938657b03fbdba8","66577f56c69c7faa76e7386f","689","stimuli/2000100.jpg","2","","prediction_trial","2","","true","","2","true","true","true","true","true","true","[2]","000","100","1","","","","","","",""
"","","","","","image-keyboard-response","301","649177","0.0-276.0","55fc2b4377f33b000ecb21ed","665500ab8938657b03fbdba8","66577f56c69c7faa76e7386f","198","stimuli/20001002.jpg"," ","","feedback_trial","2","","","","","","","","","","","","","","","","","","","","",""
"","","","","","image-keyboard-response","302","649883","0.0-277.0","55fc2b4377f33b000ecb21ed","665500ab8938657b03fbdba8","66577f56c69c7faa76e7386f","705","stimuli/2000001.jpg","2","","prediction_trial","2","","true","","2","false","true","true","true","false","true","[2]","000","001","1","","","","","","",""
"","","","","","image-keyboard-response","303","650083","0.0-278.0","55fc2b4377f33b000ecb21ed","665500ab8938657b03fbdba8","66577f56c69c7faa76e7386f","199","stimuli/20000012.jpg"," ","","feedback_trial","2","","","","","","","","","","","","","","","","","","","","",""
"","","","","","image-keyboard-response","304","650968","0.0-279.0","55fc2b4377f33b000ecb21ed","665500ab8938657b03fbdba8","66577f56c69c7faa76e7386f","884","stimuli/1101111.jpg","1","","prediction_trial","1","","true","","1","false","false","true","true","false","false","[1]","101","111","1","","","","","","",""
"","","","","","image-keyboard-response","305","651211","0.0-280.0","55fc2b4377f33b000ecb21ed","665500ab8938657b03fbdba8","66577f56c69c7faa76e7386f","243","stimuli/11011111.jpg"," ","","feedback_trial","1","","","","","","","","","","","","","","","","","","","","",""
"","","","","","image-keyboard-response","306","651872","0.0-281.0","55fc2b4377f33b000ecb21ed","665500ab8938657b03fbdba8","66577f56c69c7faa76e7386f","660","stimuli/2111001.jpg","2","","prediction_trial","1","","false","","2","false","true","false","false","false","false","[0,1,2]","111","001","0","","","","","","",""
"","","","","","image-keyboard-response","307","652110","0.0-282.0","55fc2b4377f33b000ecb21ed","665500ab8938657b03fbdba8","66577f56c69c7faa76e7386f","233","stimuli/21110011.jpg"," ","","feedback_trial","0","","","","","","","","","","","","","","","","","","","","",""
"","","","","","image-keyboard-response","308","652776","0.0-283.0","55fc2b4377f33b000ecb21ed","665500ab8938657b03fbdba8","66577f56c69c7faa76e7386f","666","stimuli/1000111.jpg","2","","prediction_trial","1","","false","","1","false","false","true","true","false","false","[1]","000","111","0","","","","","","",""
"","","","","","image-keyboard-response","309","653162","0.0-284.0","55fc2b4377f33b000ecb21ed","665500ab8938657b03fbdba8","66577f56c69c7faa76e7386f","386","stimuli/10001111.jpg"," ","","feedback_trial","1","","","","","","","","","","","","","","","","","","","","",""
"","","","","","image-keyboard-response","310","653633","0.0-285.0","55fc2b4377f33b000ecb21ed","665500ab8938657b03fbdba8","66577f56c69c7faa76e7386f","471","stimuli/2001010.jpg","2","","prediction_trial","2","","true","","2","true","true","false","true","false","true","[2]","001","010","1","","","","","","",""
"","","","","","image-keyboard-response","311","653892","0.0-286.0","55fc2b4377f33b000ecb21ed","665500ab8938657b03fbdba8","66577f56c69c7faa76e7386f","258","stimuli/20010102.jpg"," ","","feedback_trial","2","","","","","","","","","","","","","","","","","","","","",""
"","","","","","image-keyboard-response","312","655138","0.0-287.0","55fc2b4377f33b000ecb21ed","665500ab8938657b03fbdba8","66577f56c69c7faa76e7386f","1246","stimuli/0111001.jpg","0","","prediction_trial","0","","true","","0","true","true","false","false","false","false","[0,2,1]","111","001","1","","","","","","",""
"","","","","","image-keyboard-response","313","655355","0.0-288.0","55fc2b4377f33b000ecb21ed","665500ab8938657b03fbdba8","66577f56c69c7faa76e7386f","213","stimuli/01110010.jpg"," ","","feedback_trial","0","","","","","","","","","","","","","","","","","","","","",""
"","","","","","image-keyboard-response","314","656151","0.0-289.0","55fc2b4377f33b000ecb21ed","665500ab8938657b03fbdba8","66577f56c69c7faa76e7386f","796","stimuli/0111111.jpg","1","","prediction_trial","2","","false","","0","false","false","false","false","false","false","[2,1,0]","111","111","0","","","","","","",""
"","","","","","image-keyboard-response","315","656435","0.0-290.0","55fc2b4377f33b000ecb21ed","665500ab8938657b03fbdba8","66577f56c69c7faa76e7386f","283","stimuli/01111112.jpg"," ","","feedback_trial","2","","","","","","","","","","","","","","","","","","","","",""
"","","","","","image-keyboard-response","316","657371","0.0-291.0","55fc2b4377f33b000ecb21ed","665500ab8938657b03fbdba8","66577f56c69c7faa76e7386f","935","stimuli/2101000.jpg","2","","prediction_trial","0","","false","","2","true","true","false","false","false","false","[0,2]","101","000","0","","","","","","",""
"","","","","","image-keyboard-response","317","657675","0.0-292.0","55fc2b4377f33b000ecb21ed","665500ab8938657b03fbdba8","66577f56c69c7faa76e7386f","304","stimuli/21010000.jpg"," ","","feedback_trial","0","","","","","","","","","","","","","","","","","","","","",""
"","","","","","survey-html-form","318","679757","0.0-293.0","55fc2b4377f33b000ecb21ed","665500ab8938657b03fbdba8","66577f56c69c7faa76e7386f","22081","","{""feedback"":""Honestly, went with my gut. I couldn't find a pattern in what Sam decided to pick. So I just trusted my intuition and stuck with it."",""age"":""37"",""gender"":""Male"",""other_gender"":"""",""race"":""White"",""other_race"":"""",""ethnicity"":""Non-Hispanic""}","","exit_survey","","","","","","","","","","","","","","","","Honestly, went with my gut. I couldn't find a pattern in what Sam decided to pick. So I just trusted my intuition and stuck with it.","37","Non-Hispanic","Male","White","0.5902777777777778","0.5902777777777778"
