"success","timeout","failed_images","failed_audio","failed_video","trial_type","trial_index","time_elapsed","internal_node_id","prolific_id","prolific_study_id","prolific_session_id","rt","stimulus","response","view_history","trial","character_choice","stimulus_dict","accuracy","correct_response","ball_pos","ego_ball_visible","ego_can_infer","alter_ball_visible","alter_can_infer","collective_ball_visible","collective_can_infer","search_locations","alter_occluders","ego_occluders","accuracy_bool","feedback","age","ethnicity","gender","race","overall_accuracy","bonus"
"true","false","[]","[]","[]","preload","0","8255","0.0-0.0","62162ab583fc823e78c025e2","665500ab8938657b03fbdba8","6657934c430fdfc33377c879","","","","","","","","","","","","","","","","","","","","","","","","","","",""
"true","","","","","fullscreen","1","11283","0.0-1.0","62162ab583fc823e78c025e2","665500ab8938657b03fbdba8","6657934c430fdfc33377c879","","","","","","","","","","","","","","","","","","","","","","","","","","",""
"","","","","","html-button-response","2","23931","0.0-2.0","62162ab583fc823e78c025e2","665500ab8938657b03fbdba8","6657934c430fdfc33377c879","12645","<p><b>Consent Form</b></p> <div style=""text-align:left;background-color:lightgrey; padding:20px; max-width:900px;""><p>Please consider this information carefully before deciding whether to participate in this research.</p> <p>The purpose of this research is to examine which factors influence social judgment and decision-making. You will be asked to make judgements about individuals and actions in social scenarios. We are simply interested in your judgement. The study will take less than 1 hour to complete, and you will receive less than $20 on Prolific. Your compensation and time commitment are specified in the study description. There are no anticipated risks associated with participating in this study. The effects of participating should be comparable to those you would ordinarily experience from viewing a computer monitor and using a mouse or keyboard for a similar amount of time. At the end of the study, we will provide an explanation of the questions that motivate this line of research and will describe the potential implications. </p><p> Your participation in this study is completely voluntary and you may refuse to participate or you may choose to withdraw at any time without penalty or loss of benefits to you which are otherwise entitled. Your participation in this study will remain confidential. No personally identifiable information will be associated with your data. Also, all analyses of the data will be averaged across all the participants, so your individual responses will never be specifically analyzed. </p><p> If you have questions or concerns about your participation or payment, or want to request a summary of research findings, please contact Dr. Jonathan Phillips at Jonathan.S.Phillips@dartmouth.edu. </p><p> Please save a copy of this form for your records. </p><p><b>Agreement: </b>The nature and purpose of this research have been sufficiently explained and I agree to participate in this study. I understand that I am free to withdraw at any time without incurring any penalty. Please consent by clicking the button below to continue. Otherwise, please exit the study at any time. </p>","0","","","","","","","","","","","","","","","","","","","","","","","",""
"","","","","","instructions","3","133785","0.0-3.0-0.0","62162ab583fc823e78c025e2","665500ab8938657b03fbdba8","6657934c430fdfc33377c879","109854","","","[{""page_index"":0,""viewing_time"":1585},{""page_index"":1,""viewing_time"":2923},{""page_index"":2,""viewing_time"":3034},{""page_index"":3,""viewing_time"":12409},{""page_index"":4,""viewing_time"":5011},{""page_index"":5,""viewing_time"":2980},{""page_index"":6,""viewing_time"":7461},{""page_index"":7,""viewing_time"":4115},{""page_index"":8,""viewing_time"":4957},{""page_index"":9,""viewing_time"":5685},{""page_index"":10,""viewing_time"":43193},{""page_index"":11,""viewing_time"":9538},{""page_index"":12,""viewing_time"":5780},{""page_index"":13,""viewing_time"":1180}]","intro","","","","","","","","","","","","","","","","","","","","","",""
"","","","","","image-keyboard-response","4","137525","0.0-3.0-1.0","62162ab583fc823e78c025e2","665500ab8938657b03fbdba8","6657934c430fdfc33377c879","3735","stimuli/2001001.jpg","2","","prediction_practice","2","{""filepath"":""stimuli/2001001.jpg"",""ball_pos"":2,""ego_ball_visible"":false,""ego_can_infer"":true,""alter_ball_visible"":false,""alter_can_infer"":true,""collective_ball_visible"":false,""collective_can_infer"":true,""search_locations"":[2],""alter_occluders"":""001"",""ego_occluders"":""001""}","true","","","","","","","","","","","","","","","","","","",""
"","","","","","image-keyboard-response","5","139872","0.0-3.0-2.0","62162ab583fc823e78c025e2","665500ab8938657b03fbdba8","6657934c430fdfc33377c879","2344","stimuli/20010012.jpg"," ","","practrice_feedback","2","","","","","","","","","","","","","","","","","","","","",""
"","","","","","image-keyboard-response","6","142642","0.0-3.0-3.0","62162ab583fc823e78c025e2","665500ab8938657b03fbdba8","6657934c430fdfc33377c879","2768","stimuli/1111101.jpg","1","","prediction_practice","1","{""filepath"":""stimuli/1111101.jpg"",""ball_pos"":1,""ego_ball_visible"":true,""ego_can_infer"":true,""alter_ball_visible"":false,""alter_can_infer"":false,""collective_ball_visible"":false,""collective_can_infer"":false,""search_locations"":[1,2,0],""alter_occluders"":""111"",""ego_occluders"":""101""}","true","","","","","","","","","","","","","","","","","","",""
"","","","","","image-keyboard-response","7","143967","0.0-3.0-4.0","62162ab583fc823e78c025e2","665500ab8938657b03fbdba8","6657934c430fdfc33377c879","1323","stimuli/11111011.jpg"," ","","practrice_feedback","1","","","","","","","","","","","","","","","","","","","","",""
"","","","","","image-keyboard-response","8","146804","0.0-3.0-5.0","62162ab583fc823e78c025e2","665500ab8938657b03fbdba8","6657934c430fdfc33377c879","2836","stimuli/0100111.jpg","0","","prediction_practice","0","{""filepath"":""stimuli/0100111.jpg"",""ball_pos"":0,""ego_ball_visible"":false,""ego_can_infer"":false,""alter_ball_visible"":false,""alter_can_infer"":true,""collective_ball_visible"":false,""collective_can_infer"":false,""search_locations"":[0],""alter_occluders"":""100"",""ego_occluders"":""111""}","true","","","","","","","","","","","","","","","","","","",""
"","","","","","image-keyboard-response","9","148543","0.0-3.0-6.0","62162ab583fc823e78c025e2","665500ab8938657b03fbdba8","6657934c430fdfc33377c879","1737","stimuli/01001110.jpg"," ","","practrice_feedback","0","","","","","","","","","","","","","","","","","","","","",""
"","","","","","image-keyboard-response","10","151591","0.0-3.0-7.0","62162ab583fc823e78c025e2","665500ab8938657b03fbdba8","6657934c430fdfc33377c879","3046","stimuli/0111100.jpg","0","","prediction_practice","2","{""filepath"":""stimuli/0111100.jpg"",""ball_pos"":0,""ego_ball_visible"":false,""ego_can_infer"":true,""alter_ball_visible"":false,""alter_can_infer"":false,""collective_ball_visible"":false,""collective_can_infer"":false,""search_locations"":[0,1,2],""alter_occluders"":""111"",""ego_occluders"":""100""}","false","","","","","","","","","","","","","","","","","","",""
"","","","","","image-keyboard-response","11","155575","0.0-3.0-8.0","62162ab583fc823e78c025e2","665500ab8938657b03fbdba8","6657934c430fdfc33377c879","3982","stimuli/01111002.jpg"," ","","practrice_feedback","0","","","","","","","","","","","","","","","","","","","","",""
"","","","","","image-keyboard-response","12","157696","0.0-3.0-9.0","62162ab583fc823e78c025e2","665500ab8938657b03fbdba8","6657934c430fdfc33377c879","2120","stimuli/2000110.jpg","2","","prediction_practice","2","{""filepath"":""stimuli/2000110.jpg"",""ball_pos"":2,""ego_ball_visible"":true,""ego_can_infer"":true,""alter_ball_visible"":true,""alter_can_infer"":true,""collective_ball_visible"":true,""collective_can_infer"":true,""search_locations"":[2],""alter_occluders"":""000"",""ego_occluders"":""110""}","true","","","","","","","","","","","","","","","","","","",""
"","","","","","image-keyboard-response","13","158548","0.0-3.0-10.0","62162ab583fc823e78c025e2","665500ab8938657b03fbdba8","6657934c430fdfc33377c879","850","stimuli/20001102.jpg"," ","","practrice_feedback","2","","","","","","","","","","","","","","","","","","","","",""
"","","","","","image-keyboard-response","14","162273","0.0-3.0-11.0","62162ab583fc823e78c025e2","665500ab8938657b03fbdba8","6657934c430fdfc33377c879","3724","stimuli/1011011.jpg","1","","prediction_practice","1","{""filepath"":""stimuli/1011011.jpg"",""ball_pos"":1,""ego_ball_visible"":false,""ego_can_infer"":false,""alter_ball_visible"":false,""alter_can_infer"":false,""collective_ball_visible"":false,""collective_can_infer"":false,""search_locations"":[1,2],""alter_occluders"":""011"",""ego_occluders"":""011""}","true","","","","","","","","","","","","","","","","","","",""
"","","","","","image-keyboard-response","15","163033","0.0-3.0-12.0","62162ab583fc823e78c025e2","665500ab8938657b03fbdba8","6657934c430fdfc33377c879","758","stimuli/10110111.jpg"," ","","practrice_feedback","1","","","","","","","","","","","","","","","","","","","","",""
"","","","","","image-keyboard-response","16","164547","0.0-3.0-13.0","62162ab583fc823e78c025e2","665500ab8938657b03fbdba8","6657934c430fdfc33377c879","1513","stimuli/2010000.jpg","2","","prediction_practice","2","{""filepath"":""stimuli/2010000.jpg"",""ball_pos"":2,""ego_ball_visible"":true,""ego_can_infer"":true,""alter_ball_visible"":true,""alter_can_infer"":true,""collective_ball_visible"":true,""collective_can_infer"":true,""search_locations"":[2],""alter_occluders"":""010"",""ego_occluders"":""000""}","true","","","","","","","","","","","","","","","","","","",""
"","","","","","image-keyboard-response","17","165763","0.0-3.0-14.0","62162ab583fc823e78c025e2","665500ab8938657b03fbdba8","6657934c430fdfc33377c879","1214","stimuli/20100002.jpg"," ","","practrice_feedback","2","","","","","","","","","","","","","","","","","","","","",""
"","","","","","image-keyboard-response","18","168857","0.0-3.0-15.0","62162ab583fc823e78c025e2","665500ab8938657b03fbdba8","6657934c430fdfc33377c879","3093","stimuli/2101110.jpg","0","","prediction_practice","0","{""filepath"":""stimuli/2101110.jpg"",""ball_pos"":2,""ego_ball_visible"":true,""ego_can_infer"":true,""alter_ball_visible"":false,""alter_can_infer"":false,""collective_ball_visible"":false,""collective_can_infer"":false,""search_locations"":[0,2],""alter_occluders"":""101"",""ego_occluders"":""110""}","true","","","","","","","","","","","","","","","","","","",""
"","","","","","image-keyboard-response","19","170188","0.0-3.0-16.0","62162ab583fc823e78c025e2","665500ab8938657b03fbdba8","6657934c430fdfc33377c879","1330","stimuli/21011100.jpg"," ","","practrice_feedback","0","","","","","","","","","","","","","","","","","","","","",""
"","","","","","image-keyboard-response","20","176983","0.0-3.0-17.0","62162ab583fc823e78c025e2","665500ab8938657b03fbdba8","6657934c430fdfc33377c879","6794","stimuli/1011110.jpg","2","","prediction_practice","2","{""filepath"":""stimuli/1011110.jpg"",""ball_pos"":1,""ego_ball_visible"":false,""ego_can_infer"":false,""alter_ball_visible"":false,""alter_can_infer"":false,""collective_ball_visible"":false,""collective_can_infer"":false,""search_locations"":[2,1],""alter_occluders"":""011"",""ego_occluders"":""110""}","true","","","","","","","","","","","","","","","","","","",""
"","","","","","image-keyboard-response","21","177883","0.0-3.0-18.0","62162ab583fc823e78c025e2","665500ab8938657b03fbdba8","6657934c430fdfc33377c879","898","stimuli/10111102.jpg"," ","","practrice_feedback","2","","","","","","","","","","","","","","","","","","","","",""
"","","","","","image-keyboard-response","22","185219","0.0-3.0-19.0","62162ab583fc823e78c025e2","665500ab8938657b03fbdba8","6657934c430fdfc33377c879","7334","stimuli/1110010.jpg","1","","prediction_practice","0","{""filepath"":""stimuli/1110010.jpg"",""ball_pos"":1,""ego_ball_visible"":false,""ego_can_infer"":true,""alter_ball_visible"":false,""alter_can_infer"":false,""collective_ball_visible"":false,""collective_can_infer"":false,""search_locations"":[0,1],""alter_occluders"":""110"",""ego_occluders"":""010""}","false","","","","","","","","","","","","","","","","","","",""
"","","","","","image-keyboard-response","23","186224","0.0-3.0-20.0","62162ab583fc823e78c025e2","665500ab8938657b03fbdba8","6657934c430fdfc33377c879","1003","stimuli/11100100.jpg"," ","","practrice_feedback","0","","","","","","","","","","","","","","","","","","","","",""
"","","","","","html-button-response","24","190811","0.0-3.0-21.0","62162ab583fc823e78c025e2","665500ab8938657b03fbdba8","6657934c430fdfc33377c879","4586","Now that you've had some practice, you'll be tested with a couple of easy trials. If you correctly predict Sam's choice, you'll move on to complete the experiment!","0","","","","","","","","","","","","","","","","","","","","","","","",""
"","","","","","image-keyboard-response","25","192838","0.0-3.0-22.0-0.0","62162ab583fc823e78c025e2","665500ab8938657b03fbdba8","6657934c430fdfc33377c879","2026","stimuli/0000011.jpg","arrowleft","","comprehension_quiz","","","true","arrowleft","","","","","","","","","","","","","","","","","",""
"","","","","","image-keyboard-response","26","194083","0.0-3.0-22.0-1.0","62162ab583fc823e78c025e2","665500ab8938657b03fbdba8","6657934c430fdfc33377c879","1243","stimuli/00000110.jpg"," ","","comprehension_quiz","","","true"," ","","","","","","","","","","","","","","","","","",""
"","","","","","image-keyboard-response","27","196864","0.0-3.0-22.0-2.0","62162ab583fc823e78c025e2","665500ab8938657b03fbdba8","6657934c430fdfc33377c879","2779","stimuli/1010010.jpg","arrowdown","","comprehension_quiz","","","true","arrowdown","","","","","","","","","","","","","","","","","",""
"","","","","","image-keyboard-response","28","197563","0.0-3.0-22.0-3.0","62162ab583fc823e78c025e2","665500ab8938657b03fbdba8","6657934c430fdfc33377c879","696","stimuli/10100101.jpg"," ","","comprehension_quiz","","","true"," ","","","","","","","","","","","","","","","","","",""
"","","","","","html-button-response","29","199153","0.0-4.0","62162ab583fc823e78c025e2","665500ab8938657b03fbdba8","6657934c430fdfc33377c879","1586","The experiment will now begin.","0","","","","","","","","","","","","","","","","","","","","","","","",""
"","","","","","image-keyboard-response","30","203563","0.0-5.0","62162ab583fc823e78c025e2","665500ab8938657b03fbdba8","6657934c430fdfc33377c879","4408","stimuli/1111110.jpg","1","","prediction_trial","1","","true","","1","false","false","false","false","false","false","[2,1,0]","111","110","1","","","","","","",""
"","","","","","image-keyboard-response","31","204448","0.0-6.0","62162ab583fc823e78c025e2","665500ab8938657b03fbdba8","6657934c430fdfc33377c879","883","stimuli/11111101.jpg"," ","","feedback_trial","2","","","","","","","","","","","","","","","","","","","","",""
"","","","","","image-keyboard-response","32","209040","0.0-7.0","62162ab583fc823e78c025e2","665500ab8938657b03fbdba8","6657934c430fdfc33377c879","4590","stimuli/1110111.jpg","2","","prediction_trial","0","","false","","1","false","false","false","false","false","false","[0,1]","110","111","0","","","","","","",""
"","","","","","image-keyboard-response","33","209938","0.0-8.0","62162ab583fc823e78c025e2","665500ab8938657b03fbdba8","6657934c430fdfc33377c879","896","stimuli/11101110.jpg"," ","","feedback_trial","0","","","","","","","","","","","","","","","","","","","","",""
"","","","","","image-keyboard-response","34","211948","0.0-9.0","62162ab583fc823e78c025e2","665500ab8938657b03fbdba8","6657934c430fdfc33377c879","2008","stimuli/2000100.jpg","2","","prediction_trial","2","","true","","2","true","true","true","true","true","true","[2]","000","100","1","","","","","","",""
"","","","","","image-keyboard-response","35","212758","0.0-10.0","62162ab583fc823e78c025e2","665500ab8938657b03fbdba8","6657934c430fdfc33377c879","809","stimuli/20001002.jpg"," ","","feedback_trial","2","","","","","","","","","","","","","","","","","","","","",""
"","","","","","image-keyboard-response","36","214438","0.0-11.0","62162ab583fc823e78c025e2","665500ab8938657b03fbdba8","6657934c430fdfc33377c879","1677","stimuli/2000000.jpg","2","","prediction_trial","2","","true","","2","true","true","true","true","true","true","[2]","000","000","1","","","","","","",""
"","","","","","image-keyboard-response","37","215279","0.0-12.0","62162ab583fc823e78c025e2","665500ab8938657b03fbdba8","6657934c430fdfc33377c879","839","stimuli/20000002.jpg"," ","","feedback_trial","2","","","","","","","","","","","","","","","","","","","","",""
"","","","","","image-keyboard-response","38","218749","0.0-13.0","62162ab583fc823e78c025e2","665500ab8938657b03fbdba8","6657934c430fdfc33377c879","3468","stimuli/0110001.jpg","1","","prediction_trial","0","","false","","0","true","true","false","false","false","false","[1,0]","110","001","0","","","","","","",""
"","","","","","image-keyboard-response","39","219749","0.0-14.0","62162ab583fc823e78c025e2","665500ab8938657b03fbdba8","6657934c430fdfc33377c879","998","stimuli/01100010.jpg"," ","","feedback_trial","1","","","","","","","","","","","","","","","","","","","","",""
"","","","","","image-keyboard-response","40","223291","0.0-15.0","62162ab583fc823e78c025e2","665500ab8938657b03fbdba8","6657934c430fdfc33377c879","3540","stimuli/1111101.jpg","1","","prediction_trial","2","","false","","1","true","true","false","false","false","false","[1,2,0]","111","101","0","","","","","","",""
"","","","","","image-keyboard-response","41","224354","0.0-16.0","62162ab583fc823e78c025e2","665500ab8938657b03fbdba8","6657934c430fdfc33377c879","1060","stimuli/11111012.jpg"," ","","feedback_trial","1","","","","","","","","","","","","","","","","","","","","",""
"","","","","","image-keyboard-response","42","228141","0.0-17.0","62162ab583fc823e78c025e2","665500ab8938657b03fbdba8","6657934c430fdfc33377c879","3786","stimuli/2101000.jpg","0","","prediction_trial","0","","true","","2","true","true","false","false","false","false","[2,0]","101","000","1","","","","","","",""
"","","","","","image-keyboard-response","43","229004","0.0-18.0","62162ab583fc823e78c025e2","665500ab8938657b03fbdba8","6657934c430fdfc33377c879","861","stimuli/21010000.jpg"," ","","feedback_trial","2","","","","","","","","","","","","","","","","","","","","",""
"","","","","","image-keyboard-response","44","232771","0.0-19.0","62162ab583fc823e78c025e2","665500ab8938657b03fbdba8","6657934c430fdfc33377c879","3766","stimuli/1100110.jpg","1","","prediction_trial","1","","true","","1","false","false","true","true","false","false","[1]","100","110","1","","","","","","",""
"","","","","","image-keyboard-response","45","233730","0.0-20.0","62162ab583fc823e78c025e2","665500ab8938657b03fbdba8","6657934c430fdfc33377c879","957","stimuli/11001101.jpg"," ","","feedback_trial","1","","","","","","","","","","","","","","","","","","","","",""
"","","","","","image-keyboard-response","46","237119","0.0-21.0","62162ab583fc823e78c025e2","665500ab8938657b03fbdba8","6657934c430fdfc33377c879","3387","stimuli/1010011.jpg","2","","prediction_trial","1","","false","","1","false","false","false","true","false","false","[1]","010","011","0","","","","","","",""
"","","","","","image-keyboard-response","47","238108","0.0-22.0","62162ab583fc823e78c025e2","665500ab8938657b03fbdba8","6657934c430fdfc33377c879","988","stimuli/10100111.jpg"," ","","feedback_trial","1","","","","","","","","","","","","","","","","","","","","",""
"","","","","","image-keyboard-response","48","241691","0.0-23.0","62162ab583fc823e78c025e2","665500ab8938657b03fbdba8","6657934c430fdfc33377c879","3581","stimuli/2100010.jpg","2","","prediction_trial","2","","true","","2","true","true","true","true","true","true","[2]","100","010","1","","","","","","",""
"","","","","","image-keyboard-response","49","244218","0.0-24.0","62162ab583fc823e78c025e2","665500ab8938657b03fbdba8","6657934c430fdfc33377c879","2525","stimuli/21000102.jpg"," ","","feedback_trial","2","","","","","","","","","","","","","","","","","","","","",""
"","","","","","image-keyboard-response","50","245909","0.0-25.0","62162ab583fc823e78c025e2","665500ab8938657b03fbdba8","6657934c430fdfc33377c879","1690","stimuli/2000110.jpg","2","","prediction_trial","2","","true","","2","true","true","true","true","true","true","[2]","000","110","1","","","","","","",""
"","","","","","image-keyboard-response","51","246795","0.0-26.0","62162ab583fc823e78c025e2","665500ab8938657b03fbdba8","6657934c430fdfc33377c879","882","stimuli/20001102.jpg"," ","","feedback_trial","2","","","","","","","","","","","","","","","","","","","","",""
"","","","","","image-keyboard-response","52","251405","0.0-27.0","62162ab583fc823e78c025e2","665500ab8938657b03fbdba8","6657934c430fdfc33377c879","4611","stimuli/0101100.jpg","0","","prediction_trial","2","","false","","0","false","true","false","false","false","false","[2,0]","101","100","0","","","","","","",""
"","","","","","image-keyboard-response","53","252627","0.0-28.0","62162ab583fc823e78c025e2","665500ab8938657b03fbdba8","6657934c430fdfc33377c879","1220","stimuli/01011002.jpg"," ","","feedback_trial","2","","","","","","","","","","","","","","","","","","","","",""
"","","","","","image-keyboard-response","54","254366","0.0-29.0","62162ab583fc823e78c025e2","665500ab8938657b03fbdba8","6657934c430fdfc33377c879","1738","stimuli/2010010.jpg","2","","prediction_trial","2","","true","","2","true","true","true","true","true","true","[2]","010","010","1","","","","","","",""
"","","","","","image-keyboard-response","55","254816","0.0-30.0","62162ab583fc823e78c025e2","665500ab8938657b03fbdba8","6657934c430fdfc33377c879","448","stimuli/20100102.jpg"," ","","feedback_trial","2","","","","","","","","","","","","","","","","","","","","",""
"","","","","","image-keyboard-response","56","256691","0.0-31.0","62162ab583fc823e78c025e2","665500ab8938657b03fbdba8","6657934c430fdfc33377c879","1873","stimuli/1001001.jpg","1","","prediction_trial","1","","true","","1","true","true","true","true","true","true","[1]","001","001","1","","","","","","",""
"","","","","","image-keyboard-response","57","257246","0.0-32.0","62162ab583fc823e78c025e2","665500ab8938657b03fbdba8","6657934c430fdfc33377c879","553","stimuli/10010011.jpg"," ","","feedback_trial","1","","","","","","","","","","","","","","","","","","","","",""
"","","","","","image-keyboard-response","58","260390","0.0-33.0","62162ab583fc823e78c025e2","665500ab8938657b03fbdba8","6657934c430fdfc33377c879","3143","stimuli/2010011.jpg","2","","prediction_trial","2","","true","","2","false","false","true","true","false","false","[2]","010","011","1","","","","","","",""
"","","","","","image-keyboard-response","59","261252","0.0-34.0","62162ab583fc823e78c025e2","665500ab8938657b03fbdba8","6657934c430fdfc33377c879","860","stimuli/20100112.jpg"," ","","feedback_trial","2","","","","","","","","","","","","","","","","","","","","",""
"","","","","","image-keyboard-response","60","264837","0.0-35.0","62162ab583fc823e78c025e2","665500ab8938657b03fbdba8","6657934c430fdfc33377c879","3584","stimuli/2000111.jpg","1","","prediction_trial","2","","false","","2","false","false","true","true","false","false","[2]","000","111","0","","","","","","",""
"","","","","","image-keyboard-response","61","265602","0.0-36.0","62162ab583fc823e78c025e2","665500ab8938657b03fbdba8","6657934c430fdfc33377c879","763","stimuli/20001112.jpg"," ","","feedback_trial","2","","","","","","","","","","","","","","","","","","","","",""
"","","","","","image-keyboard-response","62","268899","0.0-37.0","62162ab583fc823e78c025e2","665500ab8938657b03fbdba8","6657934c430fdfc33377c879","3296","stimuli/1110000.jpg","0","","prediction_trial","0","","true","","1","true","true","false","false","false","false","[1,0]","110","000","1","","","","","","",""
"","","","","","image-keyboard-response","63","269817","0.0-38.0","62162ab583fc823e78c025e2","665500ab8938657b03fbdba8","6657934c430fdfc33377c879","916","stimuli/11100000.jpg"," ","","feedback_trial","1","","","","","","","","","","","","","","","","","","","","",""
"","","","","","image-keyboard-response","64","271331","0.0-39.0","62162ab583fc823e78c025e2","665500ab8938657b03fbdba8","6657934c430fdfc33377c879","1513","stimuli/0010001.jpg","0","","prediction_trial","0","","true","","0","true","true","true","true","true","true","[0]","010","001","1","","","","","","",""
"","","","","","image-keyboard-response","65","271706","0.0-40.0","62162ab583fc823e78c025e2","665500ab8938657b03fbdba8","6657934c430fdfc33377c879","373","stimuli/00100010.jpg"," ","","feedback_trial","0","","","","","","","","","","","","","","","","","","","","",""
"","","","","","image-keyboard-response","66","273762","0.0-41.0","62162ab583fc823e78c025e2","665500ab8938657b03fbdba8","6657934c430fdfc33377c879","2054","stimuli/1110001.jpg","1","","prediction_trial","0","","false","","1","true","true","false","false","false","false","[1,0]","110","001","0","","","","","","",""
"","","","","","image-keyboard-response","67","275158","0.0-42.0","62162ab583fc823e78c025e2","665500ab8938657b03fbdba8","6657934c430fdfc33377c879","1394","stimuli/11100010.jpg"," ","","feedback_trial","1","","","","","","","","","","","","","","","","","","","","",""
"","","","","","image-keyboard-response","68","277685","0.0-43.0","62162ab583fc823e78c025e2","665500ab8938657b03fbdba8","6657934c430fdfc33377c879","2525","stimuli/2110001.jpg","2","","prediction_trial","2","","true","","2","false","true","true","true","false","true","[2]","110","001","1","","","","","","",""
"","","","","","image-keyboard-response","69","278261","0.0-44.0","62162ab583fc823e78c025e2","665500ab8938657b03fbdba8","6657934c430fdfc33377c879","575","stimuli/21100012.jpg"," ","","feedback_trial","2","","","","","","","","","","","","","","","","","","","","",""
"","","","","","image-keyboard-response","70","281364","0.0-45.0","62162ab583fc823e78c025e2","665500ab8938657b03fbdba8","6657934c430fdfc33377c879","3101","stimuli/1010101.jpg","1","","prediction_trial","1","","true","","1","true","true","false","true","false","true","[1]","010","101","1","","","","","","",""
"","","","","","image-keyboard-response","71","281892","0.0-46.0","62162ab583fc823e78c025e2","665500ab8938657b03fbdba8","6657934c430fdfc33377c879","527","stimuli/10101011.jpg"," ","","feedback_trial","1","","","","","","","","","","","","","","","","","","","","",""
"","","","","","image-keyboard-response","72","283857","0.0-47.0","62162ab583fc823e78c025e2","665500ab8938657b03fbdba8","6657934c430fdfc33377c879","1963","stimuli/1011011.jpg","2","","prediction_trial","1","","false","","1","false","false","false","false","false","false","[1,2]","011","011","0","","","","","","",""
"","","","","","image-keyboard-response","73","285101","0.0-48.0","62162ab583fc823e78c025e2","665500ab8938657b03fbdba8","6657934c430fdfc33377c879","1242","stimuli/10110111.jpg"," ","","feedback_trial","1","","","","","","","","","","","","","","","","","","","","",""
"","","","","","image-keyboard-response","74","291552","0.0-49.0","62162ab583fc823e78c025e2","665500ab8938657b03fbdba8","6657934c430fdfc33377c879","6449","stimuli/2001001.jpg","2","","prediction_trial","2","","true","","2","false","true","false","true","false","true","[2]","001","001","1","","","","","","",""
"","","","","","image-keyboard-response","75","292857","0.0-50.0","62162ab583fc823e78c025e2","665500ab8938657b03fbdba8","6657934c430fdfc33377c879","1304","stimuli/20010012.jpg"," ","","feedback_trial","2","","","","","","","","","","","","","","","","","","","","",""
"","","","","","image-keyboard-response","76","294731","0.0-51.0","62162ab583fc823e78c025e2","665500ab8938657b03fbdba8","6657934c430fdfc33377c879","1873","stimuli/1101101.jpg","1","","prediction_trial","1","","true","","1","true","true","true","true","true","true","[1]","101","101","1","","","","","","",""
"","","","","","image-keyboard-response","77","295076","0.0-52.0","62162ab583fc823e78c025e2","665500ab8938657b03fbdba8","6657934c430fdfc33377c879","343","stimuli/11011011.jpg"," ","","feedback_trial","1","","","","","","","","","","","","","","","","","","","","",""
"","","","","","image-keyboard-response","78","296322","0.0-53.0","62162ab583fc823e78c025e2","665500ab8938657b03fbdba8","6657934c430fdfc33377c879","1244","stimuli/2110100.jpg","2","","prediction_trial","2","","true","","2","true","true","true","true","true","true","[2]","110","100","1","","","","","","",""
"","","","","","image-keyboard-response","79","296862","0.0-54.0","62162ab583fc823e78c025e2","665500ab8938657b03fbdba8","6657934c430fdfc33377c879","538","stimuli/21101002.jpg"," ","","feedback_trial","2","","","","","","","","","","","","","","","","","","","","",""
"","","","","","image-keyboard-response","80","300922","0.0-55.0","62162ab583fc823e78c025e2","665500ab8938657b03fbdba8","6657934c430fdfc33377c879","4058","stimuli/0111100.jpg","2","","prediction_trial","0","","false","","0","false","true","false","false","false","false","[0,1,2]","111","100","0","","","","","","",""
"","","","","","image-keyboard-response","81","301797","0.0-56.0","62162ab583fc823e78c025e2","665500ab8938657b03fbdba8","6657934c430fdfc33377c879","873","stimuli/01111000.jpg"," ","","feedback_trial","0","","","","","","","","","","","","","","","","","","","","",""
"","","","","","image-keyboard-response","82","305287","0.0-57.0","62162ab583fc823e78c025e2","665500ab8938657b03fbdba8","6657934c430fdfc33377c879","3489","stimuli/1000110.jpg","1","","prediction_trial","1","","true","","1","false","false","true","true","false","false","[1]","000","110","1","","","","","","",""
"","","","","","image-keyboard-response","83","305937","0.0-58.0","62162ab583fc823e78c025e2","665500ab8938657b03fbdba8","6657934c430fdfc33377c879","649","stimuli/10001101.jpg"," ","","feedback_trial","1","","","","","","","","","","","","","","","","","","","","",""
"","","","","","image-keyboard-response","84","307152","0.0-59.0","62162ab583fc823e78c025e2","665500ab8938657b03fbdba8","6657934c430fdfc33377c879","1212","stimuli/0011011.jpg","0","","prediction_trial","0","","true","","0","true","true","true","true","true","true","[0]","011","011","1","","","","","","",""
"","","","","","image-keyboard-response","85","307452","0.0-60.0","62162ab583fc823e78c025e2","665500ab8938657b03fbdba8","6657934c430fdfc33377c879","298","stimuli/00110110.jpg"," ","","feedback_trial","0","","","","","","","","","","","","","","","","","","","","",""
"","","","","","image-keyboard-response","86","308637","0.0-61.0","62162ab583fc823e78c025e2","665500ab8938657b03fbdba8","6657934c430fdfc33377c879","1183","stimuli/1000100.jpg","1","","prediction_trial","1","","true","","1","true","true","true","true","true","true","[1]","000","100","1","","","","","","",""
"","","","","","image-keyboard-response","87","309208","0.0-62.0","62162ab583fc823e78c025e2","665500ab8938657b03fbdba8","6657934c430fdfc33377c879","569","stimuli/10001001.jpg"," ","","feedback_trial","1","","","","","","","","","","","","","","","","","","","","",""
"","","","","","image-keyboard-response","88","312084","0.0-63.0","62162ab583fc823e78c025e2","665500ab8938657b03fbdba8","6657934c430fdfc33377c879","2873","stimuli/0111011.jpg","0","","prediction_trial","1","","false","","0","true","true","false","false","false","false","[0,2,1]","111","011","0","","","","","","",""
"","","","","","image-keyboard-response","89","313950","0.0-64.0","62162ab583fc823e78c025e2","665500ab8938657b03fbdba8","6657934c430fdfc33377c879","1864","stimuli/01110111.jpg"," ","","feedback_trial","0","","","","","","","","","","","","","","","","","","","","",""
"","","","","","image-keyboard-response","90","317120","0.0-65.0","62162ab583fc823e78c025e2","665500ab8938657b03fbdba8","6657934c430fdfc33377c879","3169","stimuli/0110100.jpg","0","","prediction_trial","1","","false","","0","false","true","false","false","false","false","[0,1]","110","100","0","","","","","","",""
"","","","","","image-keyboard-response","91","318284","0.0-66.0","62162ab583fc823e78c025e2","665500ab8938657b03fbdba8","6657934c430fdfc33377c879","1162","stimuli/01101001.jpg"," ","","feedback_trial","0","","","","","","","","","","","","","","","","","","","","",""
"","","","","","image-keyboard-response","92","321599","0.0-67.0","62162ab583fc823e78c025e2","665500ab8938657b03fbdba8","6657934c430fdfc33377c879","3314","stimuli/1001010.jpg","1","","prediction_trial","1","","true","","1","false","true","true","true","false","true","[1]","001","010","1","","","","","","",""
"","","","","","image-keyboard-response","93","322214","0.0-68.0","62162ab583fc823e78c025e2","665500ab8938657b03fbdba8","6657934c430fdfc33377c879","612","stimuli/10010101.jpg"," ","","feedback_trial","1","","","","","","","","","","","","","","","","","","","","",""
"","","","","","image-keyboard-response","94","325487","0.0-69.0","62162ab583fc823e78c025e2","665500ab8938657b03fbdba8","6657934c430fdfc33377c879","3271","stimuli/2001100.jpg","2","","prediction_trial","2","","true","","2","true","true","false","true","false","true","[2]","001","100","1","","","","","","",""
"","","","","","image-keyboard-response","95","325649","0.0-70.0","62162ab583fc823e78c025e2","665500ab8938657b03fbdba8","6657934c430fdfc33377c879","160","stimuli/20011002.jpg"," ","","feedback_trial","2","","","","","","","","","","","","","","","","","","","","",""
"","","","","","image-keyboard-response","96","328288","0.0-71.0","62162ab583fc823e78c025e2","665500ab8938657b03fbdba8","6657934c430fdfc33377c879","2637","stimuli/2011100.jpg","2","","prediction_trial","2","","true","","2","true","true","false","false","false","false","[2,1]","011","100","1","","","","","","",""
"","","","","","image-keyboard-response","97","328920","0.0-72.0","62162ab583fc823e78c025e2","665500ab8938657b03fbdba8","6657934c430fdfc33377c879","630","stimuli/20111002.jpg"," ","","feedback_trial","2","","","","","","","","","","","","","","","","","","","","",""
"","","","","","image-keyboard-response","98","330539","0.0-73.0","62162ab583fc823e78c025e2","665500ab8938657b03fbdba8","6657934c430fdfc33377c879","1618","stimuli/2011010.jpg","2","","prediction_trial","2","","true","","2","true","true","false","false","false","false","[1,2]","011","010","1","","","","","","",""
"","","","","","image-keyboard-response","99","331228","0.0-74.0","62162ab583fc823e78c025e2","665500ab8938657b03fbdba8","6657934c430fdfc33377c879","687","stimuli/20110102.jpg"," ","","feedback_trial","1","","","","","","","","","","","","","","","","","","","","",""
"","","","","","image-keyboard-response","100","332505","0.0-75.0","62162ab583fc823e78c025e2","665500ab8938657b03fbdba8","6657934c430fdfc33377c879","1274","stimuli/1001100.jpg","1","","prediction_trial","1","","true","","1","true","true","true","true","true","true","[1]","001","100","1","","","","","","",""
"","","","","","image-keyboard-response","101","333030","0.0-76.0","62162ab583fc823e78c025e2","665500ab8938657b03fbdba8","6657934c430fdfc33377c879","523","stimuli/10011001.jpg"," ","","feedback_trial","1","","","","","","","","","","","","","","","","","","","","",""
"","","","","","image-keyboard-response","102","334289","0.0-77.0","62162ab583fc823e78c025e2","665500ab8938657b03fbdba8","6657934c430fdfc33377c879","1257","stimuli/2010110.jpg","2","","prediction_trial","2","","true","","2","true","true","true","true","true","true","[2]","010","110","1","","","","","","",""
"","","","","","image-keyboard-response","103","334709","0.0-78.0","62162ab583fc823e78c025e2","665500ab8938657b03fbdba8","6657934c430fdfc33377c879","419","stimuli/20101102.jpg"," ","","feedback_trial","2","","","","","","","","","","","","","","","","","","","","",""
"","","","","","image-keyboard-response","104","337638","0.0-79.0","62162ab583fc823e78c025e2","665500ab8938657b03fbdba8","6657934c430fdfc33377c879","2927","stimuli/1011010.jpg","1","","prediction_trial","2","","false","","1","false","true","false","false","false","false","[1,2]","011","010","0","","","","","","",""
"","","","","","image-keyboard-response","105","338339","0.0-80.0","62162ab583fc823e78c025e2","665500ab8938657b03fbdba8","6657934c430fdfc33377c879","699","stimuli/10110102.jpg"," ","","feedback_trial","1","","","","","","","","","","","","","","","","","","","","",""
"","","","","","image-keyboard-response","106","342070","0.0-81.0","62162ab583fc823e78c025e2","665500ab8938657b03fbdba8","6657934c430fdfc33377c879","3729","stimuli/1100001.jpg","1","","prediction_trial","1","","true","","1","true","true","true","true","true","true","[1]","100","001","1","","","","","","",""
"","","","","","image-keyboard-response","107","342644","0.0-82.0","62162ab583fc823e78c025e2","665500ab8938657b03fbdba8","6657934c430fdfc33377c879","572","stimuli/11000011.jpg"," ","","feedback_trial","1","","","","","","","","","","","","","","","","","","","","",""
"","","","","","image-keyboard-response","108","344069","0.0-83.0","62162ab583fc823e78c025e2","665500ab8938657b03fbdba8","6657934c430fdfc33377c879","1423","stimuli/0000000.jpg","0","","prediction_trial","0","","true","","0","true","true","true","true","true","true","[0]","000","000","1","","","","","","",""
"","","","","","image-keyboard-response","109","344429","0.0-84.0","62162ab583fc823e78c025e2","665500ab8938657b03fbdba8","6657934c430fdfc33377c879","358","stimuli/00000000.jpg"," ","","feedback_trial","0","","","","","","","","","","","","","","","","","","","","",""
"","","","","","image-keyboard-response","110","348588","0.0-85.0","62162ab583fc823e78c025e2","665500ab8938657b03fbdba8","6657934c430fdfc33377c879","4158","stimuli/1100111.jpg","2","","prediction_trial","1","","false","","1","false","false","true","true","false","false","[1]","100","111","0","","","","","","",""
"","","","","","image-keyboard-response","111","349425","0.0-86.0","62162ab583fc823e78c025e2","665500ab8938657b03fbdba8","6657934c430fdfc33377c879","835","stimuli/11001111.jpg"," ","","feedback_trial","1","","","","","","","","","","","","","","","","","","","","",""
"","","","","","image-keyboard-response","112","351164","0.0-87.0","62162ab583fc823e78c025e2","665500ab8938657b03fbdba8","6657934c430fdfc33377c879","1737","stimuli/0000011.jpg","0","","prediction_trial","0","","true","","0","true","true","true","true","true","true","[0]","000","011","1","","","","","","",""
"","","","","","image-keyboard-response","113","351944","0.0-88.0","62162ab583fc823e78c025e2","665500ab8938657b03fbdba8","6657934c430fdfc33377c879","778","stimuli/00000110.jpg"," ","","feedback_trial","0","","","","","","","","","","","","","","","","","","","","",""
"","","","","","image-keyboard-response","114","353115","0.0-89.0","62162ab583fc823e78c025e2","665500ab8938657b03fbdba8","6657934c430fdfc33377c879","1169","stimuli/1101100.jpg","1","","prediction_trial","1","","true","","1","true","true","true","true","true","true","[1]","101","100","1","","","","","","",""
"","","","","","image-keyboard-response","115","353641","0.0-90.0","62162ab583fc823e78c025e2","665500ab8938657b03fbdba8","6657934c430fdfc33377c879","525","stimuli/11011001.jpg"," ","","feedback_trial","1","","","","","","","","","","","","","","","","","","","","",""
"","","","","","image-keyboard-response","116","355740","0.0-91.0","62162ab583fc823e78c025e2","665500ab8938657b03fbdba8","6657934c430fdfc33377c879","2096","stimuli/1110010.jpg","1","","prediction_trial","0","","false","","1","false","true","false","false","false","false","[0,1]","110","010","0","","","","","","",""
"","","","","","image-keyboard-response","117","356699","0.0-92.0","62162ab583fc823e78c025e2","665500ab8938657b03fbdba8","6657934c430fdfc33377c879","957","stimuli/11100100.jpg"," ","","feedback_trial","0","","","","","","","","","","","","","","","","","","","","",""
"","","","","","image-keyboard-response","118","361038","0.0-93.0","62162ab583fc823e78c025e2","665500ab8938657b03fbdba8","6657934c430fdfc33377c879","4337","stimuli/2101010.jpg","0","","prediction_trial","2","","false","","2","true","true","false","false","false","false","[0,2]","101","010","0","","","","","","",""
"","","","","","image-keyboard-response","119","362055","0.0-94.0","62162ab583fc823e78c025e2","665500ab8938657b03fbdba8","6657934c430fdfc33377c879","1015","stimuli/21010102.jpg"," ","","feedback_trial","0","","","","","","","","","","","","","","","","","","","","",""
"","","","","","image-keyboard-response","120","364990","0.0-95.0","62162ab583fc823e78c025e2","665500ab8938657b03fbdba8","6657934c430fdfc33377c879","2934","stimuli/1111100.jpg","2","","prediction_trial","2","","true","","1","true","true","false","false","false","false","[2,0,1]","111","100","1","","","","","","",""
"","","","","","image-keyboard-response","121","365850","0.0-96.0","62162ab583fc823e78c025e2","665500ab8938657b03fbdba8","6657934c430fdfc33377c879","858","stimuli/11111002.jpg"," ","","feedback_trial","2","","","","","","","","","","","","","","","","","","","","",""
"","","","","","image-keyboard-response","122","367064","0.0-97.0","62162ab583fc823e78c025e2","665500ab8938657b03fbdba8","6657934c430fdfc33377c879","1212","stimuli/2110010.jpg","2","","prediction_trial","2","","true","","2","true","true","true","true","true","true","[2]","110","010","1","","","","","","",""
"","","","","","image-keyboard-response","123","367590","0.0-98.0","62162ab583fc823e78c025e2","665500ab8938657b03fbdba8","6657934c430fdfc33377c879","524","stimuli/21100102.jpg"," ","","feedback_trial","2","","","","","","","","","","","","","","","","","","","","",""
"","","","","","image-keyboard-response","124","369904","0.0-99.0","62162ab583fc823e78c025e2","665500ab8938657b03fbdba8","6657934c430fdfc33377c879","2312","stimuli/0100011.jpg","0","","prediction_trial","0","","true","","0","true","true","false","true","false","true","[0]","100","011","1","","","","","","",""
"","","","","","image-keyboard-response","125","370515","0.0-100.0","62162ab583fc823e78c025e2","665500ab8938657b03fbdba8","6657934c430fdfc33377c879","609","stimuli/01000110.jpg"," ","","feedback_trial","0","","","","","","","","","","","","","","","","","","","","",""
"","","","","","image-keyboard-response","126","371805","0.0-101.0","62162ab583fc823e78c025e2","665500ab8938657b03fbdba8","6657934c430fdfc33377c879","1288","stimuli/2000010.jpg","2","","prediction_trial","2","","true","","2","true","true","true","true","true","true","[2]","000","010","1","","","","","","",""
"","","","","","image-keyboard-response","127","372142","0.0-102.0","62162ab583fc823e78c025e2","665500ab8938657b03fbdba8","6657934c430fdfc33377c879","342","stimuli/20000102.jpg"," ","","feedback_trial","2","","","","","","","","","","","","","","","","","","","","",""
"","","","","","image-keyboard-response","128","376860","0.0-103.0","62162ab583fc823e78c025e2","665500ab8938657b03fbdba8","6657934c430fdfc33377c879","4717","stimuli/1010111.jpg","0","","prediction_trial","1","","false","","1","false","false","false","true","false","false","[1]","010","111","0","","","","","","",""
"","","","","","image-keyboard-response","129","377527","0.0-104.0","62162ab583fc823e78c025e2","665500ab8938657b03fbdba8","6657934c430fdfc33377c879","665","stimuli/10101111.jpg"," ","","feedback_trial","1","","","","","","","","","","","","","","","","","","","","",""
"","","","","","image-keyboard-response","130","378803","0.0-105.0","62162ab583fc823e78c025e2","665500ab8938657b03fbdba8","6657934c430fdfc33377c879","1274","stimuli/1000101.jpg","1","","prediction_trial","1","","true","","1","true","true","true","true","true","true","[1]","000","101","1","","","","","","",""
"","","","","","image-keyboard-response","131","379283","0.0-106.0","62162ab583fc823e78c025e2","665500ab8938657b03fbdba8","6657934c430fdfc33377c879","478","stimuli/10001011.jpg"," ","","feedback_trial","1","","","","","","","","","","","","","","","","","","","","",""
"","","","","","image-keyboard-response","132","380542","0.0-107.0","62162ab583fc823e78c025e2","665500ab8938657b03fbdba8","6657934c430fdfc33377c879","1258","stimuli/2110000.jpg","2","","prediction_trial","2","","true","","2","true","true","true","true","true","true","[2]","110","000","1","","","","","","",""
"","","","","","image-keyboard-response","133","381083","0.0-108.0","62162ab583fc823e78c025e2","665500ab8938657b03fbdba8","6657934c430fdfc33377c879","538","stimuli/21100002.jpg"," ","","feedback_trial","2","","","","","","","","","","","","","","","","","","","","",""
"","","","","","image-keyboard-response","134","382881","0.0-109.0","62162ab583fc823e78c025e2","665500ab8938657b03fbdba8","6657934c430fdfc33377c879","1796","stimuli/0001001.jpg","0","","prediction_trial","0","","true","","0","true","true","true","true","true","true","[0]","001","001","1","","","","","","",""
"","","","","","image-keyboard-response","135","383513","0.0-110.0","62162ab583fc823e78c025e2","665500ab8938657b03fbdba8","6657934c430fdfc33377c879","629","stimuli/00010010.jpg"," ","","feedback_trial","0","","","","","","","","","","","","","","","","","","","","",""
"","","","","","image-keyboard-response","136","384547","0.0-111.0","62162ab583fc823e78c025e2","665500ab8938657b03fbdba8","6657934c430fdfc33377c879","1032","stimuli/0010011.jpg","0","","prediction_trial","0","","true","","0","true","true","true","true","true","true","[0]","010","011","1","","","","","","",""
"","","","","","image-keyboard-response","137","385268","0.0-112.0","62162ab583fc823e78c025e2","665500ab8938657b03fbdba8","6657934c430fdfc33377c879","719","stimuli/00100110.jpg"," ","","feedback_trial","0","","","","","","","","","","","","","","","","","","","","",""
"","","","","","image-keyboard-response","138","386437","0.0-113.0","62162ab583fc823e78c025e2","665500ab8938657b03fbdba8","6657934c430fdfc33377c879","1168","stimuli/1100000.jpg","1","","prediction_trial","1","","true","","1","true","true","true","true","true","true","[1]","100","000","1","","","","","","",""
"","","","","","image-keyboard-response","139","386992","0.0-114.0","62162ab583fc823e78c025e2","665500ab8938657b03fbdba8","6657934c430fdfc33377c879","553","stimuli/11000001.jpg"," ","","feedback_trial","1","","","","","","","","","","","","","","","","","","","","",""
"","","","","","image-keyboard-response","140","389092","0.0-115.0","62162ab583fc823e78c025e2","665500ab8938657b03fbdba8","6657934c430fdfc33377c879","2098","stimuli/1000010.jpg","1","","prediction_trial","1","","true","","1","false","true","true","true","false","true","[1]","000","010","1","","","","","","",""
"","","","","","image-keyboard-response","141","389707","0.0-116.0","62162ab583fc823e78c025e2","665500ab8938657b03fbdba8","6657934c430fdfc33377c879","613","stimuli/10000101.jpg"," ","","feedback_trial","1","","","","","","","","","","","","","","","","","","","","",""
"","","","","","image-keyboard-response","142","393316","0.0-117.0","62162ab583fc823e78c025e2","665500ab8938657b03fbdba8","6657934c430fdfc33377c879","3607","stimuli/0001111.jpg","2","","prediction_trial","0","","false","","0","false","false","true","true","false","false","[0]","001","111","0","","","","","","",""
"","","","","","image-keyboard-response","143","394058","0.0-118.0","62162ab583fc823e78c025e2","665500ab8938657b03fbdba8","6657934c430fdfc33377c879","740","stimuli/00011110.jpg"," ","","feedback_trial","0","","","","","","","","","","","","","","","","","","","","",""
"","","","","","image-keyboard-response","144","397977","0.0-119.0","62162ab583fc823e78c025e2","665500ab8938657b03fbdba8","6657934c430fdfc33377c879","3917","stimuli/0101110.jpg","1","","prediction_trial","0","","false","","0","false","false","false","false","false","false","[0,2]","101","110","0","","","","","","",""
"","","","","","image-keyboard-response","145","400748","0.0-120.0","62162ab583fc823e78c025e2","665500ab8938657b03fbdba8","6657934c430fdfc33377c879","2770","stimuli/01011100.jpg"," ","","feedback_trial","0","","","","","","","","","","","","","","","","","","","","",""
"","","","","","image-keyboard-response","146","404221","0.0-121.0","62162ab583fc823e78c025e2","665500ab8938657b03fbdba8","6657934c430fdfc33377c879","3472","stimuli/2000001.jpg","2","","prediction_trial","2","","true","","2","false","true","true","true","false","true","[2]","000","001","1","","","","","","",""
"","","","","","image-keyboard-response","147","405053","0.0-122.0","62162ab583fc823e78c025e2","665500ab8938657b03fbdba8","6657934c430fdfc33377c879","829","stimuli/20000012.jpg"," ","","feedback_trial","2","","","","","","","","","","","","","","","","","","","","",""
"","","","","","image-keyboard-response","148","407017","0.0-123.0","62162ab583fc823e78c025e2","665500ab8938657b03fbdba8","6657934c430fdfc33377c879","1963","stimuli/0101111.jpg","2","","prediction_trial","0","","false","","0","false","false","false","false","false","false","[0,2]","101","111","0","","","","","","",""
"","","","","","image-keyboard-response","149","407887","0.0-124.0","62162ab583fc823e78c025e2","665500ab8938657b03fbdba8","6657934c430fdfc33377c879","867","stimuli/01011110.jpg"," ","","feedback_trial","0","","","","","","","","","","","","","","","","","","","","",""
"","","","","","image-keyboard-response","150","410447","0.0-125.0","62162ab583fc823e78c025e2","665500ab8938657b03fbdba8","6657934c430fdfc33377c879","2559","stimuli/1011001.jpg","1","","prediction_trial","1","","true","","1","true","true","false","false","false","false","[1,2]","011","001","1","","","","","","",""
"","","","","","image-keyboard-response","151","411248","0.0-126.0","62162ab583fc823e78c025e2","665500ab8938657b03fbdba8","6657934c430fdfc33377c879","799","stimuli/10110011.jpg"," ","","feedback_trial","1","","","","","","","","","","","","","","","","","","","","",""
"","","","","","image-keyboard-response","152","413272","0.0-127.0","62162ab583fc823e78c025e2","665500ab8938657b03fbdba8","6657934c430fdfc33377c879","2023","stimuli/1011000.jpg","1","","prediction_trial","2","","false","","1","true","true","false","false","false","false","[1,2]","011","000","0","","","","","","",""
"","","","","","image-keyboard-response","153","414128","0.0-128.0","62162ab583fc823e78c025e2","665500ab8938657b03fbdba8","6657934c430fdfc33377c879","854","stimuli/10110002.jpg"," ","","feedback_trial","1","","","","","","","","","","","","","","","","","","","","",""
"","","","","","image-keyboard-response","154","418197","0.0-129.0","62162ab583fc823e78c025e2","665500ab8938657b03fbdba8","6657934c430fdfc33377c879","4067","stimuli/0010110.jpg","0","","prediction_trial","0","","true","","0","false","false","true","true","false","false","[0]","010","110","1","","","","","","",""
"","","","","","image-keyboard-response","155","419092","0.0-130.0","62162ab583fc823e78c025e2","665500ab8938657b03fbdba8","6657934c430fdfc33377c879","894","stimuli/00101100.jpg"," ","","feedback_trial","0","","","","","","","","","","","","","","","","","","","","",""
"","","","","","image-keyboard-response","156","421749","0.0-131.0","62162ab583fc823e78c025e2","665500ab8938657b03fbdba8","6657934c430fdfc33377c879","2655","stimuli/2010111.jpg","0","","prediction_trial","2","","false","","2","false","false","true","true","false","false","[2]","010","111","0","","","","","","",""
"","","","","","image-keyboard-response","157","422827","0.0-132.0","62162ab583fc823e78c025e2","665500ab8938657b03fbdba8","6657934c430fdfc33377c879","1077","stimuli/20101112.jpg"," ","","feedback_trial","2","","","","","","","","","","","","","","","","","","","","",""
"","","","","","image-keyboard-response","158","425186","0.0-133.0","62162ab583fc823e78c025e2","665500ab8938657b03fbdba8","6657934c430fdfc33377c879","2358","stimuli/1001110.jpg","1","","prediction_trial","1","","true","","1","false","false","true","true","false","false","[1]","001","110","1","","","","","","",""
"","","","","","image-keyboard-response","159","426008","0.0-134.0","62162ab583fc823e78c025e2","665500ab8938657b03fbdba8","6657934c430fdfc33377c879","819","stimuli/10011101.jpg"," ","","feedback_trial","1","","","","","","","","","","","","","","","","","","","","",""
"","","","","","image-keyboard-response","160","431020","0.0-135.0","62162ab583fc823e78c025e2","665500ab8938657b03fbdba8","6657934c430fdfc33377c879","5010","stimuli/1101111.jpg","1","","prediction_trial","1","","true","","1","false","false","true","true","false","false","[1]","101","111","1","","","","","","",""
"","","","","","image-keyboard-response","161","431708","0.0-136.0","62162ab583fc823e78c025e2","665500ab8938657b03fbdba8","6657934c430fdfc33377c879","686","stimuli/11011111.jpg"," ","","feedback_trial","1","","","","","","","","","","","","","","","","","","","","",""
"","","","","","image-keyboard-response","162","436184","0.0-137.0","62162ab583fc823e78c025e2","665500ab8938657b03fbdba8","6657934c430fdfc33377c879","4469","stimuli/2010000.jpg","2","","prediction_trial","2","","true","","2","true","true","true","true","true","true","[2]","010","000","1","","","","","","",""
"","","","","","image-keyboard-response","163","436634","0.0-138.0","62162ab583fc823e78c025e2","665500ab8938657b03fbdba8","6657934c430fdfc33377c879","448","stimuli/20100002.jpg"," ","","feedback_trial","2","","","","","","","","","","","","","","","","","","","","",""
"","","","","","image-keyboard-response","164","439501","0.0-139.0","62162ab583fc823e78c025e2","665500ab8938657b03fbdba8","6657934c430fdfc33377c879","2866","stimuli/2011000.jpg","2","","prediction_trial","2","","true","","2","true","true","false","false","false","false","[1,2]","011","000","1","","","","","","",""
"","","","","","image-keyboard-response","165","440113","0.0-140.0","62162ab583fc823e78c025e2","665500ab8938657b03fbdba8","6657934c430fdfc33377c879","610","stimuli/20110002.jpg"," ","","feedback_trial","1","","","","","","","","","","","","","","","","","","","","",""
"","","","","","image-keyboard-response","166","441628","0.0-141.0","62162ab583fc823e78c025e2","665500ab8938657b03fbdba8","6657934c430fdfc33377c879","1513","stimuli/0000001.jpg","0","","prediction_trial","0","","true","","0","true","true","true","true","true","true","[0]","000","001","1","","","","","","",""
"","","","","","image-keyboard-response","167","442033","0.0-142.0","62162ab583fc823e78c025e2","665500ab8938657b03fbdba8","6657934c430fdfc33377c879","404","stimuli/00000010.jpg"," ","","feedback_trial","0","","","","","","","","","","","","","","","","","","","","",""
"","","","","","image-keyboard-response","168","444029","0.0-143.0","62162ab583fc823e78c025e2","665500ab8938657b03fbdba8","6657934c430fdfc33377c879","1993","stimuli/0001011.jpg","0","","prediction_trial","0","","true","","0","true","true","true","true","true","true","[0]","001","011","1","","","","","","",""
"","","","","","image-keyboard-response","169","444959","0.0-144.0","62162ab583fc823e78c025e2","665500ab8938657b03fbdba8","6657934c430fdfc33377c879","929","stimuli/00010110.jpg"," ","","feedback_trial","0","","","","","","","","","","","","","","","","","","","","",""
"","","","","","image-keyboard-response","170","448051","0.0-145.0","62162ab583fc823e78c025e2","665500ab8938657b03fbdba8","6657934c430fdfc33377c879","3091","stimuli/1110011.jpg","2","","prediction_trial","0","","false","","1","false","false","false","false","false","false","[0,1]","110","011","0","","","","","","",""
"","","","","","image-keyboard-response","171","448889","0.0-146.0","62162ab583fc823e78c025e2","665500ab8938657b03fbdba8","6657934c430fdfc33377c879","836","stimuli/11100110.jpg"," ","","feedback_trial","0","","","","","","","","","","","","","","","","","","","","",""
"","","","","","image-keyboard-response","172","451619","0.0-147.0","62162ab583fc823e78c025e2","665500ab8938657b03fbdba8","6657934c430fdfc33377c879","2728","stimuli/0000010.jpg","0","","prediction_trial","0","","true","","0","true","true","true","true","true","true","[0]","000","010","1","","","","","","",""
"","","","","","image-keyboard-response","173","452010","0.0-148.0","62162ab583fc823e78c025e2","665500ab8938657b03fbdba8","6657934c430fdfc33377c879","388","stimuli/00000100.jpg"," ","","feedback_trial","0","","","","","","","","","","","","","","","","","","","","",""
"","","","","","image-keyboard-response","174","455234","0.0-149.0","62162ab583fc823e78c025e2","665500ab8938657b03fbdba8","6657934c430fdfc33377c879","3222","stimuli/2111001.jpg","1","","prediction_trial","2","","false","","2","false","true","false","false","false","false","[2,0,1]","111","001","0","","","","","","",""
"","","","","","image-keyboard-response","175","455939","0.0-150.0","62162ab583fc823e78c025e2","665500ab8938657b03fbdba8","6657934c430fdfc33377c879","704","stimuli/21110012.jpg"," ","","feedback_trial","2","","","","","","","","","","","","","","","","","","","","",""
"","","","","","image-keyboard-response","176","457798","0.0-151.0","62162ab583fc823e78c025e2","665500ab8938657b03fbdba8","6657934c430fdfc33377c879","1857","stimuli/1101110.jpg","1","","prediction_trial","1","","true","","1","false","false","true","true","false","false","[1]","101","110","1","","","","","","",""
"","","","","","image-keyboard-response","177","458443","0.0-152.0","62162ab583fc823e78c025e2","665500ab8938657b03fbdba8","6657934c430fdfc33377c879","643","stimuli/11011101.jpg"," ","","feedback_trial","1","","","","","","","","","","","","","","","","","","","","",""
"","","","","","image-keyboard-response","178","460333","0.0-153.0","62162ab583fc823e78c025e2","665500ab8938657b03fbdba8","6657934c430fdfc33377c879","1888","stimuli/2101011.jpg","1","","prediction_trial","0","","false","","2","false","false","false","false","false","false","[0,2]","101","011","0","","","","","","",""
"","","","","","image-keyboard-response","179","461384","0.0-154.0","62162ab583fc823e78c025e2","665500ab8938657b03fbdba8","6657934c430fdfc33377c879","1049","stimuli/21010110.jpg"," ","","feedback_trial","0","","","","","","","","","","","","","","","","","","","","",""
"","","","","","image-keyboard-response","180","465854","0.0-155.0","62162ab583fc823e78c025e2","665500ab8938657b03fbdba8","6657934c430fdfc33377c879","4469","stimuli/2101110.jpg","2","","prediction_trial","0","","false","","2","true","true","false","false","false","false","[0,2]","101","110","0","","","","","","",""
"","","","","","image-keyboard-response","181","466828","0.0-156.0","62162ab583fc823e78c025e2","665500ab8938657b03fbdba8","6657934c430fdfc33377c879","973","stimuli/21011100.jpg"," ","","feedback_trial","0","","","","","","","","","","","","","","","","","","","","",""
"","","","","","image-keyboard-response","182","468179","0.0-157.0","62162ab583fc823e78c025e2","665500ab8938657b03fbdba8","6657934c430fdfc33377c879","1349","stimuli/2100100.jpg","2","","prediction_trial","2","","true","","2","true","true","true","true","true","true","[2]","100","100","1","","","","","","",""
"","","","","","image-keyboard-response","183","468659","0.0-158.0","62162ab583fc823e78c025e2","665500ab8938657b03fbdba8","6657934c430fdfc33377c879","478","stimuli/21001002.jpg"," ","","feedback_trial","2","","","","","","","","","","","","","","","","","","","","",""
"","","","","","image-keyboard-response","184","470713","0.0-159.0","62162ab583fc823e78c025e2","665500ab8938657b03fbdba8","6657934c430fdfc33377c879","2053","stimuli/0011111.jpg","0","","prediction_trial","0","","true","","0","false","false","true","true","false","false","[0]","011","111","1","","","","","","",""
"","","","","","image-keyboard-response","185","471509","0.0-160.0","62162ab583fc823e78c025e2","665500ab8938657b03fbdba8","6657934c430fdfc33377c879","792","stimuli/00111110.jpg"," ","","feedback_trial","0","","","","","","","","","","","","","","","","","","","","",""
"","","","","","image-keyboard-response","186","472513","0.0-161.0","62162ab583fc823e78c025e2","665500ab8938657b03fbdba8","6657934c430fdfc33377c879","1003","stimuli/0011000.jpg","0","","prediction_trial","0","","true","","0","true","true","true","true","true","true","[0]","011","000","1","","","","","","",""
"","","","","","image-keyboard-response","187","473009","0.0-162.0","62162ab583fc823e78c025e2","665500ab8938657b03fbdba8","6657934c430fdfc33377c879","494","stimuli/00110000.jpg"," ","","feedback_trial","0","","","","","","","","","","","","","","","","","","","","",""
"","","","","","image-keyboard-response","188","476837","0.0-163.0","62162ab583fc823e78c025e2","665500ab8938657b03fbdba8","6657934c430fdfc33377c879","3826","stimuli/2011110.jpg","2","","prediction_trial","1","","false","","2","true","true","false","false","false","false","[2,1]","011","110","0","","","","","","",""
"","","","","","image-keyboard-response","189","477959","0.0-164.0","62162ab583fc823e78c025e2","665500ab8938657b03fbdba8","6657934c430fdfc33377c879","1120","stimuli/20111101.jpg"," ","","feedback_trial","2","","","","","","","","","","","","","","","","","","","","",""
"","","","","","image-keyboard-response","190","480470","0.0-165.0","62162ab583fc823e78c025e2","665500ab8938657b03fbdba8","6657934c430fdfc33377c879","2509","stimuli/0100111.jpg","2","","prediction_trial","0","","false","","0","false","false","false","true","false","false","[0]","100","111","0","","","","","","",""
"","","","","","image-keyboard-response","191","481334","0.0-166.0","62162ab583fc823e78c025e2","665500ab8938657b03fbdba8","6657934c430fdfc33377c879","862","stimuli/01001110.jpg"," ","","feedback_trial","0","","","","","","","","","","","","","","","","","","","","",""
"","","","","","image-keyboard-response","192","483885","0.0-167.0","62162ab583fc823e78c025e2","665500ab8938657b03fbdba8","6657934c430fdfc33377c879","2549","stimuli/1010110.jpg","1","","prediction_trial","1","","true","","1","false","false","false","true","false","false","[1]","010","110","1","","","","","","",""
"","","","","","image-keyboard-response","193","484590","0.0-168.0","62162ab583fc823e78c025e2","665500ab8938657b03fbdba8","6657934c430fdfc33377c879","704","stimuli/10101101.jpg"," ","","feedback_trial","1","","","","","","","","","","","","","","","","","","","","",""
"","","","","","image-keyboard-response","194","486719","0.0-169.0","62162ab583fc823e78c025e2","665500ab8938657b03fbdba8","6657934c430fdfc33377c879","2126","stimuli/1000111.jpg","0","","prediction_trial","1","","false","","1","false","false","true","true","false","false","[1]","000","111","0","","","","","","",""
"","","","","","image-keyboard-response","195","487514","0.0-170.0","62162ab583fc823e78c025e2","665500ab8938657b03fbdba8","6657934c430fdfc33377c879","794","stimuli/10001111.jpg"," ","","feedback_trial","1","","","","","","","","","","","","","","","","","","","","",""
"","","","","","image-keyboard-response","196","491614","0.0-171.0","62162ab583fc823e78c025e2","665500ab8938657b03fbdba8","6657934c430fdfc33377c879","4098","stimuli/0100001.jpg","0","","prediction_trial","0","","true","","0","true","true","false","true","false","true","[0]","100","001","1","","","","","","",""
"","","","","","image-keyboard-response","197","492029","0.0-172.0","62162ab583fc823e78c025e2","665500ab8938657b03fbdba8","6657934c430fdfc33377c879","412","stimuli/01000010.jpg"," ","","feedback_trial","0","","","","","","","","","","","","","","","","","","","","",""
"","","","","","image-keyboard-response","198","493093","0.0-173.0","62162ab583fc823e78c025e2","665500ab8938657b03fbdba8","6657934c430fdfc33377c879","1062","stimuli/1101001.jpg","1","","prediction_trial","1","","true","","1","true","true","true","true","true","true","[1]","101","001","1","","","","","","",""
"","","","","","image-keyboard-response","199","493665","0.0-174.0","62162ab583fc823e78c025e2","665500ab8938657b03fbdba8","6657934c430fdfc33377c879","569","stimuli/11010011.jpg"," ","","feedback_trial","1","","","","","","","","","","","","","","","","","","","","",""
"","","","","","image-keyboard-response","200","496290","0.0-175.0","62162ab583fc823e78c025e2","665500ab8938657b03fbdba8","6657934c430fdfc33377c879","2624","stimuli/0110110.jpg","1","","prediction_trial","0","","false","","0","false","false","false","false","false","false","[1,0]","110","110","0","","","","","","",""
"","","","","","image-keyboard-response","201","497113","0.0-176.0","62162ab583fc823e78c025e2","665500ab8938657b03fbdba8","6657934c430fdfc33377c879","822","stimuli/01101100.jpg"," ","","feedback_trial","1","","","","","","","","","","","","","","","","","","","","",""
"","","","","","image-keyboard-response","202","498463","0.0-177.0","62162ab583fc823e78c025e2","665500ab8938657b03fbdba8","6657934c430fdfc33377c879","1348","stimuli/0110111.jpg","0","","prediction_trial","0","","true","","0","false","false","false","false","false","false","[0,1]","110","111","1","","","","","","",""
"","","","","","image-keyboard-response","203","499304","0.0-178.0","62162ab583fc823e78c025e2","665500ab8938657b03fbdba8","6657934c430fdfc33377c879","839","stimuli/01101110.jpg"," ","","feedback_trial","0","","","","","","","","","","","","","","","","","","","","",""
"","","","","","image-keyboard-response","204","501343","0.0-179.0","62162ab583fc823e78c025e2","665500ab8938657b03fbdba8","6657934c430fdfc33377c879","2038","stimuli/2111101.jpg","2","","prediction_trial","0","","false","","2","false","false","false","false","false","false","[0,1,2]","111","101","0","","","","","","",""
"","","","","","image-keyboard-response","205","502079","0.0-180.0","62162ab583fc823e78c025e2","665500ab8938657b03fbdba8","6657934c430fdfc33377c879","734","stimuli/21111010.jpg"," ","","feedback_trial","0","","","","","","","","","","","","","","","","","","","","",""
"","","","","","image-keyboard-response","206","503938","0.0-181.0","62162ab583fc823e78c025e2","665500ab8938657b03fbdba8","6657934c430fdfc33377c879","1858","stimuli/0111010.jpg","0","","prediction_trial","1","","false","","0","true","true","false","false","false","false","[0,2,1]","111","010","0","","","","","","",""
"","","","","","image-keyboard-response","207","504989","0.0-182.0","62162ab583fc823e78c025e2","665500ab8938657b03fbdba8","6657934c430fdfc33377c879","1048","stimuli/01110101.jpg"," ","","feedback_trial","0","","","","","","","","","","","","","","","","","","","","",""
"","","","","","image-keyboard-response","208","511708","0.0-183.0","62162ab583fc823e78c025e2","665500ab8938657b03fbdba8","6657934c430fdfc33377c879","6717","stimuli/0010000.jpg","0","","prediction_trial","0","","true","","0","true","true","true","true","true","true","[0]","010","000","1","","","","","","",""
"","","","","","image-keyboard-response","209","512024","0.0-184.0","62162ab583fc823e78c025e2","665500ab8938657b03fbdba8","6657934c430fdfc33377c879","314","stimuli/00100000.jpg"," ","","feedback_trial","0","","","","","","","","","","","","","","","","","","","","",""
"","","","","","image-keyboard-response","210","513299","0.0-185.0","62162ab583fc823e78c025e2","665500ab8938657b03fbdba8","6657934c430fdfc33377c879","1272","stimuli/2100000.jpg","2","","prediction_trial","2","","true","","2","true","true","true","true","true","true","[2]","100","000","1","","","","","","",""
"","","","","","image-keyboard-response","211","513734","0.0-186.0","62162ab583fc823e78c025e2","665500ab8938657b03fbdba8","6657934c430fdfc33377c879","433","stimuli/21000002.jpg"," ","","feedback_trial","2","","","","","","","","","","","","","","","","","","","","",""
"","","","","","image-keyboard-response","212","516403","0.0-187.0","62162ab583fc823e78c025e2","665500ab8938657b03fbdba8","6657934c430fdfc33377c879","2667","stimuli/1100010.jpg","1","","prediction_trial","1","","true","","1","false","true","true","true","false","true","[1]","100","010","1","","","","","","",""
"","","","","","image-keyboard-response","213","516808","0.0-188.0","62162ab583fc823e78c025e2","665500ab8938657b03fbdba8","6657934c430fdfc33377c879","404","stimuli/11000101.jpg"," ","","feedback_trial","1","","","","","","","","","","","","","","","","","","","","",""
"","","","","","image-keyboard-response","214","520533","0.0-189.0","62162ab583fc823e78c025e2","665500ab8938657b03fbdba8","6657934c430fdfc33377c879","3723","stimuli/0111110.jpg","0","","prediction_trial","1","","false","","0","false","false","false","false","false","false","[2,0,1]","111","110","0","","","","","","",""
"","","","","","image-keyboard-response","215","521264","0.0-190.0","62162ab583fc823e78c025e2","665500ab8938657b03fbdba8","6657934c430fdfc33377c879","730","stimuli/01111101.jpg"," ","","feedback_trial","2","","","","","","","","","","","","","","","","","","","","",""
"","","","","","image-keyboard-response","216","525001","0.0-191.0","62162ab583fc823e78c025e2","665500ab8938657b03fbdba8","6657934c430fdfc33377c879","3735","stimuli/1001011.jpg","1","","prediction_trial","1","","true","","1","false","false","true","true","false","false","[1]","001","011","1","","","","","","",""
"","","","","","image-keyboard-response","217","525689","0.0-192.0","62162ab583fc823e78c025e2","665500ab8938657b03fbdba8","6657934c430fdfc33377c879","687","stimuli/10010111.jpg"," ","","feedback_trial","1","","","","","","","","","","","","","","","","","","","","",""
"","","","","","image-keyboard-response","218","527309","0.0-193.0","62162ab583fc823e78c025e2","665500ab8938657b03fbdba8","6657934c430fdfc33377c879","1617","stimuli/0011001.jpg","0","","prediction_trial","0","","true","","0","true","true","true","true","true","true","[0]","011","001","1","","","","","","",""
"","","","","","image-keyboard-response","219","527669","0.0-194.0","62162ab583fc823e78c025e2","665500ab8938657b03fbdba8","6657934c430fdfc33377c879","359","stimuli/00110010.jpg"," ","","feedback_trial","0","","","","","","","","","","","","","","","","","","","","",""
"","","","","","image-keyboard-response","220","530317","0.0-195.0","62162ab583fc823e78c025e2","665500ab8938657b03fbdba8","6657934c430fdfc33377c879","2646","stimuli/0100101.jpg","2","","prediction_trial","0","","false","","0","false","false","false","true","false","false","[0]","100","101","0","","","","","","",""
"","","","","","image-keyboard-response","221","531090","0.0-196.0","62162ab583fc823e78c025e2","665500ab8938657b03fbdba8","6657934c430fdfc33377c879","771","stimuli/01001010.jpg"," ","","feedback_trial","0","","","","","","","","","","","","","","","","","","","","",""
"","","","","","image-keyboard-response","222","534137","0.0-197.0","62162ab583fc823e78c025e2","665500ab8938657b03fbdba8","6657934c430fdfc33377c879","3045","stimuli/2110011.jpg","1","","prediction_trial","2","","false","","2","false","false","true","true","false","false","[2]","110","011","0","","","","","","",""
"","","","","","image-keyboard-response","223","535066","0.0-198.0","62162ab583fc823e78c025e2","665500ab8938657b03fbdba8","6657934c430fdfc33377c879","927","stimuli/21100112.jpg"," ","","feedback_trial","2","","","","","","","","","","","","","","","","","","","","",""
"","","","","","image-keyboard-response","224","537669","0.0-199.0","62162ab583fc823e78c025e2","665500ab8938657b03fbdba8","6657934c430fdfc33377c879","2601","stimuli/2111110.jpg","0","","prediction_trial","1","","false","","2","true","true","false","false","false","false","[1,0,2]","111","110","0","","","","","","",""
"","","","","","image-keyboard-response","225","538439","0.0-200.0","62162ab583fc823e78c025e2","665500ab8938657b03fbdba8","6657934c430fdfc33377c879","769","stimuli/21111101.jpg"," ","","feedback_trial","1","","","","","","","","","","","","","","","","","","","","",""
"","","","","","image-keyboard-response","226","540090","0.0-201.0","62162ab583fc823e78c025e2","665500ab8938657b03fbdba8","6657934c430fdfc33377c879","1648","stimuli/2011011.jpg","2","","prediction_trial","1","","false","","2","false","false","false","false","false","false","[2,1]","011","011","0","","","","","","",""
"","","","","","image-keyboard-response","227","541049","0.0-202.0","62162ab583fc823e78c025e2","665500ab8938657b03fbdba8","6657934c430fdfc33377c879","957","stimuli/20110111.jpg"," ","","feedback_trial","2","","","","","","","","","","","","","","","","","","","","",""
"","","","","","image-keyboard-response","228","542369","0.0-203.0","62162ab583fc823e78c025e2","665500ab8938657b03fbdba8","6657934c430fdfc33377c879","1318","stimuli/0010010.jpg","0","","prediction_trial","0","","true","","0","true","true","true","true","true","true","[0]","010","010","1","","","","","","",""
"","","","","","image-keyboard-response","229","542849","0.0-204.0","62162ab583fc823e78c025e2","665500ab8938657b03fbdba8","6657934c430fdfc33377c879","478","stimuli/00100100.jpg"," ","","feedback_trial","0","","","","","","","","","","","","","","","","","","","","",""
"","","","","","image-keyboard-response","230","546392","0.0-205.0","62162ab583fc823e78c025e2","665500ab8938657b03fbdba8","6657934c430fdfc33377c879","3542","stimuli/2001111.jpg","2","","prediction_trial","2","","true","","2","false","false","false","true","false","false","[2]","001","111","1","","","","","","",""
"","","","","","image-keyboard-response","231","547275","0.0-206.0","62162ab583fc823e78c025e2","665500ab8938657b03fbdba8","6657934c430fdfc33377c879","881","stimuli/20011112.jpg"," ","","feedback_trial","2","","","","","","","","","","","","","","","","","","","","",""
"","","","","","image-keyboard-response","232","549881","0.0-207.0","62162ab583fc823e78c025e2","665500ab8938657b03fbdba8","6657934c430fdfc33377c879","2604","stimuli/0001101.jpg","2","","prediction_trial","0","","false","","0","false","false","true","true","false","false","[0]","001","101","0","","","","","","",""
"","","","","","image-keyboard-response","233","550755","0.0-208.0","62162ab583fc823e78c025e2","665500ab8938657b03fbdba8","6657934c430fdfc33377c879","872","stimuli/00011010.jpg"," ","","feedback_trial","0","","","","","","","","","","","","","","","","","","","","",""
"","","","","","image-keyboard-response","234","553936","0.0-209.0","62162ab583fc823e78c025e2","665500ab8938657b03fbdba8","6657934c430fdfc33377c879","3178","stimuli/2100101.jpg","2","","prediction_trial","2","","true","","2","false","false","true","true","false","false","[2]","100","101","1","","","","","","",""
"","","","","","image-keyboard-response","235","554669","0.0-210.0","62162ab583fc823e78c025e2","665500ab8938657b03fbdba8","6657934c430fdfc33377c879","731","stimuli/21001012.jpg"," ","","feedback_trial","2","","","","","","","","","","","","","","","","","","","","",""
"","","","","","image-keyboard-response","236","557954","0.0-211.0","62162ab583fc823e78c025e2","665500ab8938657b03fbdba8","6657934c430fdfc33377c879","3283","stimuli/2111100.jpg","2","","prediction_trial","1","","false","","2","true","true","false","false","false","false","[0,2,1]","111","100","0","","","","","","",""
"","","","","","image-keyboard-response","237","558585","0.0-212.0","62162ab583fc823e78c025e2","665500ab8938657b03fbdba8","6657934c430fdfc33377c879","630","stimuli/21111001.jpg"," ","","feedback_trial","0","","","","","","","","","","","","","","","","","","","","",""
"","","","","","image-keyboard-response","238","561987","0.0-213.0","62162ab583fc823e78c025e2","665500ab8938657b03fbdba8","6657934c430fdfc33377c879","3400","stimuli/0101001.jpg","0","","prediction_trial","2","","false","","0","true","true","false","false","false","false","[0,2]","101","001","0","","","","","","",""
"","","","","","image-keyboard-response","239","562665","0.0-214.0","62162ab583fc823e78c025e2","665500ab8938657b03fbdba8","6657934c430fdfc33377c879","677","stimuli/01010012.jpg"," ","","feedback_trial","0","","","","","","","","","","","","","","","","","","","","",""
"","","","","","image-keyboard-response","240","567815","0.0-215.0","62162ab583fc823e78c025e2","665500ab8938657b03fbdba8","6657934c430fdfc33377c879","5148","stimuli/1101000.jpg","1","","prediction_trial","1","","true","","1","true","true","true","true","true","true","[1]","101","000","1","","","","","","",""
"","","","","","image-keyboard-response","241","569745","0.0-216.0","62162ab583fc823e78c025e2","665500ab8938657b03fbdba8","6657934c430fdfc33377c879","1928","stimuli/11010001.jpg"," ","","feedback_trial","1","","","","","","","","","","","","","","","","","","","","",""
"","","","","","image-keyboard-response","242","572703","0.0-217.0","62162ab583fc823e78c025e2","665500ab8938657b03fbdba8","6657934c430fdfc33377c879","2957","stimuli/1111001.jpg","1","","prediction_trial","1","","true","","1","true","true","false","false","false","false","[2,1,0]","111","001","1","","","","","","",""
"","","","","","image-keyboard-response","243","573436","0.0-218.0","62162ab583fc823e78c025e2","665500ab8938657b03fbdba8","6657934c430fdfc33377c879","731","stimuli/11110011.jpg"," ","","feedback_trial","2","","","","","","","","","","","","","","","","","","","","",""
"","","","","","image-keyboard-response","244","575985","0.0-219.0","62162ab583fc823e78c025e2","665500ab8938657b03fbdba8","6657934c430fdfc33377c879","2547","stimuli/2111000.jpg","2","","prediction_trial","0","","false","","2","true","true","false","false","false","false","[1,2,0]","111","000","0","","","","","","",""
"","","","","","image-keyboard-response","245","576692","0.0-220.0","62162ab583fc823e78c025e2","665500ab8938657b03fbdba8","6657934c430fdfc33377c879","706","stimuli/21110000.jpg"," ","","feedback_trial","1","","","","","","","","","","","","","","","","","","","","",""
"","","","","","image-keyboard-response","246","578477","0.0-221.0","62162ab583fc823e78c025e2","665500ab8938657b03fbdba8","6657934c430fdfc33377c879","1782","stimuli/0111000.jpg","2","","prediction_trial","2","","true","","0","true","true","false","false","false","false","[2,0,1]","111","000","1","","","","","","",""
"","","","","","image-keyboard-response","247","579450","0.0-222.0","62162ab583fc823e78c025e2","665500ab8938657b03fbdba8","6657934c430fdfc33377c879","972","stimuli/01110002.jpg"," ","","feedback_trial","2","","","","","","","","","","","","","","","","","","","","",""
"","","","","","image-keyboard-response","248","582235","0.0-223.0","62162ab583fc823e78c025e2","665500ab8938657b03fbdba8","6657934c430fdfc33377c879","2783","stimuli/1011111.jpg","0","","prediction_trial","2","","false","","1","false","false","false","false","false","false","[1,2]","011","111","0","","","","","","",""
"","","","","","image-keyboard-response","249","583067","0.0-224.0","62162ab583fc823e78c025e2","665500ab8938657b03fbdba8","6657934c430fdfc33377c879","830","stimuli/10111112.jpg"," ","","feedback_trial","1","","","","","","","","","","","","","","","","","","","","",""
"","","","","","image-keyboard-response","250","584836","0.0-225.0","62162ab583fc823e78c025e2","665500ab8938657b03fbdba8","6657934c430fdfc33377c879","1767","stimuli/2111010.jpg","2","","prediction_trial","1","","false","","2","true","true","false","false","false","false","[0,1,2]","111","010","0","","","","","","",""
"","","","","","image-keyboard-response","251","586592","0.0-226.0","62162ab583fc823e78c025e2","665500ab8938657b03fbdba8","6657934c430fdfc33377c879","1755","stimuli/21110101.jpg"," ","","feedback_trial","0","","","","","","","","","","","","","","","","","","","","",""
"","","","","","image-keyboard-response","252","589200","0.0-227.0","62162ab583fc823e78c025e2","665500ab8938657b03fbdba8","6657934c430fdfc33377c879","2607","stimuli/0111001.jpg","0","","prediction_trial","2","","false","","0","true","true","false","false","false","false","[1,0,2]","111","001","0","","","","","","",""
"","","","","","image-keyboard-response","253","590057","0.0-228.0","62162ab583fc823e78c025e2","665500ab8938657b03fbdba8","6657934c430fdfc33377c879","854","stimuli/01110012.jpg"," ","","feedback_trial","1","","","","","","","","","","","","","","","","","","","","",""
"","","","","","image-keyboard-response","254","592586","0.0-229.0","62162ab583fc823e78c025e2","665500ab8938657b03fbdba8","6657934c430fdfc33377c879","2527","stimuli/0010111.jpg","1","","prediction_trial","0","","false","","0","false","false","true","true","false","false","[0]","010","111","0","","","","","","",""
"","","","","","image-keyboard-response","255","593431","0.0-230.0","62162ab583fc823e78c025e2","665500ab8938657b03fbdba8","6657934c430fdfc33377c879","843","stimuli/00101110.jpg"," ","","feedback_trial","0","","","","","","","","","","","","","","","","","","","","",""
"","","","","","image-keyboard-response","256","596220","0.0-231.0","62162ab583fc823e78c025e2","665500ab8938657b03fbdba8","6657934c430fdfc33377c879","2787","stimuli/0010101.jpg","2","","prediction_trial","0","","false","","0","false","false","true","true","false","false","[0]","010","101","0","","","","","","",""
"","","","","","image-keyboard-response","257","596986","0.0-232.0","62162ab583fc823e78c025e2","665500ab8938657b03fbdba8","6657934c430fdfc33377c879","763","stimuli/00101010.jpg"," ","","feedback_trial","0","","","","","","","","","","","","","","","","","","","","",""
"","","","","","image-keyboard-response","258","598951","0.0-233.0","62162ab583fc823e78c025e2","665500ab8938657b03fbdba8","6657934c430fdfc33377c879","1963","stimuli/2001000.jpg","2","","prediction_trial","2","","true","","2","true","true","false","true","false","true","[2]","001","000","1","","","","","","",""
"","","","","","image-keyboard-response","259","599446","0.0-234.0","62162ab583fc823e78c025e2","665500ab8938657b03fbdba8","6657934c430fdfc33377c879","493","stimuli/20010002.jpg"," ","","feedback_trial","2","","","","","","","","","","","","","","","","","","","","",""
"","","","","","image-keyboard-response","260","602033","0.0-235.0","62162ab583fc823e78c025e2","665500ab8938657b03fbdba8","6657934c430fdfc33377c879","2586","stimuli/1101011.jpg","1","","prediction_trial","1","","true","","1","false","false","true","true","false","false","[1]","101","011","1","","","","","","",""
"","","","","","image-keyboard-response","261","603096","0.0-236.0","62162ab583fc823e78c025e2","665500ab8938657b03fbdba8","6657934c430fdfc33377c879","1061","stimuli/11010111.jpg"," ","","feedback_trial","1","","","","","","","","","","","","","","","","","","","","",""
"","","","","","image-keyboard-response","262","605343","0.0-237.0","62162ab583fc823e78c025e2","665500ab8938657b03fbdba8","6657934c430fdfc33377c879","2246","stimuli/1110110.jpg","0","","prediction_trial","1","","false","","1","false","false","false","false","false","false","[1,0]","110","110","0","","","","","","",""
"","","","","","image-keyboard-response","263","606031","0.0-238.0","62162ab583fc823e78c025e2","665500ab8938657b03fbdba8","6657934c430fdfc33377c879","686","stimuli/11101101.jpg"," ","","feedback_trial","1","","","","","","","","","","","","","","","","","","","","",""
"","","","","","image-keyboard-response","264","607036","0.0-239.0","62162ab583fc823e78c025e2","665500ab8938657b03fbdba8","6657934c430fdfc33377c879","1003","stimuli/1100100.jpg","1","","prediction_trial","1","","true","","1","true","true","true","true","true","true","[1]","100","100","1","","","","","","",""
"","","","","","image-keyboard-response","265","607621","0.0-240.0","62162ab583fc823e78c025e2","665500ab8938657b03fbdba8","6657934c430fdfc33377c879","582","stimuli/11001001.jpg"," ","","feedback_trial","1","","","","","","","","","","","","","","","","","","","","",""
"","","","","","image-keyboard-response","266","610936","0.0-241.0","62162ab583fc823e78c025e2","665500ab8938657b03fbdba8","6657934c430fdfc33377c879","3313","stimuli/2001101.jpg","2","","prediction_trial","2","","true","","2","false","false","false","true","false","false","[2]","001","101","1","","","","","","",""
"","","","","","image-keyboard-response","267","611671","0.0-242.0","62162ab583fc823e78c025e2","665500ab8938657b03fbdba8","6657934c430fdfc33377c879","733","stimuli/20011012.jpg"," ","","feedback_trial","2","","","","","","","","","","","","","","","","","","","","",""
"","","","","","image-keyboard-response","268","613321","0.0-243.0","62162ab583fc823e78c025e2","665500ab8938657b03fbdba8","6657934c430fdfc33377c879","1648","stimuli/2101111.jpg","2","","prediction_trial","2","","true","","2","false","false","false","false","false","false","[0,2]","101","111","1","","","","","","",""
"","","","","","image-keyboard-response","269","614310","0.0-244.0","62162ab583fc823e78c025e2","665500ab8938657b03fbdba8","6657934c430fdfc33377c879","987","stimuli/21011112.jpg"," ","","feedback_trial","0","","","","","","","","","","","","","","","","","","","","",""
"","","","","","image-keyboard-response","270","615765","0.0-245.0","62162ab583fc823e78c025e2","665500ab8938657b03fbdba8","6657934c430fdfc33377c879","1453","stimuli/1010010.jpg","1","","prediction_trial","1","","true","","1","false","true","false","true","false","true","[1]","010","010","1","","","","","","",""
"","","","","","image-keyboard-response","271","616260","0.0-246.0","62162ab583fc823e78c025e2","665500ab8938657b03fbdba8","6657934c430fdfc33377c879","494","stimuli/10100101.jpg"," ","","feedback_trial","1","","","","","","","","","","","","","","","","","","","","",""
"","","","","","image-keyboard-response","272","618793","0.0-247.0","62162ab583fc823e78c025e2","665500ab8938657b03fbdba8","6657934c430fdfc33377c879","2532","stimuli/1101010.jpg","0","","prediction_trial","1","","false","","1","false","true","true","true","false","true","[1]","101","010","0","","","","","","",""
"","","","","","image-keyboard-response","273","619440","0.0-248.0","62162ab583fc823e78c025e2","665500ab8938657b03fbdba8","6657934c430fdfc33377c879","646","stimuli/11010101.jpg"," ","","feedback_trial","1","","","","","","","","","","","","","","","","","","","","",""
"","","","","","image-keyboard-response","274","621510","0.0-249.0","62162ab583fc823e78c025e2","665500ab8938657b03fbdba8","6657934c430fdfc33377c879","2068","stimuli/1111111.jpg","2","","prediction_trial","2","","true","","1","false","false","false","false","false","false","[0,2,1]","111","111","1","","","","","","",""
"","","","","","image-keyboard-response","275","622335","0.0-250.0","62162ab583fc823e78c025e2","665500ab8938657b03fbdba8","6657934c430fdfc33377c879","823","stimuli/11111112.jpg"," ","","feedback_trial","0","","","","","","","","","","","","","","","","","","","","",""
"","","","","","image-keyboard-response","276","623807","0.0-251.0","62162ab583fc823e78c025e2","665500ab8938657b03fbdba8","6657934c430fdfc33377c879","1470","stimuli/1111011.jpg","2","","prediction_trial","1","","false","","1","false","false","false","false","false","false","[0,1,2]","111","011","0","","","","","","",""
"","","","","","image-keyboard-response","277","624659","0.0-252.0","62162ab583fc823e78c025e2","665500ab8938657b03fbdba8","6657934c430fdfc33377c879","850","stimuli/11110111.jpg"," ","","feedback_trial","0","","","","","","","","","","","","","","","","","","","","",""
"","","","","","image-keyboard-response","278","627319","0.0-253.0","62162ab583fc823e78c025e2","665500ab8938657b03fbdba8","6657934c430fdfc33377c879","2658","stimuli/1111010.jpg","2","","prediction_trial","1","","false","","1","false","true","false","false","false","false","[1,2,0]","111","010","0","","","","","","",""
"","","","","","image-keyboard-response","279","628035","0.0-254.0","62162ab583fc823e78c025e2","665500ab8938657b03fbdba8","6657934c430fdfc33377c879","715","stimuli/11110101.jpg"," ","","feedback_trial","1","","","","","","","","","","","","","","","","","","","","",""
"","","","","","image-keyboard-response","280","630594","0.0-255.0","62162ab583fc823e78c025e2","665500ab8938657b03fbdba8","6657934c430fdfc33377c879","2556","stimuli/0011100.jpg","0","","prediction_trial","0","","true","","0","false","true","true","true","false","true","[0]","011","100","1","","","","","","",""
"","","","","","image-keyboard-response","281","631065","0.0-256.0","62162ab583fc823e78c025e2","665500ab8938657b03fbdba8","6657934c430fdfc33377c879","468","stimuli/00111000.jpg"," ","","feedback_trial","0","","","","","","","","","","","","","","","","","","","","",""
"","","","","","image-keyboard-response","282","634051","0.0-257.0","62162ab583fc823e78c025e2","665500ab8938657b03fbdba8","6657934c430fdfc33377c879","2984","stimuli/0100100.jpg","0","","prediction_trial","0","","true","","0","false","true","false","true","false","true","[0]","100","100","1","","","","","","",""
"","","","","","image-keyboard-response","283","634200","0.0-258.0","62162ab583fc823e78c025e2","665500ab8938657b03fbdba8","6657934c430fdfc33377c879","147","stimuli/01001000.jpg"," ","","feedback_trial","0","","","","","","","","","","","","","","","","","","","","",""
"","","","","","image-keyboard-response","284","637368","0.0-259.0","62162ab583fc823e78c025e2","665500ab8938657b03fbdba8","6657934c430fdfc33377c879","3167","stimuli/0110010.jpg","0","","prediction_trial","1","","false","","0","true","true","false","false","false","false","[0,1]","110","010","0","","","","","","",""
"","","","","","image-keyboard-response","285","637951","0.0-260.0","62162ab583fc823e78c025e2","665500ab8938657b03fbdba8","6657934c430fdfc33377c879","581","stimuli/01100101.jpg"," ","","feedback_trial","0","","","","","","","","","","","","","","","","","","","","",""
"","","","","","image-keyboard-response","286","639119","0.0-261.0","62162ab583fc823e78c025e2","665500ab8938657b03fbdba8","6657934c430fdfc33377c879","1166","stimuli/1100101.jpg","1","","prediction_trial","1","","true","","1","true","true","true","true","true","true","[1]","100","101","1","","","","","","",""
"","","","","","image-keyboard-response","287","639660","0.0-262.0","62162ab583fc823e78c025e2","665500ab8938657b03fbdba8","6657934c430fdfc33377c879","539","stimuli/11001011.jpg"," ","","feedback_trial","1","","","","","","","","","","","","","","","","","","","","",""
"","","","","","image-keyboard-response","288","641324","0.0-263.0","62162ab583fc823e78c025e2","665500ab8938657b03fbdba8","6657934c430fdfc33377c879","1663","stimuli/0001110.jpg","1","","prediction_trial","0","","false","","0","false","false","true","true","false","false","[0]","001","110","0","","","","","","",""
"","","","","","image-keyboard-response","289","642045","0.0-264.0","62162ab583fc823e78c025e2","665500ab8938657b03fbdba8","6657934c430fdfc33377c879","719","stimuli/00011100.jpg"," ","","feedback_trial","0","","","","","","","","","","","","","","","","","","","","",""
"","","","","","image-keyboard-response","290","644188","0.0-265.0","62162ab583fc823e78c025e2","665500ab8938657b03fbdba8","6657934c430fdfc33377c879","2142","stimuli/1011110.jpg","1","","prediction_trial","2","","false","","1","false","false","false","false","false","false","[2,1]","011","110","0","","","","","","",""
"","","","","","image-keyboard-response","291","644938","0.0-266.0","62162ab583fc823e78c025e2","665500ab8938657b03fbdba8","6657934c430fdfc33377c879","749","stimuli/10111102.jpg"," ","","feedback_trial","2","","","","","","","","","","","","","","","","","","","","",""
"","","","","","image-keyboard-response","292","645974","0.0-267.0","62162ab583fc823e78c025e2","665500ab8938657b03fbdba8","6657934c430fdfc33377c879","1035","stimuli/1000001.jpg","1","","prediction_trial","1","","true","","1","true","true","true","true","true","true","[1]","000","001","1","","","","","","",""
"","","","","","image-keyboard-response","293","646424","0.0-268.0","62162ab583fc823e78c025e2","665500ab8938657b03fbdba8","6657934c430fdfc33377c879","449","stimuli/10000011.jpg"," ","","feedback_trial","1","","","","","","","","","","","","","","","","","","","","",""
"","","","","","image-keyboard-response","294","647654","0.0-269.0","62162ab583fc823e78c025e2","665500ab8938657b03fbdba8","6657934c430fdfc33377c879","1229","stimuli/2100110.jpg","2","","prediction_trial","2","","true","","2","true","true","true","true","true","true","[2]","100","110","1","","","","","","",""
"","","","","","image-keyboard-response","295","648135","0.0-270.0","62162ab583fc823e78c025e2","665500ab8938657b03fbdba8","6657934c430fdfc33377c879","479","stimuli/21001102.jpg"," ","","feedback_trial","2","","","","","","","","","","","","","","","","","","","","",""
"","","","","","image-keyboard-response","296","650866","0.0-271.0","62162ab583fc823e78c025e2","665500ab8938657b03fbdba8","6657934c430fdfc33377c879","2729","stimuli/2001010.jpg","2","","prediction_trial","2","","true","","2","true","true","false","true","false","true","[2]","001","010","1","","","","","","",""
"","","","","","image-keyboard-response","297","651345","0.0-272.0","62162ab583fc823e78c025e2","665500ab8938657b03fbdba8","6657934c430fdfc33377c879","477","stimuli/20010102.jpg"," ","","feedback_trial","2","","","","","","","","","","","","","","","","","","","","",""
"","","","","","image-keyboard-response","298","653340","0.0-273.0","62162ab583fc823e78c025e2","665500ab8938657b03fbdba8","6657934c430fdfc33377c879","1993","stimuli/0000101.jpg","2","","prediction_trial","0","","false","","0","false","false","true","true","false","false","[0]","000","101","0","","","","","","",""
"","","","","","image-keyboard-response","299","654015","0.0-274.0","62162ab583fc823e78c025e2","665500ab8938657b03fbdba8","6657934c430fdfc33377c879","673","stimuli/00001010.jpg"," ","","feedback_trial","0","","","","","","","","","","","","","","","","","","","","",""
"","","","","","image-keyboard-response","300","657163","0.0-275.0","62162ab583fc823e78c025e2","665500ab8938657b03fbdba8","6657934c430fdfc33377c879","3146","stimuli/1001111.jpg","1","","prediction_trial","1","","true","","1","false","false","true","true","false","false","[1]","001","111","1","","","","","","",""
"","","","","","image-keyboard-response","301","657855","0.0-276.0","62162ab583fc823e78c025e2","665500ab8938657b03fbdba8","6657934c430fdfc33377c879","691","stimuli/10011111.jpg"," ","","feedback_trial","1","","","","","","","","","","","","","","","","","","","","",""
"","","","","","image-keyboard-response","302","661065","0.0-277.0","62162ab583fc823e78c025e2","665500ab8938657b03fbdba8","6657934c430fdfc33377c879","3209","stimuli/0100010.jpg","0","","prediction_trial","0","","true","","0","true","true","false","true","false","true","[0]","100","010","1","","","","","","",""
"","","","","","image-keyboard-response","303","661471","0.0-278.0","62162ab583fc823e78c025e2","665500ab8938657b03fbdba8","6657934c430fdfc33377c879","403","stimuli/01000100.jpg"," ","","feedback_trial","0","","","","","","","","","","","","","","","","","","","","",""
"","","","","","image-keyboard-response","304","662895","0.0-279.0","62162ab583fc823e78c025e2","665500ab8938657b03fbdba8","6657934c430fdfc33377c879","1423","stimuli/2010100.jpg","2","","prediction_trial","2","","true","","2","true","true","true","true","true","true","[2]","010","100","1","","","","","","",""
"","","","","","image-keyboard-response","305","663256","0.0-280.0","62162ab583fc823e78c025e2","665500ab8938657b03fbdba8","6657934c430fdfc33377c879","358","stimuli/20101002.jpg"," ","","feedback_trial","2","","","","","","","","","","","","","","","","","","","","",""
"","","","","","image-keyboard-response","306","665130","0.0-281.0","62162ab583fc823e78c025e2","665500ab8938657b03fbdba8","6657934c430fdfc33377c879","1872","stimuli/2110111.jpg","1","","prediction_trial","2","","false","","2","false","false","true","true","false","false","[2]","110","111","0","","","","","","",""
"","","","","","image-keyboard-response","307","665925","0.0-282.0","62162ab583fc823e78c025e2","665500ab8938657b03fbdba8","6657934c430fdfc33377c879","793","stimuli/21101112.jpg"," ","","feedback_trial","2","","","","","","","","","","","","","","","","","","","","",""
"","","","","","image-keyboard-response","308","667215","0.0-283.0","62162ab583fc823e78c025e2","665500ab8938657b03fbdba8","6657934c430fdfc33377c879","1288","stimuli/0011010.jpg","0","","prediction_trial","0","","true","","0","true","true","true","true","true","true","[0]","011","010","1","","","","","","",""
"","","","","","image-keyboard-response","309","667620","0.0-284.0","62162ab583fc823e78c025e2","665500ab8938657b03fbdba8","6657934c430fdfc33377c879","403","stimuli/00110100.jpg"," ","","feedback_trial","0","","","","","","","","","","","","","","","","","","","","",""
"","","","","","image-keyboard-response","310","670294","0.0-285.0","62162ab583fc823e78c025e2","665500ab8938657b03fbdba8","6657934c430fdfc33377c879","2670","stimuli/2110101.jpg","0","","prediction_trial","2","","false","","2","false","false","true","true","false","false","[2]","110","101","0","","","","","","",""
"","","","","","image-keyboard-response","311","671100","0.0-286.0","62162ab583fc823e78c025e2","665500ab8938657b03fbdba8","6657934c430fdfc33377c879","805","stimuli/21101012.jpg"," ","","feedback_trial","2","","","","","","","","","","","","","","","","","","","","",""
"","","","","","image-keyboard-response","312","674252","0.0-287.0","62162ab583fc823e78c025e2","665500ab8938657b03fbdba8","6657934c430fdfc33377c879","3151","stimuli/0011110.jpg","1","","prediction_trial","0","","false","","0","false","false","true","true","false","false","[0]","011","110","0","","","","","","",""
"","","","","","image-keyboard-response","313","675419","0.0-288.0","62162ab583fc823e78c025e2","665500ab8938657b03fbdba8","6657934c430fdfc33377c879","1165","stimuli/00111100.jpg"," ","","feedback_trial","0","","","","","","","","","","","","","","","","","","","","",""
"","","","","","image-keyboard-response","314","680368","0.0-289.0","62162ab583fc823e78c025e2","665500ab8938657b03fbdba8","6657934c430fdfc33377c879","4947","stimuli/2101001.jpg","2","","prediction_trial","2","","true","","2","false","true","false","false","false","false","[0,2]","101","001","1","","","","","","",""
"","","","","","image-keyboard-response","315","681330","0.0-290.0","62162ab583fc823e78c025e2","665500ab8938657b03fbdba8","6657934c430fdfc33377c879","961","stimuli/21010012.jpg"," ","","feedback_trial","0","","","","","","","","","","","","","","","","","","","","",""
"","","","","","image-keyboard-response","316","682711","0.0-291.0","62162ab583fc823e78c025e2","665500ab8938657b03fbdba8","6657934c430fdfc33377c879","1379","stimuli/2100011.jpg","2","","prediction_trial","2","","true","","2","false","false","true","true","false","false","[2]","100","011","1","","","","","","",""
"","","","","","image-keyboard-response","317","683507","0.0-292.0","62162ab583fc823e78c025e2","665500ab8938657b03fbdba8","6657934c430fdfc33377c879","794","stimuli/21000112.jpg"," ","","feedback_trial","2","","","","","","","","","","","","","","","","","","","","",""
"","","","","","survey-html-form","318","743755","0.0-293.0","62162ab583fc823e78c025e2","665500ab8938657b03fbdba8","6657934c430fdfc33377c879","60242","","{""feedback"":""Obvious was one way, just guessing is the rest. No routine developed."",""age"":""60"",""gender"":""Female"",""other_gender"":"""",""race"":""White"",""other_race"":"""",""ethnicity"":""Non-Hispanic""}","","exit_survey","","","","","","","","","","","","","","","","Obvious was one way, just guessing is the rest. No routine developed.","60","Non-Hispanic","Female","White","0.6111111111111112","0.6111111111111112"
