"success","timeout","failed_images","failed_audio","failed_video","trial_type","trial_index","time_elapsed","internal_node_id","prolific_id","prolific_study_id","prolific_session_id","rt","stimulus","response","view_history","trial","character_choice","stimulus_dict","accuracy","correct_response","ball_pos","ego_ball_visible","ego_can_infer","alter_ball_visible","alter_can_infer","collective_ball_visible","collective_can_infer","search_locations","alter_occluders","ego_occluders","accuracy_bool","feedback","age","ethnicity","gender","race","overall_accuracy","bonus"
"true","false","[]","[]","[]","preload","0","1347","0.0-0.0","63d7edbef6596097994e730e","665500ab8938657b03fbdba8","6657930d89971b4f6cbee2f8","","","","","","","","","","","","","","","","","","","","","","","","","","",""
"true","","","","","fullscreen","1","4015","0.0-1.0","63d7edbef6596097994e730e","665500ab8938657b03fbdba8","6657930d89971b4f6cbee2f8","","","","","","","","","","","","","","","","","","","","","","","","","","",""
"","","","","","html-button-response","2","7656","0.0-2.0","63d7edbef6596097994e730e","665500ab8938657b03fbdba8","6657930d89971b4f6cbee2f8","3638","<p><b>Consent Form</b></p> <div style=""text-align:left;background-color:lightgrey; padding:20px; max-width:900px;""><p>Please consider this information carefully before deciding whether to participate in this research.</p> <p>The purpose of this research is to examine which factors influence social judgment and decision-making. You will be asked to make judgements about individuals and actions in social scenarios. We are simply interested in your judgement. The study will take less than 1 hour to complete, and you will receive less than $20 on Prolific. Your compensation and time commitment are specified in the study description. There are no anticipated risks associated with participating in this study. The effects of participating should be comparable to those you would ordinarily experience from viewing a computer monitor and using a mouse or keyboard for a similar amount of time. At the end of the study, we will provide an explanation of the questions that motivate this line of research and will describe the potential implications. </p><p> Your participation in this study is completely voluntary and you may refuse to participate or you may choose to withdraw at any time without penalty or loss of benefits to you which are otherwise entitled. Your participation in this study will remain confidential. No personally identifiable information will be associated with your data. Also, all analyses of the data will be averaged across all the participants, so your individual responses will never be specifically analyzed. </p><p> If you have questions or concerns about your participation or payment, or want to request a summary of research findings, please contact Dr. Jonathan Phillips at Jonathan.S.Phillips@dartmouth.edu. </p><p> Please save a copy of this form for your records. </p><p><b>Agreement: </b>The nature and purpose of this research have been sufficiently explained and I agree to participate in this study. I understand that I am free to withdraw at any time without incurring any penalty. Please consent by clicking the button below to continue. Otherwise, please exit the study at any time. </p>","0","","","","","","","","","","","","","","","","","","","","","","","",""
"","","","","","instructions","3","49984","0.0-3.0-0.0","63d7edbef6596097994e730e","665500ab8938657b03fbdba8","6657930d89971b4f6cbee2f8","42326","","","[{""page_index"":0,""viewing_time"":1360},{""page_index"":1,""viewing_time"":1617},{""page_index"":2,""viewing_time"":2140},{""page_index"":3,""viewing_time"":3625},{""page_index"":4,""viewing_time"":1941},{""page_index"":5,""viewing_time"":1958},{""page_index"":6,""viewing_time"":3222},{""page_index"":7,""viewing_time"":2291},{""page_index"":8,""viewing_time"":2615},{""page_index"":9,""viewing_time"":2790},{""page_index"":10,""viewing_time"":8671},{""page_index"":11,""viewing_time"":4070},{""page_index"":12,""viewing_time"":4897},{""page_index"":13,""viewing_time"":1127}]","intro","","","","","","","","","","","","","","","","","","","","","",""
"","","","","","image-keyboard-response","4","53255","0.0-3.0-1.0","63d7edbef6596097994e730e","665500ab8938657b03fbdba8","6657930d89971b4f6cbee2f8","3258","stimuli/2010110.jpg","2","","prediction_practice","2","{""filepath"":""stimuli/2010110.jpg"",""ball_pos"":2,""ego_ball_visible"":true,""ego_can_infer"":true,""alter_ball_visible"":true,""alter_can_infer"":true,""collective_ball_visible"":true,""collective_can_infer"":true,""search_locations"":[2],""alter_occluders"":""010"",""ego_occluders"":""110""}","true","","","","","","","","","","","","","","","","","","",""
"","","","","","image-keyboard-response","5","54858","0.0-3.0-2.0","63d7edbef6596097994e730e","665500ab8938657b03fbdba8","6657930d89971b4f6cbee2f8","1597","stimuli/20101102.jpg"," ","","practrice_feedback","2","","","","","","","","","","","","","","","","","","","","",""
"","","","","","image-keyboard-response","6","56160","0.0-3.0-3.0","63d7edbef6596097994e730e","665500ab8938657b03fbdba8","6657930d89971b4f6cbee2f8","1291","stimuli/0010010.jpg","0","","prediction_practice","0","{""filepath"":""stimuli/0010010.jpg"",""ball_pos"":0,""ego_ball_visible"":true,""ego_can_infer"":true,""alter_ball_visible"":true,""alter_can_infer"":true,""collective_ball_visible"":true,""collective_can_infer"":true,""search_locations"":[0],""alter_occluders"":""010"",""ego_occluders"":""010""}","true","","","","","","","","","","","","","","","","","","",""
"","","","","","image-keyboard-response","7","57017","0.0-3.0-4.0","63d7edbef6596097994e730e","665500ab8938657b03fbdba8","6657930d89971b4f6cbee2f8","847","stimuli/00100100.jpg"," ","","practrice_feedback","0","","","","","","","","","","","","","","","","","","","","",""
"","","","","","image-keyboard-response","8","57913","0.0-3.0-5.0","63d7edbef6596097994e730e","665500ab8938657b03fbdba8","6657930d89971b4f6cbee2f8","887","stimuli/1100100.jpg","1","","prediction_practice","1","{""filepath"":""stimuli/1100100.jpg"",""ball_pos"":1,""ego_ball_visible"":true,""ego_can_infer"":true,""alter_ball_visible"":true,""alter_can_infer"":true,""collective_ball_visible"":true,""collective_can_infer"":true,""search_locations"":[1],""alter_occluders"":""100"",""ego_occluders"":""100""}","true","","","","","","","","","","","","","","","","","","",""
"","","","","","image-keyboard-response","9","58368","0.0-3.0-6.0","63d7edbef6596097994e730e","665500ab8938657b03fbdba8","6657930d89971b4f6cbee2f8","444","stimuli/11001001.jpg"," ","","practrice_feedback","1","","","","","","","","","","","","","","","","","","","","",""
"","","","","","image-keyboard-response","10","59563","0.0-3.0-7.0","63d7edbef6596097994e730e","665500ab8938657b03fbdba8","6657930d89971b4f6cbee2f8","1186","stimuli/2101011.jpg","1","","prediction_practice","2","{""filepath"":""stimuli/2101011.jpg"",""ball_pos"":2,""ego_ball_visible"":false,""ego_can_infer"":false,""alter_ball_visible"":false,""alter_can_infer"":false,""collective_ball_visible"":false,""collective_can_infer"":false,""search_locations"":[2,0],""alter_occluders"":""101"",""ego_occluders"":""011""}","false","","","","","","","","","","","","","","","","","","",""
"","","","","","image-keyboard-response","11","60612","0.0-3.0-8.0","63d7edbef6596097994e730e","665500ab8938657b03fbdba8","6657930d89971b4f6cbee2f8","1040","stimuli/21010112.jpg"," ","","practrice_feedback","2","","","","","","","","","","","","","","","","","","","","",""
"","","","","","image-keyboard-response","12","61572","0.0-3.0-9.0","63d7edbef6596097994e730e","665500ab8938657b03fbdba8","6657930d89971b4f6cbee2f8","951","stimuli/2100010.jpg","2","","prediction_practice","2","{""filepath"":""stimuli/2100010.jpg"",""ball_pos"":2,""ego_ball_visible"":true,""ego_can_infer"":true,""alter_ball_visible"":true,""alter_can_infer"":true,""collective_ball_visible"":true,""collective_can_infer"":true,""search_locations"":[2],""alter_occluders"":""100"",""ego_occluders"":""010""}","true","","","","","","","","","","","","","","","","","","",""
"","","","","","image-keyboard-response","13","62063","0.0-3.0-10.0","63d7edbef6596097994e730e","665500ab8938657b03fbdba8","6657930d89971b4f6cbee2f8","481","stimuli/21000102.jpg"," ","","practrice_feedback","2","","","","","","","","","","","","","","","","","","","","",""
"","","","","","image-keyboard-response","14","63085","0.0-3.0-11.0","63d7edbef6596097994e730e","665500ab8938657b03fbdba8","6657930d89971b4f6cbee2f8","1012","stimuli/1010011.jpg","1","","prediction_practice","1","{""filepath"":""stimuli/1010011.jpg"",""ball_pos"":1,""ego_ball_visible"":false,""ego_can_infer"":false,""alter_ball_visible"":false,""alter_can_infer"":true,""collective_ball_visible"":false,""collective_can_infer"":false,""search_locations"":[1],""alter_occluders"":""010"",""ego_occluders"":""011""}","true","","","","","","","","","","","","","","","","","","",""
"","","","","","image-keyboard-response","15","64039","0.0-3.0-12.0","63d7edbef6596097994e730e","665500ab8938657b03fbdba8","6657930d89971b4f6cbee2f8","943","stimuli/10100111.jpg"," ","","practrice_feedback","1","","","","","","","","","","","","","","","","","","","","",""
"","","","","","image-keyboard-response","16","65191","0.0-3.0-13.0","63d7edbef6596097994e730e","665500ab8938657b03fbdba8","6657930d89971b4f6cbee2f8","1141","stimuli/2001101.jpg","2","","prediction_practice","2","{""filepath"":""stimuli/2001101.jpg"",""ball_pos"":2,""ego_ball_visible"":false,""ego_can_infer"":false,""alter_ball_visible"":false,""alter_can_infer"":true,""collective_ball_visible"":false,""collective_can_infer"":false,""search_locations"":[2],""alter_occluders"":""001"",""ego_occluders"":""101""}","true","","","","","","","","","","","","","","","","","","",""
"","","","","","image-keyboard-response","17","65807","0.0-3.0-14.0","63d7edbef6596097994e730e","665500ab8938657b03fbdba8","6657930d89971b4f6cbee2f8","607","stimuli/20011012.jpg"," ","","practrice_feedback","2","","","","","","","","","","","","","","","","","","","","",""
"","","","","","image-keyboard-response","18","67082","0.0-3.0-15.0","63d7edbef6596097994e730e","665500ab8938657b03fbdba8","6657930d89971b4f6cbee2f8","1266","stimuli/1110011.jpg","1","","prediction_practice","1","{""filepath"":""stimuli/1110011.jpg"",""ball_pos"":1,""ego_ball_visible"":false,""ego_can_infer"":false,""alter_ball_visible"":false,""alter_can_infer"":false,""collective_ball_visible"":false,""collective_can_infer"":false,""search_locations"":[1,0],""alter_occluders"":""110"",""ego_occluders"":""011""}","true","","","","","","","","","","","","","","","","","","",""
"","","","","","image-keyboard-response","19","67649","0.0-3.0-16.0","63d7edbef6596097994e730e","665500ab8938657b03fbdba8","6657930d89971b4f6cbee2f8","558","stimuli/11100111.jpg"," ","","practrice_feedback","1","","","","","","","","","","","","","","","","","","","","",""
"","","","","","image-keyboard-response","20","68711","0.0-3.0-17.0","63d7edbef6596097994e730e","665500ab8938657b03fbdba8","6657930d89971b4f6cbee2f8","1052","stimuli/0011100.jpg","0","","prediction_practice","0","{""filepath"":""stimuli/0011100.jpg"",""ball_pos"":0,""ego_ball_visible"":false,""ego_can_infer"":true,""alter_ball_visible"":true,""alter_can_infer"":true,""collective_ball_visible"":false,""collective_can_infer"":true,""search_locations"":[0],""alter_occluders"":""011"",""ego_occluders"":""100""}","true","","","","","","","","","","","","","","","","","","",""
"","","","","","image-keyboard-response","21","69440","0.0-3.0-18.0","63d7edbef6596097994e730e","665500ab8938657b03fbdba8","6657930d89971b4f6cbee2f8","721","stimuli/00111000.jpg"," ","","practrice_feedback","0","","","","","","","","","","","","","","","","","","","","",""
"","","","","","image-keyboard-response","22","70317","0.0-3.0-19.0","63d7edbef6596097994e730e","665500ab8938657b03fbdba8","6657930d89971b4f6cbee2f8","867","stimuli/1110010.jpg","1","","prediction_practice","1","{""filepath"":""stimuli/1110010.jpg"",""ball_pos"":1,""ego_ball_visible"":false,""ego_can_infer"":true,""alter_ball_visible"":false,""alter_can_infer"":false,""collective_ball_visible"":false,""collective_can_infer"":false,""search_locations"":[0,1],""alter_occluders"":""110"",""ego_occluders"":""010""}","true","","","","","","","","","","","","","","","","","","",""
"","","","","","image-keyboard-response","23","70791","0.0-3.0-20.0","63d7edbef6596097994e730e","665500ab8938657b03fbdba8","6657930d89971b4f6cbee2f8","464","stimuli/11100101.jpg"," ","","practrice_feedback","0","","","","","","","","","","","","","","","","","","","","",""
"","","","","","html-button-response","24","75134","0.0-3.0-21.0","63d7edbef6596097994e730e","665500ab8938657b03fbdba8","6657930d89971b4f6cbee2f8","4343","Now that you've had some practice, you'll be tested with a couple of easy trials. If you correctly predict Sam's choice, you'll move on to complete the experiment!","0","","","","","","","","","","","","","","","","","","","","","","","",""
"","","","","","image-keyboard-response","25","76481","0.0-3.0-22.0-0.0","63d7edbef6596097994e730e","665500ab8938657b03fbdba8","6657930d89971b4f6cbee2f8","1337","stimuli/0000011.jpg","arrowleft","","comprehension_quiz","","","true","arrowleft","","","","","","","","","","","","","","","","","",""
"","","","","","image-keyboard-response","26","77037","0.0-3.0-22.0-1.0","63d7edbef6596097994e730e","665500ab8938657b03fbdba8","6657930d89971b4f6cbee2f8","546","stimuli/00000110.jpg"," ","","comprehension_quiz","","","true"," ","","","","","","","","","","","","","","","","","",""
"","","","","","image-keyboard-response","27","77902","0.0-3.0-22.0-2.0","63d7edbef6596097994e730e","665500ab8938657b03fbdba8","6657930d89971b4f6cbee2f8","857","stimuli/1010010.jpg","arrowdown","","comprehension_quiz","","","true","arrowdown","","","","","","","","","","","","","","","","","",""
"","","","","","image-keyboard-response","28","78492","0.0-3.0-22.0-3.0","63d7edbef6596097994e730e","665500ab8938657b03fbdba8","6657930d89971b4f6cbee2f8","580","stimuli/10100101.jpg"," ","","comprehension_quiz","","","true"," ","","","","","","","","","","","","","","","","","",""
"","","","","","html-button-response","29","80725","0.0-4.0","63d7edbef6596097994e730e","665500ab8938657b03fbdba8","6657930d89971b4f6cbee2f8","2232","The experiment will now begin.","0","","","","","","","","","","","","","","","","","","","","","","","",""
"","","","","","image-keyboard-response","30","82671","0.0-5.0","63d7edbef6596097994e730e","665500ab8938657b03fbdba8","6657930d89971b4f6cbee2f8","1940","stimuli/1101111.jpg","0","","prediction_trial","1","","false","","1","false","false","true","true","false","false","[1]","101","111","0","","","","","","",""
"","","","","","image-keyboard-response","31","83317","0.0-6.0","63d7edbef6596097994e730e","665500ab8938657b03fbdba8","6657930d89971b4f6cbee2f8","637","stimuli/11011111.jpg"," ","","feedback_trial","1","","","","","","","","","","","","","","","","","","","","",""
"","","","","","image-keyboard-response","32","86422","0.0-7.0","63d7edbef6596097994e730e","665500ab8938657b03fbdba8","6657930d89971b4f6cbee2f8","3095","stimuli/0001110.jpg","1","","prediction_trial","0","","false","","0","false","false","true","true","false","false","[0]","001","110","0","","","","","","",""
"","","","","","image-keyboard-response","33","87387","0.0-8.0","63d7edbef6596097994e730e","665500ab8938657b03fbdba8","6657930d89971b4f6cbee2f8","955","stimuli/00011100.jpg"," ","","feedback_trial","0","","","","","","","","","","","","","","","","","","","","",""
"","","","","","image-keyboard-response","34","88171","0.0-9.0","63d7edbef6596097994e730e","665500ab8938657b03fbdba8","6657930d89971b4f6cbee2f8","774","stimuli/2110000.jpg","2","","prediction_trial","2","","true","","2","true","true","true","true","true","true","[2]","110","000","1","","","","","","",""
"","","","","","image-keyboard-response","35","88722","0.0-10.0","63d7edbef6596097994e730e","665500ab8938657b03fbdba8","6657930d89971b4f6cbee2f8","541","stimuli/21100002.jpg"," ","","feedback_trial","2","","","","","","","","","","","","","","","","","","","","",""
"","","","","","image-keyboard-response","36","90326","0.0-11.0","63d7edbef6596097994e730e","665500ab8938657b03fbdba8","6657930d89971b4f6cbee2f8","1599","stimuli/0000101.jpg","2","","prediction_trial","0","","false","","0","false","false","true","true","false","false","[0]","000","101","0","","","","","","",""
"","","","","","image-keyboard-response","37","91010","0.0-12.0","63d7edbef6596097994e730e","665500ab8938657b03fbdba8","6657930d89971b4f6cbee2f8","674","stimuli/00001010.jpg"," ","","feedback_trial","0","","","","","","","","","","","","","","","","","","","","",""
"","","","","","image-keyboard-response","38","92305","0.0-13.0","63d7edbef6596097994e730e","665500ab8938657b03fbdba8","6657930d89971b4f6cbee2f8","1284","stimuli/2111111.jpg","1","","prediction_trial","2","","false","","2","false","false","false","false","false","false","[2,0,1]","111","111","0","","","","","","",""
"","","","","","image-keyboard-response","39","92810","0.0-14.0","63d7edbef6596097994e730e","665500ab8938657b03fbdba8","6657930d89971b4f6cbee2f8","495","stimuli/21111112.jpg"," ","","feedback_trial","2","","","","","","","","","","","","","","","","","","","","",""
"","","","","","image-keyboard-response","40","93868","0.0-15.0","63d7edbef6596097994e730e","665500ab8938657b03fbdba8","6657930d89971b4f6cbee2f8","1049","stimuli/0011101.jpg","2","","prediction_trial","0","","false","","0","false","false","true","true","false","false","[0]","011","101","0","","","","","","",""
"","","","","","image-keyboard-response","41","95022","0.0-16.0","63d7edbef6596097994e730e","665500ab8938657b03fbdba8","6657930d89971b4f6cbee2f8","1144","stimuli/00111010.jpg"," ","","feedback_trial","0","","","","","","","","","","","","","","","","","","","","",""
"","","","","","image-keyboard-response","42","96584","0.0-17.0","63d7edbef6596097994e730e","665500ab8938657b03fbdba8","6657930d89971b4f6cbee2f8","1556","stimuli/0110110.jpg","1","","prediction_trial","1","","true","","0","false","false","false","false","false","false","[0,1]","110","110","1","","","","","","",""
"","","","","","image-keyboard-response","43","97050","0.0-18.0","63d7edbef6596097994e730e","665500ab8938657b03fbdba8","6657930d89971b4f6cbee2f8","456","stimuli/01101101.jpg"," ","","feedback_trial","0","","","","","","","","","","","","","","","","","","","","",""
"","","","","","image-keyboard-response","44","98285","0.0-19.0","63d7edbef6596097994e730e","665500ab8938657b03fbdba8","6657930d89971b4f6cbee2f8","1226","stimuli/2101101.jpg","2","","prediction_trial","0","","false","","2","false","false","false","false","false","false","[2,0]","101","101","0","","","","","","",""
"","","","","","image-keyboard-response","45","98815","0.0-20.0","63d7edbef6596097994e730e","665500ab8938657b03fbdba8","6657930d89971b4f6cbee2f8","520","stimuli/21011010.jpg"," ","","feedback_trial","2","","","","","","","","","","","","","","","","","","","","",""
"","","","","","image-keyboard-response","46","100898","0.0-21.0","63d7edbef6596097994e730e","665500ab8938657b03fbdba8","6657930d89971b4f6cbee2f8","2074","stimuli/2000101.jpg","0","","prediction_trial","2","","false","","2","false","false","true","true","false","false","[2]","000","101","0","","","","","","",""
"","","","","","image-keyboard-response","47","101420","0.0-22.0","63d7edbef6596097994e730e","665500ab8938657b03fbdba8","6657930d89971b4f6cbee2f8","517","stimuli/20001012.jpg"," ","","feedback_trial","2","","","","","","","","","","","","","","","","","","","","",""
"","","","","","image-keyboard-response","48","102606","0.0-23.0","63d7edbef6596097994e730e","665500ab8938657b03fbdba8","6657930d89971b4f6cbee2f8","1176","stimuli/0110010.jpg","0","","prediction_trial","0","","true","","0","true","true","false","false","false","false","[1,0]","110","010","1","","","","","","",""
"","","","","","image-keyboard-response","49","103227","0.0-24.0","63d7edbef6596097994e730e","665500ab8938657b03fbdba8","6657930d89971b4f6cbee2f8","611","stimuli/01100100.jpg"," ","","feedback_trial","1","","","","","","","","","","","","","","","","","","","","",""
"","","","","","image-keyboard-response","50","104383","0.0-25.0","63d7edbef6596097994e730e","665500ab8938657b03fbdba8","6657930d89971b4f6cbee2f8","1147","stimuli/0100111.jpg","0","","prediction_trial","0","","true","","0","false","false","false","true","false","false","[0]","100","111","1","","","","","","",""
"","","","","","image-keyboard-response","51","104856","0.0-26.0","63d7edbef6596097994e730e","665500ab8938657b03fbdba8","6657930d89971b4f6cbee2f8","463","stimuli/01001110.jpg"," ","","feedback_trial","0","","","","","","","","","","","","","","","","","","","","",""
"","","","","","image-keyboard-response","52","105983","0.0-27.0","63d7edbef6596097994e730e","665500ab8938657b03fbdba8","6657930d89971b4f6cbee2f8","1117","stimuli/0001010.jpg","0","","prediction_trial","0","","true","","0","true","true","true","true","true","true","[0]","001","010","1","","","","","","",""
"","","","","","image-keyboard-response","53","106423","0.0-28.0","63d7edbef6596097994e730e","665500ab8938657b03fbdba8","6657930d89971b4f6cbee2f8","431","stimuli/00010100.jpg"," ","","feedback_trial","0","","","","","","","","","","","","","","","","","","","","",""
"","","","","","image-keyboard-response","54","107230","0.0-29.0","63d7edbef6596097994e730e","665500ab8938657b03fbdba8","6657930d89971b4f6cbee2f8","797","stimuli/1000001.jpg","1","","prediction_trial","1","","true","","1","true","true","true","true","true","true","[1]","000","001","1","","","","","","",""
"","","","","","image-keyboard-response","55","107784","0.0-30.0","63d7edbef6596097994e730e","665500ab8938657b03fbdba8","6657930d89971b4f6cbee2f8","545","stimuli/10000011.jpg"," ","","feedback_trial","1","","","","","","","","","","","","","","","","","","","","",""
"","","","","","image-keyboard-response","56","108422","0.0-31.0","63d7edbef6596097994e730e","665500ab8938657b03fbdba8","6657930d89971b4f6cbee2f8","628","stimuli/2111000.jpg","2","","prediction_trial","1","","false","","2","true","true","false","false","false","false","[2,1,0]","111","000","0","","","","","","",""
"","","","","","image-keyboard-response","57","109332","0.0-32.0","63d7edbef6596097994e730e","665500ab8938657b03fbdba8","6657930d89971b4f6cbee2f8","901","stimuli/21110001.jpg"," ","","feedback_trial","2","","","","","","","","","","","","","","","","","","","","",""
"","","","","","image-keyboard-response","58","110740","0.0-33.0","63d7edbef6596097994e730e","665500ab8938657b03fbdba8","6657930d89971b4f6cbee2f8","1398","stimuli/2110001.jpg","1","","prediction_trial","2","","false","","2","false","true","true","true","false","true","[2]","110","001","0","","","","","","",""
"","","","","","image-keyboard-response","59","111398","0.0-34.0","63d7edbef6596097994e730e","665500ab8938657b03fbdba8","6657930d89971b4f6cbee2f8","647","stimuli/21100012.jpg"," ","","feedback_trial","2","","","","","","","","","","","","","","","","","","","","",""
"","","","","","image-keyboard-response","60","112521","0.0-35.0","63d7edbef6596097994e730e","665500ab8938657b03fbdba8","6657930d89971b4f6cbee2f8","1114","stimuli/0011000.jpg","0","","prediction_trial","0","","true","","0","true","true","true","true","true","true","[0]","011","000","1","","","","","","",""
"","","","","","image-keyboard-response","61","112909","0.0-36.0","63d7edbef6596097994e730e","665500ab8938657b03fbdba8","6657930d89971b4f6cbee2f8","379","stimuli/00110000.jpg"," ","","feedback_trial","0","","","","","","","","","","","","","","","","","","","","",""
"","","","","","image-keyboard-response","62","113865","0.0-37.0","63d7edbef6596097994e730e","665500ab8938657b03fbdba8","6657930d89971b4f6cbee2f8","947","stimuli/2011011.jpg","1","","prediction_trial","2","","false","","2","false","false","false","false","false","false","[1,2]","011","011","0","","","","","","",""
"","","","","","image-keyboard-response","63","114313","0.0-38.0","63d7edbef6596097994e730e","665500ab8938657b03fbdba8","6657930d89971b4f6cbee2f8","439","stimuli/20110112.jpg"," ","","feedback_trial","1","","","","","","","","","","","","","","","","","","","","",""
"","","","","","image-keyboard-response","64","115237","0.0-39.0","63d7edbef6596097994e730e","665500ab8938657b03fbdba8","6657930d89971b4f6cbee2f8","915","stimuli/1001001.jpg","1","","prediction_trial","1","","true","","1","true","true","true","true","true","true","[1]","001","001","1","","","","","","",""
"","","","","","image-keyboard-response","65","115593","0.0-40.0","63d7edbef6596097994e730e","665500ab8938657b03fbdba8","6657930d89971b4f6cbee2f8","346","stimuli/10010011.jpg"," ","","feedback_trial","1","","","","","","","","","","","","","","","","","","","","",""
"","","","","","image-keyboard-response","66","116288","0.0-41.0","63d7edbef6596097994e730e","665500ab8938657b03fbdba8","6657930d89971b4f6cbee2f8","686","stimuli/2110110.jpg","2","","prediction_trial","2","","true","","2","true","true","true","true","true","true","[2]","110","110","1","","","","","","",""
"","","","","","image-keyboard-response","67","116618","0.0-42.0","63d7edbef6596097994e730e","665500ab8938657b03fbdba8","6657930d89971b4f6cbee2f8","320","stimuli/21101102.jpg"," ","","feedback_trial","2","","","","","","","","","","","","","","","","","","","","",""
"","","","","","image-keyboard-response","68","119325","0.0-43.0","63d7edbef6596097994e730e","665500ab8938657b03fbdba8","6657930d89971b4f6cbee2f8","2697","stimuli/0101111.jpg","1","","prediction_trial","0","","false","","0","false","false","false","false","false","false","[0,2]","101","111","0","","","","","","",""
"","","","","","image-keyboard-response","69","119681","0.0-44.0","63d7edbef6596097994e730e","665500ab8938657b03fbdba8","6657930d89971b4f6cbee2f8","348","stimuli/01011110.jpg"," ","","feedback_trial","0","","","","","","","","","","","","","","","","","","","","",""
"","","","","","image-keyboard-response","70","120626","0.0-45.0","63d7edbef6596097994e730e","665500ab8938657b03fbdba8","6657930d89971b4f6cbee2f8","935","stimuli/2100101.jpg","0","","prediction_trial","2","","false","","2","false","false","true","true","false","false","[2]","100","101","0","","","","","","",""
"","","","","","image-keyboard-response","71","121135","0.0-46.0","63d7edbef6596097994e730e","665500ab8938657b03fbdba8","6657930d89971b4f6cbee2f8","500","stimuli/21001012.jpg"," ","","feedback_trial","2","","","","","","","","","","","","","","","","","","","","",""
"","","","","","image-keyboard-response","72","122409","0.0-47.0","63d7edbef6596097994e730e","665500ab8938657b03fbdba8","6657930d89971b4f6cbee2f8","1265","stimuli/0010011.jpg","0","","prediction_trial","0","","true","","0","true","true","true","true","true","true","[0]","010","011","1","","","","","","",""
"","","","","","image-keyboard-response","73","122702","0.0-48.0","63d7edbef6596097994e730e","665500ab8938657b03fbdba8","6657930d89971b4f6cbee2f8","283","stimuli/00100110.jpg"," ","","feedback_trial","0","","","","","","","","","","","","","","","","","","","","",""
"","","","","","image-keyboard-response","74","123996","0.0-49.0","63d7edbef6596097994e730e","665500ab8938657b03fbdba8","6657930d89971b4f6cbee2f8","1285","stimuli/2010101.jpg","0","","prediction_trial","2","","false","","2","false","false","true","true","false","false","[2]","010","101","0","","","","","","",""
"","","","","","image-keyboard-response","75","124346","0.0-50.0","63d7edbef6596097994e730e","665500ab8938657b03fbdba8","6657930d89971b4f6cbee2f8","341","stimuli/20101012.jpg"," ","","feedback_trial","2","","","","","","","","","","","","","","","","","","","","",""
"","","","","","image-keyboard-response","76","125480","0.0-51.0","63d7edbef6596097994e730e","665500ab8938657b03fbdba8","6657930d89971b4f6cbee2f8","1123","stimuli/0101101.jpg","0","","prediction_trial","2","","false","","0","false","false","false","false","false","false","[2,0]","101","101","0","","","","","","",""
"","","","","","image-keyboard-response","77","125838","0.0-52.0","63d7edbef6596097994e730e","665500ab8938657b03fbdba8","6657930d89971b4f6cbee2f8","349","stimuli/01011012.jpg"," ","","feedback_trial","2","","","","","","","","","","","","","","","","","","","","",""
"","","","","","image-keyboard-response","78","126561","0.0-53.0","63d7edbef6596097994e730e","665500ab8938657b03fbdba8","6657930d89971b4f6cbee2f8","714","stimuli/1010111.jpg","1","","prediction_trial","1","","true","","1","false","false","false","true","false","false","[1]","010","111","1","","","","","","",""
"","","","","","image-keyboard-response","79","127084","0.0-54.0","63d7edbef6596097994e730e","665500ab8938657b03fbdba8","6657930d89971b4f6cbee2f8","514","stimuli/10101111.jpg"," ","","feedback_trial","1","","","","","","","","","","","","","","","","","","","","",""
"","","","","","image-keyboard-response","80","128179","0.0-55.0","63d7edbef6596097994e730e","665500ab8938657b03fbdba8","6657930d89971b4f6cbee2f8","1085","stimuli/1001011.jpg","2","","prediction_trial","1","","false","","1","false","false","true","true","false","false","[1]","001","011","0","","","","","","",""
"","","","","","image-keyboard-response","81","128594","0.0-56.0","63d7edbef6596097994e730e","665500ab8938657b03fbdba8","6657930d89971b4f6cbee2f8","405","stimuli/10010111.jpg"," ","","feedback_trial","1","","","","","","","","","","","","","","","","","","","","",""
"","","","","","image-keyboard-response","82","129505","0.0-57.0","63d7edbef6596097994e730e","665500ab8938657b03fbdba8","6657930d89971b4f6cbee2f8","902","stimuli/0000011.jpg","0","","prediction_trial","0","","true","","0","true","true","true","true","true","true","[0]","000","011","1","","","","","","",""
"","","","","","image-keyboard-response","83","129963","0.0-58.0","63d7edbef6596097994e730e","665500ab8938657b03fbdba8","6657930d89971b4f6cbee2f8","449","stimuli/00000110.jpg"," ","","feedback_trial","0","","","","","","","","","","","","","","","","","","","","",""
"","","","","","image-keyboard-response","84","130666","0.0-59.0","63d7edbef6596097994e730e","665500ab8938657b03fbdba8","6657930d89971b4f6cbee2f8","694","stimuli/0100001.jpg","0","","prediction_trial","0","","true","","0","true","true","false","true","false","true","[0]","100","001","1","","","","","","",""
"","","","","","image-keyboard-response","85","131091","0.0-60.0","63d7edbef6596097994e730e","665500ab8938657b03fbdba8","6657930d89971b4f6cbee2f8","414","stimuli/01000010.jpg"," ","","feedback_trial","0","","","","","","","","","","","","","","","","","","","","",""
"","","","","","image-keyboard-response","86","132287","0.0-61.0","63d7edbef6596097994e730e","665500ab8938657b03fbdba8","6657930d89971b4f6cbee2f8","1186","stimuli/1101100.jpg","1","","prediction_trial","1","","true","","1","true","true","true","true","true","true","[1]","101","100","1","","","","","","",""
"","","","","","image-keyboard-response","87","132609","0.0-62.0","63d7edbef6596097994e730e","665500ab8938657b03fbdba8","6657930d89971b4f6cbee2f8","313","stimuli/11011001.jpg"," ","","feedback_trial","1","","","","","","","","","","","","","","","","","","","","",""
"","","","","","image-keyboard-response","88","133143","0.0-63.0","63d7edbef6596097994e730e","665500ab8938657b03fbdba8","6657930d89971b4f6cbee2f8","524","stimuli/1000101.jpg","1","","prediction_trial","1","","true","","1","true","true","true","true","true","true","[1]","000","101","1","","","","","","",""
"","","","","","image-keyboard-response","89","133498","0.0-64.0","63d7edbef6596097994e730e","665500ab8938657b03fbdba8","6657930d89971b4f6cbee2f8","346","stimuli/10001011.jpg"," ","","feedback_trial","1","","","","","","","","","","","","","","","","","","","","",""
"","","","","","image-keyboard-response","90","134379","0.0-65.0","63d7edbef6596097994e730e","665500ab8938657b03fbdba8","6657930d89971b4f6cbee2f8","871","stimuli/1110110.jpg","1","","prediction_trial","1","","true","","1","false","false","false","false","false","false","[0,1]","110","110","1","","","","","","",""
"","","","","","image-keyboard-response","91","134763","0.0-66.0","63d7edbef6596097994e730e","665500ab8938657b03fbdba8","6657930d89971b4f6cbee2f8","374","stimuli/11101101.jpg"," ","","feedback_trial","0","","","","","","","","","","","","","","","","","","","","",""
"","","","","","image-keyboard-response","92","135605","0.0-67.0","63d7edbef6596097994e730e","665500ab8938657b03fbdba8","6657930d89971b4f6cbee2f8","834","stimuli/0011110.jpg","1","","prediction_trial","0","","false","","0","false","false","true","true","false","false","[0]","011","110","0","","","","","","",""
"","","","","","image-keyboard-response","93","136306","0.0-68.0","63d7edbef6596097994e730e","665500ab8938657b03fbdba8","6657930d89971b4f6cbee2f8","692","stimuli/00111100.jpg"," ","","feedback_trial","0","","","","","","","","","","","","","","","","","","","","",""
"","","","","","image-keyboard-response","94","137083","0.0-69.0","63d7edbef6596097994e730e","665500ab8938657b03fbdba8","6657930d89971b4f6cbee2f8","767","stimuli/0011010.jpg","0","","prediction_trial","0","","true","","0","true","true","true","true","true","true","[0]","011","010","1","","","","","","",""
"","","","","","image-keyboard-response","95","137571","0.0-70.0","63d7edbef6596097994e730e","665500ab8938657b03fbdba8","6657930d89971b4f6cbee2f8","479","stimuli/00110100.jpg"," ","","feedback_trial","0","","","","","","","","","","","","","","","","","","","","",""
"","","","","","image-keyboard-response","96","138397","0.0-71.0","63d7edbef6596097994e730e","665500ab8938657b03fbdba8","6657930d89971b4f6cbee2f8","817","stimuli/0110001.jpg","0","","prediction_trial","0","","true","","0","true","true","false","false","false","false","[1,0]","110","001","1","","","","","","",""
"","","","","","image-keyboard-response","97","138744","0.0-72.0","63d7edbef6596097994e730e","665500ab8938657b03fbdba8","6657930d89971b4f6cbee2f8","337","stimuli/01100010.jpg"," ","","feedback_trial","1","","","","","","","","","","","","","","","","","","","","",""
"","","","","","image-keyboard-response","98","139434","0.0-73.0","63d7edbef6596097994e730e","665500ab8938657b03fbdba8","6657930d89971b4f6cbee2f8","680","stimuli/2010100.jpg","2","","prediction_trial","2","","true","","2","true","true","true","true","true","true","[2]","010","100","1","","","","","","",""
"","","","","","image-keyboard-response","99","139872","0.0-74.0","63d7edbef6596097994e730e","665500ab8938657b03fbdba8","6657930d89971b4f6cbee2f8","428","stimuli/20101002.jpg"," ","","feedback_trial","2","","","","","","","","","","","","","","","","","","","","",""
"","","","","","image-keyboard-response","100","140528","0.0-75.0","63d7edbef6596097994e730e","665500ab8938657b03fbdba8","6657930d89971b4f6cbee2f8","646","stimuli/0000001.jpg","0","","prediction_trial","0","","true","","0","true","true","true","true","true","true","[0]","000","001","1","","","","","","",""
"","","","","","image-keyboard-response","101","140843","0.0-76.0","63d7edbef6596097994e730e","665500ab8938657b03fbdba8","6657930d89971b4f6cbee2f8","306","stimuli/00000010.jpg"," ","","feedback_trial","0","","","","","","","","","","","","","","","","","","","","",""
"","","","","","image-keyboard-response","102","141926","0.0-77.0","63d7edbef6596097994e730e","665500ab8938657b03fbdba8","6657930d89971b4f6cbee2f8","1074","stimuli/2101111.jpg","1","","prediction_trial","0","","false","","2","false","false","false","false","false","false","[2,0]","101","111","0","","","","","","",""
"","","","","","image-keyboard-response","103","142439","0.0-78.0","63d7edbef6596097994e730e","665500ab8938657b03fbdba8","6657930d89971b4f6cbee2f8","504","stimuli/21011110.jpg"," ","","feedback_trial","2","","","","","","","","","","","","","","","","","","","","",""
"","","","","","image-keyboard-response","104","143070","0.0-79.0","63d7edbef6596097994e730e","665500ab8938657b03fbdba8","6657930d89971b4f6cbee2f8","619","stimuli/2100110.jpg","2","","prediction_trial","2","","true","","2","true","true","true","true","true","true","[2]","100","110","1","","","","","","",""
"","","","","","image-keyboard-response","105","143475","0.0-80.0","63d7edbef6596097994e730e","665500ab8938657b03fbdba8","6657930d89971b4f6cbee2f8","395","stimuli/21001102.jpg"," ","","feedback_trial","2","","","","","","","","","","","","","","","","","","","","",""
"","","","","","image-keyboard-response","106","144000","0.0-81.0","63d7edbef6596097994e730e","665500ab8938657b03fbdba8","6657930d89971b4f6cbee2f8","516","stimuli/1010101.jpg","0","","prediction_trial","1","","false","","1","true","true","false","true","false","true","[1]","010","101","0","","","","","","",""
"","","","","","image-keyboard-response","107","144615","0.0-82.0","63d7edbef6596097994e730e","665500ab8938657b03fbdba8","6657930d89971b4f6cbee2f8","607","stimuli/10101011.jpg"," ","","feedback_trial","1","","","","","","","","","","","","","","","","","","","","",""
"","","","","","image-keyboard-response","108","145315","0.0-83.0","63d7edbef6596097994e730e","665500ab8938657b03fbdba8","6657930d89971b4f6cbee2f8","691","stimuli/2100010.jpg","2","","prediction_trial","2","","true","","2","true","true","true","true","true","true","[2]","100","010","1","","","","","","",""
"","","","","","image-keyboard-response","109","145938","0.0-84.0","63d7edbef6596097994e730e","665500ab8938657b03fbdba8","6657930d89971b4f6cbee2f8","613","stimuli/21000102.jpg"," ","","feedback_trial","2","","","","","","","","","","","","","","","","","","","","",""
"","","","","","image-keyboard-response","110","146566","0.0-85.0","63d7edbef6596097994e730e","665500ab8938657b03fbdba8","6657930d89971b4f6cbee2f8","619","stimuli/0011011.jpg","0","","prediction_trial","0","","true","","0","true","true","true","true","true","true","[0]","011","011","1","","","","","","",""
"","","","","","image-keyboard-response","111","147061","0.0-86.0","63d7edbef6596097994e730e","665500ab8938657b03fbdba8","6657930d89971b4f6cbee2f8","485","stimuli/00110110.jpg"," ","","feedback_trial","0","","","","","","","","","","","","","","","","","","","","",""
"","","","","","image-keyboard-response","112","148088","0.0-87.0","63d7edbef6596097994e730e","665500ab8938657b03fbdba8","6657930d89971b4f6cbee2f8","1016","stimuli/0101100.jpg","0","","prediction_trial","2","","false","","0","false","true","false","false","false","false","[2,0]","101","100","0","","","","","","",""
"","","","","","image-keyboard-response","113","148643","0.0-88.0","63d7edbef6596097994e730e","665500ab8938657b03fbdba8","6657930d89971b4f6cbee2f8","545","stimuli/01011002.jpg"," ","","feedback_trial","2","","","","","","","","","","","","","","","","","","","","",""
"","","","","","image-keyboard-response","114","149336","0.0-89.0","63d7edbef6596097994e730e","665500ab8938657b03fbdba8","6657930d89971b4f6cbee2f8","684","stimuli/1100000.jpg","1","","prediction_trial","1","","true","","1","true","true","true","true","true","true","[1]","100","000","1","","","","","","",""
"","","","","","image-keyboard-response","115","149811","0.0-90.0","63d7edbef6596097994e730e","665500ab8938657b03fbdba8","6657930d89971b4f6cbee2f8","465","stimuli/11000001.jpg"," ","","feedback_trial","1","","","","","","","","","","","","","","","","","","","","",""
"","","","","","image-keyboard-response","116","150851","0.0-91.0","63d7edbef6596097994e730e","665500ab8938657b03fbdba8","6657930d89971b4f6cbee2f8","1030","stimuli/2010110.jpg","2","","prediction_trial","2","","true","","2","true","true","true","true","true","true","[2]","010","110","1","","","","","","",""
"","","","","","image-keyboard-response","117","151184","0.0-92.0","63d7edbef6596097994e730e","665500ab8938657b03fbdba8","6657930d89971b4f6cbee2f8","323","stimuli/20101102.jpg"," ","","feedback_trial","2","","","","","","","","","","","","","","","","","","","","",""
"","","","","","image-keyboard-response","118","151712","0.0-93.0","63d7edbef6596097994e730e","665500ab8938657b03fbdba8","6657930d89971b4f6cbee2f8","518","stimuli/2000110.jpg","2","","prediction_trial","2","","true","","2","true","true","true","true","true","true","[2]","000","110","1","","","","","","",""
"","","","","","image-keyboard-response","119","152020","0.0-94.0","63d7edbef6596097994e730e","665500ab8938657b03fbdba8","6657930d89971b4f6cbee2f8","299","stimuli/20001102.jpg"," ","","feedback_trial","2","","","","","","","","","","","","","","","","","","","","",""
"","","","","","image-keyboard-response","120","152721","0.0-95.0","63d7edbef6596097994e730e","665500ab8938657b03fbdba8","6657930d89971b4f6cbee2f8","692","stimuli/2110100.jpg","2","","prediction_trial","2","","true","","2","true","true","true","true","true","true","[2]","110","100","1","","","","","","",""
"","","","","","image-keyboard-response","121","153015","0.0-96.0","63d7edbef6596097994e730e","665500ab8938657b03fbdba8","6657930d89971b4f6cbee2f8","284","stimuli/21101002.jpg"," ","","feedback_trial","2","","","","","","","","","","","","","","","","","","","","",""
"","","","","","image-keyboard-response","122","153728","0.0-97.0","63d7edbef6596097994e730e","665500ab8938657b03fbdba8","6657930d89971b4f6cbee2f8","703","stimuli/0001000.jpg","0","","prediction_trial","0","","true","","0","true","true","true","true","true","true","[0]","001","000","1","","","","","","",""
"","","","","","image-keyboard-response","123","154020","0.0-98.0","63d7edbef6596097994e730e","665500ab8938657b03fbdba8","6657930d89971b4f6cbee2f8","283","stimuli/00010000.jpg"," ","","feedback_trial","0","","","","","","","","","","","","","","","","","","","","",""
"","","","","","image-keyboard-response","124","155892","0.0-99.0","63d7edbef6596097994e730e","665500ab8938657b03fbdba8","6657930d89971b4f6cbee2f8","1863","stimuli/2101110.jpg","0","","prediction_trial","2","","false","","2","true","true","false","false","false","false","[0,2]","101","110","0","","","","","","",""
"","","","","","image-keyboard-response","125","156226","0.0-100.0","63d7edbef6596097994e730e","665500ab8938657b03fbdba8","6657930d89971b4f6cbee2f8","324","stimuli/21011102.jpg"," ","","feedback_trial","0","","","","","","","","","","","","","","","","","","","","",""
"","","","","","image-keyboard-response","126","157924","0.0-101.0","63d7edbef6596097994e730e","665500ab8938657b03fbdba8","6657930d89971b4f6cbee2f8","1688","stimuli/0111101.jpg","0","","prediction_trial","2","","false","","0","false","false","false","false","false","false","[2,0,1]","111","101","0","","","","","","",""
"","","","","","image-keyboard-response","127","158270","0.0-102.0","63d7edbef6596097994e730e","665500ab8938657b03fbdba8","6657930d89971b4f6cbee2f8","336","stimuli/01111012.jpg"," ","","feedback_trial","2","","","","","","","","","","","","","","","","","","","","",""
"","","","","","image-keyboard-response","128","159031","0.0-103.0","63d7edbef6596097994e730e","665500ab8938657b03fbdba8","6657930d89971b4f6cbee2f8","751","stimuli/1101001.jpg","1","","prediction_trial","1","","true","","1","true","true","true","true","true","true","[1]","101","001","1","","","","","","",""
"","","","","","image-keyboard-response","129","159301","0.0-104.0","63d7edbef6596097994e730e","665500ab8938657b03fbdba8","6657930d89971b4f6cbee2f8","261","stimuli/11010011.jpg"," ","","feedback_trial","1","","","","","","","","","","","","","","","","","","","","",""
"","","","","","image-keyboard-response","130","159882","0.0-105.0","63d7edbef6596097994e730e","665500ab8938657b03fbdba8","6657930d89971b4f6cbee2f8","571","stimuli/0100011.jpg","0","","prediction_trial","0","","true","","0","true","true","false","true","false","true","[0]","100","011","1","","","","","","",""
"","","","","","image-keyboard-response","131","160179","0.0-106.0","63d7edbef6596097994e730e","665500ab8938657b03fbdba8","6657930d89971b4f6cbee2f8","287","stimuli/01000110.jpg"," ","","feedback_trial","0","","","","","","","","","","","","","","","","","","","","",""
"","","","","","image-keyboard-response","132","160890","0.0-107.0","63d7edbef6596097994e730e","665500ab8938657b03fbdba8","6657930d89971b4f6cbee2f8","700","stimuli/1111001.jpg","1","","prediction_trial","1","","true","","1","true","true","false","false","false","false","[1,2,0]","111","001","1","","","","","","",""
"","","","","","image-keyboard-response","133","161214","0.0-108.0","63d7edbef6596097994e730e","665500ab8938657b03fbdba8","6657930d89971b4f6cbee2f8","317","stimuli/11110011.jpg"," ","","feedback_trial","1","","","","","","","","","","","","","","","","","","","","",""
"","","","","","image-keyboard-response","134","161746","0.0-109.0","63d7edbef6596097994e730e","665500ab8938657b03fbdba8","6657930d89971b4f6cbee2f8","523","stimuli/1110001.jpg","1","","prediction_trial","1","","true","","1","true","true","false","false","false","false","[1,0]","110","001","1","","","","","","",""
"","","","","","image-keyboard-response","135","162142","0.0-110.0","63d7edbef6596097994e730e","665500ab8938657b03fbdba8","6657930d89971b4f6cbee2f8","392","stimuli/11100011.jpg"," ","","feedback_trial","1","","","","","","","","","","","","","","","","","","","","",""
"","","","","","image-keyboard-response","136","162676","0.0-111.0","63d7edbef6596097994e730e","665500ab8938657b03fbdba8","6657930d89971b4f6cbee2f8","524","stimuli/1110100.jpg","1","","prediction_trial","0","","false","","1","true","true","false","false","false","false","[1,0]","110","100","0","","","","","","",""
"","","","","","image-keyboard-response","137","162970","0.0-112.0","63d7edbef6596097994e730e","665500ab8938657b03fbdba8","6657930d89971b4f6cbee2f8","284","stimuli/11101000.jpg"," ","","feedback_trial","1","","","","","","","","","","","","","","","","","","","","",""
"","","","","","image-keyboard-response","138","164049","0.0-113.0","63d7edbef6596097994e730e","665500ab8938657b03fbdba8","6657930d89971b4f6cbee2f8","1069","stimuli/0010001.jpg","0","","prediction_trial","0","","true","","0","true","true","true","true","true","true","[0]","010","001","1","","","","","","",""
"","","","","","image-keyboard-response","139","164324","0.0-114.0","63d7edbef6596097994e730e","665500ab8938657b03fbdba8","6657930d89971b4f6cbee2f8","265","stimuli/00100010.jpg"," ","","feedback_trial","0","","","","","","","","","","","","","","","","","","","","",""
"","","","","","image-keyboard-response","140","164918","0.0-115.0","63d7edbef6596097994e730e","665500ab8938657b03fbdba8","6657930d89971b4f6cbee2f8","584","stimuli/1110101.jpg","1","","prediction_trial","0","","false","","1","true","true","false","false","false","false","[0,1]","110","101","0","","","","","","",""
"","","","","","image-keyboard-response","141","165286","0.0-116.0","63d7edbef6596097994e730e","665500ab8938657b03fbdba8","6657930d89971b4f6cbee2f8","359","stimuli/11101010.jpg"," ","","feedback_trial","0","","","","","","","","","","","","","","","","","","","","",""
"","","","","","image-keyboard-response","142","166036","0.0-117.0","63d7edbef6596097994e730e","665500ab8938657b03fbdba8","6657930d89971b4f6cbee2f8","741","stimuli/2101000.jpg","1","","prediction_trial","0","","false","","2","true","true","false","false","false","false","[0,2]","101","000","0","","","","","","",""
"","","","","","image-keyboard-response","143","166455","0.0-118.0","63d7edbef6596097994e730e","665500ab8938657b03fbdba8","6657930d89971b4f6cbee2f8","409","stimuli/21010000.jpg"," ","","feedback_trial","0","","","","","","","","","","","","","","","","","","","","",""
"","","","","","image-keyboard-response","144","168235","0.0-119.0","63d7edbef6596097994e730e","665500ab8938657b03fbdba8","6657930d89971b4f6cbee2f8","1772","stimuli/1111111.jpg","1","","prediction_trial","2","","false","","1","false","false","false","false","false","false","[2,0,1]","111","111","0","","","","","","",""
"","","","","","image-keyboard-response","145","168549","0.0-120.0","63d7edbef6596097994e730e","665500ab8938657b03fbdba8","6657930d89971b4f6cbee2f8","309","stimuli/11111112.jpg"," ","","feedback_trial","2","","","","","","","","","","","","","","","","","","","","",""
"","","","","","image-keyboard-response","146","169854","0.0-121.0","63d7edbef6596097994e730e","665500ab8938657b03fbdba8","6657930d89971b4f6cbee2f8","1299","stimuli/2111101.jpg","1","","prediction_trial","2","","false","","2","false","false","false","false","false","false","[0,2,1]","111","101","0","","","","","","",""
"","","","","","image-keyboard-response","147","170164","0.0-122.0","63d7edbef6596097994e730e","665500ab8938657b03fbdba8","6657930d89971b4f6cbee2f8","305","stimuli/21111012.jpg"," ","","feedback_trial","0","","","","","","","","","","","","","","","","","","","","",""
"","","","","","image-keyboard-response","148","171041","0.0-123.0","63d7edbef6596097994e730e","665500ab8938657b03fbdba8","6657930d89971b4f6cbee2f8","872","stimuli/0000010.jpg","0","","prediction_trial","0","","true","","0","true","true","true","true","true","true","[0]","000","010","1","","","","","","",""
"","","","","","image-keyboard-response","149","171322","0.0-124.0","63d7edbef6596097994e730e","665500ab8938657b03fbdba8","6657930d89971b4f6cbee2f8","276","stimuli/00000100.jpg"," ","","feedback_trial","0","","","","","","","","","","","","","","","","","","","","",""
"","","","","","image-keyboard-response","150","172041","0.0-125.0","63d7edbef6596097994e730e","665500ab8938657b03fbdba8","6657930d89971b4f6cbee2f8","714","stimuli/2101010.jpg","2","","prediction_trial","2","","true","","2","true","true","false","false","false","false","[2,0]","101","010","1","","","","","","",""
"","","","","","image-keyboard-response","151","172640","0.0-126.0","63d7edbef6596097994e730e","665500ab8938657b03fbdba8","6657930d89971b4f6cbee2f8","594","stimuli/21010102.jpg"," ","","feedback_trial","2","","","","","","","","","","","","","","","","","","","","",""
"","","","","","image-keyboard-response","152","173283","0.0-127.0","63d7edbef6596097994e730e","665500ab8938657b03fbdba8","6657930d89971b4f6cbee2f8","639","stimuli/1100001.jpg","1","","prediction_trial","1","","true","","1","true","true","true","true","true","true","[1]","100","001","1","","","","","","",""
"","","","","","image-keyboard-response","153","173673","0.0-128.0","63d7edbef6596097994e730e","665500ab8938657b03fbdba8","6657930d89971b4f6cbee2f8","382","stimuli/11000011.jpg"," ","","feedback_trial","1","","","","","","","","","","","","","","","","","","","","",""
"","","","","","image-keyboard-response","154","174638","0.0-129.0","63d7edbef6596097994e730e","665500ab8938657b03fbdba8","6657930d89971b4f6cbee2f8","960","stimuli/2011111.jpg","1","","prediction_trial","1","","true","","2","false","false","false","false","false","false","[2,1]","011","111","1","","","","","","",""
"","","","","","image-keyboard-response","155","174954","0.0-130.0","63d7edbef6596097994e730e","665500ab8938657b03fbdba8","6657930d89971b4f6cbee2f8","311","stimuli/20111111.jpg"," ","","feedback_trial","2","","","","","","","","","","","","","","","","","","","","",""
"","","","","","image-keyboard-response","156","175815","0.0-131.0","63d7edbef6596097994e730e","665500ab8938657b03fbdba8","6657930d89971b4f6cbee2f8","856","stimuli/2010111.jpg","1","","prediction_trial","2","","false","","2","false","false","true","true","false","false","[2]","010","111","0","","","","","","",""
"","","","","","image-keyboard-response","157","176161","0.0-132.0","63d7edbef6596097994e730e","665500ab8938657b03fbdba8","6657930d89971b4f6cbee2f8","342","stimuli/20101112.jpg"," ","","feedback_trial","2","","","","","","","","","","","","","","","","","","","","",""
"","","","","","image-keyboard-response","158","177133","0.0-133.0","63d7edbef6596097994e730e","665500ab8938657b03fbdba8","6657930d89971b4f6cbee2f8","964","stimuli/2000001.jpg","2","","prediction_trial","2","","true","","2","false","true","true","true","false","true","[2]","000","001","1","","","","","","",""
"","","","","","image-keyboard-response","159","177398","0.0-134.0","63d7edbef6596097994e730e","665500ab8938657b03fbdba8","6657930d89971b4f6cbee2f8","256","stimuli/20000012.jpg"," ","","feedback_trial","2","","","","","","","","","","","","","","","","","","","","",""
"","","","","","image-keyboard-response","160","179612","0.0-135.0","63d7edbef6596097994e730e","665500ab8938657b03fbdba8","6657930d89971b4f6cbee2f8","2205","stimuli/2101001.jpg","2","","prediction_trial","2","","true","","2","false","true","false","false","false","false","[2,0]","101","001","1","","","","","","",""
"","","","","","image-keyboard-response","161","179855","0.0-136.0","63d7edbef6596097994e730e","665500ab8938657b03fbdba8","6657930d89971b4f6cbee2f8","236","stimuli/21010012.jpg"," ","","feedback_trial","2","","","","","","","","","","","","","","","","","","","","",""
"","","","","","image-keyboard-response","162","180717","0.0-137.0","63d7edbef6596097994e730e","665500ab8938657b03fbdba8","6657930d89971b4f6cbee2f8","857","stimuli/1011010.jpg","1","","prediction_trial","2","","false","","1","false","true","false","false","false","false","[1,2]","011","010","0","","","","","","",""
"","","","","","image-keyboard-response","163","181005","0.0-138.0","63d7edbef6596097994e730e","665500ab8938657b03fbdba8","6657930d89971b4f6cbee2f8","280","stimuli/10110102.jpg"," ","","feedback_trial","1","","","","","","","","","","","","","","","","","","","","",""
"","","","","","image-keyboard-response","164","181868","0.0-139.0","63d7edbef6596097994e730e","665500ab8938657b03fbdba8","6657930d89971b4f6cbee2f8","854","stimuli/1001101.jpg","1","","prediction_trial","1","","true","","1","true","true","true","true","true","true","[1]","001","101","1","","","","","","",""
"","","","","","image-keyboard-response","165","182091","0.0-140.0","63d7edbef6596097994e730e","665500ab8938657b03fbdba8","6657930d89971b4f6cbee2f8","212","stimuli/10011011.jpg"," ","","feedback_trial","1","","","","","","","","","","","","","","","","","","","","",""
"","","","","","image-keyboard-response","166","182612","0.0-141.0","63d7edbef6596097994e730e","665500ab8938657b03fbdba8","6657930d89971b4f6cbee2f8","512","stimuli/1000100.jpg","1","","prediction_trial","1","","true","","1","true","true","true","true","true","true","[1]","000","100","1","","","","","","",""
"","","","","","image-keyboard-response","167","182853","0.0-142.0","63d7edbef6596097994e730e","665500ab8938657b03fbdba8","6657930d89971b4f6cbee2f8","231","stimuli/10001001.jpg"," ","","feedback_trial","1","","","","","","","","","","","","","","","","","","","","",""
"","","","","","image-keyboard-response","168","184713","0.0-143.0","63d7edbef6596097994e730e","665500ab8938657b03fbdba8","6657930d89971b4f6cbee2f8","1853","stimuli/1101011.jpg","2","","prediction_trial","1","","false","","1","false","false","true","true","false","false","[1]","101","011","0","","","","","","",""
"","","","","","image-keyboard-response","169","185040","0.0-144.0","63d7edbef6596097994e730e","665500ab8938657b03fbdba8","6657930d89971b4f6cbee2f8","318","stimuli/11010111.jpg"," ","","feedback_trial","1","","","","","","","","","","","","","","","","","","","","",""
"","","","","","image-keyboard-response","170","186130","0.0-145.0","63d7edbef6596097994e730e","665500ab8938657b03fbdba8","6657930d89971b4f6cbee2f8","1080","stimuli/0011100.jpg","1","","prediction_trial","0","","false","","0","false","true","true","true","false","true","[0]","011","100","0","","","","","","",""
"","","","","","image-keyboard-response","171","186441","0.0-146.0","63d7edbef6596097994e730e","665500ab8938657b03fbdba8","6657930d89971b4f6cbee2f8","302","stimuli/00111000.jpg"," ","","feedback_trial","0","","","","","","","","","","","","","","","","","","","","",""
"","","","","","image-keyboard-response","172","187823","0.0-147.0","63d7edbef6596097994e730e","665500ab8938657b03fbdba8","6657930d89971b4f6cbee2f8","1372","stimuli/1000010.jpg","1","","prediction_trial","1","","true","","1","false","true","true","true","false","true","[1]","000","010","1","","","","","","",""
"","","","","","image-keyboard-response","173","188035","0.0-148.0","63d7edbef6596097994e730e","665500ab8938657b03fbdba8","6657930d89971b4f6cbee2f8","203","stimuli/10000101.jpg"," ","","feedback_trial","1","","","","","","","","","","","","","","","","","","","","",""
"","","","","","image-keyboard-response","174","189372","0.0-149.0","63d7edbef6596097994e730e","665500ab8938657b03fbdba8","6657930d89971b4f6cbee2f8","1327","stimuli/1001010.jpg","1","","prediction_trial","1","","true","","1","false","true","true","true","false","true","[1]","001","010","1","","","","","","",""
"","","","","","image-keyboard-response","175","189637","0.0-150.0","63d7edbef6596097994e730e","665500ab8938657b03fbdba8","6657930d89971b4f6cbee2f8","256","stimuli/10010101.jpg"," ","","feedback_trial","1","","","","","","","","","","","","","","","","","","","","",""
"","","","","","image-keyboard-response","176","191155","0.0-151.0","63d7edbef6596097994e730e","665500ab8938657b03fbdba8","6657930d89971b4f6cbee2f8","1509","stimuli/1110111.jpg","1","","prediction_trial","0","","false","","1","false","false","false","false","false","false","[0,1]","110","111","0","","","","","","",""
"","","","","","image-keyboard-response","177","191700","0.0-152.0","63d7edbef6596097994e730e","665500ab8938657b03fbdba8","6657930d89971b4f6cbee2f8","536","stimuli/11101110.jpg"," ","","feedback_trial","0","","","","","","","","","","","","","","","","","","","","",""
"","","","","","image-keyboard-response","178","192413","0.0-153.0","63d7edbef6596097994e730e","665500ab8938657b03fbdba8","6657930d89971b4f6cbee2f8","704","stimuli/2100100.jpg","2","","prediction_trial","2","","true","","2","true","true","true","true","true","true","[2]","100","100","1","","","","","","",""
"","","","","","image-keyboard-response","179","192666","0.0-154.0","63d7edbef6596097994e730e","665500ab8938657b03fbdba8","6657930d89971b4f6cbee2f8","243","stimuli/21001002.jpg"," ","","feedback_trial","2","","","","","","","","","","","","","","","","","","","","",""
"","","","","","image-keyboard-response","180","193608","0.0-155.0","63d7edbef6596097994e730e","665500ab8938657b03fbdba8","6657930d89971b4f6cbee2f8","933","stimuli/1110011.jpg","1","","prediction_trial","1","","true","","1","false","false","false","false","false","false","[1,0]","110","011","1","","","","","","",""
"","","","","","image-keyboard-response","181","194088","0.0-156.0","63d7edbef6596097994e730e","665500ab8938657b03fbdba8","6657930d89971b4f6cbee2f8","471","stimuli/11100111.jpg"," ","","feedback_trial","1","","","","","","","","","","","","","","","","","","","","",""
"","","","","","image-keyboard-response","182","195346","0.0-157.0","63d7edbef6596097994e730e","665500ab8938657b03fbdba8","6657930d89971b4f6cbee2f8","1248","stimuli/2001011.jpg","2","","prediction_trial","2","","true","","2","false","false","false","true","false","false","[2]","001","011","1","","","","","","",""
"","","","","","image-keyboard-response","183","195652","0.0-158.0","63d7edbef6596097994e730e","665500ab8938657b03fbdba8","6657930d89971b4f6cbee2f8","297","stimuli/20010112.jpg"," ","","feedback_trial","2","","","","","","","","","","","","","","","","","","","","",""
"","","","","","image-keyboard-response","184","196447","0.0-159.0","63d7edbef6596097994e730e","665500ab8938657b03fbdba8","6657930d89971b4f6cbee2f8","787","stimuli/1111110.jpg","1","","prediction_trial","0","","false","","1","false","false","false","false","false","false","[0,1,2]","111","110","0","","","","","","",""
"","","","","","image-keyboard-response","185","196774","0.0-160.0","63d7edbef6596097994e730e","665500ab8938657b03fbdba8","6657930d89971b4f6cbee2f8","317","stimuli/11111100.jpg"," ","","feedback_trial","0","","","","","","","","","","","","","","","","","","","","",""
"","","","","","image-keyboard-response","186","197572","0.0-161.0","63d7edbef6596097994e730e","665500ab8938657b03fbdba8","6657930d89971b4f6cbee2f8","788","stimuli/1101101.jpg","1","","prediction_trial","1","","true","","1","true","true","true","true","true","true","[1]","101","101","1","","","","","","",""
"","","","","","image-keyboard-response","187","197845","0.0-162.0","63d7edbef6596097994e730e","665500ab8938657b03fbdba8","6657930d89971b4f6cbee2f8","264","stimuli/11011011.jpg"," ","","feedback_trial","1","","","","","","","","","","","","","","","","","","","","",""
"","","","","","image-keyboard-response","188","198287","0.0-163.0","63d7edbef6596097994e730e","665500ab8938657b03fbdba8","6657930d89971b4f6cbee2f8","432","stimuli/1110000.jpg","1","","prediction_trial","1","","true","","1","true","true","false","false","false","false","[0,1]","110","000","1","","","","","","",""
"","","","","","image-keyboard-response","189","198714","0.0-164.0","63d7edbef6596097994e730e","665500ab8938657b03fbdba8","6657930d89971b4f6cbee2f8","421","stimuli/11100001.jpg"," ","","feedback_trial","0","","","","","","","","","","","","","","","","","","","","",""
"","","","","","image-keyboard-response","190","199783","0.0-165.0","63d7edbef6596097994e730e","665500ab8938657b03fbdba8","6657930d89971b4f6cbee2f8","1059","stimuli/2001001.jpg","2","","prediction_trial","2","","true","","2","false","true","false","true","false","true","[2]","001","001","1","","","","","","",""
"","","","","","image-keyboard-response","191","199995","0.0-166.0","63d7edbef6596097994e730e","665500ab8938657b03fbdba8","6657930d89971b4f6cbee2f8","203","stimuli/20010012.jpg"," ","","feedback_trial","2","","","","","","","","","","","","","","","","","","","","",""
"","","","","","image-keyboard-response","192","201769","0.0-167.0","63d7edbef6596097994e730e","665500ab8938657b03fbdba8","6657930d89971b4f6cbee2f8","1764","stimuli/1100011.jpg","1","","prediction_trial","1","","true","","1","false","false","true","true","false","false","[1]","100","011","1","","","","","","",""
"","","","","","image-keyboard-response","193","202012","0.0-168.0","63d7edbef6596097994e730e","665500ab8938657b03fbdba8","6657930d89971b4f6cbee2f8","233","stimuli/11000111.jpg"," ","","feedback_trial","1","","","","","","","","","","","","","","","","","","","","",""
"","","","","","image-keyboard-response","194","202958","0.0-169.0","63d7edbef6596097994e730e","665500ab8938657b03fbdba8","6657930d89971b4f6cbee2f8","936","stimuli/2010010.jpg","2","","prediction_trial","2","","true","","2","true","true","true","true","true","true","[2]","010","010","1","","","","","","",""
"","","","","","image-keyboard-response","195","203142","0.0-170.0","63d7edbef6596097994e730e","665500ab8938657b03fbdba8","6657930d89971b4f6cbee2f8","174","stimuli/20100102.jpg"," ","","feedback_trial","2","","","","","","","","","","","","","","","","","","","","",""
"","","","","","image-keyboard-response","196","204269","0.0-171.0","63d7edbef6596097994e730e","665500ab8938657b03fbdba8","6657930d89971b4f6cbee2f8","1119","stimuli/2110111.jpg","1","","prediction_trial","2","","false","","2","false","false","true","true","false","false","[2]","110","111","0","","","","","","",""
"","","","","","image-keyboard-response","197","204577","0.0-172.0","63d7edbef6596097994e730e","665500ab8938657b03fbdba8","6657930d89971b4f6cbee2f8","298","stimuli/21101112.jpg"," ","","feedback_trial","2","","","","","","","","","","","","","","","","","","","","",""
"","","","","","image-keyboard-response","198","205477","0.0-173.0","63d7edbef6596097994e730e","665500ab8938657b03fbdba8","6657930d89971b4f6cbee2f8","890","stimuli/1100101.jpg","1","","prediction_trial","1","","true","","1","true","true","true","true","true","true","[1]","100","101","1","","","","","","",""
"","","","","","image-keyboard-response","199","205733","0.0-174.0","63d7edbef6596097994e730e","665500ab8938657b03fbdba8","6657930d89971b4f6cbee2f8","247","stimuli/11001011.jpg"," ","","feedback_trial","1","","","","","","","","","","","","","","","","","","","","",""
"","","","","","image-keyboard-response","200","206687","0.0-175.0","63d7edbef6596097994e730e","665500ab8938657b03fbdba8","6657930d89971b4f6cbee2f8","944","stimuli/0010100.jpg","0","","prediction_trial","0","","true","","0","false","true","true","true","false","true","[0]","010","100","1","","","","","","",""
"","","","","","image-keyboard-response","201","206963","0.0-176.0","63d7edbef6596097994e730e","665500ab8938657b03fbdba8","6657930d89971b4f6cbee2f8","267","stimuli/00101000.jpg"," ","","feedback_trial","0","","","","","","","","","","","","","","","","","","","","",""
"","","","","","image-keyboard-response","202","207906","0.0-177.0","63d7edbef6596097994e730e","665500ab8938657b03fbdba8","6657930d89971b4f6cbee2f8","934","stimuli/0000100.jpg","0","","prediction_trial","0","","true","","0","false","true","true","true","false","true","[0]","000","100","1","","","","","","",""
"","","","","","image-keyboard-response","203","208216","0.0-178.0","63d7edbef6596097994e730e","665500ab8938657b03fbdba8","6657930d89971b4f6cbee2f8","301","stimuli/00001000.jpg"," ","","feedback_trial","0","","","","","","","","","","","","","","","","","","","","",""
"","","","","","image-keyboard-response","204","209133","0.0-179.0","63d7edbef6596097994e730e","665500ab8938657b03fbdba8","6657930d89971b4f6cbee2f8","912","stimuli/1010100.jpg","1","","prediction_trial","1","","true","","1","true","true","false","true","false","true","[1]","010","100","1","","","","","","",""
"","","","","","image-keyboard-response","205","209492","0.0-180.0","63d7edbef6596097994e730e","665500ab8938657b03fbdba8","6657930d89971b4f6cbee2f8","350","stimuli/10101001.jpg"," ","","feedback_trial","1","","","","","","","","","","","","","","","","","","","","",""
"","","","","","image-keyboard-response","206","210219","0.0-181.0","63d7edbef6596097994e730e","665500ab8938657b03fbdba8","6657930d89971b4f6cbee2f8","718","stimuli/0101001.jpg","0","","prediction_trial","2","","false","","0","true","true","false","false","false","false","[0,2]","101","001","0","","","","","","",""
"","","","","","image-keyboard-response","207","210825","0.0-182.0","63d7edbef6596097994e730e","665500ab8938657b03fbdba8","6657930d89971b4f6cbee2f8","597","stimuli/01010012.jpg"," ","","feedback_trial","0","","","","","","","","","","","","","","","","","","","","",""
"","","","","","image-keyboard-response","208","211882","0.0-183.0","63d7edbef6596097994e730e","665500ab8938657b03fbdba8","6657930d89971b4f6cbee2f8","1048","stimuli/1011101.jpg","1","","prediction_trial","2","","false","","1","true","true","false","false","false","false","[1,2]","011","101","0","","","","","","",""
"","","","","","image-keyboard-response","209","212223","0.0-184.0","63d7edbef6596097994e730e","665500ab8938657b03fbdba8","6657930d89971b4f6cbee2f8","331","stimuli/10111012.jpg"," ","","feedback_trial","1","","","","","","","","","","","","","","","","","","","","",""
"","","","","","image-keyboard-response","210","213543","0.0-185.0","63d7edbef6596097994e730e","665500ab8938657b03fbdba8","6657930d89971b4f6cbee2f8","1310","stimuli/0111000.jpg","1","","prediction_trial","1","","true","","0","true","true","false","false","false","false","[2,1,0]","111","000","1","","","","","","",""
"","","","","","image-keyboard-response","211","213825","0.0-186.0","63d7edbef6596097994e730e","665500ab8938657b03fbdba8","6657930d89971b4f6cbee2f8","273","stimuli/01110001.jpg"," ","","feedback_trial","2","","","","","","","","","","","","","","","","","","","","",""
"","","","","","image-keyboard-response","212","215083","0.0-187.0","63d7edbef6596097994e730e","665500ab8938657b03fbdba8","6657930d89971b4f6cbee2f8","1248","stimuli/1111010.jpg","1","","prediction_trial","1","","true","","1","false","true","false","false","false","false","[2,0,1]","111","010","1","","","","","","",""
"","","","","","image-keyboard-response","213","215338","0.0-188.0","63d7edbef6596097994e730e","665500ab8938657b03fbdba8","6657930d89971b4f6cbee2f8","248","stimuli/11110101.jpg"," ","","feedback_trial","2","","","","","","","","","","","","","","","","","","","","",""
"","","","","","image-keyboard-response","214","216277","0.0-189.0","63d7edbef6596097994e730e","665500ab8938657b03fbdba8","6657930d89971b4f6cbee2f8","930","stimuli/1111011.jpg","1","","prediction_trial","0","","false","","1","false","false","false","false","false","false","[1,2,0]","111","011","0","","","","","","",""
"","","","","","image-keyboard-response","215","216567","0.0-190.0","63d7edbef6596097994e730e","665500ab8938657b03fbdba8","6657930d89971b4f6cbee2f8","281","stimuli/11110110.jpg"," ","","feedback_trial","1","","","","","","","","","","","","","","","","","","","","",""
"","","","","","image-keyboard-response","216","217462","0.0-191.0","63d7edbef6596097994e730e","665500ab8938657b03fbdba8","6657930d89971b4f6cbee2f8","885","stimuli/1001100.jpg","1","","prediction_trial","1","","true","","1","true","true","true","true","true","true","[1]","001","100","1","","","","","","",""
"","","","","","image-keyboard-response","217","217658","0.0-192.0","63d7edbef6596097994e730e","665500ab8938657b03fbdba8","6657930d89971b4f6cbee2f8","188","stimuli/10011001.jpg"," ","","feedback_trial","1","","","","","","","","","","","","","","","","","","","","",""
"","","","","","image-keyboard-response","218","218897","0.0-193.0","63d7edbef6596097994e730e","665500ab8938657b03fbdba8","6657930d89971b4f6cbee2f8","1229","stimuli/1000011.jpg","1","","prediction_trial","1","","true","","1","false","false","true","true","false","false","[1]","000","011","1","","","","","","",""
"","","","","","image-keyboard-response","219","219090","0.0-194.0","63d7edbef6596097994e730e","665500ab8938657b03fbdba8","6657930d89971b4f6cbee2f8","183","stimuli/10000111.jpg"," ","","feedback_trial","1","","","","","","","","","","","","","","","","","","","","",""
"","","","","","image-keyboard-response","220","220402","0.0-195.0","63d7edbef6596097994e730e","665500ab8938657b03fbdba8","6657930d89971b4f6cbee2f8","1302","stimuli/1001110.jpg","1","","prediction_trial","1","","true","","1","false","false","true","true","false","false","[1]","001","110","1","","","","","","",""
"","","","","","image-keyboard-response","221","220700","0.0-196.0","63d7edbef6596097994e730e","665500ab8938657b03fbdba8","6657930d89971b4f6cbee2f8","288","stimuli/10011101.jpg"," ","","feedback_trial","1","","","","","","","","","","","","","","","","","","","","",""
"","","","","","image-keyboard-response","222","221733","0.0-197.0","63d7edbef6596097994e730e","665500ab8938657b03fbdba8","6657930d89971b4f6cbee2f8","1023","stimuli/0110011.jpg","1","","prediction_trial","1","","true","","0","true","true","false","false","false","false","[0,1]","110","011","1","","","","","","",""
"","","","","","image-keyboard-response","223","222045","0.0-198.0","63d7edbef6596097994e730e","665500ab8938657b03fbdba8","6657930d89971b4f6cbee2f8","303","stimuli/01100111.jpg"," ","","feedback_trial","0","","","","","","","","","","","","","","","","","","","","",""
"","","","","","image-keyboard-response","224","223214","0.0-199.0","63d7edbef6596097994e730e","665500ab8938657b03fbdba8","6657930d89971b4f6cbee2f8","1164","stimuli/2111100.jpg","1","","prediction_trial","2","","false","","2","true","true","false","false","false","false","[2,1,0]","111","100","0","","","","","","",""
"","","","","","image-keyboard-response","225","223515","0.0-200.0","63d7edbef6596097994e730e","665500ab8938657b03fbdba8","6657930d89971b4f6cbee2f8","291","stimuli/21111002.jpg"," ","","feedback_trial","2","","","","","","","","","","","","","","","","","","","","",""
"","","","","","image-keyboard-response","226","224632","0.0-201.0","63d7edbef6596097994e730e","665500ab8938657b03fbdba8","6657930d89971b4f6cbee2f8","1107","stimuli/0100000.jpg","0","","prediction_trial","0","","true","","0","true","true","false","true","false","true","[0]","100","000","1","","","","","","",""
"","","","","","image-keyboard-response","227","224883","0.0-202.0","63d7edbef6596097994e730e","665500ab8938657b03fbdba8","6657930d89971b4f6cbee2f8","242","stimuli/01000000.jpg"," ","","feedback_trial","0","","","","","","","","","","","","","","","","","","","","",""
"","","","","","image-keyboard-response","228","225656","0.0-203.0","63d7edbef6596097994e730e","665500ab8938657b03fbdba8","6657930d89971b4f6cbee2f8","762","stimuli/2100000.jpg","2","","prediction_trial","2","","true","","2","true","true","true","true","true","true","[2]","100","000","1","","","","","","",""
"","","","","","image-keyboard-response","229","225855","0.0-204.0","63d7edbef6596097994e730e","665500ab8938657b03fbdba8","6657930d89971b4f6cbee2f8","190","stimuli/21000002.jpg"," ","","feedback_trial","2","","","","","","","","","","","","","","","","","","","","",""
"","","","","","image-keyboard-response","230","226816","0.0-205.0","63d7edbef6596097994e730e","665500ab8938657b03fbdba8","6657930d89971b4f6cbee2f8","952","stimuli/1110010.jpg","1","","prediction_trial","1","","true","","1","false","true","false","false","false","false","[0,1]","110","010","1","","","","","","",""
"","","","","","image-keyboard-response","231","227096","0.0-206.0","63d7edbef6596097994e730e","665500ab8938657b03fbdba8","6657930d89971b4f6cbee2f8","271","stimuli/11100101.jpg"," ","","feedback_trial","0","","","","","","","","","","","","","","","","","","","","",""
"","","","","","image-keyboard-response","232","228413","0.0-207.0","63d7edbef6596097994e730e","665500ab8938657b03fbdba8","6657930d89971b4f6cbee2f8","1307","stimuli/0100101.jpg","0","","prediction_trial","0","","true","","0","false","false","false","true","false","false","[0]","100","101","1","","","","","","",""
"","","","","","image-keyboard-response","233","228725","0.0-208.0","63d7edbef6596097994e730e","665500ab8938657b03fbdba8","6657930d89971b4f6cbee2f8","301","stimuli/01001010.jpg"," ","","feedback_trial","0","","","","","","","","","","","","","","","","","","","","",""
"","","","","","image-keyboard-response","234","229491","0.0-209.0","63d7edbef6596097994e730e","665500ab8938657b03fbdba8","6657930d89971b4f6cbee2f8","761","stimuli/0010101.jpg","1","","prediction_trial","0","","false","","0","false","false","true","true","false","false","[0]","010","101","0","","","","","","",""
"","","","","","image-keyboard-response","235","229772","0.0-210.0","63d7edbef6596097994e730e","665500ab8938657b03fbdba8","6657930d89971b4f6cbee2f8","272","stimuli/00101010.jpg"," ","","feedback_trial","0","","","","","","","","","","","","","","","","","","","","",""
"","","","","","image-keyboard-response","236","230614","0.0-211.0","63d7edbef6596097994e730e","665500ab8938657b03fbdba8","6657930d89971b4f6cbee2f8","833","stimuli/2111010.jpg","2","","prediction_trial","2","","true","","2","true","true","false","false","false","false","[2,0,1]","111","010","1","","","","","","",""
"","","","","","image-keyboard-response","237","230928","0.0-212.0","63d7edbef6596097994e730e","665500ab8938657b03fbdba8","6657930d89971b4f6cbee2f8","304","stimuli/21110102.jpg"," ","","feedback_trial","2","","","","","","","","","","","","","","","","","","","","",""
"","","","","","image-keyboard-response","238","231619","0.0-213.0","63d7edbef6596097994e730e","665500ab8938657b03fbdba8","6657930d89971b4f6cbee2f8","681","stimuli/1111101.jpg","1","","prediction_trial","1","","true","","1","true","true","false","false","false","false","[2,1,0]","111","101","1","","","","","","",""
"","","","","","image-keyboard-response","239","231983","0.0-214.0","63d7edbef6596097994e730e","665500ab8938657b03fbdba8","6657930d89971b4f6cbee2f8","354","stimuli/11111011.jpg"," ","","feedback_trial","2","","","","","","","","","","","","","","","","","","","","",""
"","","","","","image-keyboard-response","240","234594","0.0-215.0","63d7edbef6596097994e730e","665500ab8938657b03fbdba8","6657930d89971b4f6cbee2f8","2602","stimuli/0101000.jpg","2","","prediction_trial","0","","false","","0","true","true","false","false","false","false","[0,2]","101","000","0","","","","","","",""
"","","","","","image-keyboard-response","241","234793","0.0-216.0","63d7edbef6596097994e730e","665500ab8938657b03fbdba8","6657930d89971b4f6cbee2f8","189","stimuli/01010000.jpg"," ","","feedback_trial","0","","","","","","","","","","","","","","","","","","","","",""
"","","","","","image-keyboard-response","242","235668","0.0-217.0","63d7edbef6596097994e730e","665500ab8938657b03fbdba8","6657930d89971b4f6cbee2f8","866","stimuli/0010110.jpg","1","","prediction_trial","0","","false","","0","false","false","true","true","false","false","[0]","010","110","0","","","","","","",""
"","","","","","image-keyboard-response","243","235831","0.0-218.0","63d7edbef6596097994e730e","665500ab8938657b03fbdba8","6657930d89971b4f6cbee2f8","154","stimuli/00101100.jpg"," ","","feedback_trial","0","","","","","","","","","","","","","","","","","","","","",""
"","","","","","image-keyboard-response","244","237778","0.0-219.0","63d7edbef6596097994e730e","665500ab8938657b03fbdba8","6657930d89971b4f6cbee2f8","1938","stimuli/0001100.jpg","0","","prediction_trial","0","","true","","0","false","true","true","true","false","true","[0]","001","100","1","","","","","","",""
"","","","","","image-keyboard-response","245","237918","0.0-220.0","63d7edbef6596097994e730e","665500ab8938657b03fbdba8","6657930d89971b4f6cbee2f8","130","stimuli/00011000.jpg"," ","","feedback_trial","0","","","","","","","","","","","","","","","","","","","","",""
"","","","","","image-keyboard-response","246","240347","0.0-221.0","63d7edbef6596097994e730e","665500ab8938657b03fbdba8","6657930d89971b4f6cbee2f8","2419","stimuli/0001101.jpg","0","","prediction_trial","0","","true","","0","false","false","true","true","false","false","[0]","001","101","1","","","","","","",""
"","","","","","image-keyboard-response","247","240581","0.0-222.0","63d7edbef6596097994e730e","665500ab8938657b03fbdba8","6657930d89971b4f6cbee2f8","224","stimuli/00011010.jpg"," ","","feedback_trial","0","","","","","","","","","","","","","","","","","","","","",""
"","","","","","image-keyboard-response","248","243159","0.0-223.0","63d7edbef6596097994e730e","665500ab8938657b03fbdba8","6657930d89971b4f6cbee2f8","2568","stimuli/1101110.jpg","0","","prediction_trial","1","","false","","1","false","false","true","true","false","false","[1]","101","110","0","","","","","","",""
"","","","","","image-keyboard-response","249","243304","0.0-224.0","63d7edbef6596097994e730e","665500ab8938657b03fbdba8","6657930d89971b4f6cbee2f8","138","stimuli/11011101.jpg"," ","","feedback_trial","1","","","","","","","","","","","","","","","","","","","","",""
"","","","","","image-keyboard-response","250","244823","0.0-225.0","63d7edbef6596097994e730e","665500ab8938657b03fbdba8","6657930d89971b4f6cbee2f8","1514","stimuli/0110000.jpg","1","","prediction_trial","1","","true","","0","true","true","false","false","false","false","[0,1]","110","000","1","","","","","","",""
"","","","","","image-keyboard-response","251","245040","0.0-226.0","63d7edbef6596097994e730e","665500ab8938657b03fbdba8","6657930d89971b4f6cbee2f8","207","stimuli/01100001.jpg"," ","","feedback_trial","0","","","","","","","","","","","","","","","","","","","","",""
"","","","","","image-keyboard-response","252","246135","0.0-227.0","63d7edbef6596097994e730e","665500ab8938657b03fbdba8","6657930d89971b4f6cbee2f8","1086","stimuli/0011111.jpg","1","","prediction_trial","0","","false","","0","false","false","true","true","false","false","[0]","011","111","0","","","","","","",""
"","","","","","image-keyboard-response","253","246329","0.0-228.0","63d7edbef6596097994e730e","665500ab8938657b03fbdba8","6657930d89971b4f6cbee2f8","185","stimuli/00111110.jpg"," ","","feedback_trial","0","","","","","","","","","","","","","","","","","","","","",""
"","","","","","image-keyboard-response","254","247276","0.0-229.0","63d7edbef6596097994e730e","665500ab8938657b03fbdba8","6657930d89971b4f6cbee2f8","937","stimuli/0011001.jpg","0","","prediction_trial","0","","true","","0","true","true","true","true","true","true","[0]","011","001","1","","","","","","",""
"","","","","","image-keyboard-response","255","247490","0.0-230.0","63d7edbef6596097994e730e","665500ab8938657b03fbdba8","6657930d89971b4f6cbee2f8","204","stimuli/00110010.jpg"," ","","feedback_trial","0","","","","","","","","","","","","","","","","","","","","",""
"","","","","","image-keyboard-response","256","248603","0.0-231.0","63d7edbef6596097994e730e","665500ab8938657b03fbdba8","6657930d89971b4f6cbee2f8","1104","stimuli/2011000.jpg","1","","prediction_trial","2","","false","","2","true","true","false","false","false","false","[2,1]","011","000","0","","","","","","",""
"","","","","","image-keyboard-response","257","248857","0.0-232.0","63d7edbef6596097994e730e","665500ab8938657b03fbdba8","6657930d89971b4f6cbee2f8","243","stimuli/20110002.jpg"," ","","feedback_trial","2","","","","","","","","","","","","","","","","","","","","",""
"","","","","","image-keyboard-response","258","250699","0.0-233.0","63d7edbef6596097994e730e","665500ab8938657b03fbdba8","6657930d89971b4f6cbee2f8","1833","stimuli/2001110.jpg","2","","prediction_trial","2","","true","","2","true","true","false","true","false","true","[2]","001","110","1","","","","","","",""
"","","","","","image-keyboard-response","259","250930","0.0-234.0","63d7edbef6596097994e730e","665500ab8938657b03fbdba8","6657930d89971b4f6cbee2f8","222","stimuli/20011102.jpg"," ","","feedback_trial","2","","","","","","","","","","","","","","","","","","","","",""
"","","","","","image-keyboard-response","260","252452","0.0-235.0","63d7edbef6596097994e730e","665500ab8938657b03fbdba8","6657930d89971b4f6cbee2f8","1513","stimuli/2001000.jpg","2","","prediction_trial","2","","true","","2","true","true","false","true","false","true","[2]","001","000","1","","","","","","",""
"","","","","","image-keyboard-response","261","252666","0.0-236.0","63d7edbef6596097994e730e","665500ab8938657b03fbdba8","6657930d89971b4f6cbee2f8","208","stimuli/20010002.jpg"," ","","feedback_trial","2","","","","","","","","","","","","","","","","","","","","",""
"","","","","","image-keyboard-response","262","253814","0.0-237.0","63d7edbef6596097994e730e","665500ab8938657b03fbdba8","6657930d89971b4f6cbee2f8","1139","stimuli/2110010.jpg","2","","prediction_trial","2","","true","","2","true","true","true","true","true","true","[2]","110","010","1","","","","","","",""
"","","","","","image-keyboard-response","263","253972","0.0-238.0","63d7edbef6596097994e730e","665500ab8938657b03fbdba8","6657930d89971b4f6cbee2f8","149","stimuli/21100102.jpg"," ","","feedback_trial","2","","","","","","","","","","","","","","","","","","","","",""
"","","","","","image-keyboard-response","264","255522","0.0-239.0","63d7edbef6596097994e730e","665500ab8938657b03fbdba8","6657930d89971b4f6cbee2f8","1540","stimuli/1001111.jpg","1","","prediction_trial","1","","true","","1","false","false","true","true","false","false","[1]","001","111","1","","","","","","",""
"","","","","","image-keyboard-response","265","255621","0.0-240.0","63d7edbef6596097994e730e","665500ab8938657b03fbdba8","6657930d89971b4f6cbee2f8","88","stimuli/10011111.jpg"," ","","feedback_trial","1","","","","","","","","","","","","","","","","","","","","",""
"","","","","","image-keyboard-response","266","256488","0.0-241.0","63d7edbef6596097994e730e","665500ab8938657b03fbdba8","6657930d89971b4f6cbee2f8","857","stimuli/2000111.jpg","1","","prediction_trial","2","","false","","2","false","false","true","true","false","false","[2]","000","111","0","","","","","","",""
"","","","","","image-keyboard-response","267","256615","0.0-242.0","63d7edbef6596097994e730e","665500ab8938657b03fbdba8","6657930d89971b4f6cbee2f8","119","stimuli/20001112.jpg"," ","","feedback_trial","2","","","","","","","","","","","","","","","","","","","","",""
"","","","","","image-keyboard-response","268","257886","0.0-243.0","63d7edbef6596097994e730e","665500ab8938657b03fbdba8","6657930d89971b4f6cbee2f8","1261","stimuli/2111001.jpg","1","","prediction_trial","1","","true","","2","false","true","false","false","false","false","[0,1,2]","111","001","1","","","","","","",""
"","","","","","image-keyboard-response","269","258019","0.0-244.0","63d7edbef6596097994e730e","665500ab8938657b03fbdba8","6657930d89971b4f6cbee2f8","124","stimuli/21110011.jpg"," ","","feedback_trial","0","","","","","","","","","","","","","","","","","","","","",""
"","","","","","image-keyboard-response","270","259517","0.0-245.0","63d7edbef6596097994e730e","665500ab8938657b03fbdba8","6657930d89971b4f6cbee2f8","1490","stimuli/1010011.jpg","1","","prediction_trial","1","","true","","1","false","false","false","true","false","false","[1]","010","011","1","","","","","","",""
"","","","","","image-keyboard-response","271","259692","0.0-246.0","63d7edbef6596097994e730e","665500ab8938657b03fbdba8","6657930d89971b4f6cbee2f8","165","stimuli/10100111.jpg"," ","","feedback_trial","1","","","","","","","","","","","","","","","","","","","","",""
"","","","","","image-keyboard-response","272","262396","0.0-247.0","63d7edbef6596097994e730e","665500ab8938657b03fbdba8","6657930d89971b4f6cbee2f8","2694","stimuli/0101011.jpg","2","","prediction_trial","0","","false","","0","true","true","false","false","false","false","[2,0]","101","011","0","","","","","","",""
"","","","","","image-keyboard-response","273","262568","0.0-248.0","63d7edbef6596097994e730e","665500ab8938657b03fbdba8","6657930d89971b4f6cbee2f8","164","stimuli/01010110.jpg"," ","","feedback_trial","2","","","","","","","","","","","","","","","","","","","","",""
"","","","","","image-keyboard-response","274","264074","0.0-249.0","63d7edbef6596097994e730e","665500ab8938657b03fbdba8","6657930d89971b4f6cbee2f8","1496","stimuli/2111110.jpg","1","","prediction_trial","1","","true","","2","true","true","false","false","false","false","[1,0,2]","111","110","1","","","","","","",""
"","","","","","image-keyboard-response","275","264294","0.0-250.0","63d7edbef6596097994e730e","665500ab8938657b03fbdba8","6657930d89971b4f6cbee2f8","210","stimuli/21111101.jpg"," ","","feedback_trial","1","","","","","","","","","","","","","","","","","","","","",""
"","","","","","image-keyboard-response","276","265036","0.0-251.0","63d7edbef6596097994e730e","665500ab8938657b03fbdba8","6657930d89971b4f6cbee2f8","732","stimuli/2011001.jpg","1","","prediction_trial","2","","false","","2","false","true","false","false","false","false","[2,1]","011","001","0","","","","","","",""
"","","","","","image-keyboard-response","277","265900","0.0-252.0","63d7edbef6596097994e730e","665500ab8938657b03fbdba8","6657930d89971b4f6cbee2f8","855","stimuli/20110012.jpg"," ","","feedback_trial","2","","","","","","","","","","","","","","","","","","","","",""
"","","","","","image-keyboard-response","278","266817","0.0-253.0","63d7edbef6596097994e730e","665500ab8938657b03fbdba8","6657930d89971b4f6cbee2f8","907","stimuli/0010010.jpg","0","","prediction_trial","0","","true","","0","true","true","true","true","true","true","[0]","010","010","1","","","","","","",""
"","","","","","image-keyboard-response","279","267019","0.0-254.0","63d7edbef6596097994e730e","665500ab8938657b03fbdba8","6657930d89971b4f6cbee2f8","193","stimuli/00100100.jpg"," ","","feedback_trial","0","","","","","","","","","","","","","","","","","","","","",""
"","","","","","image-keyboard-response","280","268914","0.0-255.0","63d7edbef6596097994e730e","665500ab8938657b03fbdba8","6657930d89971b4f6cbee2f8","1886","stimuli/2100111.jpg","1","","prediction_trial","2","","false","","2","false","false","true","true","false","false","[2]","100","111","0","","","","","","",""
"","","","","","image-keyboard-response","281","269098","0.0-256.0","63d7edbef6596097994e730e","665500ab8938657b03fbdba8","6657930d89971b4f6cbee2f8","175","stimuli/21001112.jpg"," ","","feedback_trial","2","","","","","","","","","","","","","","","","","","","","",""
"","","","","","image-keyboard-response","282","270397","0.0-257.0","63d7edbef6596097994e730e","665500ab8938657b03fbdba8","6657930d89971b4f6cbee2f8","1290","stimuli/1111100.jpg","1","","prediction_trial","1","","true","","1","true","true","false","false","false","false","[0,1,2]","111","100","1","","","","","","",""
"","","","","","image-keyboard-response","283","270582","0.0-258.0","63d7edbef6596097994e730e","665500ab8938657b03fbdba8","6657930d89971b4f6cbee2f8","175","stimuli/11111001.jpg"," ","","feedback_trial","0","","","","","","","","","","","","","","","","","","","","",""
"","","","","","image-keyboard-response","284","272218","0.0-259.0","63d7edbef6596097994e730e","665500ab8938657b03fbdba8","6657930d89971b4f6cbee2f8","1627","stimuli/0001111.jpg","1","","prediction_trial","0","","false","","0","false","false","true","true","false","false","[0]","001","111","0","","","","","","",""
"","","","","","image-keyboard-response","285","272389","0.0-260.0","63d7edbef6596097994e730e","665500ab8938657b03fbdba8","6657930d89971b4f6cbee2f8","161","stimuli/00011110.jpg"," ","","feedback_trial","0","","","","","","","","","","","","","","","","","","","","",""
"","","","","","image-keyboard-response","286","273922","0.0-261.0","63d7edbef6596097994e730e","665500ab8938657b03fbdba8","6657930d89971b4f6cbee2f8","1526","stimuli/1101010.jpg","1","","prediction_trial","1","","true","","1","false","true","true","true","false","true","[1]","101","010","1","","","","","","",""
"","","","","","image-keyboard-response","287","274108","0.0-262.0","63d7edbef6596097994e730e","665500ab8938657b03fbdba8","6657930d89971b4f6cbee2f8","175","stimuli/11010101.jpg"," ","","feedback_trial","1","","","","","","","","","","","","","","","","","","","","",""
"","","","","","image-keyboard-response","288","275859","0.0-263.0","63d7edbef6596097994e730e","665500ab8938657b03fbdba8","6657930d89971b4f6cbee2f8","1742","stimuli/2010011.jpg","1","","prediction_trial","2","","false","","2","false","false","true","true","false","false","[2]","010","011","0","","","","","","",""
"","","","","","image-keyboard-response","289","276158","0.0-264.0","63d7edbef6596097994e730e","665500ab8938657b03fbdba8","6657930d89971b4f6cbee2f8","289","stimuli/20100112.jpg"," ","","feedback_trial","2","","","","","","","","","","","","","","","","","","","","",""
"","","","","","image-keyboard-response","290","277524","0.0-265.0","63d7edbef6596097994e730e","665500ab8938657b03fbdba8","6657930d89971b4f6cbee2f8","1357","stimuli/1010110.jpg","1","","prediction_trial","1","","true","","1","false","false","false","true","false","false","[1]","010","110","1","","","","","","",""
"","","","","","image-keyboard-response","291","277943","0.0-266.0","63d7edbef6596097994e730e","665500ab8938657b03fbdba8","6657930d89971b4f6cbee2f8","409","stimuli/10101101.jpg"," ","","feedback_trial","1","","","","","","","","","","","","","","","","","","","","",""
"","","","","","image-keyboard-response","292","279210","0.0-267.0","63d7edbef6596097994e730e","665500ab8938657b03fbdba8","6657930d89971b4f6cbee2f8","1258","stimuli/2110011.jpg","1","","prediction_trial","2","","false","","2","false","false","true","true","false","false","[2]","110","011","0","","","","","","",""
"","","","","","image-keyboard-response","293","279693","0.0-268.0","63d7edbef6596097994e730e","665500ab8938657b03fbdba8","6657930d89971b4f6cbee2f8","473","stimuli/21100112.jpg"," ","","feedback_trial","2","","","","","","","","","","","","","","","","","","","","",""
"","","","","","image-keyboard-response","294","281176","0.0-269.0","63d7edbef6596097994e730e","665500ab8938657b03fbdba8","6657930d89971b4f6cbee2f8","1474","stimuli/2001010.jpg","2","","prediction_trial","2","","true","","2","true","true","false","true","false","true","[2]","001","010","1","","","","","","",""
"","","","","","image-keyboard-response","295","281487","0.0-270.0","63d7edbef6596097994e730e","665500ab8938657b03fbdba8","6657930d89971b4f6cbee2f8","301","stimuli/20010102.jpg"," ","","feedback_trial","2","","","","","","","","","","","","","","","","","","","","",""
"","","","","","image-keyboard-response","296","283099","0.0-271.0","63d7edbef6596097994e730e","665500ab8938657b03fbdba8","6657930d89971b4f6cbee2f8","1603","stimuli/2010000.jpg","2","","prediction_trial","2","","true","","2","true","true","true","true","true","true","[2]","010","000","1","","","","","","",""
"","","","","","image-keyboard-response","297","283288","0.0-272.0","63d7edbef6596097994e730e","665500ab8938657b03fbdba8","6657930d89971b4f6cbee2f8","180","stimuli/20100002.jpg"," ","","feedback_trial","2","","","","","","","","","","","","","","","","","","","","",""
"","","","","","image-keyboard-response","298","284171","0.0-273.0","63d7edbef6596097994e730e","665500ab8938657b03fbdba8","6657930d89971b4f6cbee2f8","874","stimuli/0001011.jpg","0","","prediction_trial","0","","true","","0","true","true","true","true","true","true","[0]","001","011","1","","","","","","",""
"","","","","","image-keyboard-response","299","284309","0.0-274.0","63d7edbef6596097994e730e","665500ab8938657b03fbdba8","6657930d89971b4f6cbee2f8","128","stimuli/00010110.jpg"," ","","feedback_trial","0","","","","","","","","","","","","","","","","","","","","",""
"","","","","","image-keyboard-response","300","285138","0.0-275.0","63d7edbef6596097994e730e","665500ab8938657b03fbdba8","6657930d89971b4f6cbee2f8","819","stimuli/0000000.jpg","0","","prediction_trial","0","","true","","0","true","true","true","true","true","true","[0]","000","000","1","","","","","","",""
"","","","","","image-keyboard-response","301","285277","0.0-276.0","63d7edbef6596097994e730e","665500ab8938657b03fbdba8","6657930d89971b4f6cbee2f8","129","stimuli/00000000.jpg"," ","","feedback_trial","0","","","","","","","","","","","","","","","","","","","","",""
"","","","","","image-keyboard-response","302","286527","0.0-277.0","63d7edbef6596097994e730e","665500ab8938657b03fbdba8","6657930d89971b4f6cbee2f8","1241","stimuli/0111100.jpg","1","","prediction_trial","1","","true","","0","false","true","false","false","false","false","[2,1,0]","111","100","1","","","","","","",""
"","","","","","image-keyboard-response","303","286684","0.0-278.0","63d7edbef6596097994e730e","665500ab8938657b03fbdba8","6657930d89971b4f6cbee2f8","148","stimuli/01111001.jpg"," ","","feedback_trial","2","","","","","","","","","","","","","","","","","","","","",""
"","","","","","image-keyboard-response","304","287702","0.0-279.0","63d7edbef6596097994e730e","665500ab8938657b03fbdba8","6657930d89971b4f6cbee2f8","1008","stimuli/2111011.jpg","1","","prediction_trial","2","","false","","2","false","false","false","false","false","false","[1,0,2]","111","011","0","","","","","","",""
"","","","","","image-keyboard-response","305","287892","0.0-280.0","63d7edbef6596097994e730e","665500ab8938657b03fbdba8","6657930d89971b4f6cbee2f8","181","stimuli/21110112.jpg"," ","","feedback_trial","1","","","","","","","","","","","","","","","","","","","","",""
"","","","","","image-keyboard-response","306","288882","0.0-281.0","63d7edbef6596097994e730e","665500ab8938657b03fbdba8","6657930d89971b4f6cbee2f8","981","stimuli/2000010.jpg","2","","prediction_trial","2","","true","","2","true","true","true","true","true","true","[2]","000","010","1","","","","","","",""
"","","","","","image-keyboard-response","307","289056","0.0-282.0","63d7edbef6596097994e730e","665500ab8938657b03fbdba8","6657930d89971b4f6cbee2f8","170","stimuli/20000102.jpg"," ","","feedback_trial","2","","","","","","","","","","","","","","","","","","","","",""
"","","","","","image-keyboard-response","308","290781","0.0-283.0","63d7edbef6596097994e730e","665500ab8938657b03fbdba8","6657930d89971b4f6cbee2f8","1719","stimuli/1100010.jpg","1","","prediction_trial","1","","true","","1","false","true","true","true","false","true","[1]","100","010","1","","","","","","",""
"","","","","","image-keyboard-response","309","291135","0.0-284.0","63d7edbef6596097994e730e","665500ab8938657b03fbdba8","6657930d89971b4f6cbee2f8","345","stimuli/11000101.jpg"," ","","feedback_trial","1","","","","","","","","","","","","","","","","","","","","",""
"","","","","","image-keyboard-response","310","292195","0.0-285.0","63d7edbef6596097994e730e","665500ab8938657b03fbdba8","6657930d89971b4f6cbee2f8","1051","stimuli/0100110.jpg","1","","prediction_trial","0","","false","","0","false","false","false","true","false","false","[0]","100","110","0","","","","","","",""
"","","","","","image-keyboard-response","311","292897","0.0-286.0","63d7edbef6596097994e730e","665500ab8938657b03fbdba8","6657930d89971b4f6cbee2f8","693","stimuli/01001100.jpg"," ","","feedback_trial","0","","","","","","","","","","","","","","","","","","","","",""
"","","","","","image-keyboard-response","312","294171","0.0-287.0","63d7edbef6596097994e730e","665500ab8938657b03fbdba8","6657930d89971b4f6cbee2f8","1265","stimuli/2010001.jpg","2","","prediction_trial","2","","true","","2","false","true","true","true","false","true","[2]","010","001","1","","","","","","",""
"","","","","","image-keyboard-response","313","294458","0.0-288.0","63d7edbef6596097994e730e","665500ab8938657b03fbdba8","6657930d89971b4f6cbee2f8","278","stimuli/20100012.jpg"," ","","feedback_trial","2","","","","","","","","","","","","","","","","","","","","",""
"","","","","","image-keyboard-response","314","295394","0.0-289.0","63d7edbef6596097994e730e","665500ab8938657b03fbdba8","6657930d89971b4f6cbee2f8","925","stimuli/2000011.jpg","1","","prediction_trial","2","","false","","2","false","false","true","true","false","false","[2]","000","011","0","","","","","","",""
"","","","","","image-keyboard-response","315","295692","0.0-290.0","63d7edbef6596097994e730e","665500ab8938657b03fbdba8","6657930d89971b4f6cbee2f8","289","stimuli/20000112.jpg"," ","","feedback_trial","2","","","","","","","","","","","","","","","","","","","","",""
"","","","","","image-keyboard-response","316","296290","0.0-291.0","63d7edbef6596097994e730e","665500ab8938657b03fbdba8","6657930d89971b4f6cbee2f8","587","stimuli/1001000.jpg","1","","prediction_trial","1","","true","","1","true","true","true","true","true","true","[1]","001","000","1","","","","","","",""
"","","","","","image-keyboard-response","317","296619","0.0-292.0","63d7edbef6596097994e730e","665500ab8938657b03fbdba8","6657930d89971b4f6cbee2f8","320","stimuli/10010001.jpg"," ","","feedback_trial","1","","","","","","","","","","","","","","","","","","","","",""
"","","","","","survey-html-form","318","308407","0.0-293.0","63d7edbef6596097994e730e","665500ab8938657b03fbdba8","6657930d89971b4f6cbee2f8","11778","","{""feedback"":"""",""age"":""39"",""gender"":""Male"",""other_gender"":"""",""race"":""Multiracial"",""other_race"":"""",""ethnicity"":""Non-Hispanic""}","","exit_survey","","","","","","","","","","","","","","","","","39","Non-Hispanic","Male","Multiracial","0.6319444444444444","0.6319444444444444"
