"success","timeout","failed_images","failed_audio","failed_video","trial_type","trial_index","time_elapsed","internal_node_id","prolific_id","prolific_study_id","prolific_session_id","rt","stimulus","response","view_history","trial","character_choice","stimulus_dict","accuracy","correct_response","ball_pos","ego_ball_visible","ego_can_infer","alter_ball_visible","alter_can_infer","collective_ball_visible","collective_can_infer","search_locations","alter_occluders","ego_occluders","accuracy_bool","feedback","age","ethnicity","gender","race","overall_accuracy","bonus"
"true","false","[]","[]","[]","preload","0","1806","0.0-0.0","5eaca76bcf6b3914ba0fbfe0","665500ab8938657b03fbdba8","6657927b40f706e2b22ce8e0","","","","","","","","","","","","","","","","","","","","","","","","","","",""
"true","","","","","fullscreen","1","5192","0.0-1.0","5eaca76bcf6b3914ba0fbfe0","665500ab8938657b03fbdba8","6657927b40f706e2b22ce8e0","","","","","","","","","","","","","","","","","","","","","","","","","","",""
"","","","","","html-button-response","2","9335","0.0-2.0","5eaca76bcf6b3914ba0fbfe0","665500ab8938657b03fbdba8","6657927b40f706e2b22ce8e0","4142","<p><b>Consent Form</b></p> <div style=""text-align:left;background-color:lightgrey; padding:20px; max-width:900px;""><p>Please consider this information carefully before deciding whether to participate in this research.</p> <p>The purpose of this research is to examine which factors influence social judgment and decision-making. You will be asked to make judgements about individuals and actions in social scenarios. We are simply interested in your judgement. The study will take less than 1 hour to complete, and you will receive less than $20 on Prolific. Your compensation and time commitment are specified in the study description. There are no anticipated risks associated with participating in this study. The effects of participating should be comparable to those you would ordinarily experience from viewing a computer monitor and using a mouse or keyboard for a similar amount of time. At the end of the study, we will provide an explanation of the questions that motivate this line of research and will describe the potential implications. </p><p> Your participation in this study is completely voluntary and you may refuse to participate or you may choose to withdraw at any time without penalty or loss of benefits to you which are otherwise entitled. Your participation in this study will remain confidential. No personally identifiable information will be associated with your data. Also, all analyses of the data will be averaged across all the participants, so your individual responses will never be specifically analyzed. </p><p> If you have questions or concerns about your participation or payment, or want to request a summary of research findings, please contact Dr. Jonathan Phillips at Jonathan.S.Phillips@dartmouth.edu. </p><p> Please save a copy of this form for your records. </p><p><b>Agreement: </b>The nature and purpose of this research have been sufficiently explained and I agree to participate in this study. I understand that I am free to withdraw at any time without incurring any penalty. Please consent by clicking the button below to continue. Otherwise, please exit the study at any time. </p>","0","","","","","","","","","","","","","","","","","","","","","","","",""
"","","","","","instructions","3","43430","0.0-3.0-0.0","5eaca76bcf6b3914ba0fbfe0","665500ab8938657b03fbdba8","6657927b40f706e2b22ce8e0","34095","","","[{""page_index"":0,""viewing_time"":2240},{""page_index"":1,""viewing_time"":1398},{""page_index"":2,""viewing_time"":1566},{""page_index"":3,""viewing_time"":2347},{""page_index"":4,""viewing_time"":1499},{""page_index"":5,""viewing_time"":1501},{""page_index"":6,""viewing_time"":1427},{""page_index"":7,""viewing_time"":2098},{""page_index"":8,""viewing_time"":1466},{""page_index"":9,""viewing_time"":1615},{""page_index"":10,""viewing_time"":7516},{""page_index"":11,""viewing_time"":4488},{""page_index"":12,""viewing_time"":3609},{""page_index"":13,""viewing_time"":1326}]","intro","","","","","","","","","","","","","","","","","","","","","",""
"","","","","","image-keyboard-response","4","46773","0.0-3.0-1.0","5eaca76bcf6b3914ba0fbfe0","665500ab8938657b03fbdba8","6657927b40f706e2b22ce8e0","3334","stimuli/1011100.jpg","1","","prediction_practice","2","{""filepath"":""stimuli/1011100.jpg"",""ball_pos"":1,""ego_ball_visible"":true,""ego_can_infer"":true,""alter_ball_visible"":false,""alter_can_infer"":false,""collective_ball_visible"":false,""collective_can_infer"":false,""search_locations"":[1,2],""alter_occluders"":""011"",""ego_occluders"":""100""}","false","","","","","","","","","","","","","","","","","","",""
"","","","","","image-keyboard-response","5","48316","0.0-3.0-2.0","5eaca76bcf6b3914ba0fbfe0","665500ab8938657b03fbdba8","6657927b40f706e2b22ce8e0","1542","stimuli/10111002.jpg"," ","","practrice_feedback","1","","","","","","","","","","","","","","","","","","","","",""
"","","","","","image-keyboard-response","6","49949","0.0-3.0-3.0","5eaca76bcf6b3914ba0fbfe0","665500ab8938657b03fbdba8","6657927b40f706e2b22ce8e0","1630","stimuli/2111101.jpg","2","","prediction_practice","0","{""filepath"":""stimuli/2111101.jpg"",""ball_pos"":2,""ego_ball_visible"":false,""ego_can_infer"":false,""alter_ball_visible"":false,""alter_can_infer"":false,""collective_ball_visible"":false,""collective_can_infer"":false,""search_locations"":[1,2,0],""alter_occluders"":""111"",""ego_occluders"":""101""}","false","","","","","","","","","","","","","","","","","","",""
"","","","","","image-keyboard-response","7","51405","0.0-3.0-4.0","5eaca76bcf6b3914ba0fbfe0","665500ab8938657b03fbdba8","6657927b40f706e2b22ce8e0","1454","stimuli/21111010.jpg"," ","","practrice_feedback","1","","","","","","","","","","","","","","","","","","","","",""
"","","","","","image-keyboard-response","8","52354","0.0-3.0-5.0","5eaca76bcf6b3914ba0fbfe0","665500ab8938657b03fbdba8","6657927b40f706e2b22ce8e0","948","stimuli/0101101.jpg","2","","prediction_practice","0","{""filepath"":""stimuli/0101101.jpg"",""ball_pos"":0,""ego_ball_visible"":false,""ego_can_infer"":false,""alter_ball_visible"":false,""alter_can_infer"":false,""collective_ball_visible"":false,""collective_can_infer"":false,""search_locations"":[0,2],""alter_occluders"":""101"",""ego_occluders"":""101""}","false","","","","","","","","","","","","","","","","","","",""
"","","","","","image-keyboard-response","9","53818","0.0-3.0-6.0","5eaca76bcf6b3914ba0fbfe0","665500ab8938657b03fbdba8","6657927b40f706e2b22ce8e0","1464","stimuli/01011010.jpg"," ","","practrice_feedback","0","","","","","","","","","","","","","","","","","","","","",""
"","","","","","image-keyboard-response","10","54914","0.0-3.0-7.0","5eaca76bcf6b3914ba0fbfe0","665500ab8938657b03fbdba8","6657927b40f706e2b22ce8e0","1095","stimuli/1100111.jpg","0","","prediction_practice","1","{""filepath"":""stimuli/1100111.jpg"",""ball_pos"":1,""ego_ball_visible"":false,""ego_can_infer"":false,""alter_ball_visible"":true,""alter_can_infer"":true,""collective_ball_visible"":false,""collective_can_infer"":false,""search_locations"":[1],""alter_occluders"":""100"",""ego_occluders"":""111""}","false","","","","","","","","","","","","","","","","","","",""
"","","","","","image-keyboard-response","11","58677","0.0-3.0-8.0","5eaca76bcf6b3914ba0fbfe0","665500ab8938657b03fbdba8","6657927b40f706e2b22ce8e0","3762","stimuli/11001111.jpg"," ","","practrice_feedback","1","","","","","","","","","","","","","","","","","","","","",""
"","","","","","image-keyboard-response","12","59749","0.0-3.0-9.0","5eaca76bcf6b3914ba0fbfe0","665500ab8938657b03fbdba8","6657927b40f706e2b22ce8e0","1071","stimuli/2110001.jpg","2","","prediction_practice","2","{""filepath"":""stimuli/2110001.jpg"",""ball_pos"":2,""ego_ball_visible"":false,""ego_can_infer"":true,""alter_ball_visible"":true,""alter_can_infer"":true,""collective_ball_visible"":false,""collective_can_infer"":true,""search_locations"":[2],""alter_occluders"":""110"",""ego_occluders"":""001""}","true","","","","","","","","","","","","","","","","","","",""
"","","","","","image-keyboard-response","13","60882","0.0-3.0-10.0","5eaca76bcf6b3914ba0fbfe0","665500ab8938657b03fbdba8","6657927b40f706e2b22ce8e0","1132","stimuli/21100012.jpg"," ","","practrice_feedback","2","","","","","","","","","","","","","","","","","","","","",""
"","","","","","image-keyboard-response","14","63436","0.0-3.0-11.0","5eaca76bcf6b3914ba0fbfe0","665500ab8938657b03fbdba8","6657927b40f706e2b22ce8e0","2553","stimuli/0100111.jpg","2","","prediction_practice","0","{""filepath"":""stimuli/0100111.jpg"",""ball_pos"":0,""ego_ball_visible"":false,""ego_can_infer"":false,""alter_ball_visible"":false,""alter_can_infer"":true,""collective_ball_visible"":false,""collective_can_infer"":false,""search_locations"":[0],""alter_occluders"":""100"",""ego_occluders"":""111""}","false","","","","","","","","","","","","","","","","","","",""
"","","","","","image-keyboard-response","15","65011","0.0-3.0-12.0","5eaca76bcf6b3914ba0fbfe0","665500ab8938657b03fbdba8","6657927b40f706e2b22ce8e0","1573","stimuli/01001110.jpg"," ","","practrice_feedback","0","","","","","","","","","","","","","","","","","","","","",""
"","","","","","image-keyboard-response","16","66548","0.0-3.0-13.0","5eaca76bcf6b3914ba0fbfe0","665500ab8938657b03fbdba8","6657927b40f706e2b22ce8e0","1536","stimuli/2111100.jpg","2","","prediction_practice","0","{""filepath"":""stimuli/2111100.jpg"",""ball_pos"":2,""ego_ball_visible"":true,""ego_can_infer"":true,""alter_ball_visible"":false,""alter_can_infer"":false,""collective_ball_visible"":false,""collective_can_infer"":false,""search_locations"":[1,2,0],""alter_occluders"":""111"",""ego_occluders"":""100""}","false","","","","","","","","","","","","","","","","","","",""
"","","","","","image-keyboard-response","17","69285","0.0-3.0-14.0","5eaca76bcf6b3914ba0fbfe0","665500ab8938657b03fbdba8","6657927b40f706e2b22ce8e0","2735","stimuli/21111000.jpg"," ","","practrice_feedback","1","","","","","","","","","","","","","","","","","","","","",""
"","","","","","image-keyboard-response","18","70764","0.0-3.0-15.0","5eaca76bcf6b3914ba0fbfe0","665500ab8938657b03fbdba8","6657927b40f706e2b22ce8e0","1477","stimuli/0000101.jpg","0","","prediction_practice","0","{""filepath"":""stimuli/0000101.jpg"",""ball_pos"":0,""ego_ball_visible"":false,""ego_can_infer"":false,""alter_ball_visible"":true,""alter_can_infer"":true,""collective_ball_visible"":false,""collective_can_infer"":false,""search_locations"":[0],""alter_occluders"":""000"",""ego_occluders"":""101""}","true","","","","","","","","","","","","","","","","","","",""
"","","","","","image-keyboard-response","19","72090","0.0-3.0-16.0","5eaca76bcf6b3914ba0fbfe0","665500ab8938657b03fbdba8","6657927b40f706e2b22ce8e0","1324","stimuli/00001010.jpg"," ","","practrice_feedback","0","","","","","","","","","","","","","","","","","","","","",""
"","","","","","image-keyboard-response","20","73042","0.0-3.0-17.0","5eaca76bcf6b3914ba0fbfe0","665500ab8938657b03fbdba8","6657927b40f706e2b22ce8e0","951","stimuli/0010101.jpg","2","","prediction_practice","0","{""filepath"":""stimuli/0010101.jpg"",""ball_pos"":0,""ego_ball_visible"":false,""ego_can_infer"":false,""alter_ball_visible"":true,""alter_can_infer"":true,""collective_ball_visible"":false,""collective_can_infer"":false,""search_locations"":[0],""alter_occluders"":""010"",""ego_occluders"":""101""}","false","","","","","","","","","","","","","","","","","","",""
"","","","","","image-keyboard-response","21","74115","0.0-3.0-18.0","5eaca76bcf6b3914ba0fbfe0","665500ab8938657b03fbdba8","6657927b40f706e2b22ce8e0","1073","stimuli/00101010.jpg"," ","","practrice_feedback","0","","","","","","","","","","","","","","","","","","","","",""
"","","","","","image-keyboard-response","22","76625","0.0-3.0-19.0","5eaca76bcf6b3914ba0fbfe0","665500ab8938657b03fbdba8","6657927b40f706e2b22ce8e0","2508","stimuli/1110100.jpg","0","","prediction_practice","0","{""filepath"":""stimuli/1110100.jpg"",""ball_pos"":1,""ego_ball_visible"":true,""ego_can_infer"":true,""alter_ball_visible"":false,""alter_can_infer"":false,""collective_ball_visible"":false,""collective_can_infer"":false,""search_locations"":[1,0],""alter_occluders"":""110"",""ego_occluders"":""100""}","true","","","","","","","","","","","","","","","","","","",""
"","","","","","image-keyboard-response","23","77745","0.0-3.0-20.0","5eaca76bcf6b3914ba0fbfe0","665500ab8938657b03fbdba8","6657927b40f706e2b22ce8e0","1120","stimuli/11101000.jpg"," ","","practrice_feedback","1","","","","","","","","","","","","","","","","","","","","",""
"","","","","","html-button-response","24","81917","0.0-3.0-21.0","5eaca76bcf6b3914ba0fbfe0","665500ab8938657b03fbdba8","6657927b40f706e2b22ce8e0","4171","Now that you've had some practice, you'll be tested with a couple of easy trials. If you correctly predict Sam's choice, you'll move on to complete the experiment!","0","","","","","","","","","","","","","","","","","","","","","","","",""
"","","","","","image-keyboard-response","25","83954","0.0-3.0-22.0-0.0","5eaca76bcf6b3914ba0fbfe0","665500ab8938657b03fbdba8","6657927b40f706e2b22ce8e0","2036","stimuli/0000011.jpg","arrowleft","","comprehension_quiz","","","true","arrowleft","","","","","","","","","","","","","","","","","",""
"","","","","","image-keyboard-response","26","84746","0.0-3.0-22.0-1.0","5eaca76bcf6b3914ba0fbfe0","665500ab8938657b03fbdba8","6657927b40f706e2b22ce8e0","791","stimuli/00000110.jpg"," ","","comprehension_quiz","","","true"," ","","","","","","","","","","","","","","","","","",""
"","","","","","image-keyboard-response","27","86522","0.0-3.0-22.0-2.0","5eaca76bcf6b3914ba0fbfe0","665500ab8938657b03fbdba8","6657927b40f706e2b22ce8e0","1776","stimuli/1010010.jpg","arrowdown","","comprehension_quiz","","","true","arrowdown","","","","","","","","","","","","","","","","","",""
"","","","","","image-keyboard-response","28","87186","0.0-3.0-22.0-3.0","5eaca76bcf6b3914ba0fbfe0","665500ab8938657b03fbdba8","6657927b40f706e2b22ce8e0","663","stimuli/10100101.jpg"," ","","comprehension_quiz","","","true"," ","","","","","","","","","","","","","","","","","",""
"","","","","","html-button-response","29","90105","0.0-4.0","5eaca76bcf6b3914ba0fbfe0","665500ab8938657b03fbdba8","6657927b40f706e2b22ce8e0","2919","The experiment will now begin.","0","","","","","","","","","","","","","","","","","","","","","","","",""
"","","","","","image-keyboard-response","30","91650","0.0-5.0","5eaca76bcf6b3914ba0fbfe0","665500ab8938657b03fbdba8","6657927b40f706e2b22ce8e0","1545","stimuli/1001001.jpg","1","","prediction_trial","1","","true","","1","true","true","true","true","true","true","[1]","001","001","1","","","","","","",""
"","","","","","image-keyboard-response","31","92074","0.0-6.0","5eaca76bcf6b3914ba0fbfe0","665500ab8938657b03fbdba8","6657927b40f706e2b22ce8e0","423","stimuli/10010011.jpg"," ","","feedback_trial","1","","","","","","","","","","","","","","","","","","","","",""
"","","","","","image-keyboard-response","32","92842","0.0-7.0","5eaca76bcf6b3914ba0fbfe0","665500ab8938657b03fbdba8","6657927b40f706e2b22ce8e0","765","stimuli/0001001.jpg","0","","prediction_trial","0","","true","","0","true","true","true","true","true","true","[0]","001","001","1","","","","","","",""
"","","","","","image-keyboard-response","33","93185","0.0-8.0","5eaca76bcf6b3914ba0fbfe0","665500ab8938657b03fbdba8","6657927b40f706e2b22ce8e0","343","stimuli/00010010.jpg"," ","","feedback_trial","0","","","","","","","","","","","","","","","","","","","","",""
"","","","","","image-keyboard-response","34","99034","0.0-9.0","5eaca76bcf6b3914ba0fbfe0","665500ab8938657b03fbdba8","6657927b40f706e2b22ce8e0","5848","stimuli/0011110.jpg","0","","prediction_trial","0","","true","","0","false","false","true","true","false","false","[0]","011","110","1","","","","","","",""
"","","","","","image-keyboard-response","35","99753","0.0-10.0","5eaca76bcf6b3914ba0fbfe0","665500ab8938657b03fbdba8","6657927b40f706e2b22ce8e0","719","stimuli/00111100.jpg"," ","","feedback_trial","0","","","","","","","","","","","","","","","","","","","","",""
"","","","","","image-keyboard-response","36","101434","0.0-11.0","5eaca76bcf6b3914ba0fbfe0","665500ab8938657b03fbdba8","6657927b40f706e2b22ce8e0","1680","stimuli/2011101.jpg","0","","prediction_trial","2","","false","","2","false","false","false","false","false","false","[2,1]","011","101","0","","","","","","",""
"","","","","","image-keyboard-response","37","102393","0.0-12.0","5eaca76bcf6b3914ba0fbfe0","665500ab8938657b03fbdba8","6657927b40f706e2b22ce8e0","959","stimuli/20111012.jpg"," ","","feedback_trial","2","","","","","","","","","","","","","","","","","","","","",""
"","","","","","image-keyboard-response","38","104216","0.0-13.0","5eaca76bcf6b3914ba0fbfe0","665500ab8938657b03fbdba8","6657927b40f706e2b22ce8e0","1831","stimuli/0001111.jpg","1","","prediction_trial","0","","false","","0","false","false","true","true","false","false","[0]","001","111","0","","","","","","",""
"","","","","","image-keyboard-response","39","104896","0.0-14.0","5eaca76bcf6b3914ba0fbfe0","665500ab8938657b03fbdba8","6657927b40f706e2b22ce8e0","680","stimuli/00011110.jpg"," ","","feedback_trial","0","","","","","","","","","","","","","","","","","","","","",""
"","","","","","image-keyboard-response","40","106040","0.0-15.0","5eaca76bcf6b3914ba0fbfe0","665500ab8938657b03fbdba8","6657927b40f706e2b22ce8e0","1143","stimuli/0011011.jpg","0","","prediction_trial","0","","true","","0","true","true","true","true","true","true","[0]","011","011","1","","","","","","",""
"","","","","","image-keyboard-response","41","106432","0.0-16.0","5eaca76bcf6b3914ba0fbfe0","665500ab8938657b03fbdba8","6657927b40f706e2b22ce8e0","391","stimuli/00110110.jpg"," ","","feedback_trial","0","","","","","","","","","","","","","","","","","","","","",""
"","","","","","image-keyboard-response","42","107208","0.0-17.0","5eaca76bcf6b3914ba0fbfe0","665500ab8938657b03fbdba8","6657927b40f706e2b22ce8e0","776","stimuli/1000000.jpg","1","","prediction_trial","1","","true","","1","true","true","true","true","true","true","[1]","000","000","1","","","","","","",""
"","","","","","image-keyboard-response","43","107632","0.0-18.0","5eaca76bcf6b3914ba0fbfe0","665500ab8938657b03fbdba8","6657927b40f706e2b22ce8e0","424","stimuli/10000001.jpg"," ","","feedback_trial","1","","","","","","","","","","","","","","","","","","","","",""
"","","","","","image-keyboard-response","44","109096","0.0-19.0","5eaca76bcf6b3914ba0fbfe0","665500ab8938657b03fbdba8","6657927b40f706e2b22ce8e0","1463","stimuli/0000111.jpg","2","","prediction_trial","0","","false","","0","false","false","true","true","false","false","[0]","000","111","0","","","","","","",""
"","","","","","image-keyboard-response","45","109961","0.0-20.0","5eaca76bcf6b3914ba0fbfe0","665500ab8938657b03fbdba8","6657927b40f706e2b22ce8e0","864","stimuli/00001110.jpg"," ","","feedback_trial","0","","","","","","","","","","","","","","","","","","","","",""
"","","","","","image-keyboard-response","46","112937","0.0-21.0","5eaca76bcf6b3914ba0fbfe0","665500ab8938657b03fbdba8","6657927b40f706e2b22ce8e0","2976","stimuli/0100001.jpg","0","","prediction_trial","0","","true","","0","true","true","false","true","false","true","[0]","100","001","1","","","","","","",""
"","","","","","image-keyboard-response","47","113592","0.0-22.0","5eaca76bcf6b3914ba0fbfe0","665500ab8938657b03fbdba8","6657927b40f706e2b22ce8e0","655","stimuli/01000010.jpg"," ","","feedback_trial","0","","","","","","","","","","","","","","","","","","","","",""
"","","","","","image-keyboard-response","48","115888","0.0-23.0","5eaca76bcf6b3914ba0fbfe0","665500ab8938657b03fbdba8","6657927b40f706e2b22ce8e0","2295","stimuli/2101110.jpg","2","","prediction_trial","0","","false","","2","true","true","false","false","false","false","[2,0]","101","110","0","","","","","","",""
"","","","","","image-keyboard-response","49","116640","0.0-24.0","5eaca76bcf6b3914ba0fbfe0","665500ab8938657b03fbdba8","6657927b40f706e2b22ce8e0","751","stimuli/21011100.jpg"," ","","feedback_trial","2","","","","","","","","","","","","","","","","","","","","",""
"","","","","","image-keyboard-response","50","117792","0.0-25.0","5eaca76bcf6b3914ba0fbfe0","665500ab8938657b03fbdba8","6657927b40f706e2b22ce8e0","1151","stimuli/2101001.jpg","2","","prediction_trial","2","","true","","2","false","true","false","false","false","false","[2,0]","101","001","1","","","","","","",""
"","","","","","image-keyboard-response","51","121569","0.0-26.0","5eaca76bcf6b3914ba0fbfe0","665500ab8938657b03fbdba8","6657927b40f706e2b22ce8e0","3776","stimuli/21010012.jpg"," ","","feedback_trial","2","","","","","","","","","","","","","","","","","","","","",""
"","","","","","image-keyboard-response","52","122624","0.0-27.0","5eaca76bcf6b3914ba0fbfe0","665500ab8938657b03fbdba8","6657927b40f706e2b22ce8e0","1055","stimuli/1000101.jpg","1","","prediction_trial","1","","true","","1","true","true","true","true","true","true","[1]","000","101","1","","","","","","",""
"","","","","","image-keyboard-response","53","123184","0.0-28.0","5eaca76bcf6b3914ba0fbfe0","665500ab8938657b03fbdba8","6657927b40f706e2b22ce8e0","560","stimuli/10001011.jpg"," ","","feedback_trial","1","","","","","","","","","","","","","","","","","","","","",""
"","","","","","image-keyboard-response","54","124824","0.0-29.0","5eaca76bcf6b3914ba0fbfe0","665500ab8938657b03fbdba8","6657927b40f706e2b22ce8e0","1640","stimuli/2000011.jpg","1","","prediction_trial","2","","false","","2","false","false","true","true","false","false","[2]","000","011","0","","","","","","",""
"","","","","","image-keyboard-response","55","125472","0.0-30.0","5eaca76bcf6b3914ba0fbfe0","665500ab8938657b03fbdba8","6657927b40f706e2b22ce8e0","647","stimuli/20000112.jpg"," ","","feedback_trial","2","","","","","","","","","","","","","","","","","","","","",""
"","","","","","image-keyboard-response","56","127953","0.0-31.0","5eaca76bcf6b3914ba0fbfe0","665500ab8938657b03fbdba8","6657927b40f706e2b22ce8e0","2481","stimuli/0111110.jpg","1","","prediction_trial","1","","true","","0","false","false","false","false","false","false","[1,0,2]","111","110","1","","","","","","",""
"","","","","","image-keyboard-response","57","128576","0.0-32.0","5eaca76bcf6b3914ba0fbfe0","665500ab8938657b03fbdba8","6657927b40f706e2b22ce8e0","622","stimuli/01111101.jpg"," ","","feedback_trial","1","","","","","","","","","","","","","","","","","","","","",""
"","","","","","image-keyboard-response","58","130744","0.0-33.0","5eaca76bcf6b3914ba0fbfe0","665500ab8938657b03fbdba8","6657927b40f706e2b22ce8e0","2168","stimuli/0011111.jpg","0","","prediction_trial","0","","true","","0","false","false","true","true","false","false","[0]","011","111","1","","","","","","",""
"","","","","","image-keyboard-response","59","131312","0.0-34.0","5eaca76bcf6b3914ba0fbfe0","665500ab8938657b03fbdba8","6657927b40f706e2b22ce8e0","567","stimuli/00111110.jpg"," ","","feedback_trial","0","","","","","","","","","","","","","","","","","","","","",""
"","","","","","image-keyboard-response","60","132417","0.0-35.0","5eaca76bcf6b3914ba0fbfe0","665500ab8938657b03fbdba8","6657927b40f706e2b22ce8e0","1104","stimuli/2110001.jpg","2","","prediction_trial","2","","true","","2","false","true","true","true","false","true","[2]","110","001","1","","","","","","",""
"","","","","","image-keyboard-response","61","132784","0.0-36.0","5eaca76bcf6b3914ba0fbfe0","665500ab8938657b03fbdba8","6657927b40f706e2b22ce8e0","367","stimuli/21100012.jpg"," ","","feedback_trial","2","","","","","","","","","","","","","","","","","","","","",""
"","","","","","image-keyboard-response","62","134017","0.0-37.0","5eaca76bcf6b3914ba0fbfe0","665500ab8938657b03fbdba8","6657927b40f706e2b22ce8e0","1232","stimuli/2100111.jpg","1","","prediction_trial","2","","false","","2","false","false","true","true","false","false","[2]","100","111","0","","","","","","",""
"","","","","","image-keyboard-response","63","134648","0.0-38.0","5eaca76bcf6b3914ba0fbfe0","665500ab8938657b03fbdba8","6657927b40f706e2b22ce8e0","631","stimuli/21001112.jpg"," ","","feedback_trial","2","","","","","","","","","","","","","","","","","","","","",""
"","","","","","image-keyboard-response","64","137017","0.0-39.0","5eaca76bcf6b3914ba0fbfe0","665500ab8938657b03fbdba8","6657927b40f706e2b22ce8e0","2368","stimuli/2100001.jpg","2","","prediction_trial","2","","true","","2","false","true","true","true","false","true","[2]","100","001","1","","","","","","",""
"","","","","","image-keyboard-response","65","138608","0.0-40.0","5eaca76bcf6b3914ba0fbfe0","665500ab8938657b03fbdba8","6657927b40f706e2b22ce8e0","1591","stimuli/21000012.jpg"," ","","feedback_trial","2","","","","","","","","","","","","","","","","","","","","",""
"","","","","","image-keyboard-response","66","140608","0.0-41.0","5eaca76bcf6b3914ba0fbfe0","665500ab8938657b03fbdba8","6657927b40f706e2b22ce8e0","2000","stimuli/1100111.jpg","1","","prediction_trial","1","","true","","1","false","false","true","true","false","false","[1]","100","111","1","","","","","","",""
"","","","","","image-keyboard-response","67","141504","0.0-42.0","5eaca76bcf6b3914ba0fbfe0","665500ab8938657b03fbdba8","6657927b40f706e2b22ce8e0","895","stimuli/11001111.jpg"," ","","feedback_trial","1","","","","","","","","","","","","","","","","","","","","",""
"","","","","","image-keyboard-response","68","143488","0.0-43.0","5eaca76bcf6b3914ba0fbfe0","665500ab8938657b03fbdba8","6657927b40f706e2b22ce8e0","1981","stimuli/2011100.jpg","2","","prediction_trial","2","","true","","2","true","true","false","false","false","false","[2,1]","011","100","1","","","","","","",""
"","","","","","image-keyboard-response","69","143928","0.0-44.0","5eaca76bcf6b3914ba0fbfe0","665500ab8938657b03fbdba8","6657927b40f706e2b22ce8e0","439","stimuli/20111002.jpg"," ","","feedback_trial","2","","","","","","","","","","","","","","","","","","","","",""
"","","","","","image-keyboard-response","70","145344","0.0-45.0","5eaca76bcf6b3914ba0fbfe0","665500ab8938657b03fbdba8","6657927b40f706e2b22ce8e0","1416","stimuli/2101101.jpg","2","","prediction_trial","0","","false","","2","false","false","false","false","false","false","[0,2]","101","101","0","","","","","","",""
"","","","","","image-keyboard-response","71","145848","0.0-46.0","5eaca76bcf6b3914ba0fbfe0","665500ab8938657b03fbdba8","6657927b40f706e2b22ce8e0","503","stimuli/21011010.jpg"," ","","feedback_trial","0","","","","","","","","","","","","","","","","","","","","",""
"","","","","","image-keyboard-response","72","146912","0.0-47.0","5eaca76bcf6b3914ba0fbfe0","665500ab8938657b03fbdba8","6657927b40f706e2b22ce8e0","1064","stimuli/0110000.jpg","0","","prediction_trial","1","","false","","0","true","true","false","false","false","false","[0,1]","110","000","0","","","","","","",""
"","","","","","image-keyboard-response","73","147809","0.0-48.0","5eaca76bcf6b3914ba0fbfe0","665500ab8938657b03fbdba8","6657927b40f706e2b22ce8e0","896","stimuli/01100001.jpg"," ","","feedback_trial","0","","","","","","","","","","","","","","","","","","","","",""
"","","","","","image-keyboard-response","74","148784","0.0-49.0","5eaca76bcf6b3914ba0fbfe0","665500ab8938657b03fbdba8","6657927b40f706e2b22ce8e0","975","stimuli/0001000.jpg","0","","prediction_trial","0","","true","","0","true","true","true","true","true","true","[0]","001","000","1","","","","","","",""
"","","","","","image-keyboard-response","75","149128","0.0-50.0","5eaca76bcf6b3914ba0fbfe0","665500ab8938657b03fbdba8","6657927b40f706e2b22ce8e0","343","stimuli/00010000.jpg"," ","","feedback_trial","0","","","","","","","","","","","","","","","","","","","","",""
"","","","","","image-keyboard-response","76","149920","0.0-51.0","5eaca76bcf6b3914ba0fbfe0","665500ab8938657b03fbdba8","6657927b40f706e2b22ce8e0","792","stimuli/1101100.jpg","1","","prediction_trial","1","","true","","1","true","true","true","true","true","true","[1]","101","100","1","","","","","","",""
"","","","","","image-keyboard-response","77","150184","0.0-52.0","5eaca76bcf6b3914ba0fbfe0","665500ab8938657b03fbdba8","6657927b40f706e2b22ce8e0","263","stimuli/11011001.jpg"," ","","feedback_trial","1","","","","","","","","","","","","","","","","","","","","",""
"","","","","","image-keyboard-response","78","150864","0.0-53.0","5eaca76bcf6b3914ba0fbfe0","665500ab8938657b03fbdba8","6657927b40f706e2b22ce8e0","680","stimuli/2010001.jpg","2","","prediction_trial","2","","true","","2","false","true","true","true","false","true","[2]","010","001","1","","","","","","",""
"","","","","","image-keyboard-response","79","151337","0.0-54.0","5eaca76bcf6b3914ba0fbfe0","665500ab8938657b03fbdba8","6657927b40f706e2b22ce8e0","472","stimuli/20100012.jpg"," ","","feedback_trial","2","","","","","","","","","","","","","","","","","","","","",""
"","","","","","image-keyboard-response","80","152256","0.0-55.0","5eaca76bcf6b3914ba0fbfe0","665500ab8938657b03fbdba8","6657927b40f706e2b22ce8e0","918","stimuli/0010100.jpg","0","","prediction_trial","0","","true","","0","false","true","true","true","false","true","[0]","010","100","1","","","","","","",""
"","","","","","image-keyboard-response","81","152568","0.0-56.0","5eaca76bcf6b3914ba0fbfe0","665500ab8938657b03fbdba8","6657927b40f706e2b22ce8e0","312","stimuli/00101000.jpg"," ","","feedback_trial","0","","","","","","","","","","","","","","","","","","","","",""
"","","","","","image-keyboard-response","82","154384","0.0-57.0","5eaca76bcf6b3914ba0fbfe0","665500ab8938657b03fbdba8","6657927b40f706e2b22ce8e0","1815","stimuli/2001110.jpg","2","","prediction_trial","2","","true","","2","true","true","false","true","false","true","[2]","001","110","1","","","","","","",""
"","","","","","image-keyboard-response","83","154784","0.0-58.0","5eaca76bcf6b3914ba0fbfe0","665500ab8938657b03fbdba8","6657927b40f706e2b22ce8e0","400","stimuli/20011102.jpg"," ","","feedback_trial","2","","","","","","","","","","","","","","","","","","","","",""
"","","","","","image-keyboard-response","84","155632","0.0-59.0","5eaca76bcf6b3914ba0fbfe0","665500ab8938657b03fbdba8","6657927b40f706e2b22ce8e0","848","stimuli/1000001.jpg","1","","prediction_trial","1","","true","","1","true","true","true","true","true","true","[1]","000","001","1","","","","","","",""
"","","","","","image-keyboard-response","85","155976","0.0-60.0","5eaca76bcf6b3914ba0fbfe0","665500ab8938657b03fbdba8","6657927b40f706e2b22ce8e0","343","stimuli/10000011.jpg"," ","","feedback_trial","1","","","","","","","","","","","","","","","","","","","","",""
"","","","","","image-keyboard-response","86","158640","0.0-61.0","5eaca76bcf6b3914ba0fbfe0","665500ab8938657b03fbdba8","6657927b40f706e2b22ce8e0","2664","stimuli/1101011.jpg","1","","prediction_trial","1","","true","","1","false","false","true","true","false","false","[1]","101","011","1","","","","","","",""
"","","","","","image-keyboard-response","87","159224","0.0-62.0","5eaca76bcf6b3914ba0fbfe0","665500ab8938657b03fbdba8","6657927b40f706e2b22ce8e0","583","stimuli/11010111.jpg"," ","","feedback_trial","1","","","","","","","","","","","","","","","","","","","","",""
"","","","","","image-keyboard-response","88","160000","0.0-63.0","5eaca76bcf6b3914ba0fbfe0","665500ab8938657b03fbdba8","6657927b40f706e2b22ce8e0","775","stimuli/1001100.jpg","1","","prediction_trial","1","","true","","1","true","true","true","true","true","true","[1]","001","100","1","","","","","","",""
"","","","","","image-keyboard-response","89","160384","0.0-64.0","5eaca76bcf6b3914ba0fbfe0","665500ab8938657b03fbdba8","6657927b40f706e2b22ce8e0","383","stimuli/10011001.jpg"," ","","feedback_trial","1","","","","","","","","","","","","","","","","","","","","",""
"","","","","","image-keyboard-response","90","161176","0.0-65.0","5eaca76bcf6b3914ba0fbfe0","665500ab8938657b03fbdba8","6657927b40f706e2b22ce8e0","791","stimuli/0111111.jpg","1","","prediction_trial","1","","true","","0","false","false","false","false","false","false","[0,2,1]","111","111","1","","","","","","",""
"","","","","","image-keyboard-response","91","161768","0.0-66.0","5eaca76bcf6b3914ba0fbfe0","665500ab8938657b03fbdba8","6657927b40f706e2b22ce8e0","592","stimuli/01111111.jpg"," ","","feedback_trial","0","","","","","","","","","","","","","","","","","","","","",""
"","","","","","image-keyboard-response","92","163408","0.0-67.0","5eaca76bcf6b3914ba0fbfe0","665500ab8938657b03fbdba8","6657927b40f706e2b22ce8e0","1639","stimuli/1011110.jpg","1","","prediction_trial","2","","false","","1","false","false","false","false","false","false","[2,1]","011","110","0","","","","","","",""
"","","","","","image-keyboard-response","93","164112","0.0-68.0","5eaca76bcf6b3914ba0fbfe0","665500ab8938657b03fbdba8","6657927b40f706e2b22ce8e0","703","stimuli/10111102.jpg"," ","","feedback_trial","2","","","","","","","","","","","","","","","","","","","","",""
"","","","","","image-keyboard-response","94","165326","0.0-69.0","5eaca76bcf6b3914ba0fbfe0","665500ab8938657b03fbdba8","6657927b40f706e2b22ce8e0","1215","stimuli/2010000.jpg","2","","prediction_trial","2","","true","","2","true","true","true","true","true","true","[2]","010","000","1","","","","","","",""
"","","","","","image-keyboard-response","95","166086","0.0-70.0","5eaca76bcf6b3914ba0fbfe0","665500ab8938657b03fbdba8","6657927b40f706e2b22ce8e0","760","stimuli/20100002.jpg"," ","","feedback_trial","2","","","","","","","","","","","","","","","","","","","","",""
"","","","","","image-keyboard-response","96","166822","0.0-71.0","5eaca76bcf6b3914ba0fbfe0","665500ab8938657b03fbdba8","6657927b40f706e2b22ce8e0","735","stimuli/1100101.jpg","1","","prediction_trial","1","","true","","1","true","true","true","true","true","true","[1]","100","101","1","","","","","","",""
"","","","","","image-keyboard-response","97","167125","0.0-72.0","5eaca76bcf6b3914ba0fbfe0","665500ab8938657b03fbdba8","6657927b40f706e2b22ce8e0","303","stimuli/11001011.jpg"," ","","feedback_trial","1","","","","","","","","","","","","","","","","","","","","",""
"","","","","","image-keyboard-response","98","168158","0.0-73.0","5eaca76bcf6b3914ba0fbfe0","665500ab8938657b03fbdba8","6657927b40f706e2b22ce8e0","1032","stimuli/2001000.jpg","2","","prediction_trial","2","","true","","2","true","true","false","true","false","true","[2]","001","000","1","","","","","","",""
"","","","","","image-keyboard-response","99","168406","0.0-74.0","5eaca76bcf6b3914ba0fbfe0","665500ab8938657b03fbdba8","6657927b40f706e2b22ce8e0","247","stimuli/20010002.jpg"," ","","feedback_trial","2","","","","","","","","","","","","","","","","","","","","",""
"","","","","","image-keyboard-response","100","169510","0.0-75.0","5eaca76bcf6b3914ba0fbfe0","665500ab8938657b03fbdba8","6657927b40f706e2b22ce8e0","1104","stimuli/2001001.jpg","2","","prediction_trial","2","","true","","2","false","true","false","true","false","true","[2]","001","001","1","","","","","","",""
"","","","","","image-keyboard-response","101","170646","0.0-76.0","5eaca76bcf6b3914ba0fbfe0","665500ab8938657b03fbdba8","6657927b40f706e2b22ce8e0","1135","stimuli/20010012.jpg"," ","","feedback_trial","2","","","","","","","","","","","","","","","","","","","","",""
"","","","","","image-keyboard-response","102","171326","0.0-77.0","5eaca76bcf6b3914ba0fbfe0","665500ab8938657b03fbdba8","6657927b40f706e2b22ce8e0","679","stimuli/1100001.jpg","1","","prediction_trial","1","","true","","1","true","true","true","true","true","true","[1]","100","001","1","","","","","","",""
"","","","","","image-keyboard-response","103","171630","0.0-78.0","5eaca76bcf6b3914ba0fbfe0","665500ab8938657b03fbdba8","6657927b40f706e2b22ce8e0","304","stimuli/11000011.jpg"," ","","feedback_trial","1","","","","","","","","","","","","","","","","","","","","",""
"","","","","","image-keyboard-response","104","172486","0.0-79.0","5eaca76bcf6b3914ba0fbfe0","665500ab8938657b03fbdba8","6657927b40f706e2b22ce8e0","854","stimuli/1100100.jpg","1","","prediction_trial","1","","true","","1","true","true","true","true","true","true","[1]","100","100","1","","","","","","",""
"","","","","","image-keyboard-response","105","172886","0.0-80.0","5eaca76bcf6b3914ba0fbfe0","665500ab8938657b03fbdba8","6657927b40f706e2b22ce8e0","399","stimuli/11001001.jpg"," ","","feedback_trial","1","","","","","","","","","","","","","","","","","","","","",""
"","","","","","image-keyboard-response","106","174510","0.0-81.0","5eaca76bcf6b3914ba0fbfe0","665500ab8938657b03fbdba8","6657927b40f706e2b22ce8e0","1624","stimuli/2000101.jpg","0","","prediction_trial","2","","false","","2","false","false","true","true","false","false","[2]","000","101","0","","","","","","",""
"","","","","","image-keyboard-response","107","175366","0.0-82.0","5eaca76bcf6b3914ba0fbfe0","665500ab8938657b03fbdba8","6657927b40f706e2b22ce8e0","855","stimuli/20001012.jpg"," ","","feedback_trial","2","","","","","","","","","","","","","","","","","","","","",""
"","","","","","image-keyboard-response","108","176734","0.0-83.0","5eaca76bcf6b3914ba0fbfe0","665500ab8938657b03fbdba8","6657927b40f706e2b22ce8e0","1367","stimuli/0100111.jpg","1","","prediction_trial","0","","false","","0","false","false","false","true","false","false","[0]","100","111","0","","","","","","",""
"","","","","","image-keyboard-response","109","177590","0.0-84.0","5eaca76bcf6b3914ba0fbfe0","665500ab8938657b03fbdba8","6657927b40f706e2b22ce8e0","855","stimuli/01001110.jpg"," ","","feedback_trial","0","","","","","","","","","","","","","","","","","","","","",""
"","","","","","image-keyboard-response","110","178262","0.0-85.0","5eaca76bcf6b3914ba0fbfe0","665500ab8938657b03fbdba8","6657927b40f706e2b22ce8e0","672","stimuli/2000100.jpg","2","","prediction_trial","2","","true","","2","true","true","true","true","true","true","[2]","000","100","1","","","","","","",""
"","","","","","image-keyboard-response","111","178558","0.0-86.0","5eaca76bcf6b3914ba0fbfe0","665500ab8938657b03fbdba8","6657927b40f706e2b22ce8e0","296","stimuli/20001002.jpg"," ","","feedback_trial","2","","","","","","","","","","","","","","","","","","","","",""
"","","","","","image-keyboard-response","112","180118","0.0-87.0","5eaca76bcf6b3914ba0fbfe0","665500ab8938657b03fbdba8","6657927b40f706e2b22ce8e0","1559","stimuli/1000011.jpg","1","","prediction_trial","1","","true","","1","false","false","true","true","false","false","[1]","000","011","1","","","","","","",""
"","","","","","image-keyboard-response","113","180598","0.0-88.0","5eaca76bcf6b3914ba0fbfe0","665500ab8938657b03fbdba8","6657927b40f706e2b22ce8e0","479","stimuli/10000111.jpg"," ","","feedback_trial","1","","","","","","","","","","","","","","","","","","","","",""
"","","","","","image-keyboard-response","114","182566","0.0-89.0","5eaca76bcf6b3914ba0fbfe0","665500ab8938657b03fbdba8","6657927b40f706e2b22ce8e0","1967","stimuli/2100101.jpg","2","","prediction_trial","2","","true","","2","false","false","true","true","false","false","[2]","100","101","1","","","","","","",""
"","","","","","image-keyboard-response","115","183430","0.0-90.0","5eaca76bcf6b3914ba0fbfe0","665500ab8938657b03fbdba8","6657927b40f706e2b22ce8e0","864","stimuli/21001012.jpg"," ","","feedback_trial","2","","","","","","","","","","","","","","","","","","","","",""
"","","","","","image-keyboard-response","116","184902","0.0-91.0","5eaca76bcf6b3914ba0fbfe0","665500ab8938657b03fbdba8","6657927b40f706e2b22ce8e0","1471","stimuli/0100110.jpg","0","","prediction_trial","0","","true","","0","false","false","false","true","false","false","[0]","100","110","1","","","","","","",""
"","","","","","image-keyboard-response","117","185454","0.0-92.0","5eaca76bcf6b3914ba0fbfe0","665500ab8938657b03fbdba8","6657927b40f706e2b22ce8e0","551","stimuli/01001100.jpg"," ","","feedback_trial","0","","","","","","","","","","","","","","","","","","","","",""
"","","","","","image-keyboard-response","118","186728","0.0-93.0","5eaca76bcf6b3914ba0fbfe0","665500ab8938657b03fbdba8","6657927b40f706e2b22ce8e0","1273","stimuli/1110111.jpg","2","","prediction_trial","1","","false","","1","false","false","false","false","false","false","[1,0]","110","111","0","","","","","","",""
"","","","","","image-keyboard-response","119","187697","0.0-94.0","5eaca76bcf6b3914ba0fbfe0","665500ab8938657b03fbdba8","6657927b40f706e2b22ce8e0","967","stimuli/11101111.jpg"," ","","feedback_trial","1","","","","","","","","","","","","","","","","","","","","",""
"","","","","","image-keyboard-response","120","189184","0.0-95.0","5eaca76bcf6b3914ba0fbfe0","665500ab8938657b03fbdba8","6657927b40f706e2b22ce8e0","1486","stimuli/2111111.jpg","1","","prediction_trial","1","","true","","2","false","false","false","false","false","false","[1,2,0]","111","111","1","","","","","","",""
"","","","","","image-keyboard-response","121","190414","0.0-96.0","5eaca76bcf6b3914ba0fbfe0","665500ab8938657b03fbdba8","6657927b40f706e2b22ce8e0","1229","stimuli/21111111.jpg"," ","","feedback_trial","1","","","","","","","","","","","","","","","","","","","","",""
"","","","","","image-keyboard-response","122","191160","0.0-97.0","5eaca76bcf6b3914ba0fbfe0","665500ab8938657b03fbdba8","6657927b40f706e2b22ce8e0","744","stimuli/2110110.jpg","2","","prediction_trial","2","","true","","2","true","true","true","true","true","true","[2]","110","110","1","","","","","","",""
"","","","","","image-keyboard-response","123","191447","0.0-98.0","5eaca76bcf6b3914ba0fbfe0","665500ab8938657b03fbdba8","6657927b40f706e2b22ce8e0","286","stimuli/21101102.jpg"," ","","feedback_trial","2","","","","","","","","","","","","","","","","","","","","",""
"","","","","","image-keyboard-response","124","192512","0.0-99.0","5eaca76bcf6b3914ba0fbfe0","665500ab8938657b03fbdba8","6657927b40f706e2b22ce8e0","1063","stimuli/1011111.jpg","0","","prediction_trial","2","","false","","1","false","false","false","false","false","false","[2,1]","011","111","0","","","","","","",""
"","","","","","image-keyboard-response","125","193542","0.0-100.0","5eaca76bcf6b3914ba0fbfe0","665500ab8938657b03fbdba8","6657927b40f706e2b22ce8e0","1029","stimuli/10111112.jpg"," ","","feedback_trial","2","","","","","","","","","","","","","","","","","","","","",""
"","","","","","image-keyboard-response","126","194335","0.0-101.0","5eaca76bcf6b3914ba0fbfe0","665500ab8938657b03fbdba8","6657927b40f706e2b22ce8e0","792","stimuli/0000011.jpg","0","","prediction_trial","0","","true","","0","true","true","true","true","true","true","[0]","000","011","1","","","","","","",""
"","","","","","image-keyboard-response","127","194614","0.0-102.0","5eaca76bcf6b3914ba0fbfe0","665500ab8938657b03fbdba8","6657927b40f706e2b22ce8e0","278","stimuli/00000110.jpg"," ","","feedback_trial","0","","","","","","","","","","","","","","","","","","","","",""
"","","","","","image-keyboard-response","128","195776","0.0-103.0","5eaca76bcf6b3914ba0fbfe0","665500ab8938657b03fbdba8","6657927b40f706e2b22ce8e0","1161","stimuli/1100110.jpg","1","","prediction_trial","1","","true","","1","false","false","true","true","false","false","[1]","100","110","1","","","","","","",""
"","","","","","image-keyboard-response","129","196398","0.0-104.0","5eaca76bcf6b3914ba0fbfe0","665500ab8938657b03fbdba8","6657927b40f706e2b22ce8e0","621","stimuli/11001101.jpg"," ","","feedback_trial","1","","","","","","","","","","","","","","","","","","","","",""
"","","","","","image-keyboard-response","130","197824","0.0-105.0","5eaca76bcf6b3914ba0fbfe0","665500ab8938657b03fbdba8","6657927b40f706e2b22ce8e0","1425","stimuli/0101110.jpg","1","","prediction_trial","0","","false","","0","false","false","false","false","false","false","[0,2]","101","110","0","","","","","","",""
"","","","","","image-keyboard-response","131","198438","0.0-106.0","5eaca76bcf6b3914ba0fbfe0","665500ab8938657b03fbdba8","6657927b40f706e2b22ce8e0","613","stimuli/01011100.jpg"," ","","feedback_trial","0","","","","","","","","","","","","","","","","","","","","",""
"","","","","","image-keyboard-response","132","199809","0.0-107.0","5eaca76bcf6b3914ba0fbfe0","665500ab8938657b03fbdba8","6657927b40f706e2b22ce8e0","1370","stimuli/1000010.jpg","1","","prediction_trial","1","","true","","1","false","true","true","true","false","true","[1]","000","010","1","","","","","","",""
"","","","","","image-keyboard-response","133","200186","0.0-108.0","5eaca76bcf6b3914ba0fbfe0","665500ab8938657b03fbdba8","6657927b40f706e2b22ce8e0","376","stimuli/10000101.jpg"," ","","feedback_trial","1","","","","","","","","","","","","","","","","","","","","",""
"","","","","","image-keyboard-response","134","200864","0.0-109.0","5eaca76bcf6b3914ba0fbfe0","665500ab8938657b03fbdba8","6657927b40f706e2b22ce8e0","676","stimuli/1001111.jpg","1","","prediction_trial","1","","true","","1","false","false","true","true","false","false","[1]","001","111","1","","","","","","",""
"","","","","","image-keyboard-response","135","201528","0.0-110.0","5eaca76bcf6b3914ba0fbfe0","665500ab8938657b03fbdba8","6657927b40f706e2b22ce8e0","663","stimuli/10011111.jpg"," ","","feedback_trial","1","","","","","","","","","","","","","","","","","","","","",""
"","","","","","image-keyboard-response","136","202161","0.0-111.0","5eaca76bcf6b3914ba0fbfe0","665500ab8938657b03fbdba8","6657927b40f706e2b22ce8e0","632","stimuli/2000010.jpg","2","","prediction_trial","2","","true","","2","true","true","true","true","true","true","[2]","000","010","1","","","","","","",""
"","","","","","image-keyboard-response","137","202454","0.0-112.0","5eaca76bcf6b3914ba0fbfe0","665500ab8938657b03fbdba8","6657927b40f706e2b22ce8e0","292","stimuli/20000102.jpg"," ","","feedback_trial","2","","","","","","","","","","","","","","","","","","","","",""
"","","","","","image-keyboard-response","138","203127","0.0-113.0","5eaca76bcf6b3914ba0fbfe0","665500ab8938657b03fbdba8","6657927b40f706e2b22ce8e0","673","stimuli/1001000.jpg","1","","prediction_trial","1","","true","","1","true","true","true","true","true","true","[1]","001","000","1","","","","","","",""
"","","","","","image-keyboard-response","139","203393","0.0-114.0","5eaca76bcf6b3914ba0fbfe0","665500ab8938657b03fbdba8","6657927b40f706e2b22ce8e0","263","stimuli/10010001.jpg"," ","","feedback_trial","1","","","","","","","","","","","","","","","","","","","","",""
"","","","","","image-keyboard-response","140","204607","0.0-115.0","5eaca76bcf6b3914ba0fbfe0","665500ab8938657b03fbdba8","6657927b40f706e2b22ce8e0","1207","stimuli/0001110.jpg","1","","prediction_trial","0","","false","","0","false","false","true","true","false","false","[0]","001","110","0","","","","","","",""
"","","","","","image-keyboard-response","141","205126","0.0-116.0","5eaca76bcf6b3914ba0fbfe0","665500ab8938657b03fbdba8","6657927b40f706e2b22ce8e0","517","stimuli/00011100.jpg"," ","","feedback_trial","0","","","","","","","","","","","","","","","","","","","","",""
"","","","","","image-keyboard-response","142","205952","0.0-117.0","5eaca76bcf6b3914ba0fbfe0","665500ab8938657b03fbdba8","6657927b40f706e2b22ce8e0","825","stimuli/1111111.jpg","0","","prediction_trial","2","","false","","1","false","false","false","false","false","false","[1,0,2]","111","111","0","","","","","","",""
"","","","","","image-keyboard-response","143","206750","0.0-118.0","5eaca76bcf6b3914ba0fbfe0","665500ab8938657b03fbdba8","6657927b40f706e2b22ce8e0","796","stimuli/11111112.jpg"," ","","feedback_trial","1","","","","","","","","","","","","","","","","","","","","",""
"","","","","","image-keyboard-response","144","208040","0.0-119.0","5eaca76bcf6b3914ba0fbfe0","665500ab8938657b03fbdba8","6657927b40f706e2b22ce8e0","1289","stimuli/2101010.jpg","2","","prediction_trial","0","","false","","2","true","true","false","false","false","false","[2,0]","101","010","0","","","","","","",""
"","","","","","image-keyboard-response","145","208560","0.0-120.0","5eaca76bcf6b3914ba0fbfe0","665500ab8938657b03fbdba8","6657927b40f706e2b22ce8e0","518","stimuli/21010100.jpg"," ","","feedback_trial","2","","","","","","","","","","","","","","","","","","","","",""
"","","","","","image-keyboard-response","146","210049","0.0-121.0","5eaca76bcf6b3914ba0fbfe0","665500ab8938657b03fbdba8","6657927b40f706e2b22ce8e0","1487","stimuli/2001111.jpg","2","","prediction_trial","2","","true","","2","false","false","false","true","false","false","[2]","001","111","1","","","","","","",""
"","","","","","image-keyboard-response","147","210465","0.0-122.0","5eaca76bcf6b3914ba0fbfe0","665500ab8938657b03fbdba8","6657927b40f706e2b22ce8e0","414","stimuli/20011112.jpg"," ","","feedback_trial","2","","","","","","","","","","","","","","","","","","","","",""
"","","","","","image-keyboard-response","148","213240","0.0-123.0","5eaca76bcf6b3914ba0fbfe0","665500ab8938657b03fbdba8","6657927b40f706e2b22ce8e0","2774","stimuli/2010111.jpg","1","","prediction_trial","2","","false","","2","false","false","true","true","false","false","[2]","010","111","0","","","","","","",""
"","","","","","image-keyboard-response","149","214230","0.0-124.0","5eaca76bcf6b3914ba0fbfe0","665500ab8938657b03fbdba8","6657927b40f706e2b22ce8e0","988","stimuli/20101112.jpg"," ","","feedback_trial","2","","","","","","","","","","","","","","","","","","","","",""
"","","","","","image-keyboard-response","150","215006","0.0-125.0","5eaca76bcf6b3914ba0fbfe0","665500ab8938657b03fbdba8","6657927b40f706e2b22ce8e0","776","stimuli/1111101.jpg","1","","prediction_trial","0","","false","","1","true","true","false","false","false","false","[2,0,1]","111","101","0","","","","","","",""
"","","","","","image-keyboard-response","151","217750","0.0-126.0","5eaca76bcf6b3914ba0fbfe0","665500ab8938657b03fbdba8","6657927b40f706e2b22ce8e0","2744","stimuli/11111010.jpg"," ","","feedback_trial","2","","","","","","","","","","","","","","","","","","","","",""
"","","","","","image-keyboard-response","152","218838","0.0-127.0","5eaca76bcf6b3914ba0fbfe0","665500ab8938657b03fbdba8","6657927b40f706e2b22ce8e0","1087","stimuli/2010110.jpg","2","","prediction_trial","2","","true","","2","true","true","true","true","true","true","[2]","010","110","1","","","","","","",""
"","","","","","image-keyboard-response","153","219174","0.0-128.0","5eaca76bcf6b3914ba0fbfe0","665500ab8938657b03fbdba8","6657927b40f706e2b22ce8e0","334","stimuli/20101102.jpg"," ","","feedback_trial","2","","","","","","","","","","","","","","","","","","","","",""
"","","","","","image-keyboard-response","154","220966","0.0-129.0","5eaca76bcf6b3914ba0fbfe0","665500ab8938657b03fbdba8","6657927b40f706e2b22ce8e0","1791","stimuli/0001100.jpg","0","","prediction_trial","0","","true","","0","false","true","true","true","false","true","[0]","001","100","1","","","","","","",""
"","","","","","image-keyboard-response","155","221422","0.0-130.0","5eaca76bcf6b3914ba0fbfe0","665500ab8938657b03fbdba8","6657927b40f706e2b22ce8e0","456","stimuli/00011000.jpg"," ","","feedback_trial","0","","","","","","","","","","","","","","","","","","","","",""
"","","","","","image-keyboard-response","156","222304","0.0-131.0","5eaca76bcf6b3914ba0fbfe0","665500ab8938657b03fbdba8","6657927b40f706e2b22ce8e0","881","stimuli/0110111.jpg","2","","prediction_trial","1","","false","","0","false","false","false","false","false","false","[0,1]","110","111","0","","","","","","",""
"","","","","","image-keyboard-response","157","223262","0.0-132.0","5eaca76bcf6b3914ba0fbfe0","665500ab8938657b03fbdba8","6657927b40f706e2b22ce8e0","957","stimuli/01101111.jpg"," ","","feedback_trial","0","","","","","","","","","","","","","","","","","","","","",""
"","","","","","image-keyboard-response","158","224888","0.0-133.0","5eaca76bcf6b3914ba0fbfe0","665500ab8938657b03fbdba8","6657927b40f706e2b22ce8e0","1625","stimuli/1000110.jpg","0","","prediction_trial","1","","false","","1","false","false","true","true","false","false","[1]","000","110","0","","","","","","",""
"","","","","","image-keyboard-response","159","225504","0.0-134.0","5eaca76bcf6b3914ba0fbfe0","665500ab8938657b03fbdba8","6657927b40f706e2b22ce8e0","607","stimuli/10001101.jpg"," ","","feedback_trial","1","","","","","","","","","","","","","","","","","","","","",""
"","","","","","image-keyboard-response","160","227272","0.0-135.0","5eaca76bcf6b3914ba0fbfe0","665500ab8938657b03fbdba8","6657927b40f706e2b22ce8e0","1766","stimuli/0001101.jpg","0","","prediction_trial","0","","true","","0","false","false","true","true","false","false","[0]","001","101","1","","","","","","",""
"","","","","","image-keyboard-response","161","227872","0.0-136.0","5eaca76bcf6b3914ba0fbfe0","665500ab8938657b03fbdba8","6657927b40f706e2b22ce8e0","599","stimuli/00011010.jpg"," ","","feedback_trial","0","","","","","","","","","","","","","","","","","","","","",""
"","","","","","image-keyboard-response","162","229438","0.0-137.0","5eaca76bcf6b3914ba0fbfe0","665500ab8938657b03fbdba8","6657927b40f706e2b22ce8e0","1565","stimuli/0110100.jpg","0","","prediction_trial","0","","true","","0","false","true","false","false","false","false","[0,1]","110","100","1","","","","","","",""
"","","","","","image-keyboard-response","163","230064","0.0-138.0","5eaca76bcf6b3914ba0fbfe0","665500ab8938657b03fbdba8","6657927b40f706e2b22ce8e0","625","stimuli/01101000.jpg"," ","","feedback_trial","0","","","","","","","","","","","","","","","","","","","","",""
"","","","","","image-keyboard-response","164","230904","0.0-139.0","5eaca76bcf6b3914ba0fbfe0","665500ab8938657b03fbdba8","6657927b40f706e2b22ce8e0","838","stimuli/0010011.jpg","0","","prediction_trial","0","","true","","0","true","true","true","true","true","true","[0]","010","011","1","","","","","","",""
"","","","","","image-keyboard-response","165","231214","0.0-140.0","5eaca76bcf6b3914ba0fbfe0","665500ab8938657b03fbdba8","6657927b40f706e2b22ce8e0","309","stimuli/00100110.jpg"," ","","feedback_trial","0","","","","","","","","","","","","","","","","","","","","",""
"","","","","","image-keyboard-response","166","232504","0.0-141.0","5eaca76bcf6b3914ba0fbfe0","665500ab8938657b03fbdba8","6657927b40f706e2b22ce8e0","1289","stimuli/0000110.jpg","1","","prediction_trial","0","","false","","0","false","false","true","true","false","false","[0]","000","110","0","","","","","","",""
"","","","","","image-keyboard-response","167","233047","0.0-142.0","5eaca76bcf6b3914ba0fbfe0","665500ab8938657b03fbdba8","6657927b40f706e2b22ce8e0","541","stimuli/00001100.jpg"," ","","feedback_trial","0","","","","","","","","","","","","","","","","","","","","",""
"","","","","","image-keyboard-response","168","234286","0.0-143.0","5eaca76bcf6b3914ba0fbfe0","665500ab8938657b03fbdba8","6657927b40f706e2b22ce8e0","1239","stimuli/2111110.jpg","1","","prediction_trial","1","","true","","2","true","true","false","false","false","false","[2,0,1]","111","110","1","","","","","","",""
"","","","","","image-keyboard-response","169","234846","0.0-144.0","5eaca76bcf6b3914ba0fbfe0","665500ab8938657b03fbdba8","6657927b40f706e2b22ce8e0","559","stimuli/21111101.jpg"," ","","feedback_trial","2","","","","","","","","","","","","","","","","","","","","",""
"","","","","","image-keyboard-response","170","235726","0.0-145.0","5eaca76bcf6b3914ba0fbfe0","665500ab8938657b03fbdba8","6657927b40f706e2b22ce8e0","880","stimuli/0011001.jpg","0","","prediction_trial","0","","true","","0","true","true","true","true","true","true","[0]","011","001","1","","","","","","",""
"","","","","","image-keyboard-response","171","236032","0.0-146.0","5eaca76bcf6b3914ba0fbfe0","665500ab8938657b03fbdba8","6657927b40f706e2b22ce8e0","305","stimuli/00110010.jpg"," ","","feedback_trial","0","","","","","","","","","","","","","","","","","","","","",""
"","","","","","image-keyboard-response","172","237847","0.0-147.0","5eaca76bcf6b3914ba0fbfe0","665500ab8938657b03fbdba8","6657927b40f706e2b22ce8e0","1814","stimuli/2011011.jpg","1","","prediction_trial","1","","true","","2","false","false","false","false","false","false","[2,1]","011","011","1","","","","","","",""
"","","","","","image-keyboard-response","173","238320","0.0-148.0","5eaca76bcf6b3914ba0fbfe0","665500ab8938657b03fbdba8","6657927b40f706e2b22ce8e0","471","stimuli/20110111.jpg"," ","","feedback_trial","2","","","","","","","","","","","","","","","","","","","","",""
"","","","","","image-keyboard-response","174","239974","0.0-149.0","5eaca76bcf6b3914ba0fbfe0","665500ab8938657b03fbdba8","6657927b40f706e2b22ce8e0","1653","stimuli/0111011.jpg","1","","prediction_trial","2","","false","","0","true","true","false","false","false","false","[0,2,1]","111","011","0","","","","","","",""
"","","","","","image-keyboard-response","175","240503","0.0-150.0","5eaca76bcf6b3914ba0fbfe0","665500ab8938657b03fbdba8","6657927b40f706e2b22ce8e0","528","stimuli/01110112.jpg"," ","","feedback_trial","0","","","","","","","","","","","","","","","","","","","","",""
"","","","","","image-keyboard-response","176","241377","0.0-151.0","5eaca76bcf6b3914ba0fbfe0","665500ab8938657b03fbdba8","6657927b40f706e2b22ce8e0","867","stimuli/1010001.jpg","1","","prediction_trial","1","","true","","1","true","true","false","true","false","true","[1]","010","001","1","","","","","","",""
"","","","","","image-keyboard-response","177","241902","0.0-152.0","5eaca76bcf6b3914ba0fbfe0","665500ab8938657b03fbdba8","6657927b40f706e2b22ce8e0","523","stimuli/10100011.jpg"," ","","feedback_trial","1","","","","","","","","","","","","","","","","","","","","",""
"","","","","","image-keyboard-response","178","245302","0.0-153.0","5eaca76bcf6b3914ba0fbfe0","665500ab8938657b03fbdba8","6657927b40f706e2b22ce8e0","3400","stimuli/0011101.jpg","0","","prediction_trial","0","","true","","0","false","false","true","true","false","false","[0]","011","101","1","","","","","","",""
"","","","","","image-keyboard-response","179","245646","0.0-154.0","5eaca76bcf6b3914ba0fbfe0","665500ab8938657b03fbdba8","6657927b40f706e2b22ce8e0","343","stimuli/00111010.jpg"," ","","feedback_trial","0","","","","","","","","","","","","","","","","","","","","",""
"","","","","","image-keyboard-response","180","247608","0.0-155.0","5eaca76bcf6b3914ba0fbfe0","665500ab8938657b03fbdba8","6657927b40f706e2b22ce8e0","1962","stimuli/2101011.jpg","1","","prediction_trial","2","","false","","2","false","false","false","false","false","false","[2,0]","101","011","0","","","","","","",""
"","","","","","image-keyboard-response","181","248432","0.0-156.0","5eaca76bcf6b3914ba0fbfe0","665500ab8938657b03fbdba8","6657927b40f706e2b22ce8e0","822","stimuli/21010112.jpg"," ","","feedback_trial","2","","","","","","","","","","","","","","","","","","","","",""
"","","","","","image-keyboard-response","182","251038","0.0-157.0","5eaca76bcf6b3914ba0fbfe0","665500ab8938657b03fbdba8","6657927b40f706e2b22ce8e0","2605","stimuli/0101001.jpg","0","","prediction_trial","0","","true","","0","true","true","false","false","false","false","[2,0]","101","001","1","","","","","","",""
"","","","","","image-keyboard-response","183","251424","0.0-158.0","5eaca76bcf6b3914ba0fbfe0","665500ab8938657b03fbdba8","6657927b40f706e2b22ce8e0","385","stimuli/01010010.jpg"," ","","feedback_trial","2","","","","","","","","","","","","","","","","","","","","",""
"","","","","","image-keyboard-response","184","252991","0.0-159.0","5eaca76bcf6b3914ba0fbfe0","665500ab8938657b03fbdba8","6657927b40f706e2b22ce8e0","1566","stimuli/1110001.jpg","1","","prediction_trial","0","","false","","1","true","true","false","false","false","false","[0,1]","110","001","0","","","","","","",""
"","","","","","image-keyboard-response","185","253599","0.0-160.0","5eaca76bcf6b3914ba0fbfe0","665500ab8938657b03fbdba8","6657927b40f706e2b22ce8e0","606","stimuli/11100010.jpg"," ","","feedback_trial","0","","","","","","","","","","","","","","","","","","","","",""
"","","","","","image-keyboard-response","186","255054","0.0-161.0","5eaca76bcf6b3914ba0fbfe0","665500ab8938657b03fbdba8","6657927b40f706e2b22ce8e0","1453","stimuli/2001100.jpg","2","","prediction_trial","2","","true","","2","true","true","false","true","false","true","[2]","001","100","1","","","","","","",""
"","","","","","image-keyboard-response","187","255416","0.0-162.0","5eaca76bcf6b3914ba0fbfe0","665500ab8938657b03fbdba8","6657927b40f706e2b22ce8e0","362","stimuli/20011002.jpg"," ","","feedback_trial","2","","","","","","","","","","","","","","","","","","","","",""
"","","","","","image-keyboard-response","188","256886","0.0-163.0","5eaca76bcf6b3914ba0fbfe0","665500ab8938657b03fbdba8","6657927b40f706e2b22ce8e0","1469","stimuli/1101010.jpg","1","","prediction_trial","1","","true","","1","false","true","true","true","false","true","[1]","101","010","1","","","","","","",""
"","","","","","image-keyboard-response","189","257271","0.0-164.0","5eaca76bcf6b3914ba0fbfe0","665500ab8938657b03fbdba8","6657927b40f706e2b22ce8e0","385","stimuli/11010101.jpg"," ","","feedback_trial","1","","","","","","","","","","","","","","","","","","","","",""
"","","","","","image-keyboard-response","190","258479","0.0-165.0","5eaca76bcf6b3914ba0fbfe0","665500ab8938657b03fbdba8","6657927b40f706e2b22ce8e0","1207","stimuli/1001010.jpg","1","","prediction_trial","1","","true","","1","false","true","true","true","false","true","[1]","001","010","1","","","","","","",""
"","","","","","image-keyboard-response","191","258861","0.0-166.0","5eaca76bcf6b3914ba0fbfe0","665500ab8938657b03fbdba8","6657927b40f706e2b22ce8e0","381","stimuli/10010101.jpg"," ","","feedback_trial","1","","","","","","","","","","","","","","","","","","","","",""
"","","","","","image-keyboard-response","192","260542","0.0-167.0","5eaca76bcf6b3914ba0fbfe0","665500ab8938657b03fbdba8","6657927b40f706e2b22ce8e0","1680","stimuli/2000111.jpg","0","","prediction_trial","2","","false","","2","false","false","true","true","false","false","[2]","000","111","0","","","","","","",""
"","","","","","image-keyboard-response","193","261358","0.0-168.0","5eaca76bcf6b3914ba0fbfe0","665500ab8938657b03fbdba8","6657927b40f706e2b22ce8e0","815","stimuli/20001112.jpg"," ","","feedback_trial","2","","","","","","","","","","","","","","","","","","","","",""
"","","","","","image-keyboard-response","194","262086","0.0-169.0","5eaca76bcf6b3914ba0fbfe0","665500ab8938657b03fbdba8","6657927b40f706e2b22ce8e0","728","stimuli/0001011.jpg","0","","prediction_trial","0","","true","","0","true","true","true","true","true","true","[0]","001","011","1","","","","","","",""
"","","","","","image-keyboard-response","195","262535","0.0-170.0","5eaca76bcf6b3914ba0fbfe0","665500ab8938657b03fbdba8","6657927b40f706e2b22ce8e0","448","stimuli/00010110.jpg"," ","","feedback_trial","0","","","","","","","","","","","","","","","","","","","","",""
"","","","","","image-keyboard-response","196","263246","0.0-171.0","5eaca76bcf6b3914ba0fbfe0","665500ab8938657b03fbdba8","6657927b40f706e2b22ce8e0","710","stimuli/2100110.jpg","2","","prediction_trial","2","","true","","2","true","true","true","true","true","true","[2]","100","110","1","","","","","","",""
"","","","","","image-keyboard-response","197","263566","0.0-172.0","5eaca76bcf6b3914ba0fbfe0","665500ab8938657b03fbdba8","6657927b40f706e2b22ce8e0","320","stimuli/21001102.jpg"," ","","feedback_trial","2","","","","","","","","","","","","","","","","","","","","",""
"","","","","","image-keyboard-response","198","265478","0.0-173.0","5eaca76bcf6b3914ba0fbfe0","665500ab8938657b03fbdba8","6657927b40f706e2b22ce8e0","1911","stimuli/0010111.jpg","0","","prediction_trial","0","","true","","0","false","false","true","true","false","false","[0]","010","111","1","","","","","","",""
"","","","","","image-keyboard-response","199","265862","0.0-174.0","5eaca76bcf6b3914ba0fbfe0","665500ab8938657b03fbdba8","6657927b40f706e2b22ce8e0","383","stimuli/00101110.jpg"," ","","feedback_trial","0","","","","","","","","","","","","","","","","","","","","",""
"","","","","","image-keyboard-response","200","267677","0.0-175.0","5eaca76bcf6b3914ba0fbfe0","665500ab8938657b03fbdba8","6657927b40f706e2b22ce8e0","1815","stimuli/0101100.jpg","0","","prediction_trial","0","","true","","0","false","true","false","false","false","false","[2,0]","101","100","1","","","","","","",""
"","","","","","image-keyboard-response","201","268094","0.0-176.0","5eaca76bcf6b3914ba0fbfe0","665500ab8938657b03fbdba8","6657927b40f706e2b22ce8e0","416","stimuli/01011000.jpg"," ","","feedback_trial","2","","","","","","","","","","","","","","","","","","","","",""
"","","","","","image-keyboard-response","202","269102","0.0-177.0","5eaca76bcf6b3914ba0fbfe0","665500ab8938657b03fbdba8","6657927b40f706e2b22ce8e0","1007","stimuli/2100010.jpg","2","","prediction_trial","2","","true","","2","true","true","true","true","true","true","[2]","100","010","1","","","","","","",""
"","","","","","image-keyboard-response","203","269390","0.0-178.0","5eaca76bcf6b3914ba0fbfe0","665500ab8938657b03fbdba8","6657927b40f706e2b22ce8e0","287","stimuli/21000102.jpg"," ","","feedback_trial","2","","","","","","","","","","","","","","","","","","","","",""
"","","","","","image-keyboard-response","204","289833","0.0-179.0","5eaca76bcf6b3914ba0fbfe0","665500ab8938657b03fbdba8","6657927b40f706e2b22ce8e0","20439","stimuli/0111001.jpg","0","","prediction_trial","1","","false","","0","true","true","false","false","false","false","[0,1,2]","111","001","0","","","","","","",""
"","","","","","image-keyboard-response","205","290729","0.0-180.0","5eaca76bcf6b3914ba0fbfe0","665500ab8938657b03fbdba8","6657927b40f706e2b22ce8e0","895","stimuli/01110011.jpg"," ","","feedback_trial","0","","","","","","","","","","","","","","","","","","","","",""
"","","","","","image-keyboard-response","206","291642","0.0-181.0","5eaca76bcf6b3914ba0fbfe0","665500ab8938657b03fbdba8","6657927b40f706e2b22ce8e0","912","stimuli/0101010.jpg","0","","prediction_trial","0","","true","","0","true","true","false","false","false","false","[0,2]","101","010","1","","","","","","",""
"","","","","","image-keyboard-response","207","292633","0.0-182.0","5eaca76bcf6b3914ba0fbfe0","665500ab8938657b03fbdba8","6657927b40f706e2b22ce8e0","991","stimuli/01010100.jpg"," ","","feedback_trial","0","","","","","","","","","","","","","","","","","","","","",""
"","","","","","image-keyboard-response","208","293625","0.0-183.0","5eaca76bcf6b3914ba0fbfe0","665500ab8938657b03fbdba8","6657927b40f706e2b22ce8e0","992","stimuli/0111101.jpg","2","","prediction_trial","1","","false","","0","false","false","false","false","false","false","[1,2,0]","111","101","0","","","","","","",""
"","","","","","image-keyboard-response","209","294889","0.0-184.0","5eaca76bcf6b3914ba0fbfe0","665500ab8938657b03fbdba8","6657927b40f706e2b22ce8e0","1264","stimuli/01111011.jpg"," ","","feedback_trial","1","","","","","","","","","","","","","","","","","","","","",""
"","","","","","image-keyboard-response","210","297385","0.0-185.0","5eaca76bcf6b3914ba0fbfe0","665500ab8938657b03fbdba8","6657927b40f706e2b22ce8e0","2495","stimuli/1111100.jpg","2","","prediction_trial","0","","false","","1","true","true","false","false","false","false","[1,0,2]","111","100","0","","","","","","",""
"","","","","","image-keyboard-response","211","297994","0.0-186.0","5eaca76bcf6b3914ba0fbfe0","665500ab8938657b03fbdba8","6657927b40f706e2b22ce8e0","608","stimuli/11111000.jpg"," ","","feedback_trial","1","","","","","","","","","","","","","","","","","","","","",""
"","","","","","image-keyboard-response","212","300026","0.0-187.0","5eaca76bcf6b3914ba0fbfe0","665500ab8938657b03fbdba8","6657927b40f706e2b22ce8e0","2029","stimuli/1110101.jpg","1","","prediction_trial","0","","false","","1","true","true","false","false","false","false","[1,0]","110","101","0","","","","","","",""
"","","","","","image-keyboard-response","213","300953","0.0-188.0","5eaca76bcf6b3914ba0fbfe0","665500ab8938657b03fbdba8","6657927b40f706e2b22ce8e0","927","stimuli/11101010.jpg"," ","","feedback_trial","1","","","","","","","","","","","","","","","","","","","","",""
"","","","","","image-keyboard-response","214","301817","0.0-189.0","5eaca76bcf6b3914ba0fbfe0","665500ab8938657b03fbdba8","6657927b40f706e2b22ce8e0","863","stimuli/1010010.jpg","1","","prediction_trial","1","","true","","1","false","true","false","true","false","true","[1]","010","010","1","","","","","","",""
"","","","","","image-keyboard-response","215","302161","0.0-190.0","5eaca76bcf6b3914ba0fbfe0","665500ab8938657b03fbdba8","6657927b40f706e2b22ce8e0","344","stimuli/10100101.jpg"," ","","feedback_trial","1","","","","","","","","","","","","","","","","","","","","",""
"","","","","","image-keyboard-response","216","303345","0.0-191.0","5eaca76bcf6b3914ba0fbfe0","665500ab8938657b03fbdba8","6657927b40f706e2b22ce8e0","1183","stimuli/2110011.jpg","1","","prediction_trial","2","","false","","2","false","false","true","true","false","false","[2]","110","011","0","","","","","","",""
"","","","","","image-keyboard-response","217","303785","0.0-192.0","5eaca76bcf6b3914ba0fbfe0","665500ab8938657b03fbdba8","6657927b40f706e2b22ce8e0","440","stimuli/21100112.jpg"," ","","feedback_trial","2","","","","","","","","","","","","","","","","","","","","",""
"","","","","","image-keyboard-response","218","305841","0.0-193.0","5eaca76bcf6b3914ba0fbfe0","665500ab8938657b03fbdba8","6657927b40f706e2b22ce8e0","2055","stimuli/2111100.jpg","1","","prediction_trial","0","","false","","2","true","true","false","false","false","false","[1,2,0]","111","100","0","","","","","","",""
"","","","","","image-keyboard-response","219","306273","0.0-194.0","5eaca76bcf6b3914ba0fbfe0","665500ab8938657b03fbdba8","6657927b40f706e2b22ce8e0","432","stimuli/21111000.jpg"," ","","feedback_trial","1","","","","","","","","","","","","","","","","","","","","",""
"","","","","","image-keyboard-response","220","307650","0.0-195.0","5eaca76bcf6b3914ba0fbfe0","665500ab8938657b03fbdba8","6657927b40f706e2b22ce8e0","1376","stimuli/2111101.jpg","2","","prediction_trial","0","","false","","2","false","false","false","false","false","false","[1,2,0]","111","101","0","","","","","","",""
"","","","","","image-keyboard-response","221","307898","0.0-196.0","5eaca76bcf6b3914ba0fbfe0","665500ab8938657b03fbdba8","6657927b40f706e2b22ce8e0","248","stimuli/21111010.jpg"," ","","feedback_trial","1","","","","","","","","","","","","","","","","","","","","",""
"","","","","","image-keyboard-response","222","308769","0.0-197.0","5eaca76bcf6b3914ba0fbfe0","665500ab8938657b03fbdba8","6657927b40f706e2b22ce8e0","871","stimuli/1000100.jpg","1","","prediction_trial","1","","true","","1","true","true","true","true","true","true","[1]","000","100","1","","","","","","",""
"","","","","","image-keyboard-response","223","309121","0.0-198.0","5eaca76bcf6b3914ba0fbfe0","665500ab8938657b03fbdba8","6657927b40f706e2b22ce8e0","351","stimuli/10001001.jpg"," ","","feedback_trial","1","","","","","","","","","","","","","","","","","","","","",""
"","","","","","image-keyboard-response","224","309737","0.0-199.0","5eaca76bcf6b3914ba0fbfe0","665500ab8938657b03fbdba8","6657927b40f706e2b22ce8e0","616","stimuli/1101000.jpg","1","","prediction_trial","1","","true","","1","true","true","true","true","true","true","[1]","101","000","1","","","","","","",""
"","","","","","image-keyboard-response","225","310097","0.0-200.0","5eaca76bcf6b3914ba0fbfe0","665500ab8938657b03fbdba8","6657927b40f706e2b22ce8e0","360","stimuli/11010001.jpg"," ","","feedback_trial","1","","","","","","","","","","","","","","","","","","","","",""
"","","","","","image-keyboard-response","226","310937","0.0-201.0","5eaca76bcf6b3914ba0fbfe0","665500ab8938657b03fbdba8","6657927b40f706e2b22ce8e0","839","stimuli/0011100.jpg","0","","prediction_trial","0","","true","","0","false","true","true","true","false","true","[0]","011","100","1","","","","","","",""
"","","","","","image-keyboard-response","227","311217","0.0-202.0","5eaca76bcf6b3914ba0fbfe0","665500ab8938657b03fbdba8","6657927b40f706e2b22ce8e0","279","stimuli/00111000.jpg"," ","","feedback_trial","0","","","","","","","","","","","","","","","","","","","","",""
"","","","","","image-keyboard-response","228","311993","0.0-203.0","5eaca76bcf6b3914ba0fbfe0","665500ab8938657b03fbdba8","6657927b40f706e2b22ce8e0","776","stimuli/2100100.jpg","2","","prediction_trial","2","","true","","2","true","true","true","true","true","true","[2]","100","100","1","","","","","","",""
"","","","","","image-keyboard-response","229","312321","0.0-204.0","5eaca76bcf6b3914ba0fbfe0","665500ab8938657b03fbdba8","6657927b40f706e2b22ce8e0","328","stimuli/21001002.jpg"," ","","feedback_trial","2","","","","","","","","","","","","","","","","","","","","",""
"","","","","","image-keyboard-response","230","313730","0.0-205.0","5eaca76bcf6b3914ba0fbfe0","665500ab8938657b03fbdba8","6657927b40f706e2b22ce8e0","1408","stimuli/1111110.jpg","0","","prediction_trial","2","","false","","1","false","false","false","false","false","false","[2,0,1]","111","110","0","","","","","","",""
"","","","","","image-keyboard-response","231","313937","0.0-206.0","5eaca76bcf6b3914ba0fbfe0","665500ab8938657b03fbdba8","6657927b40f706e2b22ce8e0","207","stimuli/11111102.jpg"," ","","feedback_trial","2","","","","","","","","","","","","","","","","","","","","",""
"","","","","","image-keyboard-response","232","316641","0.0-207.0","5eaca76bcf6b3914ba0fbfe0","665500ab8938657b03fbdba8","6657927b40f706e2b22ce8e0","2704","stimuli/1010011.jpg","1","","prediction_trial","1","","true","","1","false","false","false","true","false","false","[1]","010","011","1","","","","","","",""
"","","","","","image-keyboard-response","233","317249","0.0-208.0","5eaca76bcf6b3914ba0fbfe0","665500ab8938657b03fbdba8","6657927b40f706e2b22ce8e0","607","stimuli/10100111.jpg"," ","","feedback_trial","1","","","","","","","","","","","","","","","","","","","","",""
"","","","","","image-keyboard-response","234","318897","0.0-209.0","5eaca76bcf6b3914ba0fbfe0","665500ab8938657b03fbdba8","6657927b40f706e2b22ce8e0","1648","stimuli/0100011.jpg","0","","prediction_trial","0","","true","","0","true","true","false","true","false","true","[0]","100","011","1","","","","","","",""
"","","","","","image-keyboard-response","235","319194","0.0-210.0","5eaca76bcf6b3914ba0fbfe0","665500ab8938657b03fbdba8","6657927b40f706e2b22ce8e0","296","stimuli/01000110.jpg"," ","","feedback_trial","0","","","","","","","","","","","","","","","","","","","","",""
"","","","","","image-keyboard-response","236","320241","0.0-211.0","5eaca76bcf6b3914ba0fbfe0","665500ab8938657b03fbdba8","6657927b40f706e2b22ce8e0","1047","stimuli/1111001.jpg","1","","prediction_trial","1","","true","","1","true","true","false","false","false","false","[2,1,0]","111","001","1","","","","","","",""
"","","","","","image-keyboard-response","237","320625","0.0-212.0","5eaca76bcf6b3914ba0fbfe0","665500ab8938657b03fbdba8","6657927b40f706e2b22ce8e0","383","stimuli/11110011.jpg"," ","","feedback_trial","2","","","","","","","","","","","","","","","","","","","","",""
"","","","","","image-keyboard-response","238","321449","0.0-213.0","5eaca76bcf6b3914ba0fbfe0","665500ab8938657b03fbdba8","6657927b40f706e2b22ce8e0","824","stimuli/1110100.jpg","1","","prediction_trial","0","","false","","1","true","true","false","false","false","false","[1,0]","110","100","0","","","","","","",""
"","","","","","image-keyboard-response","239","322145","0.0-214.0","5eaca76bcf6b3914ba0fbfe0","665500ab8938657b03fbdba8","6657927b40f706e2b22ce8e0","695","stimuli/11101000.jpg"," ","","feedback_trial","1","","","","","","","","","","","","","","","","","","","","",""
"","","","","","image-keyboard-response","240","323033","0.0-215.0","5eaca76bcf6b3914ba0fbfe0","665500ab8938657b03fbdba8","6657927b40f706e2b22ce8e0","888","stimuli/0010010.jpg","0","","prediction_trial","0","","true","","0","true","true","true","true","true","true","[0]","010","010","1","","","","","","",""
"","","","","","image-keyboard-response","241","323313","0.0-216.0","5eaca76bcf6b3914ba0fbfe0","665500ab8938657b03fbdba8","6657927b40f706e2b22ce8e0","279","stimuli/00100100.jpg"," ","","feedback_trial","0","","","","","","","","","","","","","","","","","","","","",""
"","","","","","image-keyboard-response","242","325169","0.0-217.0","5eaca76bcf6b3914ba0fbfe0","665500ab8938657b03fbdba8","6657927b40f706e2b22ce8e0","1855","stimuli/0010110.jpg","1","","prediction_trial","0","","false","","0","false","false","true","true","false","false","[0]","010","110","0","","","","","","",""
"","","","","","image-keyboard-response","243","325913","0.0-218.0","5eaca76bcf6b3914ba0fbfe0","665500ab8938657b03fbdba8","6657927b40f706e2b22ce8e0","743","stimuli/00101100.jpg"," ","","feedback_trial","0","","","","","","","","","","","","","","","","","","","","",""
"","","","","","image-keyboard-response","244","328121","0.0-219.0","5eaca76bcf6b3914ba0fbfe0","665500ab8938657b03fbdba8","6657927b40f706e2b22ce8e0","2207","stimuli/2101111.jpg","1","","prediction_trial","0","","false","","2","false","false","false","false","false","false","[0,2]","101","111","0","","","","","","",""
"","","","","","image-keyboard-response","245","328697","0.0-220.0","5eaca76bcf6b3914ba0fbfe0","665500ab8938657b03fbdba8","6657927b40f706e2b22ce8e0","575","stimuli/21011110.jpg"," ","","feedback_trial","0","","","","","","","","","","","","","","","","","","","","",""
"","","","","","image-keyboard-response","246","331409","0.0-221.0","5eaca76bcf6b3914ba0fbfe0","665500ab8938657b03fbdba8","6657927b40f706e2b22ce8e0","2712","stimuli/1111011.jpg","2","","prediction_trial","2","","true","","1","false","false","false","false","false","false","[0,2,1]","111","011","1","","","","","","",""
"","","","","","image-keyboard-response","247","332129","0.0-222.0","5eaca76bcf6b3914ba0fbfe0","665500ab8938657b03fbdba8","6657927b40f706e2b22ce8e0","719","stimuli/11110112.jpg"," ","","feedback_trial","0","","","","","","","","","","","","","","","","","","","","",""
"","","","","","image-keyboard-response","248","332905","0.0-223.0","5eaca76bcf6b3914ba0fbfe0","665500ab8938657b03fbdba8","6657927b40f706e2b22ce8e0","773","stimuli/1100000.jpg","1","","prediction_trial","1","","true","","1","true","true","true","true","true","true","[1]","100","000","1","","","","","","",""
"","","","","","image-keyboard-response","249","333385","0.0-224.0","5eaca76bcf6b3914ba0fbfe0","665500ab8938657b03fbdba8","6657927b40f706e2b22ce8e0","480","stimuli/11000001.jpg"," ","","feedback_trial","1","","","","","","","","","","","","","","","","","","","","",""
"","","","","","image-keyboard-response","250","334625","0.0-225.0","5eaca76bcf6b3914ba0fbfe0","665500ab8938657b03fbdba8","6657927b40f706e2b22ce8e0","1240","stimuli/2111011.jpg","2","","prediction_trial","0","","false","","2","false","false","false","false","false","false","[1,0,2]","111","011","0","","","","","","",""
"","","","","","image-keyboard-response","251","335153","0.0-226.0","5eaca76bcf6b3914ba0fbfe0","665500ab8938657b03fbdba8","6657927b40f706e2b22ce8e0","527","stimuli/21110110.jpg"," ","","feedback_trial","1","","","","","","","","","","","","","","","","","","","","",""
"","","","","","image-keyboard-response","252","337737","0.0-227.0","5eaca76bcf6b3914ba0fbfe0","665500ab8938657b03fbdba8","6657927b40f706e2b22ce8e0","2584","stimuli/2011110.jpg","2","","prediction_trial","1","","false","","2","true","true","false","false","false","false","[1,2]","011","110","0","","","","","","",""
"","","","","","image-keyboard-response","253","338233","0.0-228.0","5eaca76bcf6b3914ba0fbfe0","665500ab8938657b03fbdba8","6657927b40f706e2b22ce8e0","495","stimuli/20111101.jpg"," ","","feedback_trial","1","","","","","","","","","","","","","","","","","","","","",""
"","","","","","image-keyboard-response","254","339074","0.0-229.0","5eaca76bcf6b3914ba0fbfe0","665500ab8938657b03fbdba8","6657927b40f706e2b22ce8e0","840","stimuli/2011010.jpg","2","","prediction_trial","2","","true","","2","true","true","false","false","false","false","[1,2]","011","010","1","","","","","","",""
"","","","","","image-keyboard-response","255","339513","0.0-230.0","5eaca76bcf6b3914ba0fbfe0","665500ab8938657b03fbdba8","6657927b40f706e2b22ce8e0","439","stimuli/20110102.jpg"," ","","feedback_trial","1","","","","","","","","","","","","","","","","","","","","",""
"","","","","","image-keyboard-response","256","341161","0.0-231.0","5eaca76bcf6b3914ba0fbfe0","665500ab8938657b03fbdba8","6657927b40f706e2b22ce8e0","1647","stimuli/2000001.jpg","2","","prediction_trial","2","","true","","2","false","true","true","true","false","true","[2]","000","001","1","","","","","","",""
"","","","","","image-keyboard-response","257","343009","0.0-232.0","5eaca76bcf6b3914ba0fbfe0","665500ab8938657b03fbdba8","6657927b40f706e2b22ce8e0","1847","stimuli/20000012.jpg"," ","","feedback_trial","2","","","","","","","","","","","","","","","","","","","","",""
"","","","","","image-keyboard-response","258","344881","0.0-233.0","5eaca76bcf6b3914ba0fbfe0","665500ab8938657b03fbdba8","6657927b40f706e2b22ce8e0","1871","stimuli/1111010.jpg","1","","prediction_trial","2","","false","","1","false","true","false","false","false","false","[1,2,0]","111","010","0","","","","","","",""
"","","","","","image-keyboard-response","259","345369","0.0-234.0","5eaca76bcf6b3914ba0fbfe0","665500ab8938657b03fbdba8","6657927b40f706e2b22ce8e0","487","stimuli/11110102.jpg"," ","","feedback_trial","1","","","","","","","","","","","","","","","","","","","","",""
"","","","","","image-keyboard-response","260","347273","0.0-235.0","5eaca76bcf6b3914ba0fbfe0","665500ab8938657b03fbdba8","6657927b40f706e2b22ce8e0","1904","stimuli/1101111.jpg","1","","prediction_trial","1","","true","","1","false","false","true","true","false","false","[1]","101","111","1","","","","","","",""
"","","","","","image-keyboard-response","261","347905","0.0-236.0","5eaca76bcf6b3914ba0fbfe0","665500ab8938657b03fbdba8","6657927b40f706e2b22ce8e0","632","stimuli/11011111.jpg"," ","","feedback_trial","1","","","","","","","","","","","","","","","","","","","","",""
"","","","","","image-keyboard-response","262","349431","0.0-237.0","5eaca76bcf6b3914ba0fbfe0","665500ab8938657b03fbdba8","6657927b40f706e2b22ce8e0","1535","stimuli/1010100.jpg","1","","prediction_trial","1","","true","","1","true","true","false","true","false","true","[1]","010","100","1","","","","","","",""
"","","","","","image-keyboard-response","263","349839","0.0-238.0","5eaca76bcf6b3914ba0fbfe0","665500ab8938657b03fbdba8","6657927b40f706e2b22ce8e0","408","stimuli/10101001.jpg"," ","","feedback_trial","1","","","","","","","","","","","","","","","","","","","","",""
"","","","","","image-keyboard-response","264","350439","0.0-239.0","5eaca76bcf6b3914ba0fbfe0","665500ab8938657b03fbdba8","6657927b40f706e2b22ce8e0","599","stimuli/1101001.jpg","1","","prediction_trial","1","","true","","1","true","true","true","true","true","true","[1]","101","001","1","","","","","","",""
"","","","","","image-keyboard-response","265","350775","0.0-240.0","5eaca76bcf6b3914ba0fbfe0","665500ab8938657b03fbdba8","6657927b40f706e2b22ce8e0","335","stimuli/11010011.jpg"," ","","feedback_trial","1","","","","","","","","","","","","","","","","","","","","",""
"","","","","","image-keyboard-response","266","351631","0.0-241.0","5eaca76bcf6b3914ba0fbfe0","665500ab8938657b03fbdba8","6657927b40f706e2b22ce8e0","853","stimuli/2110111.jpg","1","","prediction_trial","2","","false","","2","false","false","true","true","false","false","[2]","110","111","0","","","","","","",""
"","","","","","image-keyboard-response","267","352143","0.0-242.0","5eaca76bcf6b3914ba0fbfe0","665500ab8938657b03fbdba8","6657927b40f706e2b22ce8e0","512","stimuli/21101112.jpg"," ","","feedback_trial","2","","","","","","","","","","","","","","","","","","","","",""
"","","","","","image-keyboard-response","268","353303","0.0-243.0","5eaca76bcf6b3914ba0fbfe0","665500ab8938657b03fbdba8","6657927b40f706e2b22ce8e0","1159","stimuli/1010000.jpg","1","","prediction_trial","1","","true","","1","true","true","false","true","false","true","[1]","010","000","1","","","","","","",""
"","","","","","image-keyboard-response","269","353735","0.0-244.0","5eaca76bcf6b3914ba0fbfe0","665500ab8938657b03fbdba8","6657927b40f706e2b22ce8e0","432","stimuli/10100001.jpg"," ","","feedback_trial","1","","","","","","","","","","","","","","","","","","","","",""
"","","","","","image-keyboard-response","270","354623","0.0-245.0","5eaca76bcf6b3914ba0fbfe0","665500ab8938657b03fbdba8","6657927b40f706e2b22ce8e0","887","stimuli/0000001.jpg","0","","prediction_trial","0","","true","","0","true","true","true","true","true","true","[0]","000","001","1","","","","","","",""
"","","","","","image-keyboard-response","271","354879","0.0-246.0","5eaca76bcf6b3914ba0fbfe0","665500ab8938657b03fbdba8","6657927b40f706e2b22ce8e0","255","stimuli/00000010.jpg"," ","","feedback_trial","0","","","","","","","","","","","","","","","","","","","","",""
"","","","","","image-keyboard-response","272","355727","0.0-247.0","5eaca76bcf6b3914ba0fbfe0","665500ab8938657b03fbdba8","6657927b40f706e2b22ce8e0","847","stimuli/0101111.jpg","1","","prediction_trial","0","","false","","0","false","false","false","false","false","false","[0,2]","101","111","0","","","","","","",""
"","","","","","image-keyboard-response","273","356215","0.0-248.0","5eaca76bcf6b3914ba0fbfe0","665500ab8938657b03fbdba8","6657927b40f706e2b22ce8e0","487","stimuli/01011110.jpg"," ","","feedback_trial","0","","","","","","","","","","","","","","","","","","","","",""
"","","","","","image-keyboard-response","274","359639","0.0-249.0","5eaca76bcf6b3914ba0fbfe0","665500ab8938657b03fbdba8","6657927b40f706e2b22ce8e0","3424","stimuli/1110010.jpg","1","","prediction_trial","1","","true","","1","false","true","false","false","false","false","[1,0]","110","010","1","","","","","","",""
"","","","","","image-keyboard-response","275","360239","0.0-250.0","5eaca76bcf6b3914ba0fbfe0","665500ab8938657b03fbdba8","6657927b40f706e2b22ce8e0","599","stimuli/11100101.jpg"," ","","feedback_trial","1","","","","","","","","","","","","","","","","","","","","",""
"","","","","","image-keyboard-response","276","362423","0.0-251.0","5eaca76bcf6b3914ba0fbfe0","665500ab8938657b03fbdba8","6657927b40f706e2b22ce8e0","2184","stimuli/0100010.jpg","0","","prediction_trial","0","","true","","0","true","true","false","true","false","true","[0]","100","010","1","","","","","","",""
"","","","","","image-keyboard-response","277","362751","0.0-252.0","5eaca76bcf6b3914ba0fbfe0","665500ab8938657b03fbdba8","6657927b40f706e2b22ce8e0","328","stimuli/01000100.jpg"," ","","feedback_trial","0","","","","","","","","","","","","","","","","","","","","",""
"","","","","","image-keyboard-response","278","363575","0.0-253.0","5eaca76bcf6b3914ba0fbfe0","665500ab8938657b03fbdba8","6657927b40f706e2b22ce8e0","823","stimuli/0000100.jpg","0","","prediction_trial","0","","true","","0","false","true","true","true","false","true","[0]","000","100","1","","","","","","",""
"","","","","","image-keyboard-response","279","363903","0.0-254.0","5eaca76bcf6b3914ba0fbfe0","665500ab8938657b03fbdba8","6657927b40f706e2b22ce8e0","327","stimuli/00001000.jpg"," ","","feedback_trial","0","","","","","","","","","","","","","","","","","","","","",""
"","","","","","image-keyboard-response","280","365815","0.0-255.0","5eaca76bcf6b3914ba0fbfe0","665500ab8938657b03fbdba8","6657927b40f706e2b22ce8e0","1911","stimuli/1001110.jpg","1","","prediction_trial","1","","true","","1","false","false","true","true","false","false","[1]","001","110","1","","","","","","",""
"","","","","","image-keyboard-response","281","366352","0.0-256.0","5eaca76bcf6b3914ba0fbfe0","665500ab8938657b03fbdba8","6657927b40f706e2b22ce8e0","537","stimuli/10011101.jpg"," ","","feedback_trial","1","","","","","","","","","","","","","","","","","","","","",""
"","","","","","image-keyboard-response","282","367991","0.0-257.0","5eaca76bcf6b3914ba0fbfe0","665500ab8938657b03fbdba8","6657927b40f706e2b22ce8e0","1639","stimuli/2101100.jpg","2","","prediction_trial","0","","false","","2","true","true","false","false","false","false","[2,0]","101","100","0","","","","","","",""
"","","","","","image-keyboard-response","283","368479","0.0-258.0","5eaca76bcf6b3914ba0fbfe0","665500ab8938657b03fbdba8","6657927b40f706e2b22ce8e0","487","stimuli/21011000.jpg"," ","","feedback_trial","2","","","","","","","","","","","","","","","","","","","","",""
"","","","","","image-keyboard-response","284","370903","0.0-259.0","5eaca76bcf6b3914ba0fbfe0","665500ab8938657b03fbdba8","6657927b40f706e2b22ce8e0","2422","stimuli/0111000.jpg","1","","prediction_trial","1","","true","","0","true","true","false","false","false","false","[0,1,2]","111","000","1","","","","","","",""
"","","","","","image-keyboard-response","285","371527","0.0-260.0","5eaca76bcf6b3914ba0fbfe0","665500ab8938657b03fbdba8","6657927b40f706e2b22ce8e0","623","stimuli/01110001.jpg"," ","","feedback_trial","0","","","","","","","","","","","","","","","","","","","","",""
"","","","","","image-keyboard-response","286","372431","0.0-261.0","5eaca76bcf6b3914ba0fbfe0","665500ab8938657b03fbdba8","6657927b40f706e2b22ce8e0","904","stimuli/2110010.jpg","2","","prediction_trial","2","","true","","2","true","true","true","true","true","true","[2]","110","010","1","","","","","","",""
"","","","","","image-keyboard-response","287","372759","0.0-262.0","5eaca76bcf6b3914ba0fbfe0","665500ab8938657b03fbdba8","6657927b40f706e2b22ce8e0","328","stimuli/21100102.jpg"," ","","feedback_trial","2","","","","","","","","","","","","","","","","","","","","",""
"","","","","","image-keyboard-response","288","374302","0.0-263.0","5eaca76bcf6b3914ba0fbfe0","665500ab8938657b03fbdba8","6657927b40f706e2b22ce8e0","1543","stimuli/2111010.jpg","0","","prediction_trial","1","","false","","2","true","true","false","false","false","false","[2,0,1]","111","010","0","","","","","","",""
"","","","","","image-keyboard-response","289","376535","0.0-264.0","5eaca76bcf6b3914ba0fbfe0","665500ab8938657b03fbdba8","6657927b40f706e2b22ce8e0","2232","stimuli/21110101.jpg"," ","","feedback_trial","2","","","","","","","","","","","","","","","","","","","","",""
"","","","","","image-keyboard-response","290","377398","0.0-265.0","5eaca76bcf6b3914ba0fbfe0","665500ab8938657b03fbdba8","6657927b40f706e2b22ce8e0","863","stimuli/2011001.jpg","2","","prediction_trial","1","","false","","2","false","true","false","false","false","false","[2,1]","011","001","0","","","","","","",""
"","","","","","image-keyboard-response","291","378055","0.0-266.0","5eaca76bcf6b3914ba0fbfe0","665500ab8938657b03fbdba8","6657927b40f706e2b22ce8e0","656","stimuli/20110011.jpg"," ","","feedback_trial","2","","","","","","","","","","","","","","","","","","","","",""
"","","","","","image-keyboard-response","292","379151","0.0-267.0","5eaca76bcf6b3914ba0fbfe0","665500ab8938657b03fbdba8","6657927b40f706e2b22ce8e0","1096","stimuli/0100000.jpg","0","","prediction_trial","0","","true","","0","true","true","false","true","false","true","[0]","100","000","1","","","","","","",""
"","","","","","image-keyboard-response","293","379607","0.0-268.0","5eaca76bcf6b3914ba0fbfe0","665500ab8938657b03fbdba8","6657927b40f706e2b22ce8e0","455","stimuli/01000000.jpg"," ","","feedback_trial","0","","","","","","","","","","","","","","","","","","","","",""
"","","","","","image-keyboard-response","294","381111","0.0-269.0","5eaca76bcf6b3914ba0fbfe0","665500ab8938657b03fbdba8","6657927b40f706e2b22ce8e0","1504","stimuli/0000101.jpg","0","","prediction_trial","0","","true","","0","false","false","true","true","false","false","[0]","000","101","1","","","","","","",""
"","","","","","image-keyboard-response","295","381743","0.0-270.0","5eaca76bcf6b3914ba0fbfe0","665500ab8938657b03fbdba8","6657927b40f706e2b22ce8e0","631","stimuli/00001010.jpg"," ","","feedback_trial","0","","","","","","","","","","","","","","","","","","","","",""
"","","","","","image-keyboard-response","296","382375","0.0-271.0","5eaca76bcf6b3914ba0fbfe0","665500ab8938657b03fbdba8","6657927b40f706e2b22ce8e0","631","stimuli/2000110.jpg","2","","prediction_trial","2","","true","","2","true","true","true","true","true","true","[2]","000","110","1","","","","","","",""
"","","","","","image-keyboard-response","297","382767","0.0-272.0","5eaca76bcf6b3914ba0fbfe0","665500ab8938657b03fbdba8","6657927b40f706e2b22ce8e0","392","stimuli/20001102.jpg"," ","","feedback_trial","2","","","","","","","","","","","","","","","","","","","","",""
"","","","","","image-keyboard-response","298","384319","0.0-273.0","5eaca76bcf6b3914ba0fbfe0","665500ab8938657b03fbdba8","6657927b40f706e2b22ce8e0","1551","stimuli/1011100.jpg","1","","prediction_trial","1","","true","","1","true","true","false","false","false","false","[1,2]","011","100","1","","","","","","",""
"","","","","","image-keyboard-response","299","384951","0.0-274.0","5eaca76bcf6b3914ba0fbfe0","665500ab8938657b03fbdba8","6657927b40f706e2b22ce8e0","631","stimuli/10111001.jpg"," ","","feedback_trial","1","","","","","","","","","","","","","","","","","","","","",""
"","","","","","image-keyboard-response","300","385559","0.0-275.0","5eaca76bcf6b3914ba0fbfe0","665500ab8938657b03fbdba8","6657927b40f706e2b22ce8e0","607","stimuli/2111000.jpg","2","","prediction_trial","0","","false","","2","true","true","false","false","false","false","[2,0,1]","111","000","0","","","","","","",""
"","","","","","image-keyboard-response","301","385878","0.0-276.0","5eaca76bcf6b3914ba0fbfe0","665500ab8938657b03fbdba8","6657927b40f706e2b22ce8e0","319","stimuli/21110000.jpg"," ","","feedback_trial","2","","","","","","","","","","","","","","","","","","","","",""
"","","","","","image-keyboard-response","302","386640","0.0-277.0","5eaca76bcf6b3914ba0fbfe0","665500ab8938657b03fbdba8","6657927b40f706e2b22ce8e0","760","stimuli/0000010.jpg","0","","prediction_trial","0","","true","","0","true","true","true","true","true","true","[0]","000","010","1","","","","","","",""
"","","","","","image-keyboard-response","303","386919","0.0-278.0","5eaca76bcf6b3914ba0fbfe0","665500ab8938657b03fbdba8","6657927b40f706e2b22ce8e0","279","stimuli/00000100.jpg"," ","","feedback_trial","0","","","","","","","","","","","","","","","","","","","","",""
"","","","","","image-keyboard-response","304","389143","0.0-279.0","5eaca76bcf6b3914ba0fbfe0","665500ab8938657b03fbdba8","6657927b40f706e2b22ce8e0","2223","stimuli/0101011.jpg","2","","prediction_trial","2","","true","","0","true","true","false","false","false","false","[2,0]","101","011","1","","","","","","",""
"","","","","","image-keyboard-response","305","389423","0.0-280.0","5eaca76bcf6b3914ba0fbfe0","665500ab8938657b03fbdba8","6657927b40f706e2b22ce8e0","279","stimuli/01010112.jpg"," ","","feedback_trial","2","","","","","","","","","","","","","","","","","","","","",""
"","","","","","image-keyboard-response","306","390719","0.0-281.0","5eaca76bcf6b3914ba0fbfe0","665500ab8938657b03fbdba8","6657927b40f706e2b22ce8e0","1296","stimuli/2001101.jpg","2","","prediction_trial","2","","true","","2","false","false","false","true","false","false","[2]","001","101","1","","","","","","",""
"","","","","","image-keyboard-response","307","391263","0.0-282.0","5eaca76bcf6b3914ba0fbfe0","665500ab8938657b03fbdba8","6657927b40f706e2b22ce8e0","543","stimuli/20011012.jpg"," ","","feedback_trial","2","","","","","","","","","","","","","","","","","","","","",""
"","","","","","image-keyboard-response","308","392871","0.0-283.0","5eaca76bcf6b3914ba0fbfe0","665500ab8938657b03fbdba8","6657927b40f706e2b22ce8e0","1607","stimuli/1011011.jpg","1","","prediction_trial","1","","true","","1","false","false","false","false","false","false","[2,1]","011","011","1","","","","","","",""
"","","","","","image-keyboard-response","309","393264","0.0-284.0","5eaca76bcf6b3914ba0fbfe0","665500ab8938657b03fbdba8","6657927b40f706e2b22ce8e0","393","stimuli/10110111.jpg"," ","","feedback_trial","2","","","","","","","","","","","","","","","","","","","","",""
"","","","","","image-keyboard-response","310","395038","0.0-285.0","5eaca76bcf6b3914ba0fbfe0","665500ab8938657b03fbdba8","6657927b40f706e2b22ce8e0","1772","stimuli/1011010.jpg","2","","prediction_trial","2","","true","","1","false","true","false","false","false","false","[2,1]","011","010","1","","","","","","",""
"","","","","","image-keyboard-response","311","395383","0.0-286.0","5eaca76bcf6b3914ba0fbfe0","665500ab8938657b03fbdba8","6657927b40f706e2b22ce8e0","344","stimuli/10110102.jpg"," ","","feedback_trial","2","","","","","","","","","","","","","","","","","","","","",""
"","","","","","image-keyboard-response","312","396999","0.0-287.0","5eaca76bcf6b3914ba0fbfe0","665500ab8938657b03fbdba8","6657927b40f706e2b22ce8e0","1616","stimuli/0010101.jpg","0","","prediction_trial","0","","true","","0","false","false","true","true","false","false","[0]","010","101","1","","","","","","",""
"","","","","","image-keyboard-response","313","397583","0.0-288.0","5eaca76bcf6b3914ba0fbfe0","665500ab8938657b03fbdba8","6657927b40f706e2b22ce8e0","583","stimuli/00101010.jpg"," ","","feedback_trial","0","","","","","","","","","","","","","","","","","","","","",""
"","","","","","image-keyboard-response","314","399160","0.0-289.0","5eaca76bcf6b3914ba0fbfe0","665500ab8938657b03fbdba8","6657927b40f706e2b22ce8e0","1575","stimuli/2010101.jpg","2","","prediction_trial","2","","true","","2","false","false","true","true","false","false","[2]","010","101","1","","","","","","",""
"","","","","","image-keyboard-response","315","399704","0.0-290.0","5eaca76bcf6b3914ba0fbfe0","665500ab8938657b03fbdba8","6657927b40f706e2b22ce8e0","543","stimuli/20101012.jpg"," ","","feedback_trial","2","","","","","","","","","","","","","","","","","","","","",""
"","","","","","image-keyboard-response","316","401185","0.0-291.0","5eaca76bcf6b3914ba0fbfe0","665500ab8938657b03fbdba8","6657927b40f706e2b22ce8e0","1480","stimuli/0110011.jpg","0","","prediction_trial","1","","false","","0","true","true","false","false","false","false","[1,0]","110","011","0","","","","","","",""
"","","","","","image-keyboard-response","317","402041","0.0-292.0","5eaca76bcf6b3914ba0fbfe0","665500ab8938657b03fbdba8","6657927b40f706e2b22ce8e0","854","stimuli/01100111.jpg"," ","","feedback_trial","1","","","","","","","","","","","","","","","","","","","","",""
"","","","","","survey-html-form","318","440318","0.0-293.0","5eaca76bcf6b3914ba0fbfe0","665500ab8938657b03fbdba8","6657927b40f706e2b22ce8e0","38266","","{""feedback"":""Kind of guessing, kind of trying to find a pattern"",""age"":""44"",""gender"":""Female"",""other_gender"":"""",""race"":""White"",""other_race"":"""",""ethnicity"":""Non-Hispanic""}","","exit_survey","","","","","","","","","","","","","","","","Kind of guessing, kind of trying to find a pattern","44","Non-Hispanic","Female","White","0.6736111111111112","0.6736111111111112"
