"success","timeout","failed_images","failed_audio","failed_video","trial_type","trial_index","time_elapsed","internal_node_id","prolific_id","prolific_study_id","prolific_session_id","rt","stimulus","response","view_history","trial","character_choice","stimulus_dict","accuracy","correct_response","ball_pos","ego_ball_visible","ego_can_infer","alter_ball_visible","alter_can_infer","collective_ball_visible","collective_can_infer","search_locations","alter_occluders","ego_occluders","accuracy_bool","feedback","age","ethnicity","gender","race","overall_accuracy","bonus"
"true","false","[]","[]","[]","preload","0","38292","0.0-0.0","5bc32eb1518d030001358396","665500ab8938657b03fbdba8","665778bd383d6a4fe04e847f","","","","","","","","","","","","","","","","","","","","","","","","","","",""
"true","","","","","fullscreen","1","91837","0.0-1.0","5bc32eb1518d030001358396","665500ab8938657b03fbdba8","665778bd383d6a4fe04e847f","","","","","","","","","","","","","","","","","","","","","","","","","","",""
"","","","","","html-button-response","2","217313","0.0-2.0","5bc32eb1518d030001358396","665500ab8938657b03fbdba8","665778bd383d6a4fe04e847f","125474","<p><b>Consent Form</b></p> <div style=""text-align:left;background-color:lightgrey; padding:20px; max-width:900px;""><p>Please consider this information carefully before deciding whether to participate in this research.</p> <p>The purpose of this research is to examine which factors influence social judgment and decision-making. You will be asked to make judgements about individuals and actions in social scenarios. We are simply interested in your judgement. The study will take less than 1 hour to complete, and you will receive less than $20 on Prolific. Your compensation and time commitment are specified in the study description. There are no anticipated risks associated with participating in this study. The effects of participating should be comparable to those you would ordinarily experience from viewing a computer monitor and using a mouse or keyboard for a similar amount of time. At the end of the study, we will provide an explanation of the questions that motivate this line of research and will describe the potential implications. </p><p> Your participation in this study is completely voluntary and you may refuse to participate or you may choose to withdraw at any time without penalty or loss of benefits to you which are otherwise entitled. Your participation in this study will remain confidential. No personally identifiable information will be associated with your data. Also, all analyses of the data will be averaged across all the participants, so your individual responses will never be specifically analyzed. </p><p> If you have questions or concerns about your participation or payment, or want to request a summary of research findings, please contact Dr. Jonathan Phillips at Jonathan.S.Phillips@dartmouth.edu. </p><p> Please save a copy of this form for your records. </p><p><b>Agreement: </b>The nature and purpose of this research have been sufficiently explained and I agree to participate in this study. I understand that I am free to withdraw at any time without incurring any penalty. Please consent by clicking the button below to continue. Otherwise, please exit the study at any time. </p>","0","","","","","","","","","","","","","","","","","","","","","","","",""
"","","","","","instructions","3","744135","0.0-3.0-0.0","5bc32eb1518d030001358396","665500ab8938657b03fbdba8","665778bd383d6a4fe04e847f","526820","","","[{""page_index"":0,""viewing_time"":5106},{""page_index"":1,""viewing_time"":2736},{""page_index"":2,""viewing_time"":6722},{""page_index"":3,""viewing_time"":13532},{""page_index"":4,""viewing_time"":8748},{""page_index"":5,""viewing_time"":8022},{""page_index"":6,""viewing_time"":7560},{""page_index"":7,""viewing_time"":9466},{""page_index"":8,""viewing_time"":11139},{""page_index"":9,""viewing_time"":6769},{""page_index"":10,""viewing_time"":402198},{""page_index"":11,""viewing_time"":27382},{""page_index"":12,""viewing_time"":15794},{""page_index"":13,""viewing_time"":1646}]","intro","","","","","","","","","","","","","","","","","","","","","",""
"","","","","","image-keyboard-response","4","745922","0.0-3.0-1.0","5bc32eb1518d030001358396","665500ab8938657b03fbdba8","665778bd383d6a4fe04e847f","1783","stimuli/0100110.jpg","1","","prediction_practice","0","{""filepath"":""stimuli/0100110.jpg"",""ball_pos"":0,""ego_ball_visible"":false,""ego_can_infer"":false,""alter_ball_visible"":false,""alter_can_infer"":true,""collective_ball_visible"":false,""collective_can_infer"":false,""search_locations"":[0],""alter_occluders"":""100"",""ego_occluders"":""110""}","false","","","","","","","","","","","","","","","","","","",""
"","","","","","image-keyboard-response","5","748662","0.0-3.0-2.0","5bc32eb1518d030001358396","665500ab8938657b03fbdba8","665778bd383d6a4fe04e847f","2739","stimuli/01001100.jpg"," ","","practrice_feedback","0","","","","","","","","","","","","","","","","","","","","",""
"","","","","","image-keyboard-response","6","749984","0.0-3.0-3.0","5bc32eb1518d030001358396","665500ab8938657b03fbdba8","665778bd383d6a4fe04e847f","1320","stimuli/2010110.jpg","2","","prediction_practice","2","{""filepath"":""stimuli/2010110.jpg"",""ball_pos"":2,""ego_ball_visible"":true,""ego_can_infer"":true,""alter_ball_visible"":true,""alter_can_infer"":true,""collective_ball_visible"":true,""collective_can_infer"":true,""search_locations"":[2],""alter_occluders"":""010"",""ego_occluders"":""110""}","true","","","","","","","","","","","","","","","","","","",""
"","","","","","image-keyboard-response","7","751240","0.0-3.0-4.0","5bc32eb1518d030001358396","665500ab8938657b03fbdba8","665778bd383d6a4fe04e847f","1255","stimuli/20101102.jpg"," ","","practrice_feedback","2","","","","","","","","","","","","","","","","","","","","",""
"","","","","","image-keyboard-response","8","755255","0.0-3.0-5.0","5bc32eb1518d030001358396","665500ab8938657b03fbdba8","665778bd383d6a4fe04e847f","4014","stimuli/0101110.jpg","0","","prediction_practice","2","{""filepath"":""stimuli/0101110.jpg"",""ball_pos"":0,""ego_ball_visible"":false,""ego_can_infer"":false,""alter_ball_visible"":false,""alter_can_infer"":false,""collective_ball_visible"":false,""collective_can_infer"":false,""search_locations"":[0,2],""alter_occluders"":""101"",""ego_occluders"":""110""}","false","","","","","","","","","","","","","","","","","","",""
"","","","","","image-keyboard-response","9","756536","0.0-3.0-6.0","5bc32eb1518d030001358396","665500ab8938657b03fbdba8","665778bd383d6a4fe04e847f","1280","stimuli/01011102.jpg"," ","","practrice_feedback","0","","","","","","","","","","","","","","","","","","","","",""
"","","","","","image-keyboard-response","10","757824","0.0-3.0-7.0","5bc32eb1518d030001358396","665500ab8938657b03fbdba8","665778bd383d6a4fe04e847f","1287","stimuli/0011010.jpg","0","","prediction_practice","0","{""filepath"":""stimuli/0011010.jpg"",""ball_pos"":0,""ego_ball_visible"":true,""ego_can_infer"":true,""alter_ball_visible"":true,""alter_can_infer"":true,""collective_ball_visible"":true,""collective_can_infer"":true,""search_locations"":[0],""alter_occluders"":""011"",""ego_occluders"":""010""}","true","","","","","","","","","","","","","","","","","","",""
"","","","","","image-keyboard-response","11","758791","0.0-3.0-8.0","5bc32eb1518d030001358396","665500ab8938657b03fbdba8","665778bd383d6a4fe04e847f","965","stimuli/00110100.jpg"," ","","practrice_feedback","0","","","","","","","","","","","","","","","","","","","","",""
"","","","","","image-keyboard-response","12","760371","0.0-3.0-9.0","5bc32eb1518d030001358396","665500ab8938657b03fbdba8","665778bd383d6a4fe04e847f","1574","stimuli/1001100.jpg","1","","prediction_practice","1","{""filepath"":""stimuli/1001100.jpg"",""ball_pos"":1,""ego_ball_visible"":true,""ego_can_infer"":true,""alter_ball_visible"":true,""alter_can_infer"":true,""collective_ball_visible"":true,""collective_can_infer"":true,""search_locations"":[1],""alter_occluders"":""001"",""ego_occluders"":""100""}","true","","","","","","","","","","","","","","","","","","",""
"","","","","","image-keyboard-response","13","761165","0.0-3.0-10.0","5bc32eb1518d030001358396","665500ab8938657b03fbdba8","665778bd383d6a4fe04e847f","793","stimuli/10011001.jpg"," ","","practrice_feedback","1","","","","","","","","","","","","","","","","","","","","",""
"","","","","","image-keyboard-response","14","762335","0.0-3.0-11.0","5bc32eb1518d030001358396","665500ab8938657b03fbdba8","665778bd383d6a4fe04e847f","1169","stimuli/2000100.jpg","2","","prediction_practice","2","{""filepath"":""stimuli/2000100.jpg"",""ball_pos"":2,""ego_ball_visible"":true,""ego_can_infer"":true,""alter_ball_visible"":true,""alter_can_infer"":true,""collective_ball_visible"":true,""collective_can_infer"":true,""search_locations"":[2],""alter_occluders"":""000"",""ego_occluders"":""100""}","true","","","","","","","","","","","","","","","","","","",""
"","","","","","image-keyboard-response","15","763015","0.0-3.0-12.0","5bc32eb1518d030001358396","665500ab8938657b03fbdba8","665778bd383d6a4fe04e847f","679","stimuli/20001002.jpg"," ","","practrice_feedback","2","","","","","","","","","","","","","","","","","","","","",""
"","","","","","image-keyboard-response","16","764464","0.0-3.0-13.0","5bc32eb1518d030001358396","665500ab8938657b03fbdba8","665778bd383d6a4fe04e847f","1447","stimuli/1000010.jpg","1","","prediction_practice","1","{""filepath"":""stimuli/1000010.jpg"",""ball_pos"":1,""ego_ball_visible"":false,""ego_can_infer"":true,""alter_ball_visible"":true,""alter_can_infer"":true,""collective_ball_visible"":false,""collective_can_infer"":true,""search_locations"":[1],""alter_occluders"":""000"",""ego_occluders"":""010""}","true","","","","","","","","","","","","","","","","","","",""
"","","","","","image-keyboard-response","17","765463","0.0-3.0-14.0","5bc32eb1518d030001358396","665500ab8938657b03fbdba8","665778bd383d6a4fe04e847f","998","stimuli/10000101.jpg"," ","","practrice_feedback","1","","","","","","","","","","","","","","","","","","","","",""
"","","","","","image-keyboard-response","18","769618","0.0-3.0-15.0","5bc32eb1518d030001358396","665500ab8938657b03fbdba8","665778bd383d6a4fe04e847f","4154","stimuli/0111110.jpg","0","","prediction_practice","1","{""filepath"":""stimuli/0111110.jpg"",""ball_pos"":0,""ego_ball_visible"":false,""ego_can_infer"":false,""alter_ball_visible"":false,""alter_can_infer"":false,""collective_ball_visible"":false,""collective_can_infer"":false,""search_locations"":[1,2,0],""alter_occluders"":""111"",""ego_occluders"":""110""}","false","","","","","","","","","","","","","","","","","","",""
"","","","","","image-keyboard-response","19","770463","0.0-3.0-16.0","5bc32eb1518d030001358396","665500ab8938657b03fbdba8","665778bd383d6a4fe04e847f","844","stimuli/01111101.jpg"," ","","practrice_feedback","1","","","","","","","","","","","","","","","","","","","","",""
"","","","","","image-keyboard-response","20","774467","0.0-3.0-17.0","5bc32eb1518d030001358396","665500ab8938657b03fbdba8","665778bd383d6a4fe04e847f","4003","stimuli/1111100.jpg","1","","prediction_practice","0","{""filepath"":""stimuli/1111100.jpg"",""ball_pos"":1,""ego_ball_visible"":true,""ego_can_infer"":true,""alter_ball_visible"":false,""alter_can_infer"":false,""collective_ball_visible"":false,""collective_can_infer"":false,""search_locations"":[1,0,2],""alter_occluders"":""111"",""ego_occluders"":""100""}","false","","","","","","","","","","","","","","","","","","",""
"","","","","","image-keyboard-response","21","775622","0.0-3.0-18.0","5bc32eb1518d030001358396","665500ab8938657b03fbdba8","665778bd383d6a4fe04e847f","1154","stimuli/11111000.jpg"," ","","practrice_feedback","1","","","","","","","","","","","","","","","","","","","","",""
"","","","","","image-keyboard-response","22","776743","0.0-3.0-19.0","5bc32eb1518d030001358396","665500ab8938657b03fbdba8","665778bd383d6a4fe04e847f","1119","stimuli/1101101.jpg","1","","prediction_practice","1","{""filepath"":""stimuli/1101101.jpg"",""ball_pos"":1,""ego_ball_visible"":true,""ego_can_infer"":true,""alter_ball_visible"":true,""alter_can_infer"":true,""collective_ball_visible"":true,""collective_can_infer"":true,""search_locations"":[1],""alter_occluders"":""101"",""ego_occluders"":""101""}","true","","","","","","","","","","","","","","","","","","",""
"","","","","","image-keyboard-response","23","777606","0.0-3.0-20.0","5bc32eb1518d030001358396","665500ab8938657b03fbdba8","665778bd383d6a4fe04e847f","861","stimuli/11011011.jpg"," ","","practrice_feedback","1","","","","","","","","","","","","","","","","","","","","",""
"","","","","","html-button-response","24","782036","0.0-3.0-21.0","5bc32eb1518d030001358396","665500ab8938657b03fbdba8","665778bd383d6a4fe04e847f","4430","Now that you've had some practice, you'll be tested with a couple of easy trials. If you correctly predict Sam's choice, you'll move on to complete the experiment!","0","","","","","","","","","","","","","","","","","","","","","","","",""
"","","","","","image-keyboard-response","25","783669","0.0-3.0-22.0-0.0","5bc32eb1518d030001358396","665500ab8938657b03fbdba8","665778bd383d6a4fe04e847f","1631","stimuli/0000011.jpg","arrowleft","","comprehension_quiz","","","true","arrowleft","","","","","","","","","","","","","","","","","",""
"","","","","","image-keyboard-response","26","784861","0.0-3.0-22.0-1.0","5bc32eb1518d030001358396","665500ab8938657b03fbdba8","665778bd383d6a4fe04e847f","1191","stimuli/00000110.jpg"," ","","comprehension_quiz","","","true"," ","","","","","","","","","","","","","","","","","",""
"","","","","","image-keyboard-response","27","786066","0.0-3.0-22.0-2.0","5bc32eb1518d030001358396","665500ab8938657b03fbdba8","665778bd383d6a4fe04e847f","1203","stimuli/1010010.jpg","arrowdown","","comprehension_quiz","","","true","arrowdown","","","","","","","","","","","","","","","","","",""
"","","","","","image-keyboard-response","28","788115","0.0-3.0-22.0-3.0","5bc32eb1518d030001358396","665500ab8938657b03fbdba8","665778bd383d6a4fe04e847f","2048","stimuli/10100101.jpg"," ","","comprehension_quiz","","","true"," ","","","","","","","","","","","","","","","","","",""
"","","","","","html-button-response","29","791104","0.0-4.0","5bc32eb1518d030001358396","665500ab8938657b03fbdba8","665778bd383d6a4fe04e847f","2988","The experiment will now begin.","0","","","","","","","","","","","","","","","","","","","","","","","",""
"","","","","","image-keyboard-response","30","792216","0.0-5.0","5bc32eb1518d030001358396","665500ab8938657b03fbdba8","665778bd383d6a4fe04e847f","1110","stimuli/1100100.jpg","1","","prediction_trial","1","","true","","1","true","true","true","true","true","true","[1]","100","100","1","","","","","","",""
"","","","","","image-keyboard-response","31","792864","0.0-6.0","5bc32eb1518d030001358396","665500ab8938657b03fbdba8","665778bd383d6a4fe04e847f","647","stimuli/11001001.jpg"," ","","feedback_trial","1","","","","","","","","","","","","","","","","","","","","",""
"","","","","","image-keyboard-response","32","793843","0.0-7.0","5bc32eb1518d030001358396","665500ab8938657b03fbdba8","665778bd383d6a4fe04e847f","973","stimuli/2000010.jpg","2","","prediction_trial","2","","true","","2","true","true","true","true","true","true","[2]","000","010","1","","","","","","",""
"","","","","","image-keyboard-response","33","794441","0.0-8.0","5bc32eb1518d030001358396","665500ab8938657b03fbdba8","665778bd383d6a4fe04e847f","597","stimuli/20000102.jpg"," ","","feedback_trial","2","","","","","","","","","","","","","","","","","","","","",""
"","","","","","image-keyboard-response","34","795728","0.0-9.0","5bc32eb1518d030001358396","665500ab8938657b03fbdba8","665778bd383d6a4fe04e847f","1286","stimuli/0000011.jpg","0","","prediction_trial","0","","true","","0","true","true","true","true","true","true","[0]","000","011","1","","","","","","",""
"","","","","","image-keyboard-response","35","796224","0.0-10.0","5bc32eb1518d030001358396","665500ab8938657b03fbdba8","665778bd383d6a4fe04e847f","495","stimuli/00000110.jpg"," ","","feedback_trial","0","","","","","","","","","","","","","","","","","","","","",""
"","","","","","image-keyboard-response","36","797526","0.0-11.0","5bc32eb1518d030001358396","665500ab8938657b03fbdba8","665778bd383d6a4fe04e847f","1301","stimuli/1101110.jpg","1","","prediction_trial","1","","true","","1","false","false","true","true","false","false","[1]","101","110","1","","","","","","",""
"","","","","","image-keyboard-response","37","798071","0.0-12.0","5bc32eb1518d030001358396","665500ab8938657b03fbdba8","665778bd383d6a4fe04e847f","544","stimuli/11011101.jpg"," ","","feedback_trial","1","","","","","","","","","","","","","","","","","","","","",""
"","","","","","image-keyboard-response","38","799214","0.0-13.0","5bc32eb1518d030001358396","665500ab8938657b03fbdba8","665778bd383d6a4fe04e847f","1142","stimuli/0100011.jpg","0","","prediction_trial","0","","true","","0","true","true","false","true","false","true","[0]","100","011","1","","","","","","",""
"","","","","","image-keyboard-response","39","799771","0.0-14.0","5bc32eb1518d030001358396","665500ab8938657b03fbdba8","665778bd383d6a4fe04e847f","556","stimuli/01000110.jpg"," ","","feedback_trial","0","","","","","","","","","","","","","","","","","","","","",""
"","","","","","image-keyboard-response","40","802016","0.0-15.0","5bc32eb1518d030001358396","665500ab8938657b03fbdba8","665778bd383d6a4fe04e847f","2243","stimuli/1100010.jpg","1","","prediction_trial","1","","true","","1","false","true","true","true","false","true","[1]","100","010","1","","","","","","",""
"","","","","","image-keyboard-response","41","802890","0.0-16.0","5bc32eb1518d030001358396","665500ab8938657b03fbdba8","665778bd383d6a4fe04e847f","873","stimuli/11000101.jpg"," ","","feedback_trial","1","","","","","","","","","","","","","","","","","","","","",""
"","","","","","image-keyboard-response","42","805410","0.0-17.0","5bc32eb1518d030001358396","665500ab8938657b03fbdba8","665778bd383d6a4fe04e847f","2519","stimuli/0111110.jpg","0","","prediction_trial","2","","false","","0","false","false","false","false","false","false","[1,2,0]","111","110","0","","","","","","",""
"","","","","","image-keyboard-response","43","806332","0.0-18.0","5bc32eb1518d030001358396","665500ab8938657b03fbdba8","665778bd383d6a4fe04e847f","921","stimuli/01111102.jpg"," ","","feedback_trial","1","","","","","","","","","","","","","","","","","","","","",""
"","","","","","image-keyboard-response","44","808166","0.0-19.0","5bc32eb1518d030001358396","665500ab8938657b03fbdba8","665778bd383d6a4fe04e847f","1833","stimuli/2011000.jpg","1","","prediction_trial","2","","false","","2","true","true","false","false","false","false","[2,1]","011","000","0","","","","","","",""
"","","","","","image-keyboard-response","45","809123","0.0-20.0","5bc32eb1518d030001358396","665500ab8938657b03fbdba8","665778bd383d6a4fe04e847f","956","stimuli/20110002.jpg"," ","","feedback_trial","2","","","","","","","","","","","","","","","","","","","","",""
"","","","","","image-keyboard-response","46","810078","0.0-21.0","5bc32eb1518d030001358396","665500ab8938657b03fbdba8","665778bd383d6a4fe04e847f","954","stimuli/2101011.jpg","1","","prediction_trial","0","","false","","2","false","false","false","false","false","false","[2,0]","101","011","0","","","","","","",""
"","","","","","image-keyboard-response","47","810770","0.0-22.0","5bc32eb1518d030001358396","665500ab8938657b03fbdba8","665778bd383d6a4fe04e847f","690","stimuli/21010110.jpg"," ","","feedback_trial","2","","","","","","","","","","","","","","","","","","","","",""
"","","","","","image-keyboard-response","48","811801","0.0-23.0","5bc32eb1518d030001358396","665500ab8938657b03fbdba8","665778bd383d6a4fe04e847f","1030","stimuli/0010011.jpg","0","","prediction_trial","0","","true","","0","true","true","true","true","true","true","[0]","010","011","1","","","","","","",""
"","","","","","image-keyboard-response","49","812589","0.0-24.0","5bc32eb1518d030001358396","665500ab8938657b03fbdba8","665778bd383d6a4fe04e847f","787","stimuli/00100110.jpg"," ","","feedback_trial","0","","","","","","","","","","","","","","","","","","","","",""
"","","","","","image-keyboard-response","50","814022","0.0-25.0","5bc32eb1518d030001358396","665500ab8938657b03fbdba8","665778bd383d6a4fe04e847f","1432","stimuli/2111100.jpg","1","","prediction_trial","2","","false","","2","true","true","false","false","false","false","[0,2,1]","111","100","0","","","","","","",""
"","","","","","image-keyboard-response","51","815120","0.0-26.0","5bc32eb1518d030001358396","665500ab8938657b03fbdba8","665778bd383d6a4fe04e847f","1097","stimuli/21111002.jpg"," ","","feedback_trial","0","","","","","","","","","","","","","","","","","","","","",""
"","","","","","image-keyboard-response","52","817764","0.0-27.0","5bc32eb1518d030001358396","665500ab8938657b03fbdba8","665778bd383d6a4fe04e847f","2643","stimuli/2000011.jpg","1","","prediction_trial","2","","false","","2","false","false","true","true","false","false","[2]","000","011","0","","","","","","",""
"","","","","","image-keyboard-response","53","818388","0.0-28.0","5bc32eb1518d030001358396","665500ab8938657b03fbdba8","665778bd383d6a4fe04e847f","635","stimuli/20000112.jpg"," ","","feedback_trial","2","","","","","","","","","","","","","","","","","","","","",""
"","","","","","image-keyboard-response","54","819666","0.0-29.0","5bc32eb1518d030001358396","665500ab8938657b03fbdba8","665778bd383d6a4fe04e847f","1276","stimuli/1000011.jpg","2","","prediction_trial","1","","false","","1","false","false","true","true","false","false","[1]","000","011","0","","","","","","",""
"","","","","","image-keyboard-response","55","821084","0.0-30.0","5bc32eb1518d030001358396","665500ab8938657b03fbdba8","665778bd383d6a4fe04e847f","1417","stimuli/10000111.jpg"," ","","feedback_trial","1","","","","","","","","","","","","","","","","","","","","",""
"","","","","","image-keyboard-response","56","822480","0.0-31.0","5bc32eb1518d030001358396","665500ab8938657b03fbdba8","665778bd383d6a4fe04e847f","1394","stimuli/0111010.jpg","1","","prediction_trial","2","","false","","0","true","true","false","false","false","false","[1,0,2]","111","010","0","","","","","","",""
"","","","","","image-keyboard-response","57","823095","0.0-32.0","5bc32eb1518d030001358396","665500ab8938657b03fbdba8","665778bd383d6a4fe04e847f","614","stimuli/01110102.jpg"," ","","feedback_trial","1","","","","","","","","","","","","","","","","","","","","",""
"","","","","","image-keyboard-response","58","824676","0.0-33.0","5bc32eb1518d030001358396","665500ab8938657b03fbdba8","665778bd383d6a4fe04e847f","1580","stimuli/1111000.jpg","1","","prediction_trial","2","","false","","1","true","true","false","false","false","false","[2,1,0]","111","000","0","","","","","","",""
"","","","","","image-keyboard-response","59","825268","0.0-34.0","5bc32eb1518d030001358396","665500ab8938657b03fbdba8","665778bd383d6a4fe04e847f","591","stimuli/11110002.jpg"," ","","feedback_trial","2","","","","","","","","","","","","","","","","","","","","",""
"","","","","","image-keyboard-response","60","826919","0.0-35.0","5bc32eb1518d030001358396","665500ab8938657b03fbdba8","665778bd383d6a4fe04e847f","1649","stimuli/2001101.jpg","0","","prediction_trial","2","","false","","2","false","false","false","true","false","false","[2]","001","101","0","","","","","","",""
"","","","","","image-keyboard-response","61","827595","0.0-36.0","5bc32eb1518d030001358396","665500ab8938657b03fbdba8","665778bd383d6a4fe04e847f","675","stimuli/20011012.jpg"," ","","feedback_trial","2","","","","","","","","","","","","","","","","","","","","",""
"","","","","","image-keyboard-response","62","828750","0.0-37.0","5bc32eb1518d030001358396","665500ab8938657b03fbdba8","665778bd383d6a4fe04e847f","1155","stimuli/1100111.jpg","2","","prediction_trial","1","","false","","1","false","false","true","true","false","false","[1]","100","111","0","","","","","","",""
"","","","","","image-keyboard-response","63","829350","0.0-38.0","5bc32eb1518d030001358396","665500ab8938657b03fbdba8","665778bd383d6a4fe04e847f","599","stimuli/11001111.jpg"," ","","feedback_trial","1","","","","","","","","","","","","","","","","","","","","",""
"","","","","","image-keyboard-response","64","830824","0.0-39.0","5bc32eb1518d030001358396","665500ab8938657b03fbdba8","665778bd383d6a4fe04e847f","1473","stimuli/0000100.jpg","0","","prediction_trial","0","","true","","0","false","true","true","true","false","true","[0]","000","100","1","","","","","","",""
"","","","","","image-keyboard-response","65","831403","0.0-40.0","5bc32eb1518d030001358396","665500ab8938657b03fbdba8","665778bd383d6a4fe04e847f","577","stimuli/00001000.jpg"," ","","feedback_trial","0","","","","","","","","","","","","","","","","","","","","",""
"","","","","","image-keyboard-response","66","834433","0.0-41.0","5bc32eb1518d030001358396","665500ab8938657b03fbdba8","665778bd383d6a4fe04e847f","3029","stimuli/0011101.jpg","0","","prediction_trial","0","","true","","0","false","false","true","true","false","false","[0]","011","101","1","","","","","","",""
"","","","","","image-keyboard-response","67","835035","0.0-42.0","5bc32eb1518d030001358396","665500ab8938657b03fbdba8","665778bd383d6a4fe04e847f","601","stimuli/00111010.jpg"," ","","feedback_trial","0","","","","","","","","","","","","","","","","","","","","",""
"","","","","","image-keyboard-response","68","836013","0.0-43.0","5bc32eb1518d030001358396","665500ab8938657b03fbdba8","665778bd383d6a4fe04e847f","977","stimuli/1000101.jpg","1","","prediction_trial","1","","true","","1","true","true","true","true","true","true","[1]","000","101","1","","","","","","",""
"","","","","","image-keyboard-response","69","836505","0.0-44.0","5bc32eb1518d030001358396","665500ab8938657b03fbdba8","665778bd383d6a4fe04e847f","491","stimuli/10001011.jpg"," ","","feedback_trial","1","","","","","","","","","","","","","","","","","","","","",""
"","","","","","image-keyboard-response","70","838047","0.0-45.0","5bc32eb1518d030001358396","665500ab8938657b03fbdba8","665778bd383d6a4fe04e847f","1540","stimuli/2010011.jpg","2","","prediction_trial","2","","true","","2","false","false","true","true","false","false","[2]","010","011","1","","","","","","",""
"","","","","","image-keyboard-response","71","838663","0.0-46.0","5bc32eb1518d030001358396","665500ab8938657b03fbdba8","665778bd383d6a4fe04e847f","615","stimuli/20100112.jpg"," ","","feedback_trial","2","","","","","","","","","","","","","","","","","","","","",""
"","","","","","image-keyboard-response","72","839962","0.0-47.0","5bc32eb1518d030001358396","665500ab8938657b03fbdba8","665778bd383d6a4fe04e847f","1297","stimuli/0001011.jpg","0","","prediction_trial","0","","true","","0","true","true","true","true","true","true","[0]","001","011","1","","","","","","",""
"","","","","","image-keyboard-response","73","840440","0.0-48.0","5bc32eb1518d030001358396","665500ab8938657b03fbdba8","665778bd383d6a4fe04e847f","478","stimuli/00010110.jpg"," ","","feedback_trial","0","","","","","","","","","","","","","","","","","","","","",""
"","","","","","image-keyboard-response","74","845308","0.0-49.0","5bc32eb1518d030001358396","665500ab8938657b03fbdba8","665778bd383d6a4fe04e847f","4867","stimuli/2100101.jpg","0","","prediction_trial","2","","false","","2","false","false","true","true","false","false","[2]","100","101","0","","","","","","",""
"","","","","","image-keyboard-response","75","848709","0.0-50.0","5bc32eb1518d030001358396","665500ab8938657b03fbdba8","665778bd383d6a4fe04e847f","3400","stimuli/21001012.jpg"," ","","feedback_trial","2","","","","","","","","","","","","","","","","","","","","",""
"","","","","","image-keyboard-response","76","849990","0.0-51.0","5bc32eb1518d030001358396","665500ab8938657b03fbdba8","665778bd383d6a4fe04e847f","1280","stimuli/1001110.jpg","0","","prediction_trial","1","","false","","1","false","false","true","true","false","false","[1]","001","110","0","","","","","","",""
"","","","","","image-keyboard-response","77","850559","0.0-52.0","5bc32eb1518d030001358396","665500ab8938657b03fbdba8","665778bd383d6a4fe04e847f","567","stimuli/10011101.jpg"," ","","feedback_trial","1","","","","","","","","","","","","","","","","","","","","",""
"","","","","","image-keyboard-response","78","852110","0.0-53.0","5bc32eb1518d030001358396","665500ab8938657b03fbdba8","665778bd383d6a4fe04e847f","1550","stimuli/1010011.jpg","2","","prediction_trial","1","","false","","1","false","false","false","true","false","false","[1]","010","011","0","","","","","","",""
"","","","","","image-keyboard-response","79","852916","0.0-54.0","5bc32eb1518d030001358396","665500ab8938657b03fbdba8","665778bd383d6a4fe04e847f","805","stimuli/10100111.jpg"," ","","feedback_trial","1","","","","","","","","","","","","","","","","","","","","",""
"","","","","","image-keyboard-response","80","854142","0.0-55.0","5bc32eb1518d030001358396","665500ab8938657b03fbdba8","665778bd383d6a4fe04e847f","1224","stimuli/0010100.jpg","0","","prediction_trial","0","","true","","0","false","true","true","true","false","true","[0]","010","100","1","","","","","","",""
"","","","","","image-keyboard-response","81","854906","0.0-56.0","5bc32eb1518d030001358396","665500ab8938657b03fbdba8","665778bd383d6a4fe04e847f","763","stimuli/00101000.jpg"," ","","feedback_trial","0","","","","","","","","","","","","","","","","","","","","",""
"","","","","","image-keyboard-response","82","858051","0.0-57.0","5bc32eb1518d030001358396","665500ab8938657b03fbdba8","665778bd383d6a4fe04e847f","3144","stimuli/2010110.jpg","2","","prediction_trial","2","","true","","2","true","true","true","true","true","true","[2]","010","110","1","","","","","","",""
"","","","","","image-keyboard-response","83","858892","0.0-58.0","5bc32eb1518d030001358396","665500ab8938657b03fbdba8","665778bd383d6a4fe04e847f","840","stimuli/20101102.jpg"," ","","feedback_trial","2","","","","","","","","","","","","","","","","","","","","",""
"","","","","","image-keyboard-response","84","860547","0.0-59.0","5bc32eb1518d030001358396","665500ab8938657b03fbdba8","665778bd383d6a4fe04e847f","1654","stimuli/2101101.jpg","0","","prediction_trial","0","","true","","2","false","false","false","false","false","false","[2,0]","101","101","1","","","","","","",""
"","","","","","image-keyboard-response","85","861298","0.0-60.0","5bc32eb1518d030001358396","665500ab8938657b03fbdba8","665778bd383d6a4fe04e847f","750","stimuli/21011010.jpg"," ","","feedback_trial","2","","","","","","","","","","","","","","","","","","","","",""
"","","","","","image-keyboard-response","86","863364","0.0-61.0","5bc32eb1518d030001358396","665500ab8938657b03fbdba8","665778bd383d6a4fe04e847f","2064","stimuli/0101100.jpg","2","","prediction_trial","2","","true","","0","false","true","false","false","false","false","[0,2]","101","100","1","","","","","","",""
"","","","","","image-keyboard-response","87","863980","0.0-62.0","5bc32eb1518d030001358396","665500ab8938657b03fbdba8","665778bd383d6a4fe04e847f","615","stimuli/01011002.jpg"," ","","feedback_trial","0","","","","","","","","","","","","","","","","","","","","",""
"","","","","","image-keyboard-response","88","864911","0.0-63.0","5bc32eb1518d030001358396","665500ab8938657b03fbdba8","665778bd383d6a4fe04e847f","930","stimuli/2011011.jpg","1","","prediction_trial","1","","true","","2","false","false","false","false","false","false","[1,2]","011","011","1","","","","","","",""
"","","","","","image-keyboard-response","89","865448","0.0-64.0","5bc32eb1518d030001358396","665500ab8938657b03fbdba8","665778bd383d6a4fe04e847f","536","stimuli/20110111.jpg"," ","","feedback_trial","1","","","","","","","","","","","","","","","","","","","","",""
"","","","","","image-keyboard-response","90","866400","0.0-65.0","5bc32eb1518d030001358396","665500ab8938657b03fbdba8","665778bd383d6a4fe04e847f","951","stimuli/2100010.jpg","2","","prediction_trial","2","","true","","2","true","true","true","true","true","true","[2]","100","010","1","","","","","","",""
"","","","","","image-keyboard-response","91","866957","0.0-66.0","5bc32eb1518d030001358396","665500ab8938657b03fbdba8","665778bd383d6a4fe04e847f","555","stimuli/21000102.jpg"," ","","feedback_trial","2","","","","","","","","","","","","","","","","","","","","",""
"","","","","","image-keyboard-response","92","868105","0.0-67.0","5bc32eb1518d030001358396","665500ab8938657b03fbdba8","665778bd383d6a4fe04e847f","1147","stimuli/1110111.jpg","2","","prediction_trial","0","","false","","1","false","false","false","false","false","false","[0,1]","110","111","0","","","","","","",""
"","","","","","image-keyboard-response","93","868624","0.0-68.0","5bc32eb1518d030001358396","665500ab8938657b03fbdba8","665778bd383d6a4fe04e847f","518","stimuli/11101110.jpg"," ","","feedback_trial","0","","","","","","","","","","","","","","","","","","","","",""
"","","","","","image-keyboard-response","94","869738","0.0-69.0","5bc32eb1518d030001358396","665500ab8938657b03fbdba8","665778bd383d6a4fe04e847f","1112","stimuli/2011100.jpg","1","","prediction_trial","2","","false","","2","true","true","false","false","false","false","[1,2]","011","100","0","","","","","","",""
"","","","","","image-keyboard-response","95","870297","0.0-70.0","5bc32eb1518d030001358396","665500ab8938657b03fbdba8","665778bd383d6a4fe04e847f","558","stimuli/20111002.jpg"," ","","feedback_trial","1","","","","","","","","","","","","","","","","","","","","",""
"","","","","","image-keyboard-response","96","871085","0.0-71.0","5bc32eb1518d030001358396","665500ab8938657b03fbdba8","665778bd383d6a4fe04e847f","786","stimuli/1110101.jpg","0","","prediction_trial","1","","false","","1","true","true","false","false","false","false","[0,1]","110","101","0","","","","","","",""
"","","","","","image-keyboard-response","97","871668","0.0-72.0","5bc32eb1518d030001358396","665500ab8938657b03fbdba8","665778bd383d6a4fe04e847f","582","stimuli/11101011.jpg"," ","","feedback_trial","0","","","","","","","","","","","","","","","","","","","","",""
"","","","","","image-keyboard-response","98","872367","0.0-73.0","5bc32eb1518d030001358396","665500ab8938657b03fbdba8","665778bd383d6a4fe04e847f","698","stimuli/2010111.jpg","1","","prediction_trial","2","","false","","2","false","false","true","true","false","false","[2]","010","111","0","","","","","","",""
"","","","","","image-keyboard-response","99","872922","0.0-74.0","5bc32eb1518d030001358396","665500ab8938657b03fbdba8","665778bd383d6a4fe04e847f","554","stimuli/20101112.jpg"," ","","feedback_trial","2","","","","","","","","","","","","","","","","","","","","",""
"","","","","","image-keyboard-response","100","873626","0.0-75.0","5bc32eb1518d030001358396","665500ab8938657b03fbdba8","665778bd383d6a4fe04e847f","703","stimuli/0010111.jpg","2","","prediction_trial","0","","false","","0","false","false","true","true","false","false","[0]","010","111","0","","","","","","",""
"","","","","","image-keyboard-response","101","874166","0.0-76.0","5bc32eb1518d030001358396","665500ab8938657b03fbdba8","665778bd383d6a4fe04e847f","538","stimuli/00101110.jpg"," ","","feedback_trial","0","","","","","","","","","","","","","","","","","","","","",""
"","","","","","image-keyboard-response","102","875893","0.0-77.0","5bc32eb1518d030001358396","665500ab8938657b03fbdba8","665778bd383d6a4fe04e847f","1726","stimuli/1001111.jpg","0","","prediction_trial","1","","false","","1","false","false","true","true","false","false","[1]","001","111","0","","","","","","",""
"","","","","","image-keyboard-response","103","876354","0.0-78.0","5bc32eb1518d030001358396","665500ab8938657b03fbdba8","665778bd383d6a4fe04e847f","460","stimuli/10011111.jpg"," ","","feedback_trial","1","","","","","","","","","","","","","","","","","","","","",""
"","","","","","image-keyboard-response","104","877441","0.0-79.0","5bc32eb1518d030001358396","665500ab8938657b03fbdba8","665778bd383d6a4fe04e847f","1085","stimuli/2001110.jpg","1","","prediction_trial","2","","false","","2","true","true","false","true","false","true","[2]","001","110","0","","","","","","",""
"","","","","","image-keyboard-response","105","877998","0.0-80.0","5bc32eb1518d030001358396","665500ab8938657b03fbdba8","665778bd383d6a4fe04e847f","556","stimuli/20011102.jpg"," ","","feedback_trial","2","","","","","","","","","","","","","","","","","","","","",""
"","","","","","image-keyboard-response","106","879231","0.0-81.0","5bc32eb1518d030001358396","665500ab8938657b03fbdba8","665778bd383d6a4fe04e847f","1228","stimuli/0100000.jpg","0","","prediction_trial","0","","true","","0","true","true","false","true","false","true","[0]","100","000","1","","","","","","",""
"","","","","","image-keyboard-response","107","879858","0.0-82.0","5bc32eb1518d030001358396","665500ab8938657b03fbdba8","665778bd383d6a4fe04e847f","626","stimuli/01000000.jpg"," ","","feedback_trial","0","","","","","","","","","","","","","","","","","","","","",""
"","","","","","image-keyboard-response","108","881430","0.0-83.0","5bc32eb1518d030001358396","665500ab8938657b03fbdba8","665778bd383d6a4fe04e847f","1571","stimuli/1110000.jpg","1","","prediction_trial","0","","false","","1","true","true","false","false","false","false","[0,1]","110","000","0","","","","","","",""
"","","","","","image-keyboard-response","109","881955","0.0-84.0","5bc32eb1518d030001358396","665500ab8938657b03fbdba8","665778bd383d6a4fe04e847f","524","stimuli/11100000.jpg"," ","","feedback_trial","0","","","","","","","","","","","","","","","","","","","","",""
"","","","","","image-keyboard-response","110","883135","0.0-85.0","5bc32eb1518d030001358396","665500ab8938657b03fbdba8","665778bd383d6a4fe04e847f","1179","stimuli/1010100.jpg","1","","prediction_trial","1","","true","","1","true","true","false","true","false","true","[1]","010","100","1","","","","","","",""
"","","","","","image-keyboard-response","111","883621","0.0-86.0","5bc32eb1518d030001358396","665500ab8938657b03fbdba8","665778bd383d6a4fe04e847f","485","stimuli/10101001.jpg"," ","","feedback_trial","1","","","","","","","","","","","","","","","","","","","","",""
"","","","","","image-keyboard-response","112","884861","0.0-87.0","5bc32eb1518d030001358396","665500ab8938657b03fbdba8","665778bd383d6a4fe04e847f","1239","stimuli/0110111.jpg","2","","prediction_trial","0","","false","","0","false","false","false","false","false","false","[0,1]","110","111","0","","","","","","",""
"","","","","","image-keyboard-response","113","885353","0.0-88.0","5bc32eb1518d030001358396","665500ab8938657b03fbdba8","665778bd383d6a4fe04e847f","491","stimuli/01101110.jpg"," ","","feedback_trial","0","","","","","","","","","","","","","","","","","","","","",""
"","","","","","image-keyboard-response","114","886390","0.0-89.0","5bc32eb1518d030001358396","665500ab8938657b03fbdba8","665778bd383d6a4fe04e847f","1036","stimuli/2110100.jpg","2","","prediction_trial","2","","true","","2","true","true","true","true","true","true","[2]","110","100","1","","","","","","",""
"","","","","","image-keyboard-response","115","886811","0.0-90.0","5bc32eb1518d030001358396","665500ab8938657b03fbdba8","665778bd383d6a4fe04e847f","420","stimuli/21101002.jpg"," ","","feedback_trial","2","","","","","","","","","","","","","","","","","","","","",""
"","","","","","image-keyboard-response","116","888063","0.0-91.0","5bc32eb1518d030001358396","665500ab8938657b03fbdba8","665778bd383d6a4fe04e847f","1251","stimuli/2111101.jpg","0","","prediction_trial","0","","true","","2","false","false","false","false","false","false","[0,2,1]","111","101","1","","","","","","",""
"","","","","","image-keyboard-response","117","888591","0.0-92.0","5bc32eb1518d030001358396","665500ab8938657b03fbdba8","665778bd383d6a4fe04e847f","528","stimuli/21111010.jpg"," ","","feedback_trial","0","","","","","","","","","","","","","","","","","","","","",""
"","","","","","image-keyboard-response","118","889910","0.0-93.0","5bc32eb1518d030001358396","665500ab8938657b03fbdba8","665778bd383d6a4fe04e847f","1318","stimuli/2100111.jpg","1","","prediction_trial","2","","false","","2","false","false","true","true","false","false","[2]","100","111","0","","","","","","",""
"","","","","","image-keyboard-response","119","890388","0.0-94.0","5bc32eb1518d030001358396","665500ab8938657b03fbdba8","665778bd383d6a4fe04e847f","476","stimuli/21001112.jpg"," ","","feedback_trial","2","","","","","","","","","","","","","","","","","","","","",""
"","","","","","image-keyboard-response","120","891458","0.0-95.0","5bc32eb1518d030001358396","665500ab8938657b03fbdba8","665778bd383d6a4fe04e847f","1069","stimuli/2001011.jpg","1","","prediction_trial","2","","false","","2","false","false","false","true","false","false","[2]","001","011","0","","","","","","",""
"","","","","","image-keyboard-response","121","891939","0.0-96.0","5bc32eb1518d030001358396","665500ab8938657b03fbdba8","665778bd383d6a4fe04e847f","480","stimuli/20010112.jpg"," ","","feedback_trial","2","","","","","","","","","","","","","","","","","","","","",""
"","","","","","image-keyboard-response","122","893120","0.0-97.0","5bc32eb1518d030001358396","665500ab8938657b03fbdba8","665778bd383d6a4fe04e847f","1179","stimuli/0000010.jpg","0","","prediction_trial","0","","true","","0","true","true","true","true","true","true","[0]","000","010","1","","","","","","",""
"","","","","","image-keyboard-response","123","893538","0.0-98.0","5bc32eb1518d030001358396","665500ab8938657b03fbdba8","665778bd383d6a4fe04e847f","417","stimuli/00000100.jpg"," ","","feedback_trial","0","","","","","","","","","","","","","","","","","","","","",""
"","","","","","image-keyboard-response","124","894561","0.0-99.0","5bc32eb1518d030001358396","665500ab8938657b03fbdba8","665778bd383d6a4fe04e847f","1022","stimuli/0011010.jpg","0","","prediction_trial","0","","true","","0","true","true","true","true","true","true","[0]","011","010","1","","","","","","",""
"","","","","","image-keyboard-response","125","894942","0.0-100.0","5bc32eb1518d030001358396","665500ab8938657b03fbdba8","665778bd383d6a4fe04e847f","380","stimuli/00110100.jpg"," ","","feedback_trial","0","","","","","","","","","","","","","","","","","","","","",""
"","","","","","image-keyboard-response","126","896129","0.0-101.0","5bc32eb1518d030001358396","665500ab8938657b03fbdba8","665778bd383d6a4fe04e847f","1186","stimuli/2001100.jpg","2","","prediction_trial","2","","true","","2","true","true","false","true","false","true","[2]","001","100","1","","","","","","",""
"","","","","","image-keyboard-response","127","896583","0.0-102.0","5bc32eb1518d030001358396","665500ab8938657b03fbdba8","665778bd383d6a4fe04e847f","453","stimuli/20011002.jpg"," ","","feedback_trial","2","","","","","","","","","","","","","","","","","","","","",""
"","","","","","image-keyboard-response","128","897865","0.0-103.0","5bc32eb1518d030001358396","665500ab8938657b03fbdba8","665778bd383d6a4fe04e847f","1281","stimuli/1000001.jpg","1","","prediction_trial","1","","true","","1","true","true","true","true","true","true","[1]","000","001","1","","","","","","",""
"","","","","","image-keyboard-response","129","898317","0.0-104.0","5bc32eb1518d030001358396","665500ab8938657b03fbdba8","665778bd383d6a4fe04e847f","451","stimuli/10000011.jpg"," ","","feedback_trial","1","","","","","","","","","","","","","","","","","","","","",""
"","","","","","image-keyboard-response","130","900301","0.0-105.0","5bc32eb1518d030001358396","665500ab8938657b03fbdba8","665778bd383d6a4fe04e847f","1983","stimuli/1111010.jpg","0","","prediction_trial","0","","true","","1","false","true","false","false","false","false","[0,2,1]","111","010","1","","","","","","",""
"","","","","","image-keyboard-response","131","900819","0.0-106.0","5bc32eb1518d030001358396","665500ab8938657b03fbdba8","665778bd383d6a4fe04e847f","517","stimuli/11110100.jpg"," ","","feedback_trial","0","","","","","","","","","","","","","","","","","","","","",""
"","","","","","image-keyboard-response","132","902586","0.0-107.0","5bc32eb1518d030001358396","665500ab8938657b03fbdba8","665778bd383d6a4fe04e847f","1766","stimuli/0100111.jpg","1","","prediction_trial","0","","false","","0","false","false","false","true","false","false","[0]","100","111","0","","","","","","",""
"","","","","","image-keyboard-response","133","903127","0.0-108.0","5bc32eb1518d030001358396","665500ab8938657b03fbdba8","665778bd383d6a4fe04e847f","539","stimuli/01001110.jpg"," ","","feedback_trial","0","","","","","","","","","","","","","","","","","","","","",""
"","","","","","image-keyboard-response","134","904181","0.0-109.0","5bc32eb1518d030001358396","665500ab8938657b03fbdba8","665778bd383d6a4fe04e847f","1053","stimuli/2000101.jpg","2","","prediction_trial","2","","true","","2","false","false","true","true","false","false","[2]","000","101","1","","","","","","",""
"","","","","","image-keyboard-response","135","904659","0.0-110.0","5bc32eb1518d030001358396","665500ab8938657b03fbdba8","665778bd383d6a4fe04e847f","477","stimuli/20001012.jpg"," ","","feedback_trial","2","","","","","","","","","","","","","","","","","","","","",""
"","","","","","image-keyboard-response","136","905895","0.0-111.0","5bc32eb1518d030001358396","665500ab8938657b03fbdba8","665778bd383d6a4fe04e847f","1234","stimuli/0101111.jpg","1","","prediction_trial","2","","false","","0","false","false","false","false","false","false","[2,0]","101","111","0","","","","","","",""
"","","","","","image-keyboard-response","137","906430","0.0-112.0","5bc32eb1518d030001358396","665500ab8938657b03fbdba8","665778bd383d6a4fe04e847f","535","stimuli/01011112.jpg"," ","","feedback_trial","2","","","","","","","","","","","","","","","","","","","","",""
"","","","","","image-keyboard-response","138","907345","0.0-113.0","5bc32eb1518d030001358396","665500ab8938657b03fbdba8","665778bd383d6a4fe04e847f","914","stimuli/1101001.jpg","1","","prediction_trial","1","","true","","1","true","true","true","true","true","true","[1]","101","001","1","","","","","","",""
"","","","","","image-keyboard-response","139","907739","0.0-114.0","5bc32eb1518d030001358396","665500ab8938657b03fbdba8","665778bd383d6a4fe04e847f","392","stimuli/11010011.jpg"," ","","feedback_trial","1","","","","","","","","","","","","","","","","","","","","",""
"","","","","","image-keyboard-response","140","910416","0.0-115.0","5bc32eb1518d030001358396","665500ab8938657b03fbdba8","665778bd383d6a4fe04e847f","2676","stimuli/0110010.jpg","1","","prediction_trial","0","","false","","0","true","true","false","false","false","false","[0,1]","110","010","0","","","","","","",""
"","","","","","image-keyboard-response","141","910867","0.0-116.0","5bc32eb1518d030001358396","665500ab8938657b03fbdba8","665778bd383d6a4fe04e847f","449","stimuli/01100100.jpg"," ","","feedback_trial","0","","","","","","","","","","","","","","","","","","","","",""
"","","","","","image-keyboard-response","142","912126","0.0-117.0","5bc32eb1518d030001358396","665500ab8938657b03fbdba8","665778bd383d6a4fe04e847f","1258","stimuli/1011111.jpg","1","","prediction_trial","2","","false","","1","false","false","false","false","false","false","[1,2]","011","111","0","","","","","","",""
"","","","","","image-keyboard-response","143","912553","0.0-118.0","5bc32eb1518d030001358396","665500ab8938657b03fbdba8","665778bd383d6a4fe04e847f","425","stimuli/10111112.jpg"," ","","feedback_trial","1","","","","","","","","","","","","","","","","","","","","",""
"","","","","","image-keyboard-response","144","913500","0.0-119.0","5bc32eb1518d030001358396","665500ab8938657b03fbdba8","665778bd383d6a4fe04e847f","947","stimuli/0011000.jpg","0","","prediction_trial","0","","true","","0","true","true","true","true","true","true","[0]","011","000","1","","","","","","",""
"","","","","","image-keyboard-response","145","913891","0.0-120.0","5bc32eb1518d030001358396","665500ab8938657b03fbdba8","665778bd383d6a4fe04e847f","390","stimuli/00110000.jpg"," ","","feedback_trial","0","","","","","","","","","","","","","","","","","","","","",""
"","","","","","image-keyboard-response","146","915424","0.0-121.0","5bc32eb1518d030001358396","665500ab8938657b03fbdba8","665778bd383d6a4fe04e847f","1532","stimuli/0010110.jpg","0","","prediction_trial","0","","true","","0","false","false","true","true","false","false","[0]","010","110","1","","","","","","",""
"","","","","","image-keyboard-response","147","915821","0.0-122.0","5bc32eb1518d030001358396","665500ab8938657b03fbdba8","665778bd383d6a4fe04e847f","396","stimuli/00101100.jpg"," ","","feedback_trial","0","","","","","","","","","","","","","","","","","","","","",""
"","","","","","image-keyboard-response","148","917359","0.0-123.0","5bc32eb1518d030001358396","665500ab8938657b03fbdba8","665778bd383d6a4fe04e847f","1537","stimuli/1001010.jpg","1","","prediction_trial","1","","true","","1","false","true","true","true","false","true","[1]","001","010","1","","","","","","",""
"","","","","","image-keyboard-response","149","917769","0.0-124.0","5bc32eb1518d030001358396","665500ab8938657b03fbdba8","665778bd383d6a4fe04e847f","409","stimuli/10010101.jpg"," ","","feedback_trial","1","","","","","","","","","","","","","","","","","","","","",""
"","","","","","image-keyboard-response","150","918923","0.0-125.0","5bc32eb1518d030001358396","665500ab8938657b03fbdba8","665778bd383d6a4fe04e847f","1153","stimuli/1000100.jpg","1","","prediction_trial","1","","true","","1","true","true","true","true","true","true","[1]","000","100","1","","","","","","",""
"","","","","","image-keyboard-response","151","919344","0.0-126.0","5bc32eb1518d030001358396","665500ab8938657b03fbdba8","665778bd383d6a4fe04e847f","421","stimuli/10001001.jpg"," ","","feedback_trial","1","","","","","","","","","","","","","","","","","","","","",""
"","","","","","image-keyboard-response","152","920385","0.0-127.0","5bc32eb1518d030001358396","665500ab8938657b03fbdba8","665778bd383d6a4fe04e847f","1039","stimuli/2000111.jpg","1","","prediction_trial","2","","false","","2","false","false","true","true","false","false","[2]","000","111","0","","","","","","",""
"","","","","","image-keyboard-response","153","920814","0.0-128.0","5bc32eb1518d030001358396","665500ab8938657b03fbdba8","665778bd383d6a4fe04e847f","428","stimuli/20001112.jpg"," ","","feedback_trial","2","","","","","","","","","","","","","","","","","","","","",""
"","","","","","image-keyboard-response","154","922306","0.0-129.0","5bc32eb1518d030001358396","665500ab8938657b03fbdba8","665778bd383d6a4fe04e847f","1491","stimuli/2010010.jpg","2","","prediction_trial","2","","true","","2","true","true","true","true","true","true","[2]","010","010","1","","","","","","",""
"","","","","","image-keyboard-response","155","922691","0.0-130.0","5bc32eb1518d030001358396","665500ab8938657b03fbdba8","665778bd383d6a4fe04e847f","384","stimuli/20100102.jpg"," ","","feedback_trial","2","","","","","","","","","","","","","","","","","","","","",""
"","","","","","image-keyboard-response","156","924507","0.0-131.0","5bc32eb1518d030001358396","665500ab8938657b03fbdba8","665778bd383d6a4fe04e847f","1815","stimuli/2101010.jpg","0","","prediction_trial","0","","true","","2","true","true","false","false","false","false","[0,2]","101","010","1","","","","","","",""
"","","","","","image-keyboard-response","157","924946","0.0-132.0","5bc32eb1518d030001358396","665500ab8938657b03fbdba8","665778bd383d6a4fe04e847f","438","stimuli/21010100.jpg"," ","","feedback_trial","0","","","","","","","","","","","","","","","","","","","","",""
"","","","","","image-keyboard-response","158","926448","0.0-133.0","5bc32eb1518d030001358396","665500ab8938657b03fbdba8","665778bd383d6a4fe04e847f","1500","stimuli/0110110.jpg","1","","prediction_trial","1","","true","","0","false","false","false","false","false","false","[1,0]","110","110","1","","","","","","",""
"","","","","","image-keyboard-response","159","927019","0.0-134.0","5bc32eb1518d030001358396","665500ab8938657b03fbdba8","665778bd383d6a4fe04e847f","570","stimuli/01101101.jpg"," ","","feedback_trial","1","","","","","","","","","","","","","","","","","","","","",""
"","","","","","image-keyboard-response","160","929395","0.0-135.0","5bc32eb1518d030001358396","665500ab8938657b03fbdba8","665778bd383d6a4fe04e847f","2375","stimuli/0011111.jpg","1","","prediction_trial","0","","false","","0","false","false","true","true","false","false","[0]","011","111","0","","","","","","",""
"","","","","","image-keyboard-response","161","929820","0.0-136.0","5bc32eb1518d030001358396","665500ab8938657b03fbdba8","665778bd383d6a4fe04e847f","424","stimuli/00111110.jpg"," ","","feedback_trial","0","","","","","","","","","","","","","","","","","","","","",""
"","","","","","image-keyboard-response","162","931268","0.0-137.0","5bc32eb1518d030001358396","665500ab8938657b03fbdba8","665778bd383d6a4fe04e847f","1447","stimuli/0011110.jpg","1","","prediction_trial","0","","false","","0","false","false","true","true","false","false","[0]","011","110","0","","","","","","",""
"","","","","","image-keyboard-response","163","931735","0.0-138.0","5bc32eb1518d030001358396","665500ab8938657b03fbdba8","665778bd383d6a4fe04e847f","466","stimuli/00111100.jpg"," ","","feedback_trial","0","","","","","","","","","","","","","","","","","","","","",""
"","","","","","image-keyboard-response","164","932956","0.0-139.0","5bc32eb1518d030001358396","665500ab8938657b03fbdba8","665778bd383d6a4fe04e847f","1220","stimuli/1110001.jpg","1","","prediction_trial","0","","false","","1","true","true","false","false","false","false","[1,0]","110","001","0","","","","","","",""
"","","","","","image-keyboard-response","165","933368","0.0-140.0","5bc32eb1518d030001358396","665500ab8938657b03fbdba8","665778bd383d6a4fe04e847f","411","stimuli/11100010.jpg"," ","","feedback_trial","1","","","","","","","","","","","","","","","","","","","","",""
"","","","","","image-keyboard-response","166","934151","0.0-141.0","5bc32eb1518d030001358396","665500ab8938657b03fbdba8","665778bd383d6a4fe04e847f","782","stimuli/1100000.jpg","1","","prediction_trial","1","","true","","1","true","true","true","true","true","true","[1]","100","000","1","","","","","","",""
"","","","","","image-keyboard-response","167","934545","0.0-142.0","5bc32eb1518d030001358396","665500ab8938657b03fbdba8","665778bd383d6a4fe04e847f","392","stimuli/11000001.jpg"," ","","feedback_trial","1","","","","","","","","","","","","","","","","","","","","",""
"","","","","","image-keyboard-response","168","935785","0.0-143.0","5bc32eb1518d030001358396","665500ab8938657b03fbdba8","665778bd383d6a4fe04e847f","1239","stimuli/1010110.jpg","1","","prediction_trial","1","","true","","1","false","false","false","true","false","false","[1]","010","110","1","","","","","","",""
"","","","","","image-keyboard-response","169","936226","0.0-144.0","5bc32eb1518d030001358396","665500ab8938657b03fbdba8","665778bd383d6a4fe04e847f","440","stimuli/10101101.jpg"," ","","feedback_trial","1","","","","","","","","","","","","","","","","","","","","",""
"","","","","","image-keyboard-response","170","937114","0.0-145.0","5bc32eb1518d030001358396","665500ab8938657b03fbdba8","665778bd383d6a4fe04e847f","887","stimuli/2101110.jpg","2","","prediction_trial","0","","false","","2","true","true","false","false","false","false","[2,0]","101","110","0","","","","","","",""
"","","","","","image-keyboard-response","171","937635","0.0-146.0","5bc32eb1518d030001358396","665500ab8938657b03fbdba8","665778bd383d6a4fe04e847f","520","stimuli/21011100.jpg"," ","","feedback_trial","2","","","","","","","","","","","","","","","","","","","","",""
"","","","","","image-keyboard-response","172","938869","0.0-147.0","5bc32eb1518d030001358396","665500ab8938657b03fbdba8","665778bd383d6a4fe04e847f","1233","stimuli/1101010.jpg","1","","prediction_trial","1","","true","","1","false","true","true","true","false","true","[1]","101","010","1","","","","","","",""
"","","","","","image-keyboard-response","173","939305","0.0-148.0","5bc32eb1518d030001358396","665500ab8938657b03fbdba8","665778bd383d6a4fe04e847f","430","stimuli/11010101.jpg"," ","","feedback_trial","1","","","","","","","","","","","","","","","","","","","","",""
"","","","","","image-keyboard-response","174","940471","0.0-149.0","5bc32eb1518d030001358396","665500ab8938657b03fbdba8","665778bd383d6a4fe04e847f","1166","stimuli/0011011.jpg","0","","prediction_trial","0","","true","","0","true","true","true","true","true","true","[0]","011","011","1","","","","","","",""
"","","","","","image-keyboard-response","175","940803","0.0-150.0","5bc32eb1518d030001358396","665500ab8938657b03fbdba8","665778bd383d6a4fe04e847f","331","stimuli/00110110.jpg"," ","","feedback_trial","0","","","","","","","","","","","","","","","","","","","","",""
"","","","","","image-keyboard-response","176","942012","0.0-151.0","5bc32eb1518d030001358396","665500ab8938657b03fbdba8","665778bd383d6a4fe04e847f","1208","stimuli/2011010.jpg","1","","prediction_trial","1","","true","","2","true","true","false","false","false","false","[2,1]","011","010","1","","","","","","",""
"","","","","","image-keyboard-response","177","942440","0.0-152.0","5bc32eb1518d030001358396","665500ab8938657b03fbdba8","665778bd383d6a4fe04e847f","426","stimuli/20110101.jpg"," ","","feedback_trial","2","","","","","","","","","","","","","","","","","","","","",""
"","","","","","image-keyboard-response","178","943353","0.0-153.0","5bc32eb1518d030001358396","665500ab8938657b03fbdba8","665778bd383d6a4fe04e847f","913","stimuli/2110101.jpg","2","","prediction_trial","2","","true","","2","false","false","true","true","false","false","[2]","110","101","1","","","","","","",""
"","","","","","image-keyboard-response","179","943759","0.0-154.0","5bc32eb1518d030001358396","665500ab8938657b03fbdba8","665778bd383d6a4fe04e847f","404","stimuli/21101012.jpg"," ","","feedback_trial","2","","","","","","","","","","","","","","","","","","","","",""
"","","","","","image-keyboard-response","180","944870","0.0-155.0","5bc32eb1518d030001358396","665500ab8938657b03fbdba8","665778bd383d6a4fe04e847f","1110","stimuli/0111000.jpg","0","","prediction_trial","0","","true","","0","true","true","false","false","false","false","[2,1,0]","111","000","1","","","","","","",""
"","","","","","image-keyboard-response","181","945467","0.0-156.0","5bc32eb1518d030001358396","665500ab8938657b03fbdba8","665778bd383d6a4fe04e847f","596","stimuli/01110000.jpg"," ","","feedback_trial","2","","","","","","","","","","","","","","","","","","","","",""
"","","","","","image-keyboard-response","182","948073","0.0-157.0","5bc32eb1518d030001358396","665500ab8938657b03fbdba8","665778bd383d6a4fe04e847f","2605","stimuli/0000101.jpg","2","","prediction_trial","0","","false","","0","false","false","true","true","false","false","[0]","000","101","0","","","","","","",""
"","","","","","image-keyboard-response","183","949261","0.0-158.0","5bc32eb1518d030001358396","665500ab8938657b03fbdba8","665778bd383d6a4fe04e847f","1187","stimuli/00001010.jpg"," ","","feedback_trial","0","","","","","","","","","","","","","","","","","","","","",""
"","","","","","image-keyboard-response","184","950121","0.0-159.0","5bc32eb1518d030001358396","665500ab8938657b03fbdba8","665778bd383d6a4fe04e847f","859","stimuli/2100100.jpg","2","","prediction_trial","2","","true","","2","true","true","true","true","true","true","[2]","100","100","1","","","","","","",""
"","","","","","image-keyboard-response","185","950739","0.0-160.0","5bc32eb1518d030001358396","665500ab8938657b03fbdba8","665778bd383d6a4fe04e847f","617","stimuli/21001002.jpg"," ","","feedback_trial","2","","","","","","","","","","","","","","","","","","","","",""
"","","","","","image-keyboard-response","186","951971","0.0-161.0","5bc32eb1518d030001358396","665500ab8938657b03fbdba8","665778bd383d6a4fe04e847f","1231","stimuli/0100010.jpg","1","","prediction_trial","0","","false","","0","true","true","false","true","false","true","[0]","100","010","0","","","","","","",""
"","","","","","image-keyboard-response","187","952392","0.0-162.0","5bc32eb1518d030001358396","665500ab8938657b03fbdba8","665778bd383d6a4fe04e847f","420","stimuli/01000100.jpg"," ","","feedback_trial","0","","","","","","","","","","","","","","","","","","","","",""
"","","","","","image-keyboard-response","188","956210","0.0-163.0","5bc32eb1518d030001358396","665500ab8938657b03fbdba8","665778bd383d6a4fe04e847f","3817","stimuli/0011001.jpg","0","","prediction_trial","0","","true","","0","true","true","true","true","true","true","[0]","011","001","1","","","","","","",""
"","","","","","image-keyboard-response","189","956683","0.0-164.0","5bc32eb1518d030001358396","665500ab8938657b03fbdba8","665778bd383d6a4fe04e847f","472","stimuli/00110010.jpg"," ","","feedback_trial","0","","","","","","","","","","","","","","","","","","","","",""
"","","","","","image-keyboard-response","190","957897","0.0-165.0","5bc32eb1518d030001358396","665500ab8938657b03fbdba8","665778bd383d6a4fe04e847f","1213","stimuli/0100101.jpg","2","","prediction_trial","0","","false","","0","false","false","false","true","false","false","[0]","100","101","0","","","","","","",""
"","","","","","image-keyboard-response","191","958294","0.0-166.0","5bc32eb1518d030001358396","665500ab8938657b03fbdba8","665778bd383d6a4fe04e847f","396","stimuli/01001010.jpg"," ","","feedback_trial","0","","","","","","","","","","","","","","","","","","","","",""
"","","","","","image-keyboard-response","192","959142","0.0-167.0","5bc32eb1518d030001358396","665500ab8938657b03fbdba8","665778bd383d6a4fe04e847f","846","stimuli/2011110.jpg","2","","prediction_trial","2","","true","","2","true","true","false","false","false","false","[2,1]","011","110","1","","","","","","",""
"","","","","","image-keyboard-response","193","959525","0.0-168.0","5bc32eb1518d030001358396","665500ab8938657b03fbdba8","665778bd383d6a4fe04e847f","383","stimuli/20111102.jpg"," ","","feedback_trial","2","","","","","","","","","","","","","","","","","","","","",""
"","","","","","image-keyboard-response","194","960598","0.0-169.0","5bc32eb1518d030001358396","665500ab8938657b03fbdba8","665778bd383d6a4fe04e847f","1071","stimuli/1010101.jpg","1","","prediction_trial","1","","true","","1","true","true","false","true","false","true","[1]","010","101","1","","","","","","",""
"","","","","","image-keyboard-response","195","960983","0.0-170.0","5bc32eb1518d030001358396","665500ab8938657b03fbdba8","665778bd383d6a4fe04e847f","384","stimuli/10101011.jpg"," ","","feedback_trial","1","","","","","","","","","","","","","","","","","","","","",""
"","","","","","image-keyboard-response","196","971647","0.0-171.0","5bc32eb1518d030001358396","665500ab8938657b03fbdba8","665778bd383d6a4fe04e847f","10663","stimuli/2000110.jpg","2","","prediction_trial","2","","true","","2","true","true","true","true","true","true","[2]","000","110","1","","","","","","",""
"","","","","","image-keyboard-response","197","972067","0.0-172.0","5bc32eb1518d030001358396","665500ab8938657b03fbdba8","665778bd383d6a4fe04e847f","419","stimuli/20001102.jpg"," ","","feedback_trial","2","","","","","","","","","","","","","","","","","","","","",""
"","","","","","image-keyboard-response","198","973070","0.0-173.0","5bc32eb1518d030001358396","665500ab8938657b03fbdba8","665778bd383d6a4fe04e847f","1002","stimuli/1000010.jpg","1","","prediction_trial","1","","true","","1","false","true","true","true","false","true","[1]","000","010","1","","","","","","",""
"","","","","","image-keyboard-response","199","973415","0.0-174.0","5bc32eb1518d030001358396","665500ab8938657b03fbdba8","665778bd383d6a4fe04e847f","344","stimuli/10000101.jpg"," ","","feedback_trial","1","","","","","","","","","","","","","","","","","","","","",""
"","","","","","image-keyboard-response","200","974437","0.0-175.0","5bc32eb1518d030001358396","665500ab8938657b03fbdba8","665778bd383d6a4fe04e847f","1021","stimuli/1101011.jpg","1","","prediction_trial","1","","true","","1","false","false","true","true","false","false","[1]","101","011","1","","","","","","",""
"","","","","","image-keyboard-response","201","974749","0.0-176.0","5bc32eb1518d030001358396","665500ab8938657b03fbdba8","665778bd383d6a4fe04e847f","311","stimuli/11010111.jpg"," ","","feedback_trial","1","","","","","","","","","","","","","","","","","","","","",""
"","","","","","image-keyboard-response","202","984330","0.0-177.0","5bc32eb1518d030001358396","665500ab8938657b03fbdba8","665778bd383d6a4fe04e847f","9580","stimuli/0101110.jpg","1","","prediction_trial","0","","false","","0","false","false","false","false","false","false","[0,2]","101","110","0","","","","","","",""
"","","","","","image-keyboard-response","203","984713","0.0-178.0","5bc32eb1518d030001358396","665500ab8938657b03fbdba8","665778bd383d6a4fe04e847f","382","stimuli/01011100.jpg"," ","","feedback_trial","0","","","","","","","","","","","","","","","","","","","","",""
"","","","","","image-keyboard-response","204","985801","0.0-179.0","5bc32eb1518d030001358396","665500ab8938657b03fbdba8","665778bd383d6a4fe04e847f","1087","stimuli/2110011.jpg","2","","prediction_trial","2","","true","","2","false","false","true","true","false","false","[2]","110","011","1","","","","","","",""
"","","","","","image-keyboard-response","205","986245","0.0-180.0","5bc32eb1518d030001358396","665500ab8938657b03fbdba8","665778bd383d6a4fe04e847f","443","stimuli/21100112.jpg"," ","","feedback_trial","2","","","","","","","","","","","","","","","","","","","","",""
"","","","","","image-keyboard-response","206","987349","0.0-181.0","5bc32eb1518d030001358396","665500ab8938657b03fbdba8","665778bd383d6a4fe04e847f","1103","stimuli/2111000.jpg","0","","prediction_trial","2","","false","","2","true","true","false","false","false","false","[2,1,0]","111","000","0","","","","","","",""
"","","","","","image-keyboard-response","207","987813","0.0-182.0","5bc32eb1518d030001358396","665500ab8938657b03fbdba8","665778bd383d6a4fe04e847f","463","stimuli/21110002.jpg"," ","","feedback_trial","2","","","","","","","","","","","","","","","","","","","","",""
"","","","","","image-keyboard-response","208","988538","0.0-183.0","5bc32eb1518d030001358396","665500ab8938657b03fbdba8","665778bd383d6a4fe04e847f","724","stimuli/1011110.jpg","1","","prediction_trial","1","","true","","1","false","false","false","false","false","false","[1,2]","011","110","1","","","","","","",""
"","","","","","image-keyboard-response","209","988932","0.0-184.0","5bc32eb1518d030001358396","665500ab8938657b03fbdba8","665778bd383d6a4fe04e847f","393","stimuli/10111101.jpg"," ","","feedback_trial","1","","","","","","","","","","","","","","","","","","","","",""
"","","","","","image-keyboard-response","210","990991","0.0-185.0","5bc32eb1518d030001358396","665500ab8938657b03fbdba8","665778bd383d6a4fe04e847f","2058","stimuli/2111001.jpg","2","","prediction_trial","0","","false","","2","false","true","false","false","false","false","[1,0,2]","111","001","0","","","","","","",""
"","","","","","image-keyboard-response","211","993488","0.0-186.0","5bc32eb1518d030001358396","665500ab8938657b03fbdba8","665778bd383d6a4fe04e847f","2496","stimuli/21110010.jpg"," ","","feedback_trial","1","","","","","","","","","","","","","","","","","","","","",""
"","","","","","image-keyboard-response","212","994510","0.0-187.0","5bc32eb1518d030001358396","665500ab8938657b03fbdba8","665778bd383d6a4fe04e847f","1021","stimuli/2110000.jpg","2","","prediction_trial","2","","true","","2","true","true","true","true","true","true","[2]","110","000","1","","","","","","",""
"","","","","","image-keyboard-response","213","994980","0.0-188.0","5bc32eb1518d030001358396","665500ab8938657b03fbdba8","665778bd383d6a4fe04e847f","468","stimuli/21100002.jpg"," ","","feedback_trial","2","","","","","","","","","","","","","","","","","","","","",""
"","","","","","image-keyboard-response","214","995998","0.0-189.0","5bc32eb1518d030001358396","665500ab8938657b03fbdba8","665778bd383d6a4fe04e847f","1017","stimuli/0110100.jpg","0","","prediction_trial","1","","false","","0","false","true","false","false","false","false","[1,0]","110","100","0","","","","","","",""
"","","","","","image-keyboard-response","215","996821","0.0-190.0","5bc32eb1518d030001358396","665500ab8938657b03fbdba8","665778bd383d6a4fe04e847f","822","stimuli/01101001.jpg"," ","","feedback_trial","1","","","","","","","","","","","","","","","","","","","","",""
"","","","","","image-keyboard-response","216","1000107","0.0-191.0","5bc32eb1518d030001358396","665500ab8938657b03fbdba8","665778bd383d6a4fe04e847f","3294","stimuli/0001000.jpg","0","","prediction_trial","0","","true","","0","true","true","true","true","true","true","[0]","001","000","1","","","","","","",""
"","","","","","image-keyboard-response","217","1000438","0.0-192.0","5bc32eb1518d030001358396","665500ab8938657b03fbdba8","665778bd383d6a4fe04e847f","329","stimuli/00010000.jpg"," ","","feedback_trial","0","","","","","","","","","","","","","","","","","","","","",""
"","","","","","image-keyboard-response","218","1001414","0.0-193.0","5bc32eb1518d030001358396","665500ab8938657b03fbdba8","665778bd383d6a4fe04e847f","975","stimuli/0011100.jpg","0","","prediction_trial","0","","true","","0","false","true","true","true","false","true","[0]","011","100","1","","","","","","",""
"","","","","","image-keyboard-response","219","1001803","0.0-194.0","5bc32eb1518d030001358396","665500ab8938657b03fbdba8","665778bd383d6a4fe04e847f","388","stimuli/00111000.jpg"," ","","feedback_trial","0","","","","","","","","","","","","","","","","","","","","",""
"","","","","","image-keyboard-response","220","1005148","0.0-195.0","5bc32eb1518d030001358396","665500ab8938657b03fbdba8","665778bd383d6a4fe04e847f","3344","stimuli/1001011.jpg","1","","prediction_trial","1","","true","","1","false","false","true","true","false","false","[1]","001","011","1","","","","","","",""
"","","","","","image-keyboard-response","221","1005491","0.0-196.0","5bc32eb1518d030001358396","665500ab8938657b03fbdba8","665778bd383d6a4fe04e847f","342","stimuli/10010111.jpg"," ","","feedback_trial","1","","","","","","","","","","","","","","","","","","","","",""
"","","","","","image-keyboard-response","222","1006330","0.0-197.0","5bc32eb1518d030001358396","665500ab8938657b03fbdba8","665778bd383d6a4fe04e847f","838","stimuli/0101101.jpg","2","","prediction_trial","0","","false","","0","false","false","false","false","false","false","[2,0]","101","101","0","","","","","","",""
"","","","","","image-keyboard-response","223","1006777","0.0-198.0","5bc32eb1518d030001358396","665500ab8938657b03fbdba8","665778bd383d6a4fe04e847f","445","stimuli/01011010.jpg"," ","","feedback_trial","2","","","","","","","","","","","","","","","","","","","","",""
"","","","","","image-keyboard-response","224","1007782","0.0-199.0","5bc32eb1518d030001358396","665500ab8938657b03fbdba8","665778bd383d6a4fe04e847f","1005","stimuli/0111111.jpg","0","","prediction_trial","2","","false","","0","false","false","false","false","false","false","[1,2,0]","111","111","0","","","","","","",""
"","","","","","image-keyboard-response","225","1008116","0.0-200.0","5bc32eb1518d030001358396","665500ab8938657b03fbdba8","665778bd383d6a4fe04e847f","332","stimuli/01111112.jpg"," ","","feedback_trial","1","","","","","","","","","","","","","","","","","","","","",""
"","","","","","image-keyboard-response","226","1008711","0.0-201.0","5bc32eb1518d030001358396","665500ab8938657b03fbdba8","665778bd383d6a4fe04e847f","595","stimuli/1011101.jpg","1","","prediction_trial","1","","true","","1","true","true","false","false","false","false","[1,2]","011","101","1","","","","","","",""
"","","","","","image-keyboard-response","227","1009140","0.0-202.0","5bc32eb1518d030001358396","665500ab8938657b03fbdba8","665778bd383d6a4fe04e847f","428","stimuli/10111011.jpg"," ","","feedback_trial","1","","","","","","","","","","","","","","","","","","","","",""
"","","","","","image-keyboard-response","228","1010077","0.0-203.0","5bc32eb1518d030001358396","665500ab8938657b03fbdba8","665778bd383d6a4fe04e847f","935","stimuli/1001101.jpg","1","","prediction_trial","1","","true","","1","true","true","true","true","true","true","[1]","001","101","1","","","","","","",""
"","","","","","image-keyboard-response","229","1010372","0.0-204.0","5bc32eb1518d030001358396","665500ab8938657b03fbdba8","665778bd383d6a4fe04e847f","295","stimuli/10011011.jpg"," ","","feedback_trial","1","","","","","","","","","","","","","","","","","","","","",""
"","","","","","image-keyboard-response","230","1011388","0.0-205.0","5bc32eb1518d030001358396","665500ab8938657b03fbdba8","665778bd383d6a4fe04e847f","1014","stimuli/0000000.jpg","0","","prediction_trial","0","","true","","0","true","true","true","true","true","true","[0]","000","000","1","","","","","","",""
"","","","","","image-keyboard-response","231","1011681","0.0-206.0","5bc32eb1518d030001358396","665500ab8938657b03fbdba8","665778bd383d6a4fe04e847f","292","stimuli/00000000.jpg"," ","","feedback_trial","0","","","","","","","","","","","","","","","","","","","","",""
"","","","","","image-keyboard-response","232","1012806","0.0-207.0","5bc32eb1518d030001358396","665500ab8938657b03fbdba8","665778bd383d6a4fe04e847f","1125","stimuli/1000111.jpg","1","","prediction_trial","1","","true","","1","false","false","true","true","false","false","[1]","000","111","1","","","","","","",""
"","","","","","image-keyboard-response","233","1013167","0.0-208.0","5bc32eb1518d030001358396","665500ab8938657b03fbdba8","665778bd383d6a4fe04e847f","360","stimuli/10001111.jpg"," ","","feedback_trial","1","","","","","","","","","","","","","","","","","","","","",""
"","","","","","image-keyboard-response","234","1014152","0.0-209.0","5bc32eb1518d030001358396","665500ab8938657b03fbdba8","665778bd383d6a4fe04e847f","984","stimuli/1100110.jpg","2","","prediction_trial","1","","false","","1","false","false","true","true","false","false","[1]","100","110","0","","","","","","",""
"","","","","","image-keyboard-response","235","1014960","0.0-210.0","5bc32eb1518d030001358396","665500ab8938657b03fbdba8","665778bd383d6a4fe04e847f","807","stimuli/11001101.jpg"," ","","feedback_trial","1","","","","","","","","","","","","","","","","","","","","",""
"","","","","","image-keyboard-response","236","1016054","0.0-211.0","5bc32eb1518d030001358396","665500ab8938657b03fbdba8","665778bd383d6a4fe04e847f","1093","stimuli/2101000.jpg","0","","prediction_trial","2","","false","","2","true","true","false","false","false","false","[0,2]","101","000","0","","","","","","",""
"","","","","","image-keyboard-response","237","1016923","0.0-212.0","5bc32eb1518d030001358396","665500ab8938657b03fbdba8","665778bd383d6a4fe04e847f","868","stimuli/21010002.jpg"," ","","feedback_trial","0","","","","","","","","","","","","","","","","","","","","",""
"","","","","","image-keyboard-response","238","1017906","0.0-213.0","5bc32eb1518d030001358396","665500ab8938657b03fbdba8","665778bd383d6a4fe04e847f","983","stimuli/0101011.jpg","1","","prediction_trial","2","","false","","0","true","true","false","false","false","false","[0,2]","101","011","0","","","","","","",""
"","","","","","image-keyboard-response","239","1018253","0.0-214.0","5bc32eb1518d030001358396","665500ab8938657b03fbdba8","665778bd383d6a4fe04e847f","346","stimuli/01010112.jpg"," ","","feedback_trial","0","","","","","","","","","","","","","","","","","","","","",""
"","","","","","image-keyboard-response","240","1019441","0.0-215.0","5bc32eb1518d030001358396","665500ab8938657b03fbdba8","665778bd383d6a4fe04e847f","1186","stimuli/2111011.jpg","1","","prediction_trial","2","","false","","2","false","false","false","false","false","false","[0,1,2]","111","011","0","","","","","","",""
"","","","","","image-keyboard-response","241","1019741","0.0-216.0","5bc32eb1518d030001358396","665500ab8938657b03fbdba8","665778bd383d6a4fe04e847f","299","stimuli/21110112.jpg"," ","","feedback_trial","0","","","","","","","","","","","","","","","","","","","","",""
"","","","","","image-keyboard-response","242","1020977","0.0-217.0","5bc32eb1518d030001358396","665500ab8938657b03fbdba8","665778bd383d6a4fe04e847f","1235","stimuli/0110011.jpg","0","","prediction_trial","0","","true","","0","true","true","false","false","false","false","[0,1]","110","011","1","","","","","","",""
"","","","","","image-keyboard-response","243","1021402","0.0-218.0","5bc32eb1518d030001358396","665500ab8938657b03fbdba8","665778bd383d6a4fe04e847f","424","stimuli/01100110.jpg"," ","","feedback_trial","0","","","","","","","","","","","","","","","","","","","","",""
"","","","","","image-keyboard-response","244","1022637","0.0-219.0","5bc32eb1518d030001358396","665500ab8938657b03fbdba8","665778bd383d6a4fe04e847f","1233","stimuli/2000001.jpg","2","","prediction_trial","2","","true","","2","false","true","true","true","false","true","[2]","000","001","1","","","","","","",""
"","","","","","image-keyboard-response","245","1023012","0.0-220.0","5bc32eb1518d030001358396","665500ab8938657b03fbdba8","665778bd383d6a4fe04e847f","375","stimuli/20000012.jpg"," ","","feedback_trial","2","","","","","","","","","","","","","","","","","","","","",""
"","","","","","image-keyboard-response","246","1024034","0.0-221.0","5bc32eb1518d030001358396","665500ab8938657b03fbdba8","665778bd383d6a4fe04e847f","1020","stimuli/1001001.jpg","1","","prediction_trial","1","","true","","1","true","true","true","true","true","true","[1]","001","001","1","","","","","","",""
"","","","","","image-keyboard-response","247","1024339","0.0-222.0","5bc32eb1518d030001358396","665500ab8938657b03fbdba8","665778bd383d6a4fe04e847f","304","stimuli/10010011.jpg"," ","","feedback_trial","1","","","","","","","","","","","","","","","","","","","","",""
"","","","","","image-keyboard-response","248","1025522","0.0-223.0","5bc32eb1518d030001358396","665500ab8938657b03fbdba8","665778bd383d6a4fe04e847f","1176","stimuli/1000110.jpg","1","","prediction_trial","1","","true","","1","false","false","true","true","false","false","[1]","000","110","1","","","","","","",""
"","","","","","image-keyboard-response","249","1025863","0.0-224.0","5bc32eb1518d030001358396","665500ab8938657b03fbdba8","665778bd383d6a4fe04e847f","340","stimuli/10001101.jpg"," ","","feedback_trial","1","","","","","","","","","","","","","","","","","","","","",""
"","","","","","image-keyboard-response","250","1027011","0.0-225.0","5bc32eb1518d030001358396","665500ab8938657b03fbdba8","665778bd383d6a4fe04e847f","1148","stimuli/0111100.jpg","0","","prediction_trial","2","","false","","0","false","true","false","false","false","false","[1,2,0]","111","100","0","","","","","","",""
"","","","","","image-keyboard-response","251","1027346","0.0-226.0","5bc32eb1518d030001358396","665500ab8938657b03fbdba8","665778bd383d6a4fe04e847f","334","stimuli/01111002.jpg"," ","","feedback_trial","1","","","","","","","","","","","","","","","","","","","","",""
"","","","","","image-keyboard-response","252","1028403","0.0-227.0","5bc32eb1518d030001358396","665500ab8938657b03fbdba8","665778bd383d6a4fe04e847f","1056","stimuli/2011001.jpg","2","","prediction_trial","2","","true","","2","false","true","false","false","false","false","[1,2]","011","001","1","","","","","","",""
"","","","","","image-keyboard-response","253","1028792","0.0-228.0","5bc32eb1518d030001358396","665500ab8938657b03fbdba8","665778bd383d6a4fe04e847f","388","stimuli/20110012.jpg"," ","","feedback_trial","1","","","","","","","","","","","","","","","","","","","","",""
"","","","","","image-keyboard-response","254","1030077","0.0-229.0","5bc32eb1518d030001358396","665500ab8938657b03fbdba8","665778bd383d6a4fe04e847f","1284","stimuli/1111001.jpg","1","","prediction_trial","2","","false","","1","true","true","false","false","false","false","[2,0,1]","111","001","0","","","","","","",""
"","","","","","image-keyboard-response","255","1030558","0.0-230.0","5bc32eb1518d030001358396","665500ab8938657b03fbdba8","665778bd383d6a4fe04e847f","480","stimuli/11110012.jpg"," ","","feedback_trial","2","","","","","","","","","","","","","","","","","","","","",""
"","","","","","image-keyboard-response","256","1032960","0.0-231.0","5bc32eb1518d030001358396","665500ab8938657b03fbdba8","665778bd383d6a4fe04e847f","2401","stimuli/0010010.jpg","0","","prediction_trial","0","","true","","0","true","true","true","true","true","true","[0]","010","010","1","","","","","","",""
"","","","","","image-keyboard-response","257","1033380","0.0-232.0","5bc32eb1518d030001358396","665500ab8938657b03fbdba8","665778bd383d6a4fe04e847f","418","stimuli/00100100.jpg"," ","","feedback_trial","0","","","","","","","","","","","","","","","","","","","","",""
"","","","","","image-keyboard-response","258","1034396","0.0-233.0","5bc32eb1518d030001358396","665500ab8938657b03fbdba8","665778bd383d6a4fe04e847f","1015","stimuli/1101000.jpg","1","","prediction_trial","1","","true","","1","true","true","true","true","true","true","[1]","101","000","1","","","","","","",""
"","","","","","image-keyboard-response","259","1034743","0.0-234.0","5bc32eb1518d030001358396","665500ab8938657b03fbdba8","665778bd383d6a4fe04e847f","346","stimuli/11010001.jpg"," ","","feedback_trial","1","","","","","","","","","","","","","","","","","","","","",""
"","","","","","image-keyboard-response","260","1035910","0.0-235.0","5bc32eb1518d030001358396","665500ab8938657b03fbdba8","665778bd383d6a4fe04e847f","1165","stimuli/0000110.jpg","1","","prediction_trial","0","","false","","0","false","false","true","true","false","false","[0]","000","110","0","","","","","","",""
"","","","","","image-keyboard-response","261","1036236","0.0-236.0","5bc32eb1518d030001358396","665500ab8938657b03fbdba8","665778bd383d6a4fe04e847f","325","stimuli/00001100.jpg"," ","","feedback_trial","0","","","","","","","","","","","","","","","","","","","","",""
"","","","","","image-keyboard-response","262","1037150","0.0-237.0","5bc32eb1518d030001358396","665500ab8938657b03fbdba8","665778bd383d6a4fe04e847f","913","stimuli/2110110.jpg","2","","prediction_trial","2","","true","","2","true","true","true","true","true","true","[2]","110","110","1","","","","","","",""
"","","","","","image-keyboard-response","263","1037486","0.0-238.0","5bc32eb1518d030001358396","665500ab8938657b03fbdba8","665778bd383d6a4fe04e847f","335","stimuli/21101102.jpg"," ","","feedback_trial","2","","","","","","","","","","","","","","","","","","","","",""
"","","","","","image-keyboard-response","264","1038339","0.0-239.0","5bc32eb1518d030001358396","665500ab8938657b03fbdba8","665778bd383d6a4fe04e847f","852","stimuli/2100000.jpg","2","","prediction_trial","2","","true","","2","true","true","true","true","true","true","[2]","100","000","1","","","","","","",""
"","","","","","image-keyboard-response","265","1038723","0.0-240.0","5bc32eb1518d030001358396","665500ab8938657b03fbdba8","665778bd383d6a4fe04e847f","383","stimuli/21000002.jpg"," ","","feedback_trial","2","","","","","","","","","","","","","","","","","","","","",""
"","","","","","image-keyboard-response","266","1040176","0.0-241.0","5bc32eb1518d030001358396","665500ab8938657b03fbdba8","665778bd383d6a4fe04e847f","1451","stimuli/0111011.jpg","0","","prediction_trial","1","","false","","0","true","true","false","false","false","false","[0,1,2]","111","011","0","","","","","","",""
"","","","","","image-keyboard-response","267","1040617","0.0-242.0","5bc32eb1518d030001358396","665500ab8938657b03fbdba8","665778bd383d6a4fe04e847f","440","stimuli/01110111.jpg"," ","","feedback_trial","0","","","","","","","","","","","","","","","","","","","","",""
"","","","","","image-keyboard-response","268","1041529","0.0-243.0","5bc32eb1518d030001358396","665500ab8938657b03fbdba8","665778bd383d6a4fe04e847f","911","stimuli/2010000.jpg","2","","prediction_trial","2","","true","","2","true","true","true","true","true","true","[2]","010","000","1","","","","","","",""
"","","","","","image-keyboard-response","269","1041955","0.0-244.0","5bc32eb1518d030001358396","665500ab8938657b03fbdba8","665778bd383d6a4fe04e847f","424","stimuli/20100002.jpg"," ","","feedback_trial","2","","","","","","","","","","","","","","","","","","","","",""
"","","","","","image-keyboard-response","270","1043113","0.0-245.0","5bc32eb1518d030001358396","665500ab8938657b03fbdba8","665778bd383d6a4fe04e847f","1157","stimuli/2111110.jpg","1","","prediction_trial","0","","false","","2","true","true","false","false","false","false","[2,0,1]","111","110","0","","","","","","",""
"","","","","","image-keyboard-response","271","1043504","0.0-246.0","5bc32eb1518d030001358396","665500ab8938657b03fbdba8","665778bd383d6a4fe04e847f","390","stimuli/21111100.jpg"," ","","feedback_trial","2","","","","","","","","","","","","","","","","","","","","",""
"","","","","","image-keyboard-response","272","1044988","0.0-247.0","5bc32eb1518d030001358396","665500ab8938657b03fbdba8","665778bd383d6a4fe04e847f","1482","stimuli/0110000.jpg","1","","prediction_trial","0","","false","","0","true","true","false","false","false","false","[0,1]","110","000","0","","","","","","",""
"","","","","","image-keyboard-response","273","1045297","0.0-248.0","5bc32eb1518d030001358396","665500ab8938657b03fbdba8","665778bd383d6a4fe04e847f","308","stimuli/01100000.jpg"," ","","feedback_trial","0","","","","","","","","","","","","","","","","","","","","",""
"","","","","","image-keyboard-response","274","1046199","0.0-249.0","5bc32eb1518d030001358396","665500ab8938657b03fbdba8","665778bd383d6a4fe04e847f","901","stimuli/1110011.jpg","1","","prediction_trial","0","","false","","1","false","false","false","false","false","false","[0,1]","110","011","0","","","","","","",""
"","","","","","image-keyboard-response","275","1046818","0.0-250.0","5bc32eb1518d030001358396","665500ab8938657b03fbdba8","665778bd383d6a4fe04e847f","618","stimuli/11100110.jpg"," ","","feedback_trial","0","","","","","","","","","","","","","","","","","","","","",""
"","","","","","image-keyboard-response","276","1047824","0.0-251.0","5bc32eb1518d030001358396","665500ab8938657b03fbdba8","665778bd383d6a4fe04e847f","1005","stimuli/0001010.jpg","0","","prediction_trial","0","","true","","0","true","true","true","true","true","true","[0]","001","010","1","","","","","","",""
"","","","","","image-keyboard-response","277","1048211","0.0-252.0","5bc32eb1518d030001358396","665500ab8938657b03fbdba8","665778bd383d6a4fe04e847f","385","stimuli/00010100.jpg"," ","","feedback_trial","0","","","","","","","","","","","","","","","","","","","","",""
"","","","","","image-keyboard-response","278","1050010","0.0-253.0","5bc32eb1518d030001358396","665500ab8938657b03fbdba8","665778bd383d6a4fe04e847f","1798","stimuli/1110100.jpg","1","","prediction_trial","0","","false","","1","true","true","false","false","false","false","[0,1]","110","100","0","","","","","","",""
"","","","","","image-keyboard-response","279","1050383","0.0-254.0","5bc32eb1518d030001358396","665500ab8938657b03fbdba8","665778bd383d6a4fe04e847f","372","stimuli/11101000.jpg"," ","","feedback_trial","0","","","","","","","","","","","","","","","","","","","","",""
"","","","","","image-keyboard-response","280","1051220","0.0-255.0","5bc32eb1518d030001358396","665500ab8938657b03fbdba8","665778bd383d6a4fe04e847f","836","stimuli/0001101.jpg","2","","prediction_trial","0","","false","","0","false","false","true","true","false","false","[0]","001","101","0","","","","","","",""
"","","","","","image-keyboard-response","281","1051604","0.0-256.0","5bc32eb1518d030001358396","665500ab8938657b03fbdba8","665778bd383d6a4fe04e847f","383","stimuli/00011010.jpg"," ","","feedback_trial","0","","","","","","","","","","","","","","","","","","","","",""
"","","","","","image-keyboard-response","282","1053774","0.0-257.0","5bc32eb1518d030001358396","665500ab8938657b03fbdba8","665778bd383d6a4fe04e847f","2169","stimuli/2110111.jpg","2","","prediction_trial","2","","true","","2","false","false","true","true","false","false","[2]","110","111","1","","","","","","",""
"","","","","","image-keyboard-response","283","1054195","0.0-258.0","5bc32eb1518d030001358396","665500ab8938657b03fbdba8","665778bd383d6a4fe04e847f","419","stimuli/21101112.jpg"," ","","feedback_trial","2","","","","","","","","","","","","","","","","","","","","",""
"","","","","","image-keyboard-response","284","1055631","0.0-259.0","5bc32eb1518d030001358396","665500ab8938657b03fbdba8","665778bd383d6a4fe04e847f","1435","stimuli/1011011.jpg","1","","prediction_trial","2","","false","","1","false","false","false","false","false","false","[1,2]","011","011","0","","","","","","",""
"","","","","","image-keyboard-response","285","1056030","0.0-260.0","5bc32eb1518d030001358396","665500ab8938657b03fbdba8","665778bd383d6a4fe04e847f","397","stimuli/10110112.jpg"," ","","feedback_trial","1","","","","","","","","","","","","","","","","","","","","",""
"","","","","","image-keyboard-response","286","1056787","0.0-261.0","5bc32eb1518d030001358396","665500ab8938657b03fbdba8","665778bd383d6a4fe04e847f","756","stimuli/0101001.jpg","0","","prediction_trial","2","","false","","0","true","true","false","false","false","false","[2,0]","101","001","0","","","","","","",""
"","","","","","image-keyboard-response","287","1057169","0.0-262.0","5bc32eb1518d030001358396","665500ab8938657b03fbdba8","665778bd383d6a4fe04e847f","381","stimuli/01010012.jpg"," ","","feedback_trial","2","","","","","","","","","","","","","","","","","","","","",""
"","","","","","image-keyboard-response","288","1057906","0.0-263.0","5bc32eb1518d030001358396","665500ab8938657b03fbdba8","665778bd383d6a4fe04e847f","736","stimuli/1110010.jpg","1","","prediction_trial","0","","false","","1","false","true","false","false","false","false","[1,0]","110","010","0","","","","","","",""
"","","","","","image-keyboard-response","289","1058322","0.0-264.0","5bc32eb1518d030001358396","665500ab8938657b03fbdba8","665778bd383d6a4fe04e847f","415","stimuli/11100100.jpg"," ","","feedback_trial","1","","","","","","","","","","","","","","","","","","","","",""
"","","","","","image-keyboard-response","290","1059408","0.0-265.0","5bc32eb1518d030001358396","665500ab8938657b03fbdba8","665778bd383d6a4fe04e847f","1085","stimuli/0100110.jpg","2","","prediction_trial","0","","false","","0","false","false","false","true","false","false","[0]","100","110","0","","","","","","",""
"","","","","","image-keyboard-response","291","1059975","0.0-266.0","5bc32eb1518d030001358396","665500ab8938657b03fbdba8","665778bd383d6a4fe04e847f","566","stimuli/01001100.jpg"," ","","feedback_trial","0","","","","","","","","","","","","","","","","","","","","",""
"","","","","","image-keyboard-response","292","1061543","0.0-267.0","5bc32eb1518d030001358396","665500ab8938657b03fbdba8","665778bd383d6a4fe04e847f","1559","stimuli/0111101.jpg","1","","prediction_trial","2","","false","","0","false","false","false","false","false","false","[2,1,0]","111","101","0","","","","","","",""
"","","","","","image-keyboard-response","293","1061933","0.0-268.0","5bc32eb1518d030001358396","665500ab8938657b03fbdba8","665778bd383d6a4fe04e847f","389","stimuli/01111012.jpg"," ","","feedback_trial","2","","","","","","","","","","","","","","","","","","","","",""
"","","","","","image-keyboard-response","294","1063158","0.0-269.0","5bc32eb1518d030001358396","665500ab8938657b03fbdba8","665778bd383d6a4fe04e847f","1224","stimuli/2001001.jpg","2","","prediction_trial","2","","true","","2","false","true","false","true","false","true","[2]","001","001","1","","","","","","",""
"","","","","","image-keyboard-response","295","1063580","0.0-270.0","5bc32eb1518d030001358396","665500ab8938657b03fbdba8","665778bd383d6a4fe04e847f","421","stimuli/20010012.jpg"," ","","feedback_trial","2","","","","","","","","","","","","","","","","","","","","",""
"","","","","","image-keyboard-response","296","1065030","0.0-271.0","5bc32eb1518d030001358396","665500ab8938657b03fbdba8","665778bd383d6a4fe04e847f","1449","stimuli/0110001.jpg","2","","prediction_trial","0","","false","","0","true","true","false","false","false","false","[0,1]","110","001","0","","","","","","",""
"","","","","","image-keyboard-response","297","1065386","0.0-272.0","5bc32eb1518d030001358396","665500ab8938657b03fbdba8","665778bd383d6a4fe04e847f","355","stimuli/01100010.jpg"," ","","feedback_trial","0","","","","","","","","","","","","","","","","","","","","",""
"","","","","","image-keyboard-response","298","1066430","0.0-273.0","5bc32eb1518d030001358396","665500ab8938657b03fbdba8","665778bd383d6a4fe04e847f","1043","stimuli/1010001.jpg","1","","prediction_trial","1","","true","","1","true","true","false","true","false","true","[1]","010","001","1","","","","","","",""
"","","","","","image-keyboard-response","299","1066807","0.0-274.0","5bc32eb1518d030001358396","665500ab8938657b03fbdba8","665778bd383d6a4fe04e847f","376","stimuli/10100011.jpg"," ","","feedback_trial","1","","","","","","","","","","","","","","","","","","","","",""
"","","","","","image-keyboard-response","300","1068289","0.0-275.0","5bc32eb1518d030001358396","665500ab8938657b03fbdba8","665778bd383d6a4fe04e847f","1480","stimuli/0001001.jpg","0","","prediction_trial","0","","true","","0","true","true","true","true","true","true","[0]","001","001","1","","","","","","",""
"","","","","","image-keyboard-response","301","1068645","0.0-276.0","5bc32eb1518d030001358396","665500ab8938657b03fbdba8","665778bd383d6a4fe04e847f","356","stimuli/00010010.jpg"," ","","feedback_trial","0","","","","","","","","","","","","","","","","","","","","",""
"","","","","","image-keyboard-response","302","1070584","0.0-277.0","5bc32eb1518d030001358396","665500ab8938657b03fbdba8","665778bd383d6a4fe04e847f","1937","stimuli/2011101.jpg","0","","prediction_trial","2","","false","","2","false","false","false","false","false","false","[1,2]","011","101","0","","","","","","",""
"","","","","","image-keyboard-response","303","1071057","0.0-278.0","5bc32eb1518d030001358396","665500ab8938657b03fbdba8","665778bd383d6a4fe04e847f","472","stimuli/20111012.jpg"," ","","feedback_trial","1","","","","","","","","","","","","","","","","","","","","",""
"","","","","","image-keyboard-response","304","1071954","0.0-279.0","5bc32eb1518d030001358396","665500ab8938657b03fbdba8","665778bd383d6a4fe04e847f","895","stimuli/2101100.jpg","2","","prediction_trial","0","","false","","2","true","true","false","false","false","false","[2,0]","101","100","0","","","","","","",""
"","","","","","image-keyboard-response","305","1072355","0.0-280.0","5bc32eb1518d030001358396","665500ab8938657b03fbdba8","665778bd383d6a4fe04e847f","400","stimuli/21011000.jpg"," ","","feedback_trial","2","","","","","","","","","","","","","","","","","","","","",""
"","","","","","image-keyboard-response","306","1074075","0.0-281.0","5bc32eb1518d030001358396","665500ab8938657b03fbdba8","665778bd383d6a4fe04e847f","1718","stimuli/2001000.jpg","2","","prediction_trial","2","","true","","2","true","true","false","true","false","true","[2]","001","000","1","","","","","","",""
"","","","","","image-keyboard-response","307","1074472","0.0-282.0","5bc32eb1518d030001358396","665500ab8938657b03fbdba8","665778bd383d6a4fe04e847f","396","stimuli/20010002.jpg"," ","","feedback_trial","2","","","","","","","","","","","","","","","","","","","","",""
"","","","","","image-keyboard-response","308","1075802","0.0-283.0","5bc32eb1518d030001358396","665500ab8938657b03fbdba8","665778bd383d6a4fe04e847f","1329","stimuli/1001100.jpg","1","","prediction_trial","1","","true","","1","true","true","true","true","true","true","[1]","001","100","1","","","","","","",""
"","","","","","image-keyboard-response","309","1076201","0.0-284.0","5bc32eb1518d030001358396","665500ab8938657b03fbdba8","665778bd383d6a4fe04e847f","398","stimuli/10011001.jpg"," ","","feedback_trial","1","","","","","","","","","","","","","","","","","","","","",""
"","","","","","image-keyboard-response","310","1077089","0.0-285.0","5bc32eb1518d030001358396","665500ab8938657b03fbdba8","665778bd383d6a4fe04e847f","886","stimuli/2000100.jpg","2","","prediction_trial","2","","true","","2","true","true","true","true","true","true","[2]","000","100","1","","","","","","",""
"","","","","","image-keyboard-response","311","1077566","0.0-286.0","5bc32eb1518d030001358396","665500ab8938657b03fbdba8","665778bd383d6a4fe04e847f","476","stimuli/20001002.jpg"," ","","feedback_trial","2","","","","","","","","","","","","","","","","","","","","",""
"","","","","","image-keyboard-response","312","1078546","0.0-287.0","5bc32eb1518d030001358396","665500ab8938657b03fbdba8","665778bd383d6a4fe04e847f","978","stimuli/1011001.jpg","1","","prediction_trial","1","","true","","1","true","true","false","false","false","false","[2,1]","011","001","1","","","","","","",""
"","","","","","image-keyboard-response","313","1078912","0.0-288.0","5bc32eb1518d030001358396","665500ab8938657b03fbdba8","665778bd383d6a4fe04e847f","365","stimuli/10110011.jpg"," ","","feedback_trial","2","","","","","","","","","","","","","","","","","","","","",""
"","","","","","image-keyboard-response","314","1080953","0.0-289.0","5bc32eb1518d030001358396","665500ab8938657b03fbdba8","665778bd383d6a4fe04e847f","2040","stimuli/0010101.jpg","2","","prediction_trial","0","","false","","0","false","false","true","true","false","false","[0]","010","101","0","","","","","","",""
"","","","","","image-keyboard-response","315","1081316","0.0-290.0","5bc32eb1518d030001358396","665500ab8938657b03fbdba8","665778bd383d6a4fe04e847f","362","stimuli/00101010.jpg"," ","","feedback_trial","0","","","","","","","","","","","","","","","","","","","","",""
"","","","","","image-keyboard-response","316","1082162","0.0-291.0","5bc32eb1518d030001358396","665500ab8938657b03fbdba8","665778bd383d6a4fe04e847f","845","stimuli/2100110.jpg","2","","prediction_trial","2","","true","","2","true","true","true","true","true","true","[2]","100","110","1","","","","","","",""
"","","","","","image-keyboard-response","317","1082589","0.0-292.0","5bc32eb1518d030001358396","665500ab8938657b03fbdba8","665778bd383d6a4fe04e847f","425","stimuli/21001102.jpg"," ","","feedback_trial","2","","","","","","","","","","","","","","","","","","","","",""
"","","","","","survey-html-form","318","1097484","0.0-293.0","5bc32eb1518d030001358396","665500ab8938657b03fbdba8","665778bd383d6a4fe04e847f","14894","","{""feedback"":"""",""age"":""39"",""gender"":""Male"",""other_gender"":"""",""race"":""White"",""other_race"":"""",""ethnicity"":""Non-Hispanic""}","","exit_survey","","","","","","","","","","","","","","","","","39","Non-Hispanic","Male","White","0.5555555555555556","0.5555555555555556"
