"success","timeout","failed_images","failed_audio","failed_video","trial_type","trial_index","time_elapsed","internal_node_id","prolific_id","prolific_study_id","prolific_session_id","rt","stimulus","response","view_history","trial","character_choice","stimulus_dict","accuracy","correct_response","ball_pos","ego_ball_visible","ego_can_infer","alter_ball_visible","alter_can_infer","collective_ball_visible","collective_can_infer","search_locations","alter_occluders","ego_occluders","accuracy_bool","feedback","age","ethnicity","gender","race","overall_accuracy","bonus"
"true","false","[]","[]","[]","preload","0","24183","0.0-0.0","5f1b84872171f838a8a3cfa9","665500ab8938657b03fbdba8","66577e6dd6843795680584b7","","","","","","","","","","","","","","","","","","","","","","","","","","",""
"true","","","","","fullscreen","1","49381","0.0-1.0","5f1b84872171f838a8a3cfa9","665500ab8938657b03fbdba8","66577e6dd6843795680584b7","","","","","","","","","","","","","","","","","","","","","","","","","","",""
"","","","","","html-button-response","2","149025","0.0-2.0","5f1b84872171f838a8a3cfa9","665500ab8938657b03fbdba8","66577e6dd6843795680584b7","99638","<p><b>Consent Form</b></p> <div style=""text-align:left;background-color:lightgrey; padding:20px; max-width:900px;""><p>Please consider this information carefully before deciding whether to participate in this research.</p> <p>The purpose of this research is to examine which factors influence social judgment and decision-making. You will be asked to make judgements about individuals and actions in social scenarios. We are simply interested in your judgement. The study will take less than 1 hour to complete, and you will receive less than $20 on Prolific. Your compensation and time commitment are specified in the study description. There are no anticipated risks associated with participating in this study. The effects of participating should be comparable to those you would ordinarily experience from viewing a computer monitor and using a mouse or keyboard for a similar amount of time. At the end of the study, we will provide an explanation of the questions that motivate this line of research and will describe the potential implications. </p><p> Your participation in this study is completely voluntary and you may refuse to participate or you may choose to withdraw at any time without penalty or loss of benefits to you which are otherwise entitled. Your participation in this study will remain confidential. No personally identifiable information will be associated with your data. Also, all analyses of the data will be averaged across all the participants, so your individual responses will never be specifically analyzed. </p><p> If you have questions or concerns about your participation or payment, or want to request a summary of research findings, please contact Dr. Jonathan Phillips at Jonathan.S.Phillips@dartmouth.edu. </p><p> Please save a copy of this form for your records. </p><p><b>Agreement: </b>The nature and purpose of this research have been sufficiently explained and I agree to participate in this study. I understand that I am free to withdraw at any time without incurring any penalty. Please consent by clicking the button below to continue. Otherwise, please exit the study at any time. </p>","0","","","","","","","","","","","","","","","","","","","","","","","",""
"","","","","","instructions","3","402638","0.0-3.0-0.0","5f1b84872171f838a8a3cfa9","665500ab8938657b03fbdba8","66577e6dd6843795680584b7","253610","","","[{""page_index"":0,""viewing_time"":2267},{""page_index"":1,""viewing_time"":11256},{""page_index"":2,""viewing_time"":5680},{""page_index"":3,""viewing_time"":8160},{""page_index"":4,""viewing_time"":11127},{""page_index"":5,""viewing_time"":4056},{""page_index"":6,""viewing_time"":15432},{""page_index"":7,""viewing_time"":5193},{""page_index"":8,""viewing_time"":14064},{""page_index"":9,""viewing_time"":2608},{""page_index"":10,""viewing_time"":138148},{""page_index"":11,""viewing_time"":23595},{""page_index"":12,""viewing_time"":10672},{""page_index"":13,""viewing_time"":1352}]","intro","","","","","","","","","","","","","","","","","","","","","",""
"","","","","","image-keyboard-response","4","409815","0.0-3.0-1.0","5f1b84872171f838a8a3cfa9","665500ab8938657b03fbdba8","66577e6dd6843795680584b7","7168","stimuli/1011101.jpg","1","","prediction_practice","2","{""filepath"":""stimuli/1011101.jpg"",""ball_pos"":1,""ego_ball_visible"":true,""ego_can_infer"":true,""alter_ball_visible"":false,""alter_can_infer"":false,""collective_ball_visible"":false,""collective_can_infer"":false,""search_locations"":[2,1],""alter_occluders"":""011"",""ego_occluders"":""101""}","false","","","","","","","","","","","","","","","","","","",""
"","","","","","image-keyboard-response","5","414254","0.0-3.0-2.0","5f1b84872171f838a8a3cfa9","665500ab8938657b03fbdba8","66577e6dd6843795680584b7","4434","stimuli/10111012.jpg"," ","","practrice_feedback","2","","","","","","","","","","","","","","","","","","","","",""
"","","","","","image-keyboard-response","6","416717","0.0-3.0-3.0","5f1b84872171f838a8a3cfa9","665500ab8938657b03fbdba8","66577e6dd6843795680584b7","2461","stimuli/2110001.jpg","2","","prediction_practice","2","{""filepath"":""stimuli/2110001.jpg"",""ball_pos"":2,""ego_ball_visible"":false,""ego_can_infer"":true,""alter_ball_visible"":true,""alter_can_infer"":true,""collective_ball_visible"":false,""collective_can_infer"":true,""search_locations"":[2],""alter_occluders"":""110"",""ego_occluders"":""001""}","true","","","","","","","","","","","","","","","","","","",""
"","","","","","image-keyboard-response","7","418885","0.0-3.0-4.0","5f1b84872171f838a8a3cfa9","665500ab8938657b03fbdba8","66577e6dd6843795680584b7","2165","stimuli/21100012.jpg"," ","","practrice_feedback","2","","","","","","","","","","","","","","","","","","","","",""
"","","","","","image-keyboard-response","8","423062","0.0-3.0-5.0","5f1b84872171f838a8a3cfa9","665500ab8938657b03fbdba8","66577e6dd6843795680584b7","4174","stimuli/0010101.jpg","2","","prediction_practice","0","{""filepath"":""stimuli/0010101.jpg"",""ball_pos"":0,""ego_ball_visible"":false,""ego_can_infer"":false,""alter_ball_visible"":true,""alter_can_infer"":true,""collective_ball_visible"":false,""collective_can_infer"":false,""search_locations"":[0],""alter_occluders"":""010"",""ego_occluders"":""101""}","false","","","","","","","","","","","","","","","","","","",""
"","","","","","image-keyboard-response","9","424957","0.0-3.0-6.0","5f1b84872171f838a8a3cfa9","665500ab8938657b03fbdba8","66577e6dd6843795680584b7","1893","stimuli/00101010.jpg"," ","","practrice_feedback","0","","","","","","","","","","","","","","","","","","","","",""
"","","","","","image-keyboard-response","10","428950","0.0-3.0-7.0","5f1b84872171f838a8a3cfa9","665500ab8938657b03fbdba8","66577e6dd6843795680584b7","3990","stimuli/0100001.jpg","0","","prediction_practice","0","{""filepath"":""stimuli/0100001.jpg"",""ball_pos"":0,""ego_ball_visible"":true,""ego_can_infer"":true,""alter_ball_visible"":false,""alter_can_infer"":true,""collective_ball_visible"":false,""collective_can_infer"":true,""search_locations"":[0],""alter_occluders"":""100"",""ego_occluders"":""001""}","true","","","","","","","","","","","","","","","","","","",""
"","","","","","image-keyboard-response","11","430309","0.0-3.0-8.0","5f1b84872171f838a8a3cfa9","665500ab8938657b03fbdba8","66577e6dd6843795680584b7","1357","stimuli/01000010.jpg"," ","","practrice_feedback","0","","","","","","","","","","","","","","","","","","","","",""
"","","","","","image-keyboard-response","12","433965","0.0-3.0-9.0","5f1b84872171f838a8a3cfa9","665500ab8938657b03fbdba8","66577e6dd6843795680584b7","3654","stimuli/1111100.jpg","1","","prediction_practice","2","{""filepath"":""stimuli/1111100.jpg"",""ball_pos"":1,""ego_ball_visible"":true,""ego_can_infer"":true,""alter_ball_visible"":false,""alter_can_infer"":false,""collective_ball_visible"":false,""collective_can_infer"":false,""search_locations"":[2,1,0],""alter_occluders"":""111"",""ego_occluders"":""100""}","false","","","","","","","","","","","","","","","","","","",""
"","","","","","image-keyboard-response","13","435861","0.0-3.0-10.0","5f1b84872171f838a8a3cfa9","665500ab8938657b03fbdba8","66577e6dd6843795680584b7","1894","stimuli/11111002.jpg"," ","","practrice_feedback","2","","","","","","","","","","","","","","","","","","","","",""
"","","","","","image-keyboard-response","14","439758","0.0-3.0-11.0","5f1b84872171f838a8a3cfa9","665500ab8938657b03fbdba8","66577e6dd6843795680584b7","3877","stimuli/1000110.jpg","1","","prediction_practice","1","{""filepath"":""stimuli/1000110.jpg"",""ball_pos"":1,""ego_ball_visible"":false,""ego_can_infer"":false,""alter_ball_visible"":true,""alter_can_infer"":true,""collective_ball_visible"":false,""collective_can_infer"":false,""search_locations"":[1],""alter_occluders"":""000"",""ego_occluders"":""110""}","true","","","","","","","","","","","","","","","","","","",""
"","","","","","image-keyboard-response","15","442622","0.0-3.0-12.0","5f1b84872171f838a8a3cfa9","665500ab8938657b03fbdba8","66577e6dd6843795680584b7","2862","stimuli/10001101.jpg"," ","","practrice_feedback","1","","","","","","","","","","","","","","","","","","","","",""
"","","","","","image-keyboard-response","16","446509","0.0-3.0-13.0","5f1b84872171f838a8a3cfa9","665500ab8938657b03fbdba8","66577e6dd6843795680584b7","3886","stimuli/0111101.jpg","2","","prediction_practice","0","{""filepath"":""stimuli/0111101.jpg"",""ball_pos"":0,""ego_ball_visible"":false,""ego_can_infer"":false,""alter_ball_visible"":false,""alter_can_infer"":false,""collective_ball_visible"":false,""collective_can_infer"":false,""search_locations"":[0,1,2],""alter_occluders"":""111"",""ego_occluders"":""101""}","false","","","","","","","","","","","","","","","","","","",""
"","","","","","image-keyboard-response","17","448717","0.0-3.0-14.0","5f1b84872171f838a8a3cfa9","665500ab8938657b03fbdba8","66577e6dd6843795680584b7","2206","stimuli/01111010.jpg"," ","","practrice_feedback","0","","","","","","","","","","","","","","","","","","","","",""
"","","","","","image-keyboard-response","18","451621","0.0-3.0-15.0","5f1b84872171f838a8a3cfa9","665500ab8938657b03fbdba8","66577e6dd6843795680584b7","2902","stimuli/2011010.jpg","2","","prediction_practice","2","{""filepath"":""stimuli/2011010.jpg"",""ball_pos"":2,""ego_ball_visible"":true,""ego_can_infer"":true,""alter_ball_visible"":false,""alter_can_infer"":false,""collective_ball_visible"":false,""collective_can_infer"":false,""search_locations"":[1,2],""alter_occluders"":""011"",""ego_occluders"":""010""}","true","","","","","","","","","","","","","","","","","","",""
"","","","","","image-keyboard-response","19","453197","0.0-3.0-16.0","5f1b84872171f838a8a3cfa9","665500ab8938657b03fbdba8","66577e6dd6843795680584b7","1574","stimuli/20110102.jpg"," ","","practrice_feedback","1","","","","","","","","","","","","","","","","","","","","",""
"","","","","","image-keyboard-response","20","455165","0.0-3.0-17.0","5f1b84872171f838a8a3cfa9","665500ab8938657b03fbdba8","66577e6dd6843795680584b7","1949","stimuli/2001010.jpg","2","","prediction_practice","2","{""filepath"":""stimuli/2001010.jpg"",""ball_pos"":2,""ego_ball_visible"":true,""ego_can_infer"":true,""alter_ball_visible"":false,""alter_can_infer"":true,""collective_ball_visible"":false,""collective_can_infer"":true,""search_locations"":[2],""alter_occluders"":""001"",""ego_occluders"":""010""}","true","","","","","","","","","","","","","","","","","","",""
"","","","","","image-keyboard-response","21","456205","0.0-3.0-18.0","5f1b84872171f838a8a3cfa9","665500ab8938657b03fbdba8","66577e6dd6843795680584b7","1038","stimuli/20010102.jpg"," ","","practrice_feedback","2","","","","","","","","","","","","","","","","","","","","",""
"","","","","","image-keyboard-response","22","460517","0.0-3.0-19.0","5f1b84872171f838a8a3cfa9","665500ab8938657b03fbdba8","66577e6dd6843795680584b7","4310","stimuli/1000111.jpg","2","","prediction_practice","1","{""filepath"":""stimuli/1000111.jpg"",""ball_pos"":1,""ego_ball_visible"":false,""ego_can_infer"":false,""alter_ball_visible"":true,""alter_can_infer"":true,""collective_ball_visible"":false,""collective_can_infer"":false,""search_locations"":[1],""alter_occluders"":""000"",""ego_occluders"":""111""}","false","","","","","","","","","","","","","","","","","","",""
"","","","","","image-keyboard-response","23","461717","0.0-3.0-20.0","5f1b84872171f838a8a3cfa9","665500ab8938657b03fbdba8","66577e6dd6843795680584b7","1198","stimuli/10001111.jpg"," ","","practrice_feedback","1","","","","","","","","","","","","","","","","","","","","",""
"","","","","","html-button-response","24","474765","0.0-3.0-21.0","5f1b84872171f838a8a3cfa9","665500ab8938657b03fbdba8","66577e6dd6843795680584b7","13047","Now that you've had some practice, you'll be tested with a couple of easy trials. If you correctly predict Sam's choice, you'll move on to complete the experiment!","0","","","","","","","","","","","","","","","","","","","","","","","",""
"","","","","","image-keyboard-response","25","478262","0.0-3.0-22.0-0.0","5f1b84872171f838a8a3cfa9","665500ab8938657b03fbdba8","66577e6dd6843795680584b7","3494","stimuli/0000011.jpg","arrowleft","","comprehension_quiz","","","true","arrowleft","","","","","","","","","","","","","","","","","",""
"","","","","","image-keyboard-response","26","480749","0.0-3.0-22.0-1.0","5f1b84872171f838a8a3cfa9","665500ab8938657b03fbdba8","66577e6dd6843795680584b7","2484","stimuli/00000110.jpg"," ","","comprehension_quiz","","","true"," ","","","","","","","","","","","","","","","","","",""
"","","","","","image-keyboard-response","27","485822","0.0-3.0-22.0-2.0","5f1b84872171f838a8a3cfa9","665500ab8938657b03fbdba8","66577e6dd6843795680584b7","5054","stimuli/1010010.jpg","arrowdown","","comprehension_quiz","","","true","arrowdown","","","","","","","","","","","","","","","","","",""
"","","","","","image-keyboard-response","28","487142","0.0-3.0-22.0-3.0","5f1b84872171f838a8a3cfa9","665500ab8938657b03fbdba8","66577e6dd6843795680584b7","1318","stimuli/10100101.jpg"," ","","comprehension_quiz","","","true"," ","","","","","","","","","","","","","","","","","",""
"","","","","","html-button-response","29","509365","0.0-4.0","5f1b84872171f838a8a3cfa9","665500ab8938657b03fbdba8","66577e6dd6843795680584b7","22219","The experiment will now begin.","0","","","","","","","","","","","","","","","","","","","","","","","",""
"","","","","","image-keyboard-response","30","514141","0.0-5.0","5f1b84872171f838a8a3cfa9","665500ab8938657b03fbdba8","66577e6dd6843795680584b7","4773","stimuli/0111001.jpg","2","","prediction_trial","1","","false","","0","true","true","false","false","false","false","[0,2,1]","111","001","0","","","","","","",""
"","","","","","image-keyboard-response","31","516022","0.0-6.0","5f1b84872171f838a8a3cfa9","665500ab8938657b03fbdba8","66577e6dd6843795680584b7","1877","stimuli/01110011.jpg"," ","","feedback_trial","0","","","","","","","","","","","","","","","","","","","","",""
"","","","","","image-keyboard-response","32","520942","0.0-7.0","5f1b84872171f838a8a3cfa9","665500ab8938657b03fbdba8","66577e6dd6843795680584b7","4917","stimuli/1111001.jpg","1","","prediction_trial","1","","true","","1","true","true","false","false","false","false","[2,1,0]","111","001","1","","","","","","",""
"","","","","","image-keyboard-response","33","522758","0.0-8.0","5f1b84872171f838a8a3cfa9","665500ab8938657b03fbdba8","66577e6dd6843795680584b7","1813","stimuli/11110011.jpg"," ","","feedback_trial","2","","","","","","","","","","","","","","","","","","","","",""
"","","","","","image-keyboard-response","34","525414","0.0-9.0","5f1b84872171f838a8a3cfa9","665500ab8938657b03fbdba8","66577e6dd6843795680584b7","2638","stimuli/1111010.jpg","1","","prediction_trial","1","","true","","1","false","true","false","false","false","false","[2,1,0]","111","010","1","","","","","","",""
"","","","","","image-keyboard-response","35","527006","0.0-10.0","5f1b84872171f838a8a3cfa9","665500ab8938657b03fbdba8","66577e6dd6843795680584b7","1590","stimuli/11110101.jpg"," ","","feedback_trial","2","","","","","","","","","","","","","","","","","","","","",""
"","","","","","image-keyboard-response","36","530525","0.0-11.0","5f1b84872171f838a8a3cfa9","665500ab8938657b03fbdba8","66577e6dd6843795680584b7","3517","stimuli/2010101.jpg","2","","prediction_trial","2","","true","","2","false","false","true","true","false","false","[2]","010","101","1","","","","","","",""
"","","","","","image-keyboard-response","37","532357","0.0-12.0","5f1b84872171f838a8a3cfa9","665500ab8938657b03fbdba8","66577e6dd6843795680584b7","1830","stimuli/20101012.jpg"," ","","feedback_trial","2","","","","","","","","","","","","","","","","","","","","",""
"","","","","","image-keyboard-response","38","535126","0.0-13.0","5f1b84872171f838a8a3cfa9","665500ab8938657b03fbdba8","66577e6dd6843795680584b7","2766","stimuli/2100000.jpg","2","","prediction_trial","2","","true","","2","true","true","true","true","true","true","[2]","100","000","1","","","","","","",""
"","","","","","image-keyboard-response","39","537069","0.0-14.0","5f1b84872171f838a8a3cfa9","665500ab8938657b03fbdba8","66577e6dd6843795680584b7","1942","stimuli/21000002.jpg"," ","","feedback_trial","2","","","","","","","","","","","","","","","","","","","","",""
"","","","","","image-keyboard-response","40","538525","0.0-15.0","5f1b84872171f838a8a3cfa9","665500ab8938657b03fbdba8","66577e6dd6843795680584b7","1437","stimuli/1001100.jpg","1","","prediction_trial","1","","true","","1","true","true","true","true","true","true","[1]","001","100","1","","","","","","",""
"","","","","","image-keyboard-response","41","539933","0.0-16.0","5f1b84872171f838a8a3cfa9","665500ab8938657b03fbdba8","66577e6dd6843795680584b7","1406","stimuli/10011001.jpg"," ","","feedback_trial","1","","","","","","","","","","","","","","","","","","","","",""
"","","","","","image-keyboard-response","42","542934","0.0-17.0","5f1b84872171f838a8a3cfa9","665500ab8938657b03fbdba8","66577e6dd6843795680584b7","2998","stimuli/0010110.jpg","1","","prediction_trial","0","","false","","0","false","false","true","true","false","false","[0]","010","110","0","","","","","","",""
"","","","","","image-keyboard-response","43","552518","0.0-18.0","5f1b84872171f838a8a3cfa9","665500ab8938657b03fbdba8","66577e6dd6843795680584b7","9582","stimuli/00101100.jpg"," ","","feedback_trial","0","","","","","","","","","","","","","","","","","","","","",""
"","","","","","image-keyboard-response","44","554542","0.0-19.0","5f1b84872171f838a8a3cfa9","665500ab8938657b03fbdba8","66577e6dd6843795680584b7","2022","stimuli/2001000.jpg","2","","prediction_trial","2","","true","","2","true","true","false","true","false","true","[2]","001","000","1","","","","","","",""
"","","","","","image-keyboard-response","45","555789","0.0-20.0","5f1b84872171f838a8a3cfa9","665500ab8938657b03fbdba8","66577e6dd6843795680584b7","1246","stimuli/20010002.jpg"," ","","feedback_trial","2","","","","","","","","","","","","","","","","","","","","",""
"","","","","","image-keyboard-response","46","556957","0.0-21.0","5f1b84872171f838a8a3cfa9","665500ab8938657b03fbdba8","66577e6dd6843795680584b7","1149","stimuli/1100000.jpg","1","","prediction_trial","1","","true","","1","true","true","true","true","true","true","[1]","100","000","1","","","","","","",""
"","","","","","image-keyboard-response","47","557797","0.0-22.0","5f1b84872171f838a8a3cfa9","665500ab8938657b03fbdba8","66577e6dd6843795680584b7","837","stimuli/11000001.jpg"," ","","feedback_trial","1","","","","","","","","","","","","","","","","","","","","",""
"","","","","","image-keyboard-response","48","564262","0.0-23.0","5f1b84872171f838a8a3cfa9","665500ab8938657b03fbdba8","66577e6dd6843795680584b7","6463","stimuli/0100101.jpg","2","","prediction_trial","0","","false","","0","false","false","false","true","false","false","[0]","100","101","0","","","","","","",""
"","","","","","image-keyboard-response","49","565685","0.0-24.0","5f1b84872171f838a8a3cfa9","665500ab8938657b03fbdba8","66577e6dd6843795680584b7","1422","stimuli/01001010.jpg"," ","","feedback_trial","0","","","","","","","","","","","","","","","","","","","","",""
"","","","","","image-keyboard-response","50","566845","0.0-25.0","5f1b84872171f838a8a3cfa9","665500ab8938657b03fbdba8","66577e6dd6843795680584b7","1158","stimuli/2000010.jpg","2","","prediction_trial","2","","true","","2","true","true","true","true","true","true","[2]","000","010","1","","","","","","",""
"","","","","","image-keyboard-response","51","567421","0.0-26.0","5f1b84872171f838a8a3cfa9","665500ab8938657b03fbdba8","66577e6dd6843795680584b7","574","stimuli/20000102.jpg"," ","","feedback_trial","2","","","","","","","","","","","","","","","","","","","","",""
"","","","","","image-keyboard-response","52","568341","0.0-27.0","5f1b84872171f838a8a3cfa9","665500ab8938657b03fbdba8","66577e6dd6843795680584b7","902","stimuli/1101101.jpg","1","","prediction_trial","1","","true","","1","true","true","true","true","true","true","[1]","101","101","1","","","","","","",""
"","","","","","image-keyboard-response","53","568877","0.0-28.0","5f1b84872171f838a8a3cfa9","665500ab8938657b03fbdba8","66577e6dd6843795680584b7","534","stimuli/11011011.jpg"," ","","feedback_trial","1","","","","","","","","","","","","","","","","","","","","",""
"","","","","","image-keyboard-response","54","572990","0.0-29.0","5f1b84872171f838a8a3cfa9","665500ab8938657b03fbdba8","66577e6dd6843795680584b7","4111","stimuli/2101010.jpg","2","","prediction_trial","0","","false","","2","true","true","false","false","false","false","[2,0]","101","010","0","","","","","","",""
"","","","","","image-keyboard-response","55","573949","0.0-30.0","5f1b84872171f838a8a3cfa9","665500ab8938657b03fbdba8","66577e6dd6843795680584b7","957","stimuli/21010100.jpg"," ","","feedback_trial","2","","","","","","","","","","","","","","","","","","","","",""
"","","","","","image-keyboard-response","56","575669","0.0-31.0","5f1b84872171f838a8a3cfa9","665500ab8938657b03fbdba8","66577e6dd6843795680584b7","1718","stimuli/0100100.jpg","0","","prediction_trial","0","","true","","0","false","true","false","true","false","true","[0]","100","100","1","","","","","","",""
"","","","","","image-keyboard-response","57","576701","0.0-32.0","5f1b84872171f838a8a3cfa9","665500ab8938657b03fbdba8","66577e6dd6843795680584b7","1030","stimuli/01001000.jpg"," ","","feedback_trial","0","","","","","","","","","","","","","","","","","","","","",""
"","","","","","image-keyboard-response","58","579958","0.0-33.0","5f1b84872171f838a8a3cfa9","665500ab8938657b03fbdba8","66577e6dd6843795680584b7","3236","stimuli/1001110.jpg","0","","prediction_trial","1","","false","","1","false","false","true","true","false","false","[1]","001","110","0","","","","","","",""
"","","","","","image-keyboard-response","59","580925","0.0-34.0","5f1b84872171f838a8a3cfa9","665500ab8938657b03fbdba8","66577e6dd6843795680584b7","966","stimuli/10011101.jpg"," ","","feedback_trial","1","","","","","","","","","","","","","","","","","","","","",""
"","","","","","image-keyboard-response","60","582054","0.0-35.0","5f1b84872171f838a8a3cfa9","665500ab8938657b03fbdba8","66577e6dd6843795680584b7","1126","stimuli/1001001.jpg","1","","prediction_trial","1","","true","","1","true","true","true","true","true","true","[1]","001","001","1","","","","","","",""
"","","","","","image-keyboard-response","61","582597","0.0-36.0","5f1b84872171f838a8a3cfa9","665500ab8938657b03fbdba8","66577e6dd6843795680584b7","542","stimuli/10010011.jpg"," ","","feedback_trial","1","","","","","","","","","","","","","","","","","","","","",""
"","","","","","image-keyboard-response","62","585974","0.0-37.0","5f1b84872171f838a8a3cfa9","665500ab8938657b03fbdba8","66577e6dd6843795680584b7","3375","stimuli/1111110.jpg","2","","prediction_trial","1","","false","","1","false","false","false","false","false","false","[2,1,0]","111","110","0","","","","","","",""
"","","","","","image-keyboard-response","63","586973","0.0-38.0","5f1b84872171f838a8a3cfa9","665500ab8938657b03fbdba8","66577e6dd6843795680584b7","998","stimuli/11111101.jpg"," ","","feedback_trial","2","","","","","","","","","","","","","","","","","","","","",""
"","","","","","image-keyboard-response","64","589126","0.0-39.0","5f1b84872171f838a8a3cfa9","665500ab8938657b03fbdba8","66577e6dd6843795680584b7","2134","stimuli/0010100.jpg","0","","prediction_trial","0","","true","","0","false","true","true","true","false","true","[0]","010","100","1","","","","","","",""
"","","","","","image-keyboard-response","65","589958","0.0-40.0","5f1b84872171f838a8a3cfa9","665500ab8938657b03fbdba8","66577e6dd6843795680584b7","830","stimuli/00101000.jpg"," ","","feedback_trial","0","","","","","","","","","","","","","","","","","","","","",""
"","","","","","image-keyboard-response","66","595550","0.0-41.0","5f1b84872171f838a8a3cfa9","665500ab8938657b03fbdba8","66577e6dd6843795680584b7","5590","stimuli/2010001.jpg","2","","prediction_trial","2","","true","","2","false","true","true","true","false","true","[2]","010","001","1","","","","","","",""
"","","","","","image-keyboard-response","67","596357","0.0-42.0","5f1b84872171f838a8a3cfa9","665500ab8938657b03fbdba8","66577e6dd6843795680584b7","806","stimuli/20100012.jpg"," ","","feedback_trial","2","","","","","","","","","","","","","","","","","","","","",""
"","","","","","image-keyboard-response","68","597309","0.0-43.0","5f1b84872171f838a8a3cfa9","665500ab8938657b03fbdba8","66577e6dd6843795680584b7","950","stimuli/0000011.jpg","0","","prediction_trial","0","","true","","0","true","true","true","true","true","true","[0]","000","011","1","","","","","","",""
"","","","","","image-keyboard-response","69","597797","0.0-44.0","5f1b84872171f838a8a3cfa9","665500ab8938657b03fbdba8","66577e6dd6843795680584b7","485","stimuli/00000110.jpg"," ","","feedback_trial","0","","","","","","","","","","","","","","","","","","","","",""
"","","","","","image-keyboard-response","70","600509","0.0-45.0","5f1b84872171f838a8a3cfa9","665500ab8938657b03fbdba8","66577e6dd6843795680584b7","2689","stimuli/0111010.jpg","0","","prediction_trial","0","","true","","0","true","true","false","false","false","false","[0,1,2]","111","010","1","","","","","","",""
"","","","","","image-keyboard-response","71","602013","0.0-46.0","5f1b84872171f838a8a3cfa9","665500ab8938657b03fbdba8","66577e6dd6843795680584b7","1501","stimuli/01110100.jpg"," ","","feedback_trial","0","","","","","","","","","","","","","","","","","","","","",""
"","","","","","image-keyboard-response","72","608502","0.0-47.0","5f1b84872171f838a8a3cfa9","665500ab8938657b03fbdba8","66577e6dd6843795680584b7","6487","stimuli/0110101.jpg","0","","prediction_trial","1","","false","","0","false","false","false","false","false","false","[1,0]","110","101","0","","","","","","",""
"","","","","","image-keyboard-response","73","619893","0.0-48.0","5f1b84872171f838a8a3cfa9","665500ab8938657b03fbdba8","66577e6dd6843795680584b7","11390","stimuli/01101011.jpg"," ","","feedback_trial","1","","","","","","","","","","","","","","","","","","","","",""
"","","","","","image-keyboard-response","74","626125","0.0-49.0","5f1b84872171f838a8a3cfa9","665500ab8938657b03fbdba8","66577e6dd6843795680584b7","6230","stimuli/2101001.jpg","2","","prediction_trial","2","","true","","2","false","true","false","false","false","false","[2,0]","101","001","1","","","","","","",""
"","","","","","image-keyboard-response","75","627389","0.0-50.0","5f1b84872171f838a8a3cfa9","665500ab8938657b03fbdba8","66577e6dd6843795680584b7","1262","stimuli/21010012.jpg"," ","","feedback_trial","2","","","","","","","","","","","","","","","","","","","","",""
"","","","","","image-keyboard-response","76","635213","0.0-51.0","5f1b84872171f838a8a3cfa9","665500ab8938657b03fbdba8","66577e6dd6843795680584b7","7805","stimuli/1011100.jpg","1","","prediction_trial","1","","true","","1","true","true","false","false","false","false","[1,2]","011","100","1","","","","","","",""
"","","","","","image-keyboard-response","77","636181","0.0-52.0","5f1b84872171f838a8a3cfa9","665500ab8938657b03fbdba8","66577e6dd6843795680584b7","966","stimuli/10111001.jpg"," ","","feedback_trial","1","","","","","","","","","","","","","","","","","","","","",""
"","","","","","image-keyboard-response","78","639117","0.0-53.0","5f1b84872171f838a8a3cfa9","665500ab8938657b03fbdba8","66577e6dd6843795680584b7","2934","stimuli/1111111.jpg","2","","prediction_trial","1","","false","","1","false","false","false","false","false","false","[0,1,2]","111","111","0","","","","","","",""
"","","","","","image-keyboard-response","79","640286","0.0-54.0","5f1b84872171f838a8a3cfa9","665500ab8938657b03fbdba8","66577e6dd6843795680584b7","1166","stimuli/11111111.jpg"," ","","feedback_trial","0","","","","","","","","","","","","","","","","","","","","",""
"","","","","","image-keyboard-response","80","642821","0.0-55.0","5f1b84872171f838a8a3cfa9","665500ab8938657b03fbdba8","66577e6dd6843795680584b7","2534","stimuli/0000110.jpg","1","","prediction_trial","0","","false","","0","false","false","true","true","false","false","[0]","000","110","0","","","","","","",""
"","","","","","image-keyboard-response","81","643558","0.0-56.0","5f1b84872171f838a8a3cfa9","665500ab8938657b03fbdba8","66577e6dd6843795680584b7","735","stimuli/00001100.jpg"," ","","feedback_trial","0","","","","","","","","","","","","","","","","","","","","",""
"","","","","","image-keyboard-response","82","645878","0.0-57.0","5f1b84872171f838a8a3cfa9","665500ab8938657b03fbdba8","66577e6dd6843795680584b7","2299","stimuli/1100010.jpg","1","","prediction_trial","1","","true","","1","false","true","true","true","false","true","[1]","100","010","1","","","","","","",""
"","","","","","image-keyboard-response","83","646638","0.0-58.0","5f1b84872171f838a8a3cfa9","665500ab8938657b03fbdba8","66577e6dd6843795680584b7","758","stimuli/11000101.jpg"," ","","feedback_trial","1","","","","","","","","","","","","","","","","","","","","",""
"","","","","","image-keyboard-response","84","647830","0.0-59.0","5f1b84872171f838a8a3cfa9","665500ab8938657b03fbdba8","66577e6dd6843795680584b7","1190","stimuli/2010100.jpg","2","","prediction_trial","2","","true","","2","true","true","true","true","true","true","[2]","010","100","1","","","","","","",""
"","","","","","image-keyboard-response","85","648309","0.0-60.0","5f1b84872171f838a8a3cfa9","665500ab8938657b03fbdba8","66577e6dd6843795680584b7","478","stimuli/20101002.jpg"," ","","feedback_trial","2","","","","","","","","","","","","","","","","","","","","",""
"","","","","","image-keyboard-response","86","651373","0.0-61.0","5f1b84872171f838a8a3cfa9","665500ab8938657b03fbdba8","66577e6dd6843795680584b7","3062","stimuli/1011000.jpg","1","","prediction_trial","1","","true","","1","true","true","false","false","false","false","[2,1]","011","000","1","","","","","","",""
"","","","","","image-keyboard-response","87","652133","0.0-62.0","5f1b84872171f838a8a3cfa9","665500ab8938657b03fbdba8","66577e6dd6843795680584b7","758","stimuli/10110001.jpg"," ","","feedback_trial","2","","","","","","","","","","","","","","","","","","","","",""
"","","","","","image-keyboard-response","88","653541","0.0-63.0","5f1b84872171f838a8a3cfa9","665500ab8938657b03fbdba8","66577e6dd6843795680584b7","1389","stimuli/0011001.jpg","0","","prediction_trial","0","","true","","0","true","true","true","true","true","true","[0]","011","001","1","","","","","","",""
"","","","","","image-keyboard-response","89","654221","0.0-64.0","5f1b84872171f838a8a3cfa9","665500ab8938657b03fbdba8","66577e6dd6843795680584b7","678","stimuli/00110010.jpg"," ","","feedback_trial","0","","","","","","","","","","","","","","","","","","","","",""
"","","","","","image-keyboard-response","90","657718","0.0-65.0","5f1b84872171f838a8a3cfa9","665500ab8938657b03fbdba8","66577e6dd6843795680584b7","3494","stimuli/2101101.jpg","2","","prediction_trial","2","","true","","2","false","false","false","false","false","false","[0,2]","101","101","1","","","","","","",""
"","","","","","image-keyboard-response","91","658910","0.0-66.0","5f1b84872171f838a8a3cfa9","665500ab8938657b03fbdba8","66577e6dd6843795680584b7","1190","stimuli/21011012.jpg"," ","","feedback_trial","0","","","","","","","","","","","","","","","","","","","","",""
"","","","","","image-keyboard-response","92","666349","0.0-67.0","5f1b84872171f838a8a3cfa9","665500ab8938657b03fbdba8","66577e6dd6843795680584b7","7438","stimuli/2010111.jpg","2","","prediction_trial","2","","true","","2","false","false","true","true","false","false","[2]","010","111","1","","","","","","",""
"","","","","","image-keyboard-response","93","667574","0.0-68.0","5f1b84872171f838a8a3cfa9","665500ab8938657b03fbdba8","66577e6dd6843795680584b7","1222","stimuli/20101112.jpg"," ","","feedback_trial","2","","","","","","","","","","","","","","","","","","","","",""
"","","","","","image-keyboard-response","94","671598","0.0-69.0","5f1b84872171f838a8a3cfa9","665500ab8938657b03fbdba8","66577e6dd6843795680584b7","4005","stimuli/0001101.jpg","2","","prediction_trial","0","","false","","0","false","false","true","true","false","false","[0]","001","101","0","","","","","","",""
"","","","","","image-keyboard-response","95","672557","0.0-70.0","5f1b84872171f838a8a3cfa9","665500ab8938657b03fbdba8","66577e6dd6843795680584b7","958","stimuli/00011010.jpg"," ","","feedback_trial","0","","","","","","","","","","","","","","","","","","","","",""
"","","","","","image-keyboard-response","96","674926","0.0-71.0","5f1b84872171f838a8a3cfa9","665500ab8938657b03fbdba8","66577e6dd6843795680584b7","2366","stimuli/2111011.jpg","1","","prediction_trial","2","","false","","2","false","false","false","false","false","false","[0,1,2]","111","011","0","","","","","","",""
"","","","","","image-keyboard-response","97","676029","0.0-72.0","5f1b84872171f838a8a3cfa9","665500ab8938657b03fbdba8","66577e6dd6843795680584b7","1102","stimuli/21110112.jpg"," ","","feedback_trial","0","","","","","","","","","","","","","","","","","","","","",""
"","","","","","image-keyboard-response","98","678125","0.0-73.0","5f1b84872171f838a8a3cfa9","665500ab8938657b03fbdba8","66577e6dd6843795680584b7","2094","stimuli/1101010.jpg","1","","prediction_trial","1","","true","","1","false","true","true","true","false","true","[1]","101","010","1","","","","","","",""
"","","","","","image-keyboard-response","99","678790","0.0-74.0","5f1b84872171f838a8a3cfa9","665500ab8938657b03fbdba8","66577e6dd6843795680584b7","663","stimuli/11010101.jpg"," ","","feedback_trial","1","","","","","","","","","","","","","","","","","","","","",""
"","","","","","image-keyboard-response","100","679742","0.0-75.0","5f1b84872171f838a8a3cfa9","665500ab8938657b03fbdba8","66577e6dd6843795680584b7","937","stimuli/2010110.jpg","2","","prediction_trial","2","","true","","2","true","true","true","true","true","true","[2]","010","110","1","","","","","","",""
"","","","","","image-keyboard-response","101","680117","0.0-76.0","5f1b84872171f838a8a3cfa9","665500ab8938657b03fbdba8","66577e6dd6843795680584b7","374","stimuli/20101102.jpg"," ","","feedback_trial","2","","","","","","","","","","","","","","","","","","","","",""
"","","","","","image-keyboard-response","102","683174","0.0-77.0","5f1b84872171f838a8a3cfa9","665500ab8938657b03fbdba8","66577e6dd6843795680584b7","3055","stimuli/2110111.jpg","2","","prediction_trial","2","","true","","2","false","false","true","true","false","false","[2]","110","111","1","","","","","","",""
"","","","","","image-keyboard-response","103","684109","0.0-78.0","5f1b84872171f838a8a3cfa9","665500ab8938657b03fbdba8","66577e6dd6843795680584b7","934","stimuli/21101112.jpg"," ","","feedback_trial","2","","","","","","","","","","","","","","","","","","","","",""
"","","","","","image-keyboard-response","104","686782","0.0-79.0","5f1b84872171f838a8a3cfa9","665500ab8938657b03fbdba8","66577e6dd6843795680584b7","2671","stimuli/1101110.jpg","1","","prediction_trial","1","","true","","1","false","false","true","true","false","false","[1]","101","110","1","","","","","","",""
"","","","","","image-keyboard-response","105","687589","0.0-80.0","5f1b84872171f838a8a3cfa9","665500ab8938657b03fbdba8","66577e6dd6843795680584b7","805","stimuli/11011101.jpg"," ","","feedback_trial","1","","","","","","","","","","","","","","","","","","","","",""
"","","","","","image-keyboard-response","106","690006","0.0-81.0","5f1b84872171f838a8a3cfa9","665500ab8938657b03fbdba8","66577e6dd6843795680584b7","2392","stimuli/2001111.jpg","1","","prediction_trial","2","","false","","2","false","false","false","true","false","false","[2]","001","111","0","","","","","","",""
"","","","","","image-keyboard-response","107","693662","0.0-82.0","5f1b84872171f838a8a3cfa9","665500ab8938657b03fbdba8","66577e6dd6843795680584b7","3654","stimuli/20011112.jpg"," ","","feedback_trial","2","","","","","","","","","","","","","","","","","","","","",""
"","","","","","image-keyboard-response","108","696062","0.0-83.0","5f1b84872171f838a8a3cfa9","665500ab8938657b03fbdba8","66577e6dd6843795680584b7","2398","stimuli/1110001.jpg","1","","prediction_trial","1","","true","","1","true","true","false","false","false","false","[1,0]","110","001","1","","","","","","",""
"","","","","","image-keyboard-response","109","696797","0.0-84.0","5f1b84872171f838a8a3cfa9","665500ab8938657b03fbdba8","66577e6dd6843795680584b7","734","stimuli/11100011.jpg"," ","","feedback_trial","1","","","","","","","","","","","","","","","","","","","","",""
"","","","","","image-keyboard-response","110","703645","0.0-85.0","5f1b84872171f838a8a3cfa9","665500ab8938657b03fbdba8","66577e6dd6843795680584b7","6846","stimuli/2100111.jpg","0","","prediction_trial","2","","false","","2","false","false","true","true","false","false","[2]","100","111","0","","","","","","",""
"","","","","","image-keyboard-response","111","704821","0.0-86.0","5f1b84872171f838a8a3cfa9","665500ab8938657b03fbdba8","66577e6dd6843795680584b7","1174","stimuli/21001112.jpg"," ","","feedback_trial","2","","","","","","","","","","","","","","","","","","","","",""
"","","","","","image-keyboard-response","112","709246","0.0-87.0","5f1b84872171f838a8a3cfa9","665500ab8938657b03fbdba8","66577e6dd6843795680584b7","4402","stimuli/2011111.jpg","1","","prediction_trial","2","","false","","2","false","false","false","false","false","false","[1,2]","011","111","0","","","","","","",""
"","","","","","image-keyboard-response","113","710037","0.0-88.0","5f1b84872171f838a8a3cfa9","665500ab8938657b03fbdba8","66577e6dd6843795680584b7","790","stimuli/20111112.jpg"," ","","feedback_trial","1","","","","","","","","","","","","","","","","","","","","",""
"","","","","","image-keyboard-response","114","710981","0.0-89.0","5f1b84872171f838a8a3cfa9","665500ab8938657b03fbdba8","66577e6dd6843795680584b7","942","stimuli/0101001.jpg","0","","prediction_trial","0","","true","","0","true","true","false","false","false","false","[0,2]","101","001","1","","","","","","",""
"","","","","","image-keyboard-response","115","711469","0.0-90.0","5f1b84872171f838a8a3cfa9","665500ab8938657b03fbdba8","66577e6dd6843795680584b7","487","stimuli/01010010.jpg"," ","","feedback_trial","0","","","","","","","","","","","","","","","","","","","","",""
"","","","","","image-keyboard-response","116","714902","0.0-91.0","5f1b84872171f838a8a3cfa9","665500ab8938657b03fbdba8","66577e6dd6843795680584b7","3431","stimuli/1000110.jpg","1","","prediction_trial","1","","true","","1","false","false","true","true","false","false","[1]","000","110","1","","","","","","",""
"","","","","","image-keyboard-response","117","715597","0.0-92.0","5f1b84872171f838a8a3cfa9","665500ab8938657b03fbdba8","66577e6dd6843795680584b7","693","stimuli/10001101.jpg"," ","","feedback_trial","1","","","","","","","","","","","","","","","","","","","","",""
"","","","","","image-keyboard-response","118","717805","0.0-93.0","5f1b84872171f838a8a3cfa9","665500ab8938657b03fbdba8","66577e6dd6843795680584b7","2189","stimuli/0111111.jpg","1","","prediction_trial","0","","false","","0","false","false","false","false","false","false","[0,1,2]","111","111","0","","","","","","",""
"","","","","","image-keyboard-response","119","718829","0.0-94.0","5f1b84872171f838a8a3cfa9","665500ab8938657b03fbdba8","66577e6dd6843795680584b7","1022","stimuli/01111110.jpg"," ","","feedback_trial","0","","","","","","","","","","","","","","","","","","","","",""
"","","","","","image-keyboard-response","120","724390","0.0-95.0","5f1b84872171f838a8a3cfa9","665500ab8938657b03fbdba8","66577e6dd6843795680584b7","5560","stimuli/1110111.jpg","2","","prediction_trial","1","","false","","1","false","false","false","false","false","false","[0,1]","110","111","0","","","","","","",""
"","","","","","image-keyboard-response","121","725293","0.0-96.0","5f1b84872171f838a8a3cfa9","665500ab8938657b03fbdba8","66577e6dd6843795680584b7","901","stimuli/11101111.jpg"," ","","feedback_trial","0","","","","","","","","","","","","","","","","","","","","",""
"","","","","","image-keyboard-response","122","727966","0.0-97.0","5f1b84872171f838a8a3cfa9","665500ab8938657b03fbdba8","66577e6dd6843795680584b7","2670","stimuli/0101011.jpg","0","","prediction_trial","0","","true","","0","true","true","false","false","false","false","[0,2]","101","011","1","","","","","","",""
"","","","","","image-keyboard-response","123","728614","0.0-98.0","5f1b84872171f838a8a3cfa9","665500ab8938657b03fbdba8","66577e6dd6843795680584b7","646","stimuli/01010110.jpg"," ","","feedback_trial","0","","","","","","","","","","","","","","","","","","","","",""
"","","","","","image-keyboard-response","124","729597","0.0-99.0","5f1b84872171f838a8a3cfa9","665500ab8938657b03fbdba8","66577e6dd6843795680584b7","964","stimuli/1001000.jpg","1","","prediction_trial","1","","true","","1","true","true","true","true","true","true","[1]","001","000","1","","","","","","",""
"","","","","","image-keyboard-response","125","730077","0.0-100.0","5f1b84872171f838a8a3cfa9","665500ab8938657b03fbdba8","66577e6dd6843795680584b7","477","stimuli/10010001.jpg"," ","","feedback_trial","1","","","","","","","","","","","","","","","","","","","","",""
"","","","","","image-keyboard-response","126","733814","0.0-101.0","5f1b84872171f838a8a3cfa9","665500ab8938657b03fbdba8","66577e6dd6843795680584b7","3735","stimuli/1111000.jpg","1","","prediction_trial","1","","true","","1","true","true","false","false","false","false","[2,0,1]","111","000","1","","","","","","",""
"","","","","","image-keyboard-response","127","734397","0.0-102.0","5f1b84872171f838a8a3cfa9","665500ab8938657b03fbdba8","66577e6dd6843795680584b7","580","stimuli/11110001.jpg"," ","","feedback_trial","2","","","","","","","","","","","","","","","","","","","","",""
"","","","","","image-keyboard-response","128","735318","0.0-103.0","5f1b84872171f838a8a3cfa9","665500ab8938657b03fbdba8","66577e6dd6843795680584b7","918","stimuli/1000000.jpg","1","","prediction_trial","1","","true","","1","true","true","true","true","true","true","[1]","000","000","1","","","","","","",""
"","","","","","image-keyboard-response","129","735733","0.0-104.0","5f1b84872171f838a8a3cfa9","665500ab8938657b03fbdba8","66577e6dd6843795680584b7","413","stimuli/10000001.jpg"," ","","feedback_trial","1","","","","","","","","","","","","","","","","","","","","",""
"","","","","","image-keyboard-response","130","737062","0.0-105.0","5f1b84872171f838a8a3cfa9","665500ab8938657b03fbdba8","66577e6dd6843795680584b7","1308","stimuli/1011101.jpg","1","","prediction_trial","2","","false","","1","true","true","false","false","false","false","[2,1]","011","101","0","","","","","","",""
"","","","","","image-keyboard-response","131","737717","0.0-106.0","5f1b84872171f838a8a3cfa9","665500ab8938657b03fbdba8","66577e6dd6843795680584b7","654","stimuli/10111012.jpg"," ","","feedback_trial","2","","","","","","","","","","","","","","","","","","","","",""
"","","","","","image-keyboard-response","132","738614","0.0-107.0","5f1b84872171f838a8a3cfa9","665500ab8938657b03fbdba8","66577e6dd6843795680584b7","894","stimuli/0001000.jpg","0","","prediction_trial","0","","true","","0","true","true","true","true","true","true","[0]","001","000","1","","","","","","",""
"","","","","","image-keyboard-response","133","739093","0.0-108.0","5f1b84872171f838a8a3cfa9","665500ab8938657b03fbdba8","66577e6dd6843795680584b7","477","stimuli/00010000.jpg"," ","","feedback_trial","0","","","","","","","","","","","","","","","","","","","","",""
"","","","","","image-keyboard-response","134","741005","0.0-109.0","5f1b84872171f838a8a3cfa9","665500ab8938657b03fbdba8","66577e6dd6843795680584b7","1910","stimuli/2011110.jpg","2","","prediction_trial","1","","false","","2","true","true","false","false","false","false","[1,2]","011","110","0","","","","","","",""
"","","","","","image-keyboard-response","135","741485","0.0-110.0","5f1b84872171f838a8a3cfa9","665500ab8938657b03fbdba8","66577e6dd6843795680584b7","478","stimuli/20111101.jpg"," ","","feedback_trial","1","","","","","","","","","","","","","","","","","","","","",""
"","","","","","image-keyboard-response","136","743286","0.0-111.0","5f1b84872171f838a8a3cfa9","665500ab8938657b03fbdba8","66577e6dd6843795680584b7","1781","stimuli/0100000.jpg","0","","prediction_trial","0","","true","","0","true","true","false","true","false","true","[0]","100","000","1","","","","","","",""
"","","","","","image-keyboard-response","137","743669","0.0-112.0","5f1b84872171f838a8a3cfa9","665500ab8938657b03fbdba8","66577e6dd6843795680584b7","381","stimuli/01000000.jpg"," ","","feedback_trial","0","","","","","","","","","","","","","","","","","","","","",""
"","","","","","image-keyboard-response","138","744998","0.0-113.0","5f1b84872171f838a8a3cfa9","665500ab8938657b03fbdba8","66577e6dd6843795680584b7","1326","stimuli/0010010.jpg","0","","prediction_trial","0","","true","","0","true","true","true","true","true","true","[0]","010","010","1","","","","","","",""
"","","","","","image-keyboard-response","139","745397","0.0-114.0","5f1b84872171f838a8a3cfa9","665500ab8938657b03fbdba8","66577e6dd6843795680584b7","398","stimuli/00100100.jpg"," ","","feedback_trial","0","","","","","","","","","","","","","","","","","","","","",""
"","","","","","image-keyboard-response","140","748406","0.0-115.0","5f1b84872171f838a8a3cfa9","665500ab8938657b03fbdba8","66577e6dd6843795680584b7","3006","stimuli/2001101.jpg","0","","prediction_trial","2","","false","","2","false","false","false","true","false","false","[2]","001","101","0","","","","","","",""
"","","","","","image-keyboard-response","141","748927","0.0-116.0","5f1b84872171f838a8a3cfa9","665500ab8938657b03fbdba8","66577e6dd6843795680584b7","519","stimuli/20011012.jpg"," ","","feedback_trial","2","","","","","","","","","","","","","","","","","","","","",""
"","","","","","image-keyboard-response","142","752125","0.0-117.0","5f1b84872171f838a8a3cfa9","665500ab8938657b03fbdba8","66577e6dd6843795680584b7","3180","stimuli/0110010.jpg","0","","prediction_trial","1","","false","","0","true","true","false","false","false","false","[1,0]","110","010","0","","","","","","",""
"","","","","","image-keyboard-response","143","752581","0.0-118.0","5f1b84872171f838a8a3cfa9","665500ab8938657b03fbdba8","66577e6dd6843795680584b7","454","stimuli/01100101.jpg"," ","","feedback_trial","1","","","","","","","","","","","","","","","","","","","","",""
"","","","","","image-keyboard-response","144","756278","0.0-119.0","5f1b84872171f838a8a3cfa9","665500ab8938657b03fbdba8","66577e6dd6843795680584b7","3694","stimuli/2011101.jpg","0","","prediction_trial","1","","false","","2","false","false","false","false","false","false","[1,2]","011","101","0","","","","","","",""
"","","","","","image-keyboard-response","145","756981","0.0-120.0","5f1b84872171f838a8a3cfa9","665500ab8938657b03fbdba8","66577e6dd6843795680584b7","702","stimuli/20111011.jpg"," ","","feedback_trial","1","","","","","","","","","","","","","","","","","","","","",""
"","","","","","image-keyboard-response","146","768550","0.0-121.0","5f1b84872171f838a8a3cfa9","665500ab8938657b03fbdba8","66577e6dd6843795680584b7","11567","stimuli/2011010.jpg","2","","prediction_trial","2","","true","","2","true","true","false","false","false","false","[1,2]","011","010","1","","","","","","",""
"","","","","","image-keyboard-response","147","769117","0.0-122.0","5f1b84872171f838a8a3cfa9","665500ab8938657b03fbdba8","66577e6dd6843795680584b7","565","stimuli/20110102.jpg"," ","","feedback_trial","1","","","","","","","","","","","","","","","","","","","","",""
"","","","","","image-keyboard-response","148","774325","0.0-123.0","5f1b84872171f838a8a3cfa9","665500ab8938657b03fbdba8","66577e6dd6843795680584b7","5188","stimuli/1000011.jpg","1","","prediction_trial","1","","true","","1","false","false","true","true","false","false","[1]","000","011","1","","","","","","",""
"","","","","","image-keyboard-response","149","774917","0.0-124.0","5f1b84872171f838a8a3cfa9","665500ab8938657b03fbdba8","66577e6dd6843795680584b7","589","stimuli/10000111.jpg"," ","","feedback_trial","1","","","","","","","","","","","","","","","","","","","","",""
"","","","","","image-keyboard-response","150","777574","0.0-125.0","5f1b84872171f838a8a3cfa9","665500ab8938657b03fbdba8","66577e6dd6843795680584b7","2655","stimuli/0111011.jpg","1","","prediction_trial","1","","true","","0","true","true","false","false","false","false","[2,1,0]","111","011","1","","","","","","",""
"","","","","","image-keyboard-response","151","778309","0.0-126.0","5f1b84872171f838a8a3cfa9","665500ab8938657b03fbdba8","66577e6dd6843795680584b7","734","stimuli/01110111.jpg"," ","","feedback_trial","2","","","","","","","","","","","","","","","","","","","","",""
"","","","","","image-keyboard-response","152","779806","0.0-127.0","5f1b84872171f838a8a3cfa9","665500ab8938657b03fbdba8","66577e6dd6843795680584b7","1494","stimuli/0100010.jpg","0","","prediction_trial","0","","true","","0","true","true","false","true","false","true","[0]","100","010","1","","","","","","",""
"","","","","","image-keyboard-response","153","780245","0.0-128.0","5f1b84872171f838a8a3cfa9","665500ab8938657b03fbdba8","66577e6dd6843795680584b7","437","stimuli/01000100.jpg"," ","","feedback_trial","0","","","","","","","","","","","","","","","","","","","","",""
"","","","","","image-keyboard-response","154","786197","0.0-129.0","5f1b84872171f838a8a3cfa9","665500ab8938657b03fbdba8","66577e6dd6843795680584b7","5931","stimuli/1011001.jpg","1","","prediction_trial","2","","false","","1","true","true","false","false","false","false","[1,2]","011","001","0","","","","","","",""
"","","","","","image-keyboard-response","155","787694","0.0-130.0","5f1b84872171f838a8a3cfa9","665500ab8938657b03fbdba8","66577e6dd6843795680584b7","1494","stimuli/10110012.jpg"," ","","feedback_trial","1","","","","","","","","","","","","","","","","","","","","",""
"","","","","","image-keyboard-response","156","790197","0.0-131.0","5f1b84872171f838a8a3cfa9","665500ab8938657b03fbdba8","66577e6dd6843795680584b7","2502","stimuli/0111101.jpg","1","","prediction_trial","1","","true","","0","false","false","false","false","false","false","[0,1,2]","111","101","1","","","","","","",""
"","","","","","image-keyboard-response","157","791669","0.0-132.0","5f1b84872171f838a8a3cfa9","665500ab8938657b03fbdba8","66577e6dd6843795680584b7","1470","stimuli/01111011.jpg"," ","","feedback_trial","0","","","","","","","","","","","","","","","","","","","","",""
"","","","","","image-keyboard-response","158","797125","0.0-133.0","5f1b84872171f838a8a3cfa9","665500ab8938657b03fbdba8","66577e6dd6843795680584b7","5454","stimuli/0001001.jpg","0","","prediction_trial","0","","true","","0","true","true","true","true","true","true","[0]","001","001","1","","","","","","",""
"","","","","","image-keyboard-response","159","797573","0.0-134.0","5f1b84872171f838a8a3cfa9","665500ab8938657b03fbdba8","66577e6dd6843795680584b7","446","stimuli/00010010.jpg"," ","","feedback_trial","0","","","","","","","","","","","","","","","","","","","","",""
"","","","","","image-keyboard-response","160","801830","0.0-135.0","5f1b84872171f838a8a3cfa9","665500ab8938657b03fbdba8","66577e6dd6843795680584b7","4236","stimuli/1110011.jpg","2","","prediction_trial","0","","false","","1","false","false","false","false","false","false","[1,0]","110","011","0","","","","","","",""
"","","","","","image-keyboard-response","161","806277","0.0-136.0","5f1b84872171f838a8a3cfa9","665500ab8938657b03fbdba8","66577e6dd6843795680584b7","4446","stimuli/11100110.jpg"," ","","feedback_trial","1","","","","","","","","","","","","","","","","","","","","",""
"","","","","","image-keyboard-response","162","809789","0.0-137.0","5f1b84872171f838a8a3cfa9","665500ab8938657b03fbdba8","66577e6dd6843795680584b7","3510","stimuli/2100100.jpg","2","","prediction_trial","2","","true","","2","true","true","true","true","true","true","[2]","100","100","1","","","","","","",""
"","","","","","image-keyboard-response","163","810245","0.0-138.0","5f1b84872171f838a8a3cfa9","665500ab8938657b03fbdba8","66577e6dd6843795680584b7","454","stimuli/21001002.jpg"," ","","feedback_trial","2","","","","","","","","","","","","","","","","","","","","",""
"","","","","","image-keyboard-response","164","811326","0.0-139.0","5f1b84872171f838a8a3cfa9","665500ab8938657b03fbdba8","66577e6dd6843795680584b7","1078","stimuli/0000010.jpg","0","","prediction_trial","0","","true","","0","true","true","true","true","true","true","[0]","000","010","1","","","","","","",""
"","","","","","image-keyboard-response","165","811765","0.0-140.0","5f1b84872171f838a8a3cfa9","665500ab8938657b03fbdba8","66577e6dd6843795680584b7","438","stimuli/00000100.jpg"," ","","feedback_trial","0","","","","","","","","","","","","","","","","","","","","",""
"","","","","","image-keyboard-response","166","812998","0.0-141.0","5f1b84872171f838a8a3cfa9","665500ab8938657b03fbdba8","66577e6dd6843795680584b7","1212","stimuli/2111010.jpg","2","","prediction_trial","0","","false","","2","true","true","false","false","false","false","[1,0,2]","111","010","0","","","","","","",""
"","","","","","image-keyboard-response","167","814701","0.0-142.0","5f1b84872171f838a8a3cfa9","665500ab8938657b03fbdba8","66577e6dd6843795680584b7","1702","stimuli/21110100.jpg"," ","","feedback_trial","1","","","","","","","","","","","","","","","","","","","","",""
"","","","","","image-keyboard-response","168","820070","0.0-143.0","5f1b84872171f838a8a3cfa9","665500ab8938657b03fbdba8","66577e6dd6843795680584b7","5366","stimuli/2100101.jpg","0","","prediction_trial","2","","false","","2","false","false","true","true","false","false","[2]","100","101","0","","","","","","",""
"","","","","","image-keyboard-response","169","820677","0.0-144.0","5f1b84872171f838a8a3cfa9","665500ab8938657b03fbdba8","66577e6dd6843795680584b7","606","stimuli/21001012.jpg"," ","","feedback_trial","2","","","","","","","","","","","","","","","","","","","","",""
"","","","","","image-keyboard-response","170","824302","0.0-145.0","5f1b84872171f838a8a3cfa9","665500ab8938657b03fbdba8","66577e6dd6843795680584b7","3623","stimuli/1010101.jpg","1","","prediction_trial","1","","true","","1","true","true","false","true","false","true","[1]","010","101","1","","","","","","",""
"","","","","","image-keyboard-response","171","824797","0.0-146.0","5f1b84872171f838a8a3cfa9","665500ab8938657b03fbdba8","66577e6dd6843795680584b7","493","stimuli/10101011.jpg"," ","","feedback_trial","1","","","","","","","","","","","","","","","","","","","","",""
"","","","","","image-keyboard-response","172","827237","0.0-147.0","5f1b84872171f838a8a3cfa9","665500ab8938657b03fbdba8","66577e6dd6843795680584b7","2421","stimuli/2100110.jpg","2","","prediction_trial","2","","true","","2","true","true","true","true","true","true","[2]","100","110","1","","","","","","",""
"","","","","","image-keyboard-response","173","827685","0.0-148.0","5f1b84872171f838a8a3cfa9","665500ab8938657b03fbdba8","66577e6dd6843795680584b7","446","stimuli/21001102.jpg"," ","","feedback_trial","2","","","","","","","","","","","","","","","","","","","","",""
"","","","","","image-keyboard-response","174","829749","0.0-149.0","5f1b84872171f838a8a3cfa9","665500ab8938657b03fbdba8","66577e6dd6843795680584b7","2062","stimuli/1111100.jpg","1","","prediction_trial","1","","true","","1","true","true","false","false","false","false","[2,1,0]","111","100","1","","","","","","",""
"","","","","","image-keyboard-response","175","830261","0.0-150.0","5f1b84872171f838a8a3cfa9","665500ab8938657b03fbdba8","66577e6dd6843795680584b7","509","stimuli/11111001.jpg"," ","","feedback_trial","2","","","","","","","","","","","","","","","","","","","","",""
"","","","","","image-keyboard-response","176","831342","0.0-151.0","5f1b84872171f838a8a3cfa9","665500ab8938657b03fbdba8","66577e6dd6843795680584b7","1078","stimuli/2110110.jpg","2","","prediction_trial","2","","true","","2","true","true","true","true","true","true","[2]","110","110","1","","","","","","",""
"","","","","","image-keyboard-response","177","831846","0.0-152.0","5f1b84872171f838a8a3cfa9","665500ab8938657b03fbdba8","66577e6dd6843795680584b7","502","stimuli/21101102.jpg"," ","","feedback_trial","2","","","","","","","","","","","","","","","","","","","","",""
"","","","","","image-keyboard-response","178","834069","0.0-153.0","5f1b84872171f838a8a3cfa9","665500ab8938657b03fbdba8","66577e6dd6843795680584b7","2201","stimuli/1101111.jpg","1","","prediction_trial","1","","true","","1","false","false","true","true","false","false","[1]","101","111","1","","","","","","",""
"","","","","","image-keyboard-response","179","835630","0.0-154.0","5f1b84872171f838a8a3cfa9","665500ab8938657b03fbdba8","66577e6dd6843795680584b7","1558","stimuli/11011111.jpg"," ","","feedback_trial","1","","","","","","","","","","","","","","","","","","","","",""
"","","","","","image-keyboard-response","180","836526","0.0-155.0","5f1b84872171f838a8a3cfa9","665500ab8938657b03fbdba8","66577e6dd6843795680584b7","894","stimuli/1100101.jpg","1","","prediction_trial","1","","true","","1","true","true","true","true","true","true","[1]","100","101","1","","","","","","",""
"","","","","","image-keyboard-response","181","837005","0.0-156.0","5f1b84872171f838a8a3cfa9","665500ab8938657b03fbdba8","66577e6dd6843795680584b7","478","stimuli/11001011.jpg"," ","","feedback_trial","1","","","","","","","","","","","","","","","","","","","","",""
"","","","","","image-keyboard-response","182","837846","0.0-157.0","5f1b84872171f838a8a3cfa9","665500ab8938657b03fbdba8","66577e6dd6843795680584b7","838","stimuli/0001011.jpg","0","","prediction_trial","0","","true","","0","true","true","true","true","true","true","[0]","001","011","1","","","","","","",""
"","","","","","image-keyboard-response","183","838253","0.0-158.0","5f1b84872171f838a8a3cfa9","665500ab8938657b03fbdba8","66577e6dd6843795680584b7","406","stimuli/00010110.jpg"," ","","feedback_trial","0","","","","","","","","","","","","","","","","","","","","",""
"","","","","","image-keyboard-response","184","838942","0.0-159.0","5f1b84872171f838a8a3cfa9","665500ab8938657b03fbdba8","66577e6dd6843795680584b7","667","stimuli/1000100.jpg","1","","prediction_trial","1","","true","","1","true","true","true","true","true","true","[1]","000","100","1","","","","","","",""
"","","","","","image-keyboard-response","185","839333","0.0-160.0","5f1b84872171f838a8a3cfa9","665500ab8938657b03fbdba8","66577e6dd6843795680584b7","390","stimuli/10001001.jpg"," ","","feedback_trial","1","","","","","","","","","","","","","","","","","","","","",""
"","","","","","image-keyboard-response","186","842478","0.0-161.0","5f1b84872171f838a8a3cfa9","665500ab8938657b03fbdba8","66577e6dd6843795680584b7","3142","stimuli/0011111.jpg","0","","prediction_trial","0","","true","","0","false","false","true","true","false","false","[0]","011","111","1","","","","","","",""
"","","","","","image-keyboard-response","187","843550","0.0-162.0","5f1b84872171f838a8a3cfa9","665500ab8938657b03fbdba8","66577e6dd6843795680584b7","1070","stimuli/00111110.jpg"," ","","feedback_trial","0","","","","","","","","","","","","","","","","","","","","",""
"","","","","","image-keyboard-response","188","846406","0.0-163.0","5f1b84872171f838a8a3cfa9","665500ab8938657b03fbdba8","66577e6dd6843795680584b7","2855","stimuli/0110110.jpg","1","","prediction_trial","1","","true","","0","false","false","false","false","false","false","[1,0]","110","110","1","","","","","","",""
"","","","","","image-keyboard-response","189","847277","0.0-164.0","5f1b84872171f838a8a3cfa9","665500ab8938657b03fbdba8","66577e6dd6843795680584b7","870","stimuli/01101101.jpg"," ","","feedback_trial","1","","","","","","","","","","","","","","","","","","","","",""
"","","","","","image-keyboard-response","190","851582","0.0-165.0","5f1b84872171f838a8a3cfa9","665500ab8938657b03fbdba8","66577e6dd6843795680584b7","4286","stimuli/1011110.jpg","0","","prediction_trial","2","","false","","1","false","false","false","false","false","false","[2,1]","011","110","0","","","","","","",""
"","","","","","image-keyboard-response","191","852798","0.0-166.0","5f1b84872171f838a8a3cfa9","665500ab8938657b03fbdba8","66577e6dd6843795680584b7","1214","stimuli/10111102.jpg"," ","","feedback_trial","2","","","","","","","","","","","","","","","","","","","","",""
"","","","","","image-keyboard-response","192","854278","0.0-167.0","5f1b84872171f838a8a3cfa9","665500ab8938657b03fbdba8","66577e6dd6843795680584b7","1478","stimuli/1010001.jpg","1","","prediction_trial","1","","true","","1","true","true","false","true","false","true","[1]","010","001","1","","","","","","",""
"","","","","","image-keyboard-response","193","854837","0.0-168.0","5f1b84872171f838a8a3cfa9","665500ab8938657b03fbdba8","66577e6dd6843795680584b7","557","stimuli/10100011.jpg"," ","","feedback_trial","1","","","","","","","","","","","","","","","","","","","","",""
"","","","","","image-keyboard-response","194","855581","0.0-169.0","5f1b84872171f838a8a3cfa9","665500ab8938657b03fbdba8","66577e6dd6843795680584b7","742","stimuli/2110100.jpg","2","","prediction_trial","2","","true","","2","true","true","true","true","true","true","[2]","110","100","1","","","","","","",""
"","","","","","image-keyboard-response","195","856005","0.0-170.0","5f1b84872171f838a8a3cfa9","665500ab8938657b03fbdba8","66577e6dd6843795680584b7","422","stimuli/21101002.jpg"," ","","feedback_trial","2","","","","","","","","","","","","","","","","","","","","",""
"","","","","","image-keyboard-response","196","857613","0.0-171.0","5f1b84872171f838a8a3cfa9","665500ab8938657b03fbdba8","66577e6dd6843795680584b7","1587","stimuli/2001100.jpg","2","","prediction_trial","2","","true","","2","true","true","false","true","false","true","[2]","001","100","1","","","","","","",""
"","","","","","image-keyboard-response","197","858037","0.0-172.0","5f1b84872171f838a8a3cfa9","665500ab8938657b03fbdba8","66577e6dd6843795680584b7","422","stimuli/20011002.jpg"," ","","feedback_trial","2","","","","","","","","","","","","","","","","","","","","",""
"","","","","","image-keyboard-response","198","859518","0.0-173.0","5f1b84872171f838a8a3cfa9","665500ab8938657b03fbdba8","66577e6dd6843795680584b7","1478","stimuli/0100001.jpg","0","","prediction_trial","0","","true","","0","true","true","false","true","false","true","[0]","100","001","1","","","","","","",""
"","","","","","image-keyboard-response","199","860069","0.0-174.0","5f1b84872171f838a8a3cfa9","665500ab8938657b03fbdba8","66577e6dd6843795680584b7","549","stimuli/01000010.jpg"," ","","feedback_trial","0","","","","","","","","","","","","","","","","","","","","",""
"","","","","","image-keyboard-response","200","861093","0.0-175.0","5f1b84872171f838a8a3cfa9","665500ab8938657b03fbdba8","66577e6dd6843795680584b7","1022","stimuli/1001101.jpg","1","","prediction_trial","1","","true","","1","true","true","true","true","true","true","[1]","001","101","1","","","","","","",""
"","","","","","image-keyboard-response","201","861493","0.0-176.0","5f1b84872171f838a8a3cfa9","665500ab8938657b03fbdba8","66577e6dd6843795680584b7","398","stimuli/10011011.jpg"," ","","feedback_trial","1","","","","","","","","","","","","","","","","","","","","",""
"","","","","","image-keyboard-response","202","865014","0.0-177.0","5f1b84872171f838a8a3cfa9","665500ab8938657b03fbdba8","66577e6dd6843795680584b7","3502","stimuli/0110001.jpg","1","","prediction_trial","1","","true","","0","true","true","false","false","false","false","[0,1]","110","001","1","","","","","","",""
"","","","","","image-keyboard-response","203","865862","0.0-178.0","5f1b84872171f838a8a3cfa9","665500ab8938657b03fbdba8","66577e6dd6843795680584b7","846","stimuli/01100011.jpg"," ","","feedback_trial","0","","","","","","","","","","","","","","","","","","","","",""
"","","","","","image-keyboard-response","204","869582","0.0-179.0","5f1b84872171f838a8a3cfa9","665500ab8938657b03fbdba8","66577e6dd6843795680584b7","3718","stimuli/0110111.jpg","2","","prediction_trial","1","","false","","0","false","false","false","false","false","false","[1,0]","110","111","0","","","","","","",""
"","","","","","image-keyboard-response","205","871150","0.0-180.0","5f1b84872171f838a8a3cfa9","665500ab8938657b03fbdba8","66577e6dd6843795680584b7","1566","stimuli/01101111.jpg"," ","","feedback_trial","1","","","","","","","","","","","","","","","","","","","","",""
"","","","","","image-keyboard-response","206","873902","0.0-181.0","5f1b84872171f838a8a3cfa9","665500ab8938657b03fbdba8","66577e6dd6843795680584b7","2750","stimuli/2111101.jpg","1","","prediction_trial","2","","false","","2","false","false","false","false","false","false","[2,0,1]","111","101","0","","","","","","",""
"","","","","","image-keyboard-response","207","874814","0.0-182.0","5f1b84872171f838a8a3cfa9","665500ab8938657b03fbdba8","66577e6dd6843795680584b7","910","stimuli/21111012.jpg"," ","","feedback_trial","2","","","","","","","","","","","","","","","","","","","","",""
"","","","","","image-keyboard-response","208","879758","0.0-183.0","5f1b84872171f838a8a3cfa9","665500ab8938657b03fbdba8","66577e6dd6843795680584b7","4928","stimuli/2101110.jpg","2","","prediction_trial","0","","false","","2","true","true","false","false","false","false","[0,2]","101","110","0","","","","","","",""
"","","","","","image-keyboard-response","209","880318","0.0-184.0","5f1b84872171f838a8a3cfa9","665500ab8938657b03fbdba8","66577e6dd6843795680584b7","558","stimuli/21011100.jpg"," ","","feedback_trial","0","","","","","","","","","","","","","","","","","","","","",""
"","","","","","image-keyboard-response","210","882566","0.0-185.0","5f1b84872171f838a8a3cfa9","665500ab8938657b03fbdba8","66577e6dd6843795680584b7","2246","stimuli/2011011.jpg","1","","prediction_trial","1","","true","","2","false","false","false","false","false","false","[2,1]","011","011","1","","","","","","",""
"","","","","","image-keyboard-response","211","883061","0.0-186.0","5f1b84872171f838a8a3cfa9","665500ab8938657b03fbdba8","66577e6dd6843795680584b7","494","stimuli/20110111.jpg"," ","","feedback_trial","2","","","","","","","","","","","","","","","","","","","","",""
"","","","","","image-keyboard-response","212","884102","0.0-187.0","5f1b84872171f838a8a3cfa9","665500ab8938657b03fbdba8","66577e6dd6843795680584b7","1039","stimuli/0010001.jpg","0","","prediction_trial","0","","true","","0","true","true","true","true","true","true","[0]","010","001","1","","","","","","",""
"","","","","","image-keyboard-response","213","884565","0.0-188.0","5f1b84872171f838a8a3cfa9","665500ab8938657b03fbdba8","66577e6dd6843795680584b7","461","stimuli/00100010.jpg"," ","","feedback_trial","0","","","","","","","","","","","","","","","","","","","","",""
"","","","","","image-keyboard-response","214","885566","0.0-189.0","5f1b84872171f838a8a3cfa9","665500ab8938657b03fbdba8","66577e6dd6843795680584b7","980","stimuli/0011000.jpg","0","","prediction_trial","0","","true","","0","true","true","true","true","true","true","[0]","011","000","1","","","","","","",""
"","","","","","image-keyboard-response","215","886005","0.0-190.0","5f1b84872171f838a8a3cfa9","665500ab8938657b03fbdba8","66577e6dd6843795680584b7","437","stimuli/00110000.jpg"," ","","feedback_trial","0","","","","","","","","","","","","","","","","","","","","",""
"","","","","","image-keyboard-response","216","886677","0.0-191.0","5f1b84872171f838a8a3cfa9","665500ab8938657b03fbdba8","66577e6dd6843795680584b7","670","stimuli/0010000.jpg","0","","prediction_trial","0","","true","","0","true","true","true","true","true","true","[0]","010","000","1","","","","","","",""
"","","","","","image-keyboard-response","217","887149","0.0-192.0","5f1b84872171f838a8a3cfa9","665500ab8938657b03fbdba8","66577e6dd6843795680584b7","470","stimuli/00100000.jpg"," ","","feedback_trial","0","","","","","","","","","","","","","","","","","","","","",""
"","","","","","image-keyboard-response","218","892006","0.0-193.0","5f1b84872171f838a8a3cfa9","665500ab8938657b03fbdba8","66577e6dd6843795680584b7","4854","stimuli/1010111.jpg","1","","prediction_trial","1","","true","","1","false","false","false","true","false","false","[1]","010","111","1","","","","","","",""
"","","","","","image-keyboard-response","219","892582","0.0-194.0","5f1b84872171f838a8a3cfa9","665500ab8938657b03fbdba8","66577e6dd6843795680584b7","574","stimuli/10101111.jpg"," ","","feedback_trial","1","","","","","","","","","","","","","","","","","","","","",""
"","","","","","image-keyboard-response","220","895982","0.0-195.0","5f1b84872171f838a8a3cfa9","665500ab8938657b03fbdba8","66577e6dd6843795680584b7","3380","stimuli/0100011.jpg","0","","prediction_trial","0","","true","","0","true","true","false","true","false","true","[0]","100","011","1","","","","","","",""
"","","","","","image-keyboard-response","221","898381","0.0-196.0","5f1b84872171f838a8a3cfa9","665500ab8938657b03fbdba8","66577e6dd6843795680584b7","2396","stimuli/01000110.jpg"," ","","feedback_trial","0","","","","","","","","","","","","","","","","","","","","",""
"","","","","","image-keyboard-response","222","899693","0.0-197.0","5f1b84872171f838a8a3cfa9","665500ab8938657b03fbdba8","66577e6dd6843795680584b7","1310","stimuli/1111101.jpg","1","","prediction_trial","1","","true","","1","true","true","false","false","false","false","[0,2,1]","111","101","1","","","","","","",""
"","","","","","image-keyboard-response","223","900077","0.0-198.0","5f1b84872171f838a8a3cfa9","665500ab8938657b03fbdba8","66577e6dd6843795680584b7","382","stimuli/11111011.jpg"," ","","feedback_trial","0","","","","","","","","","","","","","","","","","","","","",""
"","","","","","image-keyboard-response","224","902381","0.0-199.0","5f1b84872171f838a8a3cfa9","665500ab8938657b03fbdba8","66577e6dd6843795680584b7","2302","stimuli/2111110.jpg","2","","prediction_trial","0","","false","","2","true","true","false","false","false","false","[2,1,0]","111","110","0","","","","","","",""
"","","","","","image-keyboard-response","225","906341","0.0-200.0","5f1b84872171f838a8a3cfa9","665500ab8938657b03fbdba8","66577e6dd6843795680584b7","3958","stimuli/21111100.jpg"," ","","feedback_trial","2","","","","","","","","","","","","","","","","","","","","",""
"","","","","","image-keyboard-response","226","907590","0.0-201.0","5f1b84872171f838a8a3cfa9","665500ab8938657b03fbdba8","66577e6dd6843795680584b7","1227","stimuli/1010010.jpg","1","","prediction_trial","1","","true","","1","false","true","false","true","false","true","[1]","010","010","1","","","","","","",""
"","","","","","image-keyboard-response","227","908397","0.0-202.0","5f1b84872171f838a8a3cfa9","665500ab8938657b03fbdba8","66577e6dd6843795680584b7","805","stimuli/10100101.jpg"," ","","feedback_trial","1","","","","","","","","","","","","","","","","","","","","",""
"","","","","","image-keyboard-response","228","913294","0.0-203.0","5f1b84872171f838a8a3cfa9","665500ab8938657b03fbdba8","66577e6dd6843795680584b7","4894","stimuli/2110011.jpg","2","","prediction_trial","2","","true","","2","false","false","true","true","false","false","[2]","110","011","1","","","","","","",""
"","","","","","image-keyboard-response","229","914350","0.0-204.0","5f1b84872171f838a8a3cfa9","665500ab8938657b03fbdba8","66577e6dd6843795680584b7","1054","stimuli/21100112.jpg"," ","","feedback_trial","2","","","","","","","","","","","","","","","","","","","","",""
"","","","","","image-keyboard-response","230","922622","0.0-205.0","5f1b84872171f838a8a3cfa9","665500ab8938657b03fbdba8","66577e6dd6843795680584b7","8270","stimuli/2011001.jpg","1","","prediction_trial","1","","true","","2","false","true","false","false","false","false","[2,1]","011","001","1","","","","","","",""
"","","","","","image-keyboard-response","231","923342","0.0-206.0","5f1b84872171f838a8a3cfa9","665500ab8938657b03fbdba8","66577e6dd6843795680584b7","718","stimuli/20110011.jpg"," ","","feedback_trial","2","","","","","","","","","","","","","","","","","","","","",""
"","","","","","image-keyboard-response","232","925542","0.0-207.0","5f1b84872171f838a8a3cfa9","665500ab8938657b03fbdba8","66577e6dd6843795680584b7","2180","stimuli/2000101.jpg","2","","prediction_trial","2","","true","","2","false","false","true","true","false","false","[2]","000","101","1","","","","","","",""
"","","","","","image-keyboard-response","233","926317","0.0-208.0","5f1b84872171f838a8a3cfa9","665500ab8938657b03fbdba8","66577e6dd6843795680584b7","771","stimuli/20001012.jpg"," ","","feedback_trial","2","","","","","","","","","","","","","","","","","","","","",""
"","","","","","image-keyboard-response","234","932095","0.0-209.0","5f1b84872171f838a8a3cfa9","665500ab8938657b03fbdba8","66577e6dd6843795680584b7","5774","stimuli/0100110.jpg","1","","prediction_trial","0","","false","","0","false","false","false","true","false","false","[0]","100","110","0","","","","","","",""
"","","","","","image-keyboard-response","235","932861","0.0-210.0","5f1b84872171f838a8a3cfa9","665500ab8938657b03fbdba8","66577e6dd6843795680584b7","764","stimuli/01001100.jpg"," ","","feedback_trial","0","","","","","","","","","","","","","","","","","","","","",""
"","","","","","image-keyboard-response","236","936221","0.0-211.0","5f1b84872171f838a8a3cfa9","665500ab8938657b03fbdba8","66577e6dd6843795680584b7","3358","stimuli/0101010.jpg","0","","prediction_trial","2","","false","","0","true","true","false","false","false","false","[2,0]","101","010","0","","","","","","",""
"","","","","","image-keyboard-response","237","936839","0.0-212.0","5f1b84872171f838a8a3cfa9","665500ab8938657b03fbdba8","66577e6dd6843795680584b7","615","stimuli/01010102.jpg"," ","","feedback_trial","2","","","","","","","","","","","","","","","","","","","","",""
"","","","","","image-keyboard-response","238","941758","0.0-213.0","5f1b84872171f838a8a3cfa9","665500ab8938657b03fbdba8","66577e6dd6843795680584b7","4898","stimuli/0010101.jpg","0","","prediction_trial","0","","true","","0","false","false","true","true","false","false","[0]","010","101","1","","","","","","",""
"","","","","","image-keyboard-response","239","942662","0.0-214.0","5f1b84872171f838a8a3cfa9","665500ab8938657b03fbdba8","66577e6dd6843795680584b7","901","stimuli/00101010.jpg"," ","","feedback_trial","0","","","","","","","","","","","","","","","","","","","","",""
"","","","","","image-keyboard-response","240","946822","0.0-215.0","5f1b84872171f838a8a3cfa9","665500ab8938657b03fbdba8","66577e6dd6843795680584b7","4157","stimuli/0101100.jpg","0","","prediction_trial","2","","false","","0","false","true","false","false","false","false","[2,0]","101","100","0","","","","","","",""
"","","","","","image-keyboard-response","241","947469","0.0-216.0","5f1b84872171f838a8a3cfa9","665500ab8938657b03fbdba8","66577e6dd6843795680584b7","645","stimuli/01011002.jpg"," ","","feedback_trial","2","","","","","","","","","","","","","","","","","","","","",""
"","","","","","image-keyboard-response","242","949847","0.0-217.0","5f1b84872171f838a8a3cfa9","665500ab8938657b03fbdba8","66577e6dd6843795680584b7","2374","stimuli/0000100.jpg","0","","prediction_trial","0","","true","","0","false","true","true","true","false","true","[0]","000","100","1","","","","","","",""
"","","","","","image-keyboard-response","243","950367","0.0-218.0","5f1b84872171f838a8a3cfa9","665500ab8938657b03fbdba8","66577e6dd6843795680584b7","517","stimuli/00001000.jpg"," ","","feedback_trial","0","","","","","","","","","","","","","","","","","","","","",""
"","","","","","image-keyboard-response","244","953126","0.0-219.0","5f1b84872171f838a8a3cfa9","665500ab8938657b03fbdba8","66577e6dd6843795680584b7","2739","stimuli/1011011.jpg","1","","prediction_trial","2","","false","","1","false","false","false","false","false","false","[1,2]","011","011","0","","","","","","",""
"","","","","","image-keyboard-response","245","953837","0.0-220.0","5f1b84872171f838a8a3cfa9","665500ab8938657b03fbdba8","66577e6dd6843795680584b7","710","stimuli/10110112.jpg"," ","","feedback_trial","1","","","","","","","","","","","","","","","","","","","","",""
"","","","","","image-keyboard-response","246","954741","0.0-221.0","5f1b84872171f838a8a3cfa9","665500ab8938657b03fbdba8","66577e6dd6843795680584b7","902","stimuli/2010000.jpg","2","","prediction_trial","2","","true","","2","true","true","true","true","true","true","[2]","010","000","1","","","","","","",""
"","","","","","image-keyboard-response","247","955357","0.0-222.0","5f1b84872171f838a8a3cfa9","665500ab8938657b03fbdba8","66577e6dd6843795680584b7","614","stimuli/20100002.jpg"," ","","feedback_trial","2","","","","","","","","","","","","","","","","","","","","",""
"","","","","","image-keyboard-response","248","956142","0.0-223.0","5f1b84872171f838a8a3cfa9","665500ab8938657b03fbdba8","66577e6dd6843795680584b7","781","stimuli/1000101.jpg","1","","prediction_trial","1","","true","","1","true","true","true","true","true","true","[1]","000","101","1","","","","","","",""
"","","","","","image-keyboard-response","249","956710","0.0-224.0","5f1b84872171f838a8a3cfa9","665500ab8938657b03fbdba8","66577e6dd6843795680584b7","566","stimuli/10001011.jpg"," ","","feedback_trial","1","","","","","","","","","","","","","","","","","","","","",""
"","","","","","image-keyboard-response","250","958342","0.0-225.0","5f1b84872171f838a8a3cfa9","665500ab8938657b03fbdba8","66577e6dd6843795680584b7","1612","stimuli/1010100.jpg","1","","prediction_trial","1","","true","","1","true","true","false","true","false","true","[1]","010","100","1","","","","","","",""
"","","","","","image-keyboard-response","251","958805","0.0-226.0","5f1b84872171f838a8a3cfa9","665500ab8938657b03fbdba8","66577e6dd6843795680584b7","461","stimuli/10101001.jpg"," ","","feedback_trial","1","","","","","","","","","","","","","","","","","","","","",""
"","","","","","image-keyboard-response","252","960894","0.0-227.0","5f1b84872171f838a8a3cfa9","665500ab8938657b03fbdba8","66577e6dd6843795680584b7","2086","stimuli/0101000.jpg","0","","prediction_trial","0","","true","","0","true","true","false","false","false","false","[2,0]","101","000","1","","","","","","",""
"","","","","","image-keyboard-response","253","961486","0.0-228.0","5f1b84872171f838a8a3cfa9","665500ab8938657b03fbdba8","66577e6dd6843795680584b7","590","stimuli/01010000.jpg"," ","","feedback_trial","2","","","","","","","","","","","","","","","","","","","","",""
"","","","","","image-keyboard-response","254","963247","0.0-229.0","5f1b84872171f838a8a3cfa9","665500ab8938657b03fbdba8","66577e6dd6843795680584b7","1759","stimuli/0000101.jpg","0","","prediction_trial","0","","true","","0","false","false","true","true","false","false","[0]","000","101","1","","","","","","",""
"","","","","","image-keyboard-response","255","963991","0.0-230.0","5f1b84872171f838a8a3cfa9","665500ab8938657b03fbdba8","66577e6dd6843795680584b7","742","stimuli/00001010.jpg"," ","","feedback_trial","0","","","","","","","","","","","","","","","","","","","","",""
"","","","","","image-keyboard-response","256","966254","0.0-231.0","5f1b84872171f838a8a3cfa9","665500ab8938657b03fbdba8","66577e6dd6843795680584b7","2239","stimuli/1110110.jpg","1","","prediction_trial","0","","false","","1","false","false","false","false","false","false","[1,0]","110","110","0","","","","","","",""
"","","","","","image-keyboard-response","257","966918","0.0-232.0","5f1b84872171f838a8a3cfa9","665500ab8938657b03fbdba8","66577e6dd6843795680584b7","660","stimuli/11101100.jpg"," ","","feedback_trial","1","","","","","","","","","","","","","","","","","","","","",""
"","","","","","image-keyboard-response","258","969318","0.0-233.0","5f1b84872171f838a8a3cfa9","665500ab8938657b03fbdba8","66577e6dd6843795680584b7","2398","stimuli/2010011.jpg","1","","prediction_trial","2","","false","","2","false","false","true","true","false","false","[2]","010","011","0","","","","","","",""
"","","","","","image-keyboard-response","259","969869","0.0-234.0","5f1b84872171f838a8a3cfa9","665500ab8938657b03fbdba8","66577e6dd6843795680584b7","549","stimuli/20100112.jpg"," ","","feedback_trial","2","","","","","","","","","","","","","","","","","","","","",""
"","","","","","image-keyboard-response","260","974166","0.0-235.0","5f1b84872171f838a8a3cfa9","665500ab8938657b03fbdba8","66577e6dd6843795680584b7","4294","stimuli/1011111.jpg","0","","prediction_trial","2","","false","","1","false","false","false","false","false","false","[2,1]","011","111","0","","","","","","",""
"","","","","","image-keyboard-response","261","975029","0.0-236.0","5f1b84872171f838a8a3cfa9","665500ab8938657b03fbdba8","66577e6dd6843795680584b7","862","stimuli/10111112.jpg"," ","","feedback_trial","2","","","","","","","","","","","","","","","","","","","","",""
"","","","","","image-keyboard-response","262","976222","0.0-237.0","5f1b84872171f838a8a3cfa9","665500ab8938657b03fbdba8","66577e6dd6843795680584b7","1169","stimuli/2000000.jpg","2","","prediction_trial","2","","true","","2","true","true","true","true","true","true","[2]","000","000","1","","","","","","",""
"","","","","","image-keyboard-response","263","976790","0.0-238.0","5f1b84872171f838a8a3cfa9","665500ab8938657b03fbdba8","66577e6dd6843795680584b7","566","stimuli/20000002.jpg"," ","","feedback_trial","2","","","","","","","","","","","","","","","","","","","","",""
"","","","","","image-keyboard-response","264","978326","0.0-239.0","5f1b84872171f838a8a3cfa9","665500ab8938657b03fbdba8","66577e6dd6843795680584b7","1534","stimuli/2101100.jpg","2","","prediction_trial","0","","false","","2","true","true","false","false","false","false","[0,2]","101","100","0","","","","","","",""
"","","","","","image-keyboard-response","265","979797","0.0-240.0","5f1b84872171f838a8a3cfa9","665500ab8938657b03fbdba8","66577e6dd6843795680584b7","1470","stimuli/21011000.jpg"," ","","feedback_trial","0","","","","","","","","","","","","","","","","","","","","",""
"","","","","","image-keyboard-response","266","982109","0.0-241.0","5f1b84872171f838a8a3cfa9","665500ab8938657b03fbdba8","66577e6dd6843795680584b7","2310","stimuli/2111001.jpg","2","","prediction_trial","1","","false","","2","false","true","false","false","false","false","[1,2,0]","111","001","0","","","","","","",""
"","","","","","image-keyboard-response","267","982765","0.0-242.0","5f1b84872171f838a8a3cfa9","665500ab8938657b03fbdba8","66577e6dd6843795680584b7","654","stimuli/21110011.jpg"," ","","feedback_trial","1","","","","","","","","","","","","","","","","","","","","",""
"","","","","","image-keyboard-response","268","983701","0.0-243.0","5f1b84872171f838a8a3cfa9","665500ab8938657b03fbdba8","66577e6dd6843795680584b7","933","stimuli/0011010.jpg","0","","prediction_trial","0","","true","","0","true","true","true","true","true","true","[0]","011","010","1","","","","","","",""
"","","","","","image-keyboard-response","269","984141","0.0-244.0","5f1b84872171f838a8a3cfa9","665500ab8938657b03fbdba8","66577e6dd6843795680584b7","438","stimuli/00110100.jpg"," ","","feedback_trial","0","","","","","","","","","","","","","","","","","","","","",""
"","","","","","image-keyboard-response","270","985214","0.0-245.0","5f1b84872171f838a8a3cfa9","665500ab8938657b03fbdba8","66577e6dd6843795680584b7","1070","stimuli/1000010.jpg","1","","prediction_trial","1","","true","","1","false","true","true","true","false","true","[1]","000","010","1","","","","","","",""
"","","","","","image-keyboard-response","271","985597","0.0-246.0","5f1b84872171f838a8a3cfa9","665500ab8938657b03fbdba8","66577e6dd6843795680584b7","382","stimuli/10000101.jpg"," ","","feedback_trial","1","","","","","","","","","","","","","","","","","","","","",""
"","","","","","image-keyboard-response","272","991070","0.0-247.0","5f1b84872171f838a8a3cfa9","665500ab8938657b03fbdba8","66577e6dd6843795680584b7","5469","stimuli/1100111.jpg","1","","prediction_trial","1","","true","","1","false","false","true","true","false","false","[1]","100","111","1","","","","","","",""
"","","","","","image-keyboard-response","273","991750","0.0-248.0","5f1b84872171f838a8a3cfa9","665500ab8938657b03fbdba8","66577e6dd6843795680584b7","678","stimuli/11001111.jpg"," ","","feedback_trial","1","","","","","","","","","","","","","","","","","","","","",""
"","","","","","image-keyboard-response","274","994222","0.0-249.0","5f1b84872171f838a8a3cfa9","665500ab8938657b03fbdba8","66577e6dd6843795680584b7","2450","stimuli/2100001.jpg","2","","prediction_trial","2","","true","","2","false","true","true","true","false","true","[2]","100","001","1","","","","","","",""
"","","","","","image-keyboard-response","275","994637","0.0-250.0","5f1b84872171f838a8a3cfa9","665500ab8938657b03fbdba8","66577e6dd6843795680584b7","414","stimuli/21000012.jpg"," ","","feedback_trial","2","","","","","","","","","","","","","","","","","","","","",""
"","","","","","image-keyboard-response","276","997741","0.0-251.0","5f1b84872171f838a8a3cfa9","665500ab8938657b03fbdba8","66577e6dd6843795680584b7","3102","stimuli/2111100.jpg","1","","prediction_trial","2","","false","","2","true","true","false","false","false","false","[0,2,1]","111","100","0","","","","","","",""
"","","","","","image-keyboard-response","277","998326","0.0-252.0","5f1b84872171f838a8a3cfa9","665500ab8938657b03fbdba8","66577e6dd6843795680584b7","582","stimuli/21111002.jpg"," ","","feedback_trial","0","","","","","","","","","","","","","","","","","","","","",""
"","","","","","image-keyboard-response","278","999574","0.0-253.0","5f1b84872171f838a8a3cfa9","665500ab8938657b03fbdba8","66577e6dd6843795680584b7","1246","stimuli/2001010.jpg","2","","prediction_trial","2","","true","","2","true","true","false","true","false","true","[2]","001","010","1","","","","","","",""
"","","","","","image-keyboard-response","279","999997","0.0-254.0","5f1b84872171f838a8a3cfa9","665500ab8938657b03fbdba8","66577e6dd6843795680584b7","422","stimuli/20010102.jpg"," ","","feedback_trial","2","","","","","","","","","","","","","","","","","","","","",""
"","","","","","image-keyboard-response","280","1000750","0.0-255.0","5f1b84872171f838a8a3cfa9","665500ab8938657b03fbdba8","66577e6dd6843795680584b7","729","stimuli/0000001.jpg","0","","prediction_trial","0","","true","","0","true","true","true","true","true","true","[0]","000","001","1","","","","","","",""
"","","","","","image-keyboard-response","281","1001182","0.0-256.0","5f1b84872171f838a8a3cfa9","665500ab8938657b03fbdba8","66577e6dd6843795680584b7","429","stimuli/00000010.jpg"," ","","feedback_trial","0","","","","","","","","","","","","","","","","","","","","",""
"","","","","","image-keyboard-response","282","1001918","0.0-257.0","5f1b84872171f838a8a3cfa9","665500ab8938657b03fbdba8","66577e6dd6843795680584b7","734","stimuli/0110000.jpg","0","","prediction_trial","0","","true","","0","true","true","false","false","false","false","[1,0]","110","000","1","","","","","","",""
"","","","","","image-keyboard-response","283","1002373","0.0-258.0","5f1b84872171f838a8a3cfa9","665500ab8938657b03fbdba8","66577e6dd6843795680584b7","453","stimuli/01100000.jpg"," ","","feedback_trial","1","","","","","","","","","","","","","","","","","","","","",""
"","","","","","image-keyboard-response","284","1003357","0.0-259.0","5f1b84872171f838a8a3cfa9","665500ab8938657b03fbdba8","66577e6dd6843795680584b7","982","stimuli/0011011.jpg","0","","prediction_trial","0","","true","","0","true","true","true","true","true","true","[0]","011","011","1","","","","","","",""
"","","","","","image-keyboard-response","285","1003933","0.0-260.0","5f1b84872171f838a8a3cfa9","665500ab8938657b03fbdba8","66577e6dd6843795680584b7","574","stimuli/00110110.jpg"," ","","feedback_trial","0","","","","","","","","","","","","","","","","","","","","",""
"","","","","","image-keyboard-response","286","1006910","0.0-261.0","5f1b84872171f838a8a3cfa9","665500ab8938657b03fbdba8","66577e6dd6843795680584b7","2969","stimuli/0110100.jpg","0","","prediction_trial","0","","true","","0","false","true","false","false","false","false","[0,1]","110","100","1","","","","","","",""
"","","","","","image-keyboard-response","287","1007197","0.0-262.0","5f1b84872171f838a8a3cfa9","665500ab8938657b03fbdba8","66577e6dd6843795680584b7","285","stimuli/01101000.jpg"," ","","feedback_trial","0","","","","","","","","","","","","","","","","","","","","",""
"","","","","","image-keyboard-response","288","1008814","0.0-263.0","5f1b84872171f838a8a3cfa9","665500ab8938657b03fbdba8","66577e6dd6843795680584b7","1615","stimuli/0001010.jpg","0","","prediction_trial","0","","true","","0","true","true","true","true","true","true","[0]","001","010","1","","","","","","",""
"","","","","","image-keyboard-response","289","1009694","0.0-264.0","5f1b84872171f838a8a3cfa9","665500ab8938657b03fbdba8","66577e6dd6843795680584b7","878","stimuli/00010100.jpg"," ","","feedback_trial","0","","","","","","","","","","","","","","","","","","","","",""
"","","","","","image-keyboard-response","290","1013462","0.0-265.0","5f1b84872171f838a8a3cfa9","665500ab8938657b03fbdba8","66577e6dd6843795680584b7","3767","stimuli/1011010.jpg","1","","prediction_trial","1","","true","","1","false","true","false","false","false","false","[1,2]","011","010","1","","","","","","",""
"","","","","","image-keyboard-response","291","1014447","0.0-266.0","5f1b84872171f838a8a3cfa9","665500ab8938657b03fbdba8","66577e6dd6843795680584b7","980","stimuli/10110101.jpg"," ","","feedback_trial","1","","","","","","","","","","","","","","","","","","","","",""
"","","","","","image-keyboard-response","292","1015798","0.0-267.0","5f1b84872171f838a8a3cfa9","665500ab8938657b03fbdba8","66577e6dd6843795680584b7","1330","stimuli/1101000.jpg","1","","prediction_trial","1","","true","","1","true","true","true","true","true","true","[1]","101","000","1","","","","","","",""
"","","","","","image-keyboard-response","293","1016286","0.0-268.0","5f1b84872171f838a8a3cfa9","665500ab8938657b03fbdba8","66577e6dd6843795680584b7","486","stimuli/11010001.jpg"," ","","feedback_trial","1","","","","","","","","","","","","","","","","","","","","",""
"","","","","","image-keyboard-response","294","1018818","0.0-269.0","5f1b84872171f838a8a3cfa9","665500ab8938657b03fbdba8","66577e6dd6843795680584b7","2530","stimuli/1101011.jpg","1","","prediction_trial","1","","true","","1","false","false","true","true","false","false","[1]","101","011","1","","","","","","",""
"","","","","","image-keyboard-response","295","1019462","0.0-270.0","5f1b84872171f838a8a3cfa9","665500ab8938657b03fbdba8","66577e6dd6843795680584b7","643","stimuli/11010111.jpg"," ","","feedback_trial","1","","","","","","","","","","","","","","","","","","","","",""
"","","","","","image-keyboard-response","296","1021350","0.0-271.0","5f1b84872171f838a8a3cfa9","665500ab8938657b03fbdba8","66577e6dd6843795680584b7","1886","stimuli/1100110.jpg","1","","prediction_trial","1","","true","","1","false","false","true","true","false","false","[1]","100","110","1","","","","","","",""
"","","","","","image-keyboard-response","297","1022143","0.0-272.0","5f1b84872171f838a8a3cfa9","665500ab8938657b03fbdba8","66577e6dd6843795680584b7","791","stimuli/11001101.jpg"," ","","feedback_trial","1","","","","","","","","","","","","","","","","","","","","",""
"","","","","","image-keyboard-response","298","1026286","0.0-273.0","5f1b84872171f838a8a3cfa9","665500ab8938657b03fbdba8","66577e6dd6843795680584b7","4122","stimuli/0110011.jpg","0","","prediction_trial","1","","false","","0","true","true","false","false","false","false","[1,0]","110","011","0","","","","","","",""
"","","","","","image-keyboard-response","299","1026869","0.0-274.0","5f1b84872171f838a8a3cfa9","665500ab8938657b03fbdba8","66577e6dd6843795680584b7","581","stimuli/01100111.jpg"," ","","feedback_trial","1","","","","","","","","","","","","","","","","","","","","",""
"","","","","","image-keyboard-response","300","1028550","0.0-275.0","5f1b84872171f838a8a3cfa9","665500ab8938657b03fbdba8","66577e6dd6843795680584b7","1679","stimuli/2001001.jpg","2","","prediction_trial","2","","true","","2","false","true","false","true","false","true","[2]","001","001","1","","","","","","",""
"","","","","","image-keyboard-response","301","1028878","0.0-276.0","5f1b84872171f838a8a3cfa9","665500ab8938657b03fbdba8","66577e6dd6843795680584b7","326","stimuli/20010012.jpg"," ","","feedback_trial","2","","","","","","","","","","","","","","","","","","","","",""
"","","","","","image-keyboard-response","302","1030207","0.0-277.0","5f1b84872171f838a8a3cfa9","665500ab8938657b03fbdba8","66577e6dd6843795680584b7","1326","stimuli/2000111.jpg","1","","prediction_trial","2","","false","","2","false","false","true","true","false","false","[2]","000","111","0","","","","","","",""
"","","","","","image-keyboard-response","303","1030679","0.0-278.0","5f1b84872171f838a8a3cfa9","665500ab8938657b03fbdba8","66577e6dd6843795680584b7","468","stimuli/20001112.jpg"," ","","feedback_trial","2","","","","","","","","","","","","","","","","","","","","",""
"","","","","","image-keyboard-response","304","1032222","0.0-279.0","5f1b84872171f838a8a3cfa9","665500ab8938657b03fbdba8","66577e6dd6843795680584b7","1524","stimuli/2110001.jpg","2","","prediction_trial","2","","true","","2","false","true","true","true","false","true","[2]","110","001","1","","","","","","",""
"","","","","","image-keyboard-response","305","1032607","0.0-280.0","5f1b84872171f838a8a3cfa9","665500ab8938657b03fbdba8","66577e6dd6843795680584b7","383","stimuli/21100012.jpg"," ","","feedback_trial","2","","","","","","","","","","","","","","","","","","","","",""
"","","","","","image-keyboard-response","306","1033269","0.0-281.0","5f1b84872171f838a8a3cfa9","665500ab8938657b03fbdba8","66577e6dd6843795680584b7","661","stimuli/2110000.jpg","2","","prediction_trial","2","","true","","2","true","true","true","true","true","true","[2]","110","000","1","","","","","","",""
"","","","","","image-keyboard-response","307","1033581","0.0-282.0","5f1b84872171f838a8a3cfa9","665500ab8938657b03fbdba8","66577e6dd6843795680584b7","310","stimuli/21100002.jpg"," ","","feedback_trial","2","","","","","","","","","","","","","","","","","","","","",""
"","","","","","image-keyboard-response","308","1034366","0.0-283.0","5f1b84872171f838a8a3cfa9","665500ab8938657b03fbdba8","66577e6dd6843795680584b7","783","stimuli/2000100.jpg","2","","prediction_trial","2","","true","","2","true","true","true","true","true","true","[2]","000","100","1","","","","","","",""
"","","","","","image-keyboard-response","309","1034669","0.0-284.0","5f1b84872171f838a8a3cfa9","665500ab8938657b03fbdba8","66577e6dd6843795680584b7","302","stimuli/20001002.jpg"," ","","feedback_trial","2","","","","","","","","","","","","","","","","","","","","",""
"","","","","","image-keyboard-response","310","1035910","0.0-285.0","5f1b84872171f838a8a3cfa9","665500ab8938657b03fbdba8","66577e6dd6843795680584b7","1221","stimuli/2001110.jpg","2","","prediction_trial","2","","true","","2","true","true","false","true","false","true","[2]","001","110","1","","","","","","",""
"","","","","","image-keyboard-response","311","1036229","0.0-286.0","5f1b84872171f838a8a3cfa9","665500ab8938657b03fbdba8","66577e6dd6843795680584b7","317","stimuli/20011102.jpg"," ","","feedback_trial","2","","","","","","","","","","","","","","","","","","","","",""
"","","","","","image-keyboard-response","312","1037982","0.0-287.0","5f1b84872171f838a8a3cfa9","665500ab8938657b03fbdba8","66577e6dd6843795680584b7","1751","stimuli/1100011.jpg","1","","prediction_trial","1","","true","","1","false","false","true","true","false","false","[1]","100","011","1","","","","","","",""
"","","","","","image-keyboard-response","313","1038693","0.0-288.0","5f1b84872171f838a8a3cfa9","665500ab8938657b03fbdba8","66577e6dd6843795680584b7","710","stimuli/11000111.jpg"," ","","feedback_trial","1","","","","","","","","","","","","","","","","","","","","",""
"","","","","","image-keyboard-response","314","1040773","0.0-289.0","5f1b84872171f838a8a3cfa9","665500ab8938657b03fbdba8","66577e6dd6843795680584b7","2078","stimuli/2011000.jpg","2","","prediction_trial","2","","true","","2","true","true","false","false","false","false","[1,2]","011","000","1","","","","","","",""
"","","","","","image-keyboard-response","315","1041318","0.0-290.0","5f1b84872171f838a8a3cfa9","665500ab8938657b03fbdba8","66577e6dd6843795680584b7","542","stimuli/20110002.jpg"," ","","feedback_trial","1","","","","","","","","","","","","","","","","","","","","",""
"","","","","","image-keyboard-response","316","1042902","0.0-291.0","5f1b84872171f838a8a3cfa9","665500ab8938657b03fbdba8","66577e6dd6843795680584b7","1566","stimuli/0111110.jpg","1","","prediction_trial","1","","true","","0","false","false","false","false","false","false","[0,1,2]","111","110","1","","","","","","",""
"","","","","","image-keyboard-response","317","1043445","0.0-292.0","5f1b84872171f838a8a3cfa9","665500ab8938657b03fbdba8","66577e6dd6843795680584b7","542","stimuli/01111101.jpg"," ","","feedback_trial","0","","","","","","","","","","","","","","","","","","","","",""
"","","","","","survey-html-form","318","1064352","0.0-293.0","5f1b84872171f838a8a3cfa9","665500ab8938657b03fbdba8","66577e6dd6843795680584b7","20903","","{""feedback"":"""",""age"":""42"",""gender"":""Male"",""other_gender"":"""",""race"":""White"",""other_race"":"""",""ethnicity"":""Non-Hispanic""}","","exit_survey","","","","","","","","","","","","","","","","","42","Non-Hispanic","Male","White","0.7083333333333334","0.7083333333333334"
