"success","timeout","failed_images","failed_audio","failed_video","trial_type","trial_index","time_elapsed","internal_node_id","prolific_id","prolific_study_id","prolific_session_id","rt","stimulus","response","view_history","trial","character_choice","stimulus_dict","accuracy","correct_response","ball_pos","ego_ball_visible","ego_can_infer","alter_ball_visible","alter_can_infer","collective_ball_visible","collective_can_infer","search_locations","alter_occluders","ego_occluders","accuracy_bool","feedback","age","ethnicity","gender","race","overall_accuracy","bonus"
"true","false","[]","[]","[]","preload","0","8550","0.0-0.0","612e1df9913c996adb2a42a6","665500ab8938657b03fbdba8","66577cb94d3e3430efe167fd","","","","","","","","","","","","","","","","","","","","","","","","","","",""
"true","","","","","fullscreen","1","11909","0.0-1.0","612e1df9913c996adb2a42a6","665500ab8938657b03fbdba8","66577cb94d3e3430efe167fd","","","","","","","","","","","","","","","","","","","","","","","","","","",""
"","","","","","html-button-response","2","14371","0.0-2.0","612e1df9913c996adb2a42a6","665500ab8938657b03fbdba8","66577cb94d3e3430efe167fd","2459","<p><b>Consent Form</b></p> <div style=""text-align:left;background-color:lightgrey; padding:20px; max-width:900px;""><p>Please consider this information carefully before deciding whether to participate in this research.</p> <p>The purpose of this research is to examine which factors influence social judgment and decision-making. You will be asked to make judgements about individuals and actions in social scenarios. We are simply interested in your judgement. The study will take less than 1 hour to complete, and you will receive less than $20 on Prolific. Your compensation and time commitment are specified in the study description. There are no anticipated risks associated with participating in this study. The effects of participating should be comparable to those you would ordinarily experience from viewing a computer monitor and using a mouse or keyboard for a similar amount of time. At the end of the study, we will provide an explanation of the questions that motivate this line of research and will describe the potential implications. </p><p> Your participation in this study is completely voluntary and you may refuse to participate or you may choose to withdraw at any time without penalty or loss of benefits to you which are otherwise entitled. Your participation in this study will remain confidential. No personally identifiable information will be associated with your data. Also, all analyses of the data will be averaged across all the participants, so your individual responses will never be specifically analyzed. </p><p> If you have questions or concerns about your participation or payment, or want to request a summary of research findings, please contact Dr. Jonathan Phillips at Jonathan.S.Phillips@dartmouth.edu. </p><p> Please save a copy of this form for your records. </p><p><b>Agreement: </b>The nature and purpose of this research have been sufficiently explained and I agree to participate in this study. I understand that I am free to withdraw at any time without incurring any penalty. Please consent by clicking the button below to continue. Otherwise, please exit the study at any time. </p>","0","","","","","","","","","","","","","","","","","","","","","","","",""
"","","","","","instructions","3","332104","0.0-3.0-0.0","612e1df9913c996adb2a42a6","665500ab8938657b03fbdba8","66577cb94d3e3430efe167fd","317731","","","[{""page_index"":0,""viewing_time"":5250},{""page_index"":1,""viewing_time"":144820},{""page_index"":2,""viewing_time"":9589},{""page_index"":3,""viewing_time"":10255},{""page_index"":4,""viewing_time"":5333},{""page_index"":5,""viewing_time"":3223},{""page_index"":6,""viewing_time"":9906},{""page_index"":7,""viewing_time"":4986},{""page_index"":8,""viewing_time"":6214},{""page_index"":9,""viewing_time"":4352},{""page_index"":10,""viewing_time"":99131},{""page_index"":11,""viewing_time"":6586},{""page_index"":12,""viewing_time"":5525},{""page_index"":13,""viewing_time"":2558}]","intro","","","","","","","","","","","","","","","","","","","","","",""
"","","","","","image-keyboard-response","4","339526","0.0-3.0-1.0","612e1df9913c996adb2a42a6","665500ab8938657b03fbdba8","66577cb94d3e3430efe167fd","7418","stimuli/1101011.jpg","2","","prediction_practice","1","{""filepath"":""stimuli/1101011.jpg"",""ball_pos"":1,""ego_ball_visible"":false,""ego_can_infer"":false,""alter_ball_visible"":true,""alter_can_infer"":true,""collective_ball_visible"":false,""collective_can_infer"":false,""search_locations"":[1],""alter_occluders"":""101"",""ego_occluders"":""011""}","false","","","","","","","","","","","","","","","","","","",""
"","","","","","image-keyboard-response","5","344675","0.0-3.0-2.0","612e1df9913c996adb2a42a6","665500ab8938657b03fbdba8","66577cb94d3e3430efe167fd","5148","stimuli/11010111.jpg"," ","","practrice_feedback","1","","","","","","","","","","","","","","","","","","","","",""
"","","","","","image-keyboard-response","6","346900","0.0-3.0-3.0","612e1df9913c996adb2a42a6","665500ab8938657b03fbdba8","66577cb94d3e3430efe167fd","2224","stimuli/2100100.jpg","2","","prediction_practice","2","{""filepath"":""stimuli/2100100.jpg"",""ball_pos"":2,""ego_ball_visible"":true,""ego_can_infer"":true,""alter_ball_visible"":true,""alter_can_infer"":true,""collective_ball_visible"":true,""collective_can_infer"":true,""search_locations"":[2],""alter_occluders"":""100"",""ego_occluders"":""100""}","true","","","","","","","","","","","","","","","","","","",""
"","","","","","image-keyboard-response","7","349577","0.0-3.0-4.0","612e1df9913c996adb2a42a6","665500ab8938657b03fbdba8","66577cb94d3e3430efe167fd","2677","stimuli/21001002.jpg"," ","","practrice_feedback","2","","","","","","","","","","","","","","","","","","","","",""
"","","","","","image-keyboard-response","8","351909","0.0-3.0-5.0","612e1df9913c996adb2a42a6","665500ab8938657b03fbdba8","66577cb94d3e3430efe167fd","2331","stimuli/0101000.jpg","0","","prediction_practice","0","{""filepath"":""stimuli/0101000.jpg"",""ball_pos"":0,""ego_ball_visible"":true,""ego_can_infer"":true,""alter_ball_visible"":false,""alter_can_infer"":false,""collective_ball_visible"":false,""collective_can_infer"":false,""search_locations"":[2,0],""alter_occluders"":""101"",""ego_occluders"":""000""}","true","","","","","","","","","","","","","","","","","","",""
"","","","","","image-keyboard-response","9","353861","0.0-3.0-6.0","612e1df9913c996adb2a42a6","665500ab8938657b03fbdba8","66577cb94d3e3430efe167fd","1951","stimuli/01010000.jpg"," ","","practrice_feedback","2","","","","","","","","","","","","","","","","","","","","",""
"","","","","","image-keyboard-response","10","358666","0.0-3.0-7.0","612e1df9913c996adb2a42a6","665500ab8938657b03fbdba8","66577cb94d3e3430efe167fd","4803","stimuli/0101101.jpg","0","","prediction_practice","0","{""filepath"":""stimuli/0101101.jpg"",""ball_pos"":0,""ego_ball_visible"":false,""ego_can_infer"":false,""alter_ball_visible"":false,""alter_can_infer"":false,""collective_ball_visible"":false,""collective_can_infer"":false,""search_locations"":[2,0],""alter_occluders"":""101"",""ego_occluders"":""101""}","true","","","","","","","","","","","","","","","","","","",""
"","","","","","image-keyboard-response","11","360523","0.0-3.0-8.0","612e1df9913c996adb2a42a6","665500ab8938657b03fbdba8","66577cb94d3e3430efe167fd","1857","stimuli/01011010.jpg"," ","","practrice_feedback","2","","","","","","","","","","","","","","","","","","","","",""
"","","","","","image-keyboard-response","12","361899","0.0-3.0-9.0","612e1df9913c996adb2a42a6","665500ab8938657b03fbdba8","66577cb94d3e3430efe167fd","1375","stimuli/1111100.jpg","1","","prediction_practice","1","{""filepath"":""stimuli/1111100.jpg"",""ball_pos"":1,""ego_ball_visible"":true,""ego_can_infer"":true,""alter_ball_visible"":false,""alter_can_infer"":false,""collective_ball_visible"":false,""collective_can_infer"":false,""search_locations"":[1,2,0],""alter_occluders"":""111"",""ego_occluders"":""100""}","true","","","","","","","","","","","","","","","","","","",""
"","","","","","image-keyboard-response","13","364276","0.0-3.0-10.0","612e1df9913c996adb2a42a6","665500ab8938657b03fbdba8","66577cb94d3e3430efe167fd","2376","stimuli/11111001.jpg"," ","","practrice_feedback","1","","","","","","","","","","","","","","","","","","","","",""
"","","","","","image-keyboard-response","14","368281","0.0-3.0-11.0","612e1df9913c996adb2a42a6","665500ab8938657b03fbdba8","66577cb94d3e3430efe167fd","4004","stimuli/1000110.jpg","1","","prediction_practice","1","{""filepath"":""stimuli/1000110.jpg"",""ball_pos"":1,""ego_ball_visible"":false,""ego_can_infer"":false,""alter_ball_visible"":true,""alter_can_infer"":true,""collective_ball_visible"":false,""collective_can_infer"":false,""search_locations"":[1],""alter_occluders"":""000"",""ego_occluders"":""110""}","true","","","","","","","","","","","","","","","","","","",""
"","","","","","image-keyboard-response","15","369328","0.0-3.0-12.0","612e1df9913c996adb2a42a6","665500ab8938657b03fbdba8","66577cb94d3e3430efe167fd","1046","stimuli/10001101.jpg"," ","","practrice_feedback","1","","","","","","","","","","","","","","","","","","","","",""
"","","","","","image-keyboard-response","16","375189","0.0-3.0-13.0","612e1df9913c996adb2a42a6","665500ab8938657b03fbdba8","66577cb94d3e3430efe167fd","5873","stimuli/2101111.jpg","2","","prediction_practice","0","{""filepath"":""stimuli/2101111.jpg"",""ball_pos"":2,""ego_ball_visible"":false,""ego_can_infer"":false,""alter_ball_visible"":false,""alter_can_infer"":false,""collective_ball_visible"":false,""collective_can_infer"":false,""search_locations"":[2,0],""alter_occluders"":""101"",""ego_occluders"":""111""}","false","","","","","","","","","","","","","","","","","","",""
"","","","","","image-keyboard-response","17","377210","0.0-3.0-14.0","612e1df9913c996adb2a42a6","665500ab8938657b03fbdba8","66577cb94d3e3430efe167fd","2021","stimuli/21011110.jpg"," ","","practrice_feedback","2","","","","","","","","","","","","","","","","","","","","",""
"","","","","","image-keyboard-response","18","379352","0.0-3.0-15.0","612e1df9913c996adb2a42a6","665500ab8938657b03fbdba8","66577cb94d3e3430efe167fd","2140","stimuli/0010100.jpg","0","","prediction_practice","0","{""filepath"":""stimuli/0010100.jpg"",""ball_pos"":0,""ego_ball_visible"":false,""ego_can_infer"":true,""alter_ball_visible"":true,""alter_can_infer"":true,""collective_ball_visible"":false,""collective_can_infer"":true,""search_locations"":[0],""alter_occluders"":""010"",""ego_occluders"":""100""}","true","","","","","","","","","","","","","","","","","","",""
"","","","","","image-keyboard-response","19","380390","0.0-3.0-16.0","612e1df9913c996adb2a42a6","665500ab8938657b03fbdba8","66577cb94d3e3430efe167fd","1037","stimuli/00101000.jpg"," ","","practrice_feedback","0","","","","","","","","","","","","","","","","","","","","",""
"","","","","","image-keyboard-response","20","382203","0.0-3.0-17.0","612e1df9913c996adb2a42a6","665500ab8938657b03fbdba8","66577cb94d3e3430efe167fd","1813","stimuli/2011111.jpg","1","","prediction_practice","1","{""filepath"":""stimuli/2011111.jpg"",""ball_pos"":2,""ego_ball_visible"":false,""ego_can_infer"":false,""alter_ball_visible"":false,""alter_can_infer"":false,""collective_ball_visible"":false,""collective_can_infer"":false,""search_locations"":[2,1],""alter_occluders"":""011"",""ego_occluders"":""111""}","true","","","","","","","","","","","","","","","","","","",""
"","","","","","image-keyboard-response","21","383023","0.0-3.0-18.0","612e1df9913c996adb2a42a6","665500ab8938657b03fbdba8","66577cb94d3e3430efe167fd","819","stimuli/20111111.jpg"," ","","practrice_feedback","2","","","","","","","","","","","","","","","","","","","","",""
"","","","","","image-keyboard-response","22","384983","0.0-3.0-19.0","612e1df9913c996adb2a42a6","665500ab8938657b03fbdba8","66577cb94d3e3430efe167fd","1959","stimuli/0000100.jpg","0","","prediction_practice","0","{""filepath"":""stimuli/0000100.jpg"",""ball_pos"":0,""ego_ball_visible"":false,""ego_can_infer"":true,""alter_ball_visible"":true,""alter_can_infer"":true,""collective_ball_visible"":false,""collective_can_infer"":true,""search_locations"":[0],""alter_occluders"":""000"",""ego_occluders"":""100""}","true","","","","","","","","","","","","","","","","","","",""
"","","","","","image-keyboard-response","23","385817","0.0-3.0-20.0","612e1df9913c996adb2a42a6","665500ab8938657b03fbdba8","66577cb94d3e3430efe167fd","832","stimuli/00001000.jpg"," ","","practrice_feedback","0","","","","","","","","","","","","","","","","","","","","",""
"","","","","","html-button-response","24","388015","0.0-3.0-21.0","612e1df9913c996adb2a42a6","665500ab8938657b03fbdba8","66577cb94d3e3430efe167fd","2197","Now that you've had some practice, you'll be tested with a couple of easy trials. If you correctly predict Sam's choice, you'll move on to complete the experiment!","0","","","","","","","","","","","","","","","","","","","","","","","",""
"","","","","","image-keyboard-response","25","390446","0.0-3.0-22.0-0.0","612e1df9913c996adb2a42a6","665500ab8938657b03fbdba8","66577cb94d3e3430efe167fd","2429","stimuli/0000011.jpg","arrowleft","","comprehension_quiz","","","true","arrowleft","","","","","","","","","","","","","","","","","",""
"","","","","","image-keyboard-response","26","391863","0.0-3.0-22.0-1.0","612e1df9913c996adb2a42a6","665500ab8938657b03fbdba8","66577cb94d3e3430efe167fd","1416","stimuli/00000110.jpg"," ","","comprehension_quiz","","","true"," ","","","","","","","","","","","","","","","","","",""
"","","","","","image-keyboard-response","27","393409","0.0-3.0-22.0-2.0","612e1df9913c996adb2a42a6","665500ab8938657b03fbdba8","66577cb94d3e3430efe167fd","1545","stimuli/1010010.jpg","arrowdown","","comprehension_quiz","","","true","arrowdown","","","","","","","","","","","","","","","","","",""
"","","","","","image-keyboard-response","28","393997","0.0-3.0-22.0-3.0","612e1df9913c996adb2a42a6","665500ab8938657b03fbdba8","66577cb94d3e3430efe167fd","587","stimuli/10100101.jpg"," ","","comprehension_quiz","","","true"," ","","","","","","","","","","","","","","","","","",""
"","","","","","html-button-response","29","400271","0.0-4.0","612e1df9913c996adb2a42a6","665500ab8938657b03fbdba8","66577cb94d3e3430efe167fd","6270","The experiment will now begin.","0","","","","","","","","","","","","","","","","","","","","","","","",""
"","","","","","image-keyboard-response","30","405779","0.0-5.0","612e1df9913c996adb2a42a6","665500ab8938657b03fbdba8","66577cb94d3e3430efe167fd","5506","stimuli/2011110.jpg","1","","prediction_trial","2","","false","","2","true","true","false","false","false","false","[2,1]","011","110","0","","","","","","",""
"","","","","","image-keyboard-response","31","408030","0.0-6.0","612e1df9913c996adb2a42a6","665500ab8938657b03fbdba8","66577cb94d3e3430efe167fd","2249","stimuli/20111102.jpg"," ","","feedback_trial","2","","","","","","","","","","","","","","","","","","","","",""
"","","","","","image-keyboard-response","32","411865","0.0-7.0","612e1df9913c996adb2a42a6","665500ab8938657b03fbdba8","66577cb94d3e3430efe167fd","3834","stimuli/2111111.jpg","1","","prediction_trial","1","","true","","2","false","false","false","false","false","false","[1,0,2]","111","111","1","","","","","","",""
"","","","","","image-keyboard-response","33","412927","0.0-8.0","612e1df9913c996adb2a42a6","665500ab8938657b03fbdba8","66577cb94d3e3430efe167fd","1062","stimuli/21111111.jpg"," ","","feedback_trial","1","","","","","","","","","","","","","","","","","","","","",""
"","","","","","image-keyboard-response","34","414145","0.0-9.0","612e1df9913c996adb2a42a6","665500ab8938657b03fbdba8","66577cb94d3e3430efe167fd","1216","stimuli/1001100.jpg","1","","prediction_trial","1","","true","","1","true","true","true","true","true","true","[1]","001","100","1","","","","","","",""
"","","","","","image-keyboard-response","35","414881","0.0-10.0","612e1df9913c996adb2a42a6","665500ab8938657b03fbdba8","66577cb94d3e3430efe167fd","735","stimuli/10011001.jpg"," ","","feedback_trial","1","","","","","","","","","","","","","","","","","","","","",""
"","","","","","image-keyboard-response","36","420285","0.0-11.0","612e1df9913c996adb2a42a6","665500ab8938657b03fbdba8","66577cb94d3e3430efe167fd","5404","stimuli/1101111.jpg","2","","prediction_trial","1","","false","","1","false","false","true","true","false","false","[1]","101","111","0","","","","","","",""
"","","","","","image-keyboard-response","37","421323","0.0-12.0","612e1df9913c996adb2a42a6","665500ab8938657b03fbdba8","66577cb94d3e3430efe167fd","1036","stimuli/11011111.jpg"," ","","feedback_trial","1","","","","","","","","","","","","","","","","","","","","",""
"","","","","","image-keyboard-response","38","424484","0.0-13.0","612e1df9913c996adb2a42a6","665500ab8938657b03fbdba8","66577cb94d3e3430efe167fd","3161","stimuli/2100101.jpg","0","","prediction_trial","2","","false","","2","false","false","true","true","false","false","[2]","100","101","0","","","","","","",""
"","","","","","image-keyboard-response","39","425401","0.0-14.0","612e1df9913c996adb2a42a6","665500ab8938657b03fbdba8","66577cb94d3e3430efe167fd","916","stimuli/21001012.jpg"," ","","feedback_trial","2","","","","","","","","","","","","","","","","","","","","",""
"","","","","","image-keyboard-response","40","426847","0.0-15.0","612e1df9913c996adb2a42a6","665500ab8938657b03fbdba8","66577cb94d3e3430efe167fd","1444","stimuli/0011111.jpg","1","","prediction_trial","0","","false","","0","false","false","true","true","false","false","[0]","011","111","0","","","","","","",""
"","","","","","image-keyboard-response","41","427630","0.0-16.0","612e1df9913c996adb2a42a6","665500ab8938657b03fbdba8","66577cb94d3e3430efe167fd","783","stimuli/00111110.jpg"," ","","feedback_trial","0","","","","","","","","","","","","","","","","","","","","",""
"","","","","","image-keyboard-response","42","430760","0.0-17.0","612e1df9913c996adb2a42a6","665500ab8938657b03fbdba8","66577cb94d3e3430efe167fd","3129","stimuli/1100111.jpg","0","","prediction_trial","1","","false","","1","false","false","true","true","false","false","[1]","100","111","0","","","","","","",""
"","","","","","image-keyboard-response","43","431583","0.0-18.0","612e1df9913c996adb2a42a6","665500ab8938657b03fbdba8","66577cb94d3e3430efe167fd","821","stimuli/11001111.jpg"," ","","feedback_trial","1","","","","","","","","","","","","","","","","","","","","",""
"","","","","","image-keyboard-response","44","435820","0.0-19.0","612e1df9913c996adb2a42a6","665500ab8938657b03fbdba8","66577cb94d3e3430efe167fd","4226","stimuli/1101011.jpg","1","","prediction_trial","1","","true","","1","false","false","true","true","false","false","[1]","101","011","1","","","","","","",""
"","","","","","image-keyboard-response","45","436392","0.0-20.0","612e1df9913c996adb2a42a6","665500ab8938657b03fbdba8","66577cb94d3e3430efe167fd","571","stimuli/11010111.jpg"," ","","feedback_trial","1","","","","","","","","","","","","","","","","","","","","",""
"","","","","","image-keyboard-response","46","437639","0.0-21.0","612e1df9913c996adb2a42a6","665500ab8938657b03fbdba8","66577cb94d3e3430efe167fd","1246","stimuli/2111110.jpg","2","","prediction_trial","2","","true","","2","true","true","false","false","false","false","[2,0,1]","111","110","1","","","","","","",""
"","","","","","image-keyboard-response","47","439216","0.0-22.0","612e1df9913c996adb2a42a6","665500ab8938657b03fbdba8","66577cb94d3e3430efe167fd","1576","stimuli/21111102.jpg"," ","","feedback_trial","2","","","","","","","","","","","","","","","","","","","","",""
"","","","","","image-keyboard-response","48","440892","0.0-23.0","612e1df9913c996adb2a42a6","665500ab8938657b03fbdba8","66577cb94d3e3430efe167fd","1675","stimuli/0011011.jpg","0","","prediction_trial","0","","true","","0","true","true","true","true","true","true","[0]","011","011","1","","","","","","",""
"","","","","","image-keyboard-response","49","442260","0.0-24.0","612e1df9913c996adb2a42a6","665500ab8938657b03fbdba8","66577cb94d3e3430efe167fd","1366","stimuli/00110110.jpg"," ","","feedback_trial","0","","","","","","","","","","","","","","","","","","","","",""
"","","","","","image-keyboard-response","50","443417","0.0-25.0","612e1df9913c996adb2a42a6","665500ab8938657b03fbdba8","66577cb94d3e3430efe167fd","1156","stimuli/1100001.jpg","1","","prediction_trial","1","","true","","1","true","true","true","true","true","true","[1]","100","001","1","","","","","","",""
"","","","","","image-keyboard-response","51","444429","0.0-26.0","612e1df9913c996adb2a42a6","665500ab8938657b03fbdba8","66577cb94d3e3430efe167fd","1011","stimuli/11000011.jpg"," ","","feedback_trial","1","","","","","","","","","","","","","","","","","","","","",""
"","","","","","image-keyboard-response","52","446060","0.0-27.0","612e1df9913c996adb2a42a6","665500ab8938657b03fbdba8","66577cb94d3e3430efe167fd","1630","stimuli/2010110.jpg","2","","prediction_trial","2","","true","","2","true","true","true","true","true","true","[2]","010","110","1","","","","","","",""
"","","","","","image-keyboard-response","53","446893","0.0-28.0","612e1df9913c996adb2a42a6","665500ab8938657b03fbdba8","66577cb94d3e3430efe167fd","832","stimuli/20101102.jpg"," ","","feedback_trial","2","","","","","","","","","","","","","","","","","","","","",""
"","","","","","image-keyboard-response","54","449383","0.0-29.0","612e1df9913c996adb2a42a6","665500ab8938657b03fbdba8","66577cb94d3e3430efe167fd","2489","stimuli/2011011.jpg","1","","prediction_trial","2","","false","","2","false","false","false","false","false","false","[1,2]","011","011","0","","","","","","",""
"","","","","","image-keyboard-response","55","453640","0.0-30.0","612e1df9913c996adb2a42a6","665500ab8938657b03fbdba8","66577cb94d3e3430efe167fd","4256","stimuli/20110112.jpg"," ","","feedback_trial","1","","","","","","","","","","","","","","","","","","","","",""
"","","","","","image-keyboard-response","56","456620","0.0-31.0","612e1df9913c996adb2a42a6","665500ab8938657b03fbdba8","66577cb94d3e3430efe167fd","2978","stimuli/0100101.jpg","0","","prediction_trial","0","","true","","0","false","false","false","true","false","false","[0]","100","101","1","","","","","","",""
"","","","","","image-keyboard-response","57","457762","0.0-32.0","612e1df9913c996adb2a42a6","665500ab8938657b03fbdba8","66577cb94d3e3430efe167fd","1141","stimuli/01001010.jpg"," ","","feedback_trial","0","","","","","","","","","","","","","","","","","","","","",""
"","","","","","image-keyboard-response","58","459513","0.0-33.0","612e1df9913c996adb2a42a6","665500ab8938657b03fbdba8","66577cb94d3e3430efe167fd","1750","stimuli/2101000.jpg","2","","prediction_trial","2","","true","","2","true","true","false","false","false","false","[2,0]","101","000","1","","","","","","",""
"","","","","","image-keyboard-response","59","460356","0.0-34.0","612e1df9913c996adb2a42a6","665500ab8938657b03fbdba8","66577cb94d3e3430efe167fd","842","stimuli/21010002.jpg"," ","","feedback_trial","2","","","","","","","","","","","","","","","","","","","","",""
"","","","","","image-keyboard-response","60","463351","0.0-35.0","612e1df9913c996adb2a42a6","665500ab8938657b03fbdba8","66577cb94d3e3430efe167fd","2994","stimuli/1101101.jpg","1","","prediction_trial","1","","true","","1","true","true","true","true","true","true","[1]","101","101","1","","","","","","",""
"","","","","","image-keyboard-response","61","464194","0.0-36.0","612e1df9913c996adb2a42a6","665500ab8938657b03fbdba8","66577cb94d3e3430efe167fd","842","stimuli/11011011.jpg"," ","","feedback_trial","1","","","","","","","","","","","","","","","","","","","","",""
"","","","","","image-keyboard-response","62","469574","0.0-37.0","612e1df9913c996adb2a42a6","665500ab8938657b03fbdba8","66577cb94d3e3430efe167fd","5379","stimuli/1000011.jpg","1","","prediction_trial","1","","true","","1","false","false","true","true","false","false","[1]","000","011","1","","","","","","",""
"","","","","","image-keyboard-response","63","470176","0.0-38.0","612e1df9913c996adb2a42a6","665500ab8938657b03fbdba8","66577cb94d3e3430efe167fd","602","stimuli/10000111.jpg"," ","","feedback_trial","1","","","","","","","","","","","","","","","","","","","","",""
"","","","","","image-keyboard-response","64","472152","0.0-39.0","612e1df9913c996adb2a42a6","665500ab8938657b03fbdba8","66577cb94d3e3430efe167fd","1975","stimuli/0010110.jpg","1","","prediction_trial","0","","false","","0","false","false","true","true","false","false","[0]","010","110","0","","","","","","",""
"","","","","","image-keyboard-response","65","473250","0.0-40.0","612e1df9913c996adb2a42a6","665500ab8938657b03fbdba8","66577cb94d3e3430efe167fd","1097","stimuli/00101100.jpg"," ","","feedback_trial","0","","","","","","","","","","","","","","","","","","","","",""
"","","","","","image-keyboard-response","66","475506","0.0-41.0","612e1df9913c996adb2a42a6","665500ab8938657b03fbdba8","66577cb94d3e3430efe167fd","2255","stimuli/0110101.jpg","2","","prediction_trial","0","","false","","0","false","false","false","false","false","false","[1,0]","110","101","0","","","","","","",""
"","","","","","image-keyboard-response","67","476328","0.0-42.0","612e1df9913c996adb2a42a6","665500ab8938657b03fbdba8","66577cb94d3e3430efe167fd","822","stimuli/01101010.jpg"," ","","feedback_trial","1","","","","","","","","","","","","","","","","","","","","",""
"","","","","","image-keyboard-response","68","477315","0.0-43.0","612e1df9913c996adb2a42a6","665500ab8938657b03fbdba8","66577cb94d3e3430efe167fd","986","stimuli/2001110.jpg","2","","prediction_trial","2","","true","","2","true","true","false","true","false","true","[2]","001","110","1","","","","","","",""
"","","","","","image-keyboard-response","69","478083","0.0-44.0","612e1df9913c996adb2a42a6","665500ab8938657b03fbdba8","66577cb94d3e3430efe167fd","767","stimuli/20011102.jpg"," ","","feedback_trial","2","","","","","","","","","","","","","","","","","","","","",""
"","","","","","image-keyboard-response","70","481419","0.0-45.0","612e1df9913c996adb2a42a6","665500ab8938657b03fbdba8","66577cb94d3e3430efe167fd","3336","stimuli/2101011.jpg","1","","prediction_trial","0","","false","","2","false","false","false","false","false","false","[2,0]","101","011","0","","","","","","",""
"","","","","","image-keyboard-response","71","482247","0.0-46.0","612e1df9913c996adb2a42a6","665500ab8938657b03fbdba8","66577cb94d3e3430efe167fd","826","stimuli/21010110.jpg"," ","","feedback_trial","2","","","","","","","","","","","","","","","","","","","","",""
"","","","","","image-keyboard-response","72","483953","0.0-47.0","612e1df9913c996adb2a42a6","665500ab8938657b03fbdba8","66577cb94d3e3430efe167fd","1705","stimuli/0000010.jpg","1","","prediction_trial","0","","false","","0","true","true","true","true","true","true","[0]","000","010","0","","","","","","",""
"","","","","","image-keyboard-response","73","486424","0.0-48.0","612e1df9913c996adb2a42a6","665500ab8938657b03fbdba8","66577cb94d3e3430efe167fd","2471","stimuli/00000100.jpg"," ","","feedback_trial","0","","","","","","","","","","","","","","","","","","","","",""
"","","","","","image-keyboard-response","74","488575","0.0-49.0","612e1df9913c996adb2a42a6","665500ab8938657b03fbdba8","66577cb94d3e3430efe167fd","2150","stimuli/2010111.jpg","2","","prediction_trial","2","","true","","2","false","false","true","true","false","false","[2]","010","111","1","","","","","","",""
"","","","","","image-keyboard-response","75","489313","0.0-50.0","612e1df9913c996adb2a42a6","665500ab8938657b03fbdba8","66577cb94d3e3430efe167fd","737","stimuli/20101112.jpg"," ","","feedback_trial","2","","","","","","","","","","","","","","","","","","","","",""
"","","","","","image-keyboard-response","76","491535","0.0-51.0","612e1df9913c996adb2a42a6","665500ab8938657b03fbdba8","66577cb94d3e3430efe167fd","2221","stimuli/2110101.jpg","0","","prediction_trial","2","","false","","2","false","false","true","true","false","false","[2]","110","101","0","","","","","","",""
"","","","","","image-keyboard-response","77","492717","0.0-52.0","612e1df9913c996adb2a42a6","665500ab8938657b03fbdba8","66577cb94d3e3430efe167fd","1181","stimuli/21101012.jpg"," ","","feedback_trial","2","","","","","","","","","","","","","","","","","","","","",""
"","","","","","image-keyboard-response","78","496255","0.0-53.0","612e1df9913c996adb2a42a6","665500ab8938657b03fbdba8","66577cb94d3e3430efe167fd","3544","stimuli/2111001.jpg","2","","prediction_trial","1","","false","","2","false","true","false","false","false","false","[1,0,2]","111","001","0","","","","","","",""
"","","","","","image-keyboard-response","79","499706","0.0-54.0","612e1df9913c996adb2a42a6","665500ab8938657b03fbdba8","66577cb94d3e3430efe167fd","3451","stimuli/21110011.jpg"," ","","feedback_trial","1","","","","","","","","","","","","","","","","","","","","",""
"","","","","","image-keyboard-response","80","501422","0.0-55.0","612e1df9913c996adb2a42a6","665500ab8938657b03fbdba8","66577cb94d3e3430efe167fd","1714","stimuli/1000100.jpg","1","","prediction_trial","1","","true","","1","true","true","true","true","true","true","[1]","000","100","1","","","","","","",""
"","","","","","image-keyboard-response","81","502148","0.0-56.0","612e1df9913c996adb2a42a6","665500ab8938657b03fbdba8","66577cb94d3e3430efe167fd","724","stimuli/10001001.jpg"," ","","feedback_trial","1","","","","","","","","","","","","","","","","","","","","",""
"","","","","","image-keyboard-response","82","503215","0.0-57.0","612e1df9913c996adb2a42a6","665500ab8938657b03fbdba8","66577cb94d3e3430efe167fd","1067","stimuli/2011100.jpg","2","","prediction_trial","2","","true","","2","true","true","false","false","false","false","[2,1]","011","100","1","","","","","","",""
"","","","","","image-keyboard-response","83","503843","0.0-58.0","612e1df9913c996adb2a42a6","665500ab8938657b03fbdba8","66577cb94d3e3430efe167fd","627","stimuli/20111002.jpg"," ","","feedback_trial","2","","","","","","","","","","","","","","","","","","","","",""
"","","","","","image-keyboard-response","84","505875","0.0-59.0","612e1df9913c996adb2a42a6","665500ab8938657b03fbdba8","66577cb94d3e3430efe167fd","2030","stimuli/0101011.jpg","0","","prediction_trial","0","","true","","0","true","true","false","false","false","false","[2,0]","101","011","1","","","","","","",""
"","","","","","image-keyboard-response","85","507302","0.0-60.0","612e1df9913c996adb2a42a6","665500ab8938657b03fbdba8","66577cb94d3e3430efe167fd","1426","stimuli/01010110.jpg"," ","","feedback_trial","2","","","","","","","","","","","","","","","","","","","","",""
"","","","","","image-keyboard-response","86","509653","0.0-61.0","612e1df9913c996adb2a42a6","665500ab8938657b03fbdba8","66577cb94d3e3430efe167fd","2349","stimuli/2101101.jpg","2","","prediction_trial","0","","false","","2","false","false","false","false","false","false","[2,0]","101","101","0","","","","","","",""
"","","","","","image-keyboard-response","87","511355","0.0-62.0","612e1df9913c996adb2a42a6","665500ab8938657b03fbdba8","66577cb94d3e3430efe167fd","1701","stimuli/21011010.jpg"," ","","feedback_trial","2","","","","","","","","","","","","","","","","","","","","",""
"","","","","","image-keyboard-response","88","513196","0.0-63.0","612e1df9913c996adb2a42a6","665500ab8938657b03fbdba8","66577cb94d3e3430efe167fd","1841","stimuli/1000010.jpg","1","","prediction_trial","1","","true","","1","false","true","true","true","false","true","[1]","000","010","1","","","","","","",""
"","","","","","image-keyboard-response","89","513968","0.0-64.0","612e1df9913c996adb2a42a6","665500ab8938657b03fbdba8","66577cb94d3e3430efe167fd","771","stimuli/10000101.jpg"," ","","feedback_trial","1","","","","","","","","","","","","","","","","","","","","",""
"","","","","","image-keyboard-response","90","517679","0.0-65.0","612e1df9913c996adb2a42a6","665500ab8938657b03fbdba8","66577cb94d3e3430efe167fd","3710","stimuli/0011101.jpg","0","","prediction_trial","0","","true","","0","false","false","true","true","false","false","[0]","011","101","1","","","","","","",""
"","","","","","image-keyboard-response","91","518350","0.0-66.0","612e1df9913c996adb2a42a6","665500ab8938657b03fbdba8","66577cb94d3e3430efe167fd","670","stimuli/00111010.jpg"," ","","feedback_trial","0","","","","","","","","","","","","","","","","","","","","",""
"","","","","","image-keyboard-response","92","520922","0.0-67.0","612e1df9913c996adb2a42a6","665500ab8938657b03fbdba8","66577cb94d3e3430efe167fd","2570","stimuli/2001011.jpg","2","","prediction_trial","2","","true","","2","false","false","false","true","false","false","[2]","001","011","1","","","","","","",""
"","","","","","image-keyboard-response","93","521565","0.0-68.0","612e1df9913c996adb2a42a6","665500ab8938657b03fbdba8","66577cb94d3e3430efe167fd","642","stimuli/20010112.jpg"," ","","feedback_trial","2","","","","","","","","","","","","","","","","","","","","",""
"","","","","","image-keyboard-response","94","523321","0.0-69.0","612e1df9913c996adb2a42a6","665500ab8938657b03fbdba8","66577cb94d3e3430efe167fd","1756","stimuli/0110110.jpg","1","","prediction_trial","0","","false","","0","false","false","false","false","false","false","[1,0]","110","110","0","","","","","","",""
"","","","","","image-keyboard-response","95","524143","0.0-70.0","612e1df9913c996adb2a42a6","665500ab8938657b03fbdba8","66577cb94d3e3430efe167fd","821","stimuli/01101100.jpg"," ","","feedback_trial","1","","","","","","","","","","","","","","","","","","","","",""
"","","","","","image-keyboard-response","96","526160","0.0-71.0","612e1df9913c996adb2a42a6","665500ab8938657b03fbdba8","66577cb94d3e3430efe167fd","2016","stimuli/1011011.jpg","1","","prediction_trial","2","","false","","1","false","false","false","false","false","false","[1,2]","011","011","0","","","","","","",""
"","","","","","image-keyboard-response","97","526723","0.0-72.0","612e1df9913c996adb2a42a6","665500ab8938657b03fbdba8","66577cb94d3e3430efe167fd","561","stimuli/10110112.jpg"," ","","feedback_trial","1","","","","","","","","","","","","","","","","","","","","",""
"","","","","","image-keyboard-response","98","527780","0.0-73.0","612e1df9913c996adb2a42a6","665500ab8938657b03fbdba8","66577cb94d3e3430efe167fd","1057","stimuli/2110110.jpg","2","","prediction_trial","2","","true","","2","true","true","true","true","true","true","[2]","110","110","1","","","","","","",""
"","","","","","image-keyboard-response","99","528822","0.0-74.0","612e1df9913c996adb2a42a6","665500ab8938657b03fbdba8","66577cb94d3e3430efe167fd","1041","stimuli/21101102.jpg"," ","","feedback_trial","2","","","","","","","","","","","","","","","","","","","","",""
"","","","","","image-keyboard-response","100","531002","0.0-75.0","612e1df9913c996adb2a42a6","665500ab8938657b03fbdba8","66577cb94d3e3430efe167fd","2179","stimuli/2000101.jpg","0","","prediction_trial","2","","false","","2","false","false","true","true","false","false","[2]","000","101","0","","","","","","",""
"","","","","","image-keyboard-response","101","531891","0.0-76.0","612e1df9913c996adb2a42a6","665500ab8938657b03fbdba8","66577cb94d3e3430efe167fd","888","stimuli/20001012.jpg"," ","","feedback_trial","2","","","","","","","","","","","","","","","","","","","","",""
"","","","","","image-keyboard-response","102","532961","0.0-77.0","612e1df9913c996adb2a42a6","665500ab8938657b03fbdba8","66577cb94d3e3430efe167fd","1069","stimuli/1010100.jpg","1","","prediction_trial","1","","true","","1","true","true","false","true","false","true","[1]","010","100","1","","","","","","",""
"","","","","","image-keyboard-response","103","533805","0.0-78.0","612e1df9913c996adb2a42a6","665500ab8938657b03fbdba8","66577cb94d3e3430efe167fd","843","stimuli/10101001.jpg"," ","","feedback_trial","1","","","","","","","","","","","","","","","","","","","","",""
"","","","","","image-keyboard-response","104","536336","0.0-79.0","612e1df9913c996adb2a42a6","665500ab8938657b03fbdba8","66577cb94d3e3430efe167fd","2529","stimuli/1110010.jpg","1","","prediction_trial","1","","true","","1","false","true","false","false","false","false","[1,0]","110","010","1","","","","","","",""
"","","","","","image-keyboard-response","105","537098","0.0-80.0","612e1df9913c996adb2a42a6","665500ab8938657b03fbdba8","66577cb94d3e3430efe167fd","761","stimuli/11100101.jpg"," ","","feedback_trial","1","","","","","","","","","","","","","","","","","","","","",""
"","","","","","image-keyboard-response","106","538778","0.0-81.0","612e1df9913c996adb2a42a6","665500ab8938657b03fbdba8","66577cb94d3e3430efe167fd","1680","stimuli/1111111.jpg","2","","prediction_trial","0","","false","","1","false","false","false","false","false","false","[2,1,0]","111","111","0","","","","","","",""
"","","","","","image-keyboard-response","107","539582","0.0-82.0","612e1df9913c996adb2a42a6","665500ab8938657b03fbdba8","66577cb94d3e3430efe167fd","802","stimuli/11111110.jpg"," ","","feedback_trial","2","","","","","","","","","","","","","","","","","","","","",""
"","","","","","image-keyboard-response","108","544006","0.0-83.0","612e1df9913c996adb2a42a6","665500ab8938657b03fbdba8","66577cb94d3e3430efe167fd","4424","stimuli/0010100.jpg","0","","prediction_trial","0","","true","","0","false","true","true","true","false","true","[0]","010","100","1","","","","","","",""
"","","","","","image-keyboard-response","109","545064","0.0-84.0","612e1df9913c996adb2a42a6","665500ab8938657b03fbdba8","66577cb94d3e3430efe167fd","1057","stimuli/00101000.jpg"," ","","feedback_trial","0","","","","","","","","","","","","","","","","","","","","",""
"","","","","","image-keyboard-response","110","547539","0.0-85.0","612e1df9913c996adb2a42a6","665500ab8938657b03fbdba8","66577cb94d3e3430efe167fd","2474","stimuli/2000001.jpg","2","","prediction_trial","2","","true","","2","false","true","true","true","false","true","[2]","000","001","1","","","","","","",""
"","","","","","image-keyboard-response","111","548402","0.0-86.0","612e1df9913c996adb2a42a6","665500ab8938657b03fbdba8","66577cb94d3e3430efe167fd","862","stimuli/20000012.jpg"," ","","feedback_trial","2","","","","","","","","","","","","","","","","","","","","",""
"","","","","","image-keyboard-response","112","553131","0.0-87.0","612e1df9913c996adb2a42a6","665500ab8938657b03fbdba8","66577cb94d3e3430efe167fd","4728","stimuli/2010011.jpg","1","","prediction_trial","2","","false","","2","false","false","true","true","false","false","[2]","010","011","0","","","","","","",""
"","","","","","image-keyboard-response","113","554124","0.0-88.0","612e1df9913c996adb2a42a6","665500ab8938657b03fbdba8","66577cb94d3e3430efe167fd","992","stimuli/20100112.jpg"," ","","feedback_trial","2","","","","","","","","","","","","","","","","","","","","",""
"","","","","","image-keyboard-response","114","559197","0.0-89.0","612e1df9913c996adb2a42a6","665500ab8938657b03fbdba8","66577cb94d3e3430efe167fd","5068","stimuli/2111011.jpg","1","","prediction_trial","0","","false","","2","false","false","false","false","false","false","[1,0,2]","111","011","0","","","","","","",""
"","","","","","image-keyboard-response","115","559950","0.0-90.0","612e1df9913c996adb2a42a6","665500ab8938657b03fbdba8","66577cb94d3e3430efe167fd","751","stimuli/21110110.jpg"," ","","feedback_trial","1","","","","","","","","","","","","","","","","","","","","",""
"","","","","","image-keyboard-response","116","561360","0.0-91.0","612e1df9913c996adb2a42a6","665500ab8938657b03fbdba8","66577cb94d3e3430efe167fd","1410","stimuli/0010001.jpg","0","","prediction_trial","0","","true","","0","true","true","true","true","true","true","[0]","010","001","1","","","","","","",""
"","","","","","image-keyboard-response","117","562359","0.0-92.0","612e1df9913c996adb2a42a6","665500ab8938657b03fbdba8","66577cb94d3e3430efe167fd","998","stimuli/00100010.jpg"," ","","feedback_trial","0","","","","","","","","","","","","","","","","","","","","",""
"","","","","","image-keyboard-response","118","563210","0.0-93.0","612e1df9913c996adb2a42a6","665500ab8938657b03fbdba8","66577cb94d3e3430efe167fd","850","stimuli/1001101.jpg","1","","prediction_trial","1","","true","","1","true","true","true","true","true","true","[1]","001","101","1","","","","","","",""
"","","","","","image-keyboard-response","119","563763","0.0-94.0","612e1df9913c996adb2a42a6","665500ab8938657b03fbdba8","66577cb94d3e3430efe167fd","552","stimuli/10011011.jpg"," ","","feedback_trial","1","","","","","","","","","","","","","","","","","","","","",""
"","","","","","image-keyboard-response","120","564655","0.0-95.0","612e1df9913c996adb2a42a6","665500ab8938657b03fbdba8","66577cb94d3e3430efe167fd","891","stimuli/2110100.jpg","2","","prediction_trial","2","","true","","2","true","true","true","true","true","true","[2]","110","100","1","","","","","","",""
"","","","","","image-keyboard-response","121","565272","0.0-96.0","612e1df9913c996adb2a42a6","665500ab8938657b03fbdba8","66577cb94d3e3430efe167fd","616","stimuli/21101002.jpg"," ","","feedback_trial","2","","","","","","","","","","","","","","","","","","","","",""
"","","","","","image-keyboard-response","122","566989","0.0-97.0","612e1df9913c996adb2a42a6","665500ab8938657b03fbdba8","66577cb94d3e3430efe167fd","1717","stimuli/0011001.jpg","0","","prediction_trial","0","","true","","0","true","true","true","true","true","true","[0]","011","001","1","","","","","","",""
"","","","","","image-keyboard-response","123","567523","0.0-98.0","612e1df9913c996adb2a42a6","665500ab8938657b03fbdba8","66577cb94d3e3430efe167fd","532","stimuli/00110010.jpg"," ","","feedback_trial","0","","","","","","","","","","","","","","","","","","","","",""
"","","","","","image-keyboard-response","124","569164","0.0-99.0","612e1df9913c996adb2a42a6","665500ab8938657b03fbdba8","66577cb94d3e3430efe167fd","1640","stimuli/1101010.jpg","1","","prediction_trial","1","","true","","1","false","true","true","true","false","true","[1]","101","010","1","","","","","","",""
"","","","","","image-keyboard-response","125","569796","0.0-100.0","612e1df9913c996adb2a42a6","665500ab8938657b03fbdba8","66577cb94d3e3430efe167fd","631","stimuli/11010101.jpg"," ","","feedback_trial","1","","","","","","","","","","","","","","","","","","","","",""
"","","","","","image-keyboard-response","126","571407","0.0-101.0","612e1df9913c996adb2a42a6","665500ab8938657b03fbdba8","66577cb94d3e3430efe167fd","1610","stimuli/1001110.jpg","0","","prediction_trial","1","","false","","1","false","false","true","true","false","false","[1]","001","110","0","","","","","","",""
"","","","","","image-keyboard-response","127","572277","0.0-102.0","612e1df9913c996adb2a42a6","665500ab8938657b03fbdba8","66577cb94d3e3430efe167fd","869","stimuli/10011101.jpg"," ","","feedback_trial","1","","","","","","","","","","","","","","","","","","","","",""
"","","","","","image-keyboard-response","128","573581","0.0-103.0","612e1df9913c996adb2a42a6","665500ab8938657b03fbdba8","66577cb94d3e3430efe167fd","1303","stimuli/0011110.jpg","1","","prediction_trial","0","","false","","0","false","false","true","true","false","false","[0]","011","110","0","","","","","","",""
"","","","","","image-keyboard-response","129","574484","0.0-104.0","612e1df9913c996adb2a42a6","665500ab8938657b03fbdba8","66577cb94d3e3430efe167fd","902","stimuli/00111100.jpg"," ","","feedback_trial","0","","","","","","","","","","","","","","","","","","","","",""
"","","","","","image-keyboard-response","130","576270","0.0-105.0","612e1df9913c996adb2a42a6","665500ab8938657b03fbdba8","66577cb94d3e3430efe167fd","1785","stimuli/1011111.jpg","2","","prediction_trial","1","","false","","1","false","false","false","false","false","false","[1,2]","011","111","0","","","","","","",""
"","","","","","image-keyboard-response","131","576957","0.0-106.0","612e1df9913c996adb2a42a6","665500ab8938657b03fbdba8","66577cb94d3e3430efe167fd","687","stimuli/10111111.jpg"," ","","feedback_trial","1","","","","","","","","","","","","","","","","","","","","",""
"","","","","","image-keyboard-response","132","578368","0.0-107.0","612e1df9913c996adb2a42a6","665500ab8938657b03fbdba8","66577cb94d3e3430efe167fd","1411","stimuli/2001111.jpg","2","","prediction_trial","2","","true","","2","false","false","false","true","false","false","[2]","001","111","1","","","","","","",""
"","","","","","image-keyboard-response","133","578941","0.0-108.0","612e1df9913c996adb2a42a6","665500ab8938657b03fbdba8","66577cb94d3e3430efe167fd","573","stimuli/20011112.jpg"," ","","feedback_trial","2","","","","","","","","","","","","","","","","","","","","",""
"","","","","","image-keyboard-response","134","580782","0.0-109.0","612e1df9913c996adb2a42a6","665500ab8938657b03fbdba8","66577cb94d3e3430efe167fd","1839","stimuli/2011000.jpg","2","","prediction_trial","1","","false","","2","true","true","false","false","false","false","[2,1]","011","000","0","","","","","","",""
"","","","","","image-keyboard-response","135","581185","0.0-110.0","612e1df9913c996adb2a42a6","665500ab8938657b03fbdba8","66577cb94d3e3430efe167fd","402","stimuli/20110001.jpg"," ","","feedback_trial","2","","","","","","","","","","","","","","","","","","","","",""
"","","","","","image-keyboard-response","136","582277","0.0-111.0","612e1df9913c996adb2a42a6","665500ab8938657b03fbdba8","66577cb94d3e3430efe167fd","1091","stimuli/1011100.jpg","1","","prediction_trial","2","","false","","1","true","true","false","false","false","false","[2,1]","011","100","0","","","","","","",""
"","","","","","image-keyboard-response","137","586273","0.0-112.0","612e1df9913c996adb2a42a6","665500ab8938657b03fbdba8","66577cb94d3e3430efe167fd","3995","stimuli/10111002.jpg"," ","","feedback_trial","2","","","","","","","","","","","","","","","","","","","","",""
"","","","","","image-keyboard-response","138","588758","0.0-113.0","612e1df9913c996adb2a42a6","665500ab8938657b03fbdba8","66577cb94d3e3430efe167fd","2485","stimuli/1011001.jpg","1","","prediction_trial","2","","false","","1","true","true","false","false","false","false","[2,1]","011","001","0","","","","","","",""
"","","","","","image-keyboard-response","139","592818","0.0-114.0","612e1df9913c996adb2a42a6","665500ab8938657b03fbdba8","66577cb94d3e3430efe167fd","4059","stimuli/10110012.jpg"," ","","feedback_trial","2","","","","","","","","","","","","","","","","","","","","",""
"","","","","","image-keyboard-response","140","596094","0.0-115.0","612e1df9913c996adb2a42a6","665500ab8938657b03fbdba8","66577cb94d3e3430efe167fd","3275","stimuli/0111000.jpg","0","","prediction_trial","1","","false","","0","true","true","false","false","false","false","[1,0,2]","111","000","0","","","","","","",""
"","","","","","image-keyboard-response","141","603533","0.0-116.0","612e1df9913c996adb2a42a6","665500ab8938657b03fbdba8","66577cb94d3e3430efe167fd","7438","stimuli/01110001.jpg"," ","","feedback_trial","1","","","","","","","","","","","","","","","","","","","","",""
"","","","","","image-keyboard-response","142","605708","0.0-117.0","612e1df9913c996adb2a42a6","665500ab8938657b03fbdba8","66577cb94d3e3430efe167fd","2174","stimuli/1101001.jpg","1","","prediction_trial","1","","true","","1","true","true","true","true","true","true","[1]","101","001","1","","","","","","",""
"","","","","","image-keyboard-response","143","606471","0.0-118.0","612e1df9913c996adb2a42a6","665500ab8938657b03fbdba8","66577cb94d3e3430efe167fd","762","stimuli/11010011.jpg"," ","","feedback_trial","1","","","","","","","","","","","","","","","","","","","","",""
"","","","","","image-keyboard-response","144","608496","0.0-119.0","612e1df9913c996adb2a42a6","665500ab8938657b03fbdba8","66577cb94d3e3430efe167fd","2025","stimuli/0010000.jpg","0","","prediction_trial","0","","true","","0","true","true","true","true","true","true","[0]","010","000","1","","","","","","",""
"","","","","","image-keyboard-response","145","609458","0.0-120.0","612e1df9913c996adb2a42a6","665500ab8938657b03fbdba8","66577cb94d3e3430efe167fd","961","stimuli/00100000.jpg"," ","","feedback_trial","0","","","","","","","","","","","","","","","","","","","","",""
"","","","","","image-keyboard-response","146","611450","0.0-121.0","612e1df9913c996adb2a42a6","665500ab8938657b03fbdba8","66577cb94d3e3430efe167fd","1991","stimuli/0000110.jpg","0","","prediction_trial","0","","true","","0","false","false","true","true","false","false","[0]","000","110","1","","","","","","",""
"","","","","","image-keyboard-response","147","612788","0.0-122.0","612e1df9913c996adb2a42a6","665500ab8938657b03fbdba8","66577cb94d3e3430efe167fd","1337","stimuli/00001100.jpg"," ","","feedback_trial","0","","","","","","","","","","","","","","","","","","","","",""
"","","","","","image-keyboard-response","148","616217","0.0-123.0","612e1df9913c996adb2a42a6","665500ab8938657b03fbdba8","66577cb94d3e3430efe167fd","3428","stimuli/2010101.jpg","2","","prediction_trial","2","","true","","2","false","false","true","true","false","false","[2]","010","101","1","","","","","","",""
"","","","","","image-keyboard-response","149","616952","0.0-124.0","612e1df9913c996adb2a42a6","665500ab8938657b03fbdba8","66577cb94d3e3430efe167fd","734","stimuli/20101012.jpg"," ","","feedback_trial","2","","","","","","","","","","","","","","","","","","","","",""
"","","","","","image-keyboard-response","150","618797","0.0-125.0","612e1df9913c996adb2a42a6","665500ab8938657b03fbdba8","66577cb94d3e3430efe167fd","1844","stimuli/1101110.jpg","1","","prediction_trial","1","","true","","1","false","false","true","true","false","false","[1]","101","110","1","","","","","","",""
"","","","","","image-keyboard-response","151","619529","0.0-126.0","612e1df9913c996adb2a42a6","665500ab8938657b03fbdba8","66577cb94d3e3430efe167fd","732","stimuli/11011101.jpg"," ","","feedback_trial","1","","","","","","","","","","","","","","","","","","","","",""
"","","","","","image-keyboard-response","152","622136","0.0-127.0","612e1df9913c996adb2a42a6","665500ab8938657b03fbdba8","66577cb94d3e3430efe167fd","2605","stimuli/2001000.jpg","2","","prediction_trial","2","","true","","2","true","true","false","true","false","true","[2]","001","000","1","","","","","","",""
"","","","","","image-keyboard-response","153","622666","0.0-128.0","612e1df9913c996adb2a42a6","665500ab8938657b03fbdba8","66577cb94d3e3430efe167fd","530","stimuli/20010002.jpg"," ","","feedback_trial","2","","","","","","","","","","","","","","","","","","","","",""
"","","","","","image-keyboard-response","154","624353","0.0-129.0","612e1df9913c996adb2a42a6","665500ab8938657b03fbdba8","66577cb94d3e3430efe167fd","1687","stimuli/0000001.jpg","0","","prediction_trial","0","","true","","0","true","true","true","true","true","true","[0]","000","001","1","","","","","","",""
"","","","","","image-keyboard-response","155","624956","0.0-130.0","612e1df9913c996adb2a42a6","665500ab8938657b03fbdba8","66577cb94d3e3430efe167fd","602","stimuli/00000010.jpg"," ","","feedback_trial","0","","","","","","","","","","","","","","","","","","","","",""
"","","","","","image-keyboard-response","156","626517","0.0-131.0","612e1df9913c996adb2a42a6","665500ab8938657b03fbdba8","66577cb94d3e3430efe167fd","1559","stimuli/2100011.jpg","1","","prediction_trial","2","","false","","2","false","false","true","true","false","false","[2]","100","011","0","","","","","","",""
"","","","","","image-keyboard-response","157","627245","0.0-132.0","612e1df9913c996adb2a42a6","665500ab8938657b03fbdba8","66577cb94d3e3430efe167fd","728","stimuli/21000112.jpg"," ","","feedback_trial","2","","","","","","","","","","","","","","","","","","","","",""
"","","","","","image-keyboard-response","158","629315","0.0-133.0","612e1df9913c996adb2a42a6","665500ab8938657b03fbdba8","66577cb94d3e3430efe167fd","2069","stimuli/1010110.jpg","0","","prediction_trial","1","","false","","1","false","false","false","true","false","false","[1]","010","110","0","","","","","","",""
"","","","","","image-keyboard-response","159","630078","0.0-134.0","612e1df9913c996adb2a42a6","665500ab8938657b03fbdba8","66577cb94d3e3430efe167fd","763","stimuli/10101101.jpg"," ","","feedback_trial","1","","","","","","","","","","","","","","","","","","","","",""
"","","","","","image-keyboard-response","160","631949","0.0-135.0","612e1df9913c996adb2a42a6","665500ab8938657b03fbdba8","66577cb94d3e3430efe167fd","1870","stimuli/2101110.jpg","2","","prediction_trial","0","","false","","2","true","true","false","false","false","false","[2,0]","101","110","0","","","","","","",""
"","","","","","image-keyboard-response","161","638314","0.0-136.0","612e1df9913c996adb2a42a6","665500ab8938657b03fbdba8","66577cb94d3e3430efe167fd","6364","stimuli/21011100.jpg"," ","","feedback_trial","2","","","","","","","","","","","","","","","","","","","","",""
"","","","","","image-keyboard-response","162","639559","0.0-137.0","612e1df9913c996adb2a42a6","665500ab8938657b03fbdba8","66577cb94d3e3430efe167fd","1244","stimuli/2101010.jpg","2","","prediction_trial","0","","false","","2","true","true","false","false","false","false","[0,2]","101","010","0","","","","","","",""
"","","","","","image-keyboard-response","163","644221","0.0-138.0","612e1df9913c996adb2a42a6","665500ab8938657b03fbdba8","66577cb94d3e3430efe167fd","4660","stimuli/21010100.jpg"," ","","feedback_trial","0","","","","","","","","","","","","","","","","","","","","",""
"","","","","","image-keyboard-response","164","646327","0.0-139.0","612e1df9913c996adb2a42a6","665500ab8938657b03fbdba8","66577cb94d3e3430efe167fd","2105","stimuli/2111100.jpg","2","","prediction_trial","1","","false","","2","true","true","false","false","false","false","[2,0,1]","111","100","0","","","","","","",""
"","","","","","image-keyboard-response","165","648713","0.0-140.0","612e1df9913c996adb2a42a6","665500ab8938657b03fbdba8","66577cb94d3e3430efe167fd","2386","stimuli/21111001.jpg"," ","","feedback_trial","2","","","","","","","","","","","","","","","","","","","","",""
"","","","","","image-keyboard-response","166","653312","0.0-141.0","612e1df9913c996adb2a42a6","665500ab8938657b03fbdba8","66577cb94d3e3430efe167fd","4598","stimuli/1100110.jpg","1","","prediction_trial","1","","true","","1","false","false","true","true","false","false","[1]","100","110","1","","","","","","",""
"","","","","","image-keyboard-response","167","654120","0.0-142.0","612e1df9913c996adb2a42a6","665500ab8938657b03fbdba8","66577cb94d3e3430efe167fd","807","stimuli/11001101.jpg"," ","","feedback_trial","1","","","","","","","","","","","","","","","","","","","","",""
"","","","","","image-keyboard-response","168","655921","0.0-143.0","612e1df9913c996adb2a42a6","665500ab8938657b03fbdba8","66577cb94d3e3430efe167fd","1799","stimuli/2010100.jpg","2","","prediction_trial","2","","true","","2","true","true","true","true","true","true","[2]","010","100","1","","","","","","",""
"","","","","","image-keyboard-response","169","656724","0.0-144.0","612e1df9913c996adb2a42a6","665500ab8938657b03fbdba8","66577cb94d3e3430efe167fd","802","stimuli/20101002.jpg"," ","","feedback_trial","2","","","","","","","","","","","","","","","","","","","","",""
"","","","","","image-keyboard-response","170","658901","0.0-145.0","612e1df9913c996adb2a42a6","665500ab8938657b03fbdba8","66577cb94d3e3430efe167fd","2176","stimuli/2111000.jpg","2","","prediction_trial","0","","false","","2","true","true","false","false","false","false","[1,2,0]","111","000","0","","","","","","",""
"","","","","","image-keyboard-response","171","791785","0.0-146.0","612e1df9913c996adb2a42a6","665500ab8938657b03fbdba8","66577cb94d3e3430efe167fd","132888","stimuli/21110000.jpg"," ","","feedback_trial","1","","","","","","","","","","","","","","","","","","","","",""
"","","","","","image-keyboard-response","172","794375","0.0-147.0","612e1df9913c996adb2a42a6","665500ab8938657b03fbdba8","66577cb94d3e3430efe167fd","2589","stimuli/1010011.jpg","1","","prediction_trial","1","","true","","1","false","false","false","true","false","false","[1]","010","011","1","","","","","","",""
"","","","","","image-keyboard-response","173","795379","0.0-148.0","612e1df9913c996adb2a42a6","665500ab8938657b03fbdba8","66577cb94d3e3430efe167fd","1003","stimuli/10100111.jpg"," ","","feedback_trial","1","","","","","","","","","","","","","","","","","","","","",""
"","","","","","image-keyboard-response","174","797624","0.0-149.0","612e1df9913c996adb2a42a6","665500ab8938657b03fbdba8","66577cb94d3e3430efe167fd","2244","stimuli/0001011.jpg","0","","prediction_trial","0","","true","","0","true","true","true","true","true","true","[0]","001","011","1","","","","","","",""
"","","","","","image-keyboard-response","175","798702","0.0-150.0","612e1df9913c996adb2a42a6","665500ab8938657b03fbdba8","66577cb94d3e3430efe167fd","1077","stimuli/00010110.jpg"," ","","feedback_trial","0","","","","","","","","","","","","","","","","","","","","",""
"","","","","","image-keyboard-response","176","800637","0.0-151.0","612e1df9913c996adb2a42a6","665500ab8938657b03fbdba8","66577cb94d3e3430efe167fd","1934","stimuli/0000101.jpg","2","","prediction_trial","0","","false","","0","false","false","true","true","false","false","[0]","000","101","0","","","","","","",""
"","","","","","image-keyboard-response","177","802935","0.0-152.0","612e1df9913c996adb2a42a6","665500ab8938657b03fbdba8","66577cb94d3e3430efe167fd","2297","stimuli/00001010.jpg"," ","","feedback_trial","0","","","","","","","","","","","","","","","","","","","","",""
"","","","","","image-keyboard-response","178","805374","0.0-153.0","612e1df9913c996adb2a42a6","665500ab8938657b03fbdba8","66577cb94d3e3430efe167fd","2438","stimuli/0111010.jpg","2","","prediction_trial","1","","false","","0","true","true","false","false","false","false","[1,0,2]","111","010","0","","","","","","",""
"","","","","","image-keyboard-response","179","809231","0.0-154.0","612e1df9913c996adb2a42a6","665500ab8938657b03fbdba8","66577cb94d3e3430efe167fd","3856","stimuli/01110101.jpg"," ","","feedback_trial","1","","","","","","","","","","","","","","","","","","","","",""
"","","","","","image-keyboard-response","180","810842","0.0-155.0","612e1df9913c996adb2a42a6","665500ab8938657b03fbdba8","66577cb94d3e3430efe167fd","1610","stimuli/2110111.jpg","2","","prediction_trial","2","","true","","2","false","false","true","true","false","false","[2]","110","111","1","","","","","","",""
"","","","","","image-keyboard-response","181","812449","0.0-156.0","612e1df9913c996adb2a42a6","665500ab8938657b03fbdba8","66577cb94d3e3430efe167fd","1607","stimuli/21101112.jpg"," ","","feedback_trial","2","","","","","","","","","","","","","","","","","","","","",""
"","","","","","image-keyboard-response","182","813811","0.0-157.0","612e1df9913c996adb2a42a6","665500ab8938657b03fbdba8","66577cb94d3e3430efe167fd","1361","stimuli/1110100.jpg","1","","prediction_trial","1","","true","","1","true","true","false","false","false","false","[0,1]","110","100","1","","","","","","",""
"","","","","","image-keyboard-response","183","814514","0.0-158.0","612e1df9913c996adb2a42a6","665500ab8938657b03fbdba8","66577cb94d3e3430efe167fd","701","stimuli/11101001.jpg"," ","","feedback_trial","0","","","","","","","","","","","","","","","","","","","","",""
"","","","","","image-keyboard-response","184","816579","0.0-159.0","612e1df9913c996adb2a42a6","665500ab8938657b03fbdba8","66577cb94d3e3430efe167fd","2065","stimuli/1110011.jpg","1","","prediction_trial","0","","false","","1","false","false","false","false","false","false","[1,0]","110","011","0","","","","","","",""
"","","","","","image-keyboard-response","185","817537","0.0-160.0","612e1df9913c996adb2a42a6","665500ab8938657b03fbdba8","66577cb94d3e3430efe167fd","957","stimuli/11100110.jpg"," ","","feedback_trial","1","","","","","","","","","","","","","","","","","","","","",""
"","","","","","image-keyboard-response","186","819492","0.0-161.0","612e1df9913c996adb2a42a6","665500ab8938657b03fbdba8","66577cb94d3e3430efe167fd","1954","stimuli/0010111.jpg","1","","prediction_trial","0","","false","","0","false","false","true","true","false","false","[0]","010","111","0","","","","","","",""
"","","","","","image-keyboard-response","187","821095","0.0-162.0","612e1df9913c996adb2a42a6","665500ab8938657b03fbdba8","66577cb94d3e3430efe167fd","1602","stimuli/00101110.jpg"," ","","feedback_trial","0","","","","","","","","","","","","","","","","","","","","",""
"","","","","","image-keyboard-response","188","824721","0.0-163.0","612e1df9913c996adb2a42a6","665500ab8938657b03fbdba8","66577cb94d3e3430efe167fd","3624","stimuli/0001111.jpg","2","","prediction_trial","0","","false","","0","false","false","true","true","false","false","[0]","001","111","0","","","","","","",""
"","","","","","image-keyboard-response","189","825693","0.0-164.0","612e1df9913c996adb2a42a6","665500ab8938657b03fbdba8","66577cb94d3e3430efe167fd","972","stimuli/00011110.jpg"," ","","feedback_trial","0","","","","","","","","","","","","","","","","","","","","",""
"","","","","","image-keyboard-response","190","827814","0.0-165.0","612e1df9913c996adb2a42a6","665500ab8938657b03fbdba8","66577cb94d3e3430efe167fd","2120","stimuli/0011100.jpg","0","","prediction_trial","0","","true","","0","false","true","true","true","false","true","[0]","011","100","1","","","","","","",""
"","","","","","image-keyboard-response","191","828629","0.0-166.0","612e1df9913c996adb2a42a6","665500ab8938657b03fbdba8","66577cb94d3e3430efe167fd","815","stimuli/00111000.jpg"," ","","feedback_trial","0","","","","","","","","","","","","","","","","","","","","",""
"","","","","","image-keyboard-response","192","830632","0.0-167.0","612e1df9913c996adb2a42a6","665500ab8938657b03fbdba8","66577cb94d3e3430efe167fd","2002","stimuli/1010001.jpg","1","","prediction_trial","1","","true","","1","true","true","false","true","false","true","[1]","010","001","1","","","","","","",""
"","","","","","image-keyboard-response","193","831475","0.0-168.0","612e1df9913c996adb2a42a6","665500ab8938657b03fbdba8","66577cb94d3e3430efe167fd","842","stimuli/10100011.jpg"," ","","feedback_trial","1","","","","","","","","","","","","","","","","","","","","",""
"","","","","","image-keyboard-response","194","834420","0.0-169.0","612e1df9913c996adb2a42a6","665500ab8938657b03fbdba8","66577cb94d3e3430efe167fd","2944","stimuli/2100001.jpg","2","","prediction_trial","2","","true","","2","false","true","true","true","false","true","[2]","100","001","1","","","","","","",""
"","","","","","image-keyboard-response","195","835448","0.0-170.0","612e1df9913c996adb2a42a6","665500ab8938657b03fbdba8","66577cb94d3e3430efe167fd","1027","stimuli/21000012.jpg"," ","","feedback_trial","2","","","","","","","","","","","","","","","","","","","","",""
"","","","","","image-keyboard-response","196","838683","0.0-171.0","612e1df9913c996adb2a42a6","665500ab8938657b03fbdba8","66577cb94d3e3430efe167fd","3234","stimuli/2110000.jpg","2","","prediction_trial","2","","true","","2","true","true","true","true","true","true","[2]","110","000","1","","","","","","",""
"","","","","","image-keyboard-response","197","839470","0.0-172.0","612e1df9913c996adb2a42a6","665500ab8938657b03fbdba8","66577cb94d3e3430efe167fd","786","stimuli/21100002.jpg"," ","","feedback_trial","2","","","","","","","","","","","","","","","","","","","","",""
"","","","","","image-keyboard-response","198","841127","0.0-173.0","612e1df9913c996adb2a42a6","665500ab8938657b03fbdba8","66577cb94d3e3430efe167fd","1656","stimuli/1110000.jpg","1","","prediction_trial","1","","true","","1","true","true","false","false","false","false","[1,0]","110","000","1","","","","","","",""
"","","","","","image-keyboard-response","199","841755","0.0-174.0","612e1df9913c996adb2a42a6","665500ab8938657b03fbdba8","66577cb94d3e3430efe167fd","627","stimuli/11100001.jpg"," ","","feedback_trial","1","","","","","","","","","","","","","","","","","","","","",""
"","","","","","image-keyboard-response","200","843310","0.0-175.0","612e1df9913c996adb2a42a6","665500ab8938657b03fbdba8","66577cb94d3e3430efe167fd","1554","stimuli/0101001.jpg","0","","prediction_trial","2","","false","","0","true","true","false","false","false","false","[0,2]","101","001","0","","","","","","",""
"","","","","","image-keyboard-response","201","849361","0.0-176.0","612e1df9913c996adb2a42a6","665500ab8938657b03fbdba8","66577cb94d3e3430efe167fd","6050","stimuli/01010012.jpg"," ","","feedback_trial","0","","","","","","","","","","","","","","","","","","","","",""
"","","","","","image-keyboard-response","202","851686","0.0-177.0","612e1df9913c996adb2a42a6","665500ab8938657b03fbdba8","66577cb94d3e3430efe167fd","2324","stimuli/1100010.jpg","1","","prediction_trial","1","","true","","1","false","true","true","true","false","true","[1]","100","010","1","","","","","","",""
"","","","","","image-keyboard-response","203","853023","0.0-178.0","612e1df9913c996adb2a42a6","665500ab8938657b03fbdba8","66577cb94d3e3430efe167fd","1332","stimuli/11000101.jpg"," ","","feedback_trial","1","","","","","","","","","","","","","","","","","","","","",""
"","","","","","image-keyboard-response","204","856364","0.0-179.0","612e1df9913c996adb2a42a6","665500ab8938657b03fbdba8","66577cb94d3e3430efe167fd","3340","stimuli/0100010.jpg","0","","prediction_trial","0","","true","","0","true","true","false","true","false","true","[0]","100","010","1","","","","","","",""
"","","","","","image-keyboard-response","205","857140","0.0-180.0","612e1df9913c996adb2a42a6","665500ab8938657b03fbdba8","66577cb94d3e3430efe167fd","776","stimuli/01000100.jpg"," ","","feedback_trial","0","","","","","","","","","","","","","","","","","","","","",""
"","","","","","image-keyboard-response","206","860841","0.0-181.0","612e1df9913c996adb2a42a6","665500ab8938657b03fbdba8","66577cb94d3e3430efe167fd","3699","stimuli/1110101.jpg","0","","prediction_trial","1","","false","","1","true","true","false","false","false","false","[1,0]","110","101","0","","","","","","",""
"","","","","","image-keyboard-response","207","862412","0.0-182.0","612e1df9913c996adb2a42a6","665500ab8938657b03fbdba8","66577cb94d3e3430efe167fd","1571","stimuli/11101011.jpg"," ","","feedback_trial","1","","","","","","","","","","","","","","","","","","","","",""
"","","","","","image-keyboard-response","208","864459","0.0-183.0","612e1df9913c996adb2a42a6","665500ab8938657b03fbdba8","66577cb94d3e3430efe167fd","2046","stimuli/0000011.jpg","0","","prediction_trial","0","","true","","0","true","true","true","true","true","true","[0]","000","011","1","","","","","","",""
"","","","","","image-keyboard-response","209","865321","0.0-184.0","612e1df9913c996adb2a42a6","665500ab8938657b03fbdba8","66577cb94d3e3430efe167fd","861","stimuli/00000110.jpg"," ","","feedback_trial","0","","","","","","","","","","","","","","","","","","","","",""
"","","","","","image-keyboard-response","210","867247","0.0-185.0","612e1df9913c996adb2a42a6","665500ab8938657b03fbdba8","66577cb94d3e3430efe167fd","1926","stimuli/0011000.jpg","0","","prediction_trial","0","","true","","0","true","true","true","true","true","true","[0]","011","000","1","","","","","","",""
"","","","","","image-keyboard-response","211","867814","0.0-186.0","612e1df9913c996adb2a42a6","665500ab8938657b03fbdba8","66577cb94d3e3430efe167fd","566","stimuli/00110000.jpg"," ","","feedback_trial","0","","","","","","","","","","","","","","","","","","","","",""
"","","","","","image-keyboard-response","212","869955","0.0-187.0","612e1df9913c996adb2a42a6","665500ab8938657b03fbdba8","66577cb94d3e3430efe167fd","2140","stimuli/2001100.jpg","2","","prediction_trial","2","","true","","2","true","true","false","true","false","true","[2]","001","100","1","","","","","","",""
"","","","","","image-keyboard-response","213","870938","0.0-188.0","612e1df9913c996adb2a42a6","665500ab8938657b03fbdba8","66577cb94d3e3430efe167fd","982","stimuli/20011002.jpg"," ","","feedback_trial","2","","","","","","","","","","","","","","","","","","","","",""
"","","","","","image-keyboard-response","214","872328","0.0-189.0","612e1df9913c996adb2a42a6","665500ab8938657b03fbdba8","66577cb94d3e3430efe167fd","1390","stimuli/1110001.jpg","1","","prediction_trial","0","","false","","1","true","true","false","false","false","false","[0,1]","110","001","0","","","","","","",""
"","","","","","image-keyboard-response","215","876430","0.0-190.0","612e1df9913c996adb2a42a6","665500ab8938657b03fbdba8","66577cb94d3e3430efe167fd","4100","stimuli/11100010.jpg"," ","","feedback_trial","0","","","","","","","","","","","","","","","","","","","","",""
"","","","","","image-keyboard-response","216","878015","0.0-191.0","612e1df9913c996adb2a42a6","665500ab8938657b03fbdba8","66577cb94d3e3430efe167fd","1584","stimuli/1010010.jpg","1","","prediction_trial","1","","true","","1","false","true","false","true","false","true","[1]","010","010","1","","","","","","",""
"","","","","","image-keyboard-response","217","878588","0.0-192.0","612e1df9913c996adb2a42a6","665500ab8938657b03fbdba8","66577cb94d3e3430efe167fd","573","stimuli/10100101.jpg"," ","","feedback_trial","1","","","","","","","","","","","","","","","","","","","","",""
"","","","","","image-keyboard-response","218","880743","0.0-193.0","612e1df9913c996adb2a42a6","665500ab8938657b03fbdba8","66577cb94d3e3430efe167fd","2155","stimuli/2001101.jpg","2","","prediction_trial","2","","true","","2","false","false","false","true","false","false","[2]","001","101","1","","","","","","",""
"","","","","","image-keyboard-response","219","881427","0.0-194.0","612e1df9913c996adb2a42a6","665500ab8938657b03fbdba8","66577cb94d3e3430efe167fd","683","stimuli/20011012.jpg"," ","","feedback_trial","2","","","","","","","","","","","","","","","","","","","","",""
"","","","","","image-keyboard-response","220","882972","0.0-195.0","612e1df9913c996adb2a42a6","665500ab8938657b03fbdba8","66577cb94d3e3430efe167fd","1545","stimuli/1100000.jpg","1","","prediction_trial","1","","true","","1","true","true","true","true","true","true","[1]","100","000","1","","","","","","",""
"","","","","","image-keyboard-response","221","883646","0.0-196.0","612e1df9913c996adb2a42a6","665500ab8938657b03fbdba8","66577cb94d3e3430efe167fd","673","stimuli/11000001.jpg"," ","","feedback_trial","1","","","","","","","","","","","","","","","","","","","","",""
"","","","","","image-keyboard-response","222","885739","0.0-197.0","612e1df9913c996adb2a42a6","665500ab8938657b03fbdba8","66577cb94d3e3430efe167fd","2093","stimuli/0100011.jpg","1","","prediction_trial","0","","false","","0","true","true","false","true","false","true","[0]","100","011","0","","","","","","",""
"","","","","","image-keyboard-response","223","887359","0.0-198.0","612e1df9913c996adb2a42a6","665500ab8938657b03fbdba8","66577cb94d3e3430efe167fd","1618","stimuli/01000110.jpg"," ","","feedback_trial","0","","","","","","","","","","","","","","","","","","","","",""
"","","","","","image-keyboard-response","224","888906","0.0-199.0","612e1df9913c996adb2a42a6","665500ab8938657b03fbdba8","66577cb94d3e3430efe167fd","1547","stimuli/0001001.jpg","0","","prediction_trial","0","","true","","0","true","true","true","true","true","true","[0]","001","001","1","","","","","","",""
"","","","","","image-keyboard-response","225","889718","0.0-200.0","612e1df9913c996adb2a42a6","665500ab8938657b03fbdba8","66577cb94d3e3430efe167fd","811","stimuli/00010010.jpg"," ","","feedback_trial","0","","","","","","","","","","","","","","","","","","","","",""
"","","","","","image-keyboard-response","226","891758","0.0-201.0","612e1df9913c996adb2a42a6","665500ab8938657b03fbdba8","66577cb94d3e3430efe167fd","2040","stimuli/0100100.jpg","0","","prediction_trial","0","","true","","0","false","true","false","true","false","true","[0]","100","100","1","","","","","","",""
"","","","","","image-keyboard-response","227","892361","0.0-202.0","612e1df9913c996adb2a42a6","665500ab8938657b03fbdba8","66577cb94d3e3430efe167fd","602","stimuli/01001000.jpg"," ","","feedback_trial","0","","","","","","","","","","","","","","","","","","","","",""
"","","","","","image-keyboard-response","228","895707","0.0-203.0","612e1df9913c996adb2a42a6","665500ab8938657b03fbdba8","66577cb94d3e3430efe167fd","3345","stimuli/0110111.jpg","2","","prediction_trial","1","","false","","0","false","false","false","false","false","false","[1,0]","110","111","0","","","","","","",""
"","","","","","image-keyboard-response","229","896474","0.0-204.0","612e1df9913c996adb2a42a6","665500ab8938657b03fbdba8","66577cb94d3e3430efe167fd","766","stimuli/01101111.jpg"," ","","feedback_trial","1","","","","","","","","","","","","","","","","","","","","",""
"","","","","","image-keyboard-response","230","898424","0.0-205.0","612e1df9913c996adb2a42a6","665500ab8938657b03fbdba8","66577cb94d3e3430efe167fd","1950","stimuli/1001111.jpg","1","","prediction_trial","1","","true","","1","false","false","true","true","false","false","[1]","001","111","1","","","","","","",""
"","","","","","image-keyboard-response","231","899132","0.0-206.0","612e1df9913c996adb2a42a6","665500ab8938657b03fbdba8","66577cb94d3e3430efe167fd","707","stimuli/10011111.jpg"," ","","feedback_trial","1","","","","","","","","","","","","","","","","","","","","",""
"","","","","","image-keyboard-response","232","901022","0.0-207.0","612e1df9913c996adb2a42a6","665500ab8938657b03fbdba8","66577cb94d3e3430efe167fd","1889","stimuli/2101001.jpg","2","","prediction_trial","0","","false","","2","false","true","false","false","false","false","[0,2]","101","001","0","","","","","","",""
"","","","","","image-keyboard-response","233","915324","0.0-208.0","612e1df9913c996adb2a42a6","665500ab8938657b03fbdba8","66577cb94d3e3430efe167fd","14308","stimuli/21010010.jpg"," ","","feedback_trial","0","","","","","","","","","","","","","","","","","","","","",""
"","","","","","image-keyboard-response","234","918774","0.0-209.0","612e1df9913c996adb2a42a6","665500ab8938657b03fbdba8","66577cb94d3e3430efe167fd","3449","stimuli/1111010.jpg","0","","prediction_trial","2","","false","","1","false","true","false","false","false","false","[1,0,2]","111","010","0","","","","","","",""
"","","","","","image-keyboard-response","235","922984","0.0-210.0","612e1df9913c996adb2a42a6","665500ab8938657b03fbdba8","66577cb94d3e3430efe167fd","4209","stimuli/11110102.jpg"," ","","feedback_trial","1","","","","","","","","","","","","","","","","","","","","",""
"","","","","","image-keyboard-response","236","925884","0.0-211.0","612e1df9913c996adb2a42a6","665500ab8938657b03fbdba8","66577cb94d3e3430efe167fd","2899","stimuli/2100110.jpg","1","","prediction_trial","2","","false","","2","true","true","true","true","true","true","[2]","100","110","0","","","","","","",""
"","","","","","image-keyboard-response","237","926971","0.0-212.0","612e1df9913c996adb2a42a6","665500ab8938657b03fbdba8","66577cb94d3e3430efe167fd","1087","stimuli/21001102.jpg"," ","","feedback_trial","2","","","","","","","","","","","","","","","","","","","","",""
"","","","","","image-keyboard-response","238","931010","0.0-213.0","612e1df9913c996adb2a42a6","665500ab8938657b03fbdba8","66577cb94d3e3430efe167fd","4038","stimuli/2110011.jpg","0","","prediction_trial","2","","false","","2","false","false","true","true","false","false","[2]","110","011","0","","","","","","",""
"","","","","","image-keyboard-response","239","932612","0.0-214.0","612e1df9913c996adb2a42a6","665500ab8938657b03fbdba8","66577cb94d3e3430efe167fd","1601","stimuli/21100112.jpg"," ","","feedback_trial","2","","","","","","","","","","","","","","","","","","","","",""
"","","","","","image-keyboard-response","240","934732","0.0-215.0","612e1df9913c996adb2a42a6","665500ab8938657b03fbdba8","66577cb94d3e3430efe167fd","2119","stimuli/2101100.jpg","2","","prediction_trial","2","","true","","2","true","true","false","false","false","false","[0,2]","101","100","1","","","","","","",""
"","","","","","image-keyboard-response","241","935445","0.0-216.0","612e1df9913c996adb2a42a6","665500ab8938657b03fbdba8","66577cb94d3e3430efe167fd","712","stimuli/21011002.jpg"," ","","feedback_trial","0","","","","","","","","","","","","","","","","","","","","",""
"","","","","","image-keyboard-response","242","936936","0.0-217.0","612e1df9913c996adb2a42a6","665500ab8938657b03fbdba8","66577cb94d3e3430efe167fd","1491","stimuli/2000010.jpg","2","","prediction_trial","2","","true","","2","true","true","true","true","true","true","[2]","000","010","1","","","","","","",""
"","","","","","image-keyboard-response","243","937524","0.0-218.0","612e1df9913c996adb2a42a6","665500ab8938657b03fbdba8","66577cb94d3e3430efe167fd","587","stimuli/20000102.jpg"," ","","feedback_trial","2","","","","","","","","","","","","","","","","","","","","",""
"","","","","","image-keyboard-response","244","938955","0.0-219.0","612e1df9913c996adb2a42a6","665500ab8938657b03fbdba8","66577cb94d3e3430efe167fd","1430","stimuli/2000000.jpg","2","","prediction_trial","2","","true","","2","true","true","true","true","true","true","[2]","000","000","1","","","","","","",""
"","","","","","image-keyboard-response","245","939462","0.0-220.0","612e1df9913c996adb2a42a6","665500ab8938657b03fbdba8","66577cb94d3e3430efe167fd","507","stimuli/20000002.jpg"," ","","feedback_trial","2","","","","","","","","","","","","","","","","","","","","",""
"","","","","","image-keyboard-response","246","940963","0.0-221.0","612e1df9913c996adb2a42a6","665500ab8938657b03fbdba8","66577cb94d3e3430efe167fd","1500","stimuli/1100100.jpg","1","","prediction_trial","1","","true","","1","true","true","true","true","true","true","[1]","100","100","1","","","","","","",""
"","","","","","image-keyboard-response","247","941506","0.0-222.0","612e1df9913c996adb2a42a6","665500ab8938657b03fbdba8","66577cb94d3e3430efe167fd","542","stimuli/11001001.jpg"," ","","feedback_trial","1","","","","","","","","","","","","","","","","","","","","",""
"","","","","","image-keyboard-response","248","943132","0.0-223.0","612e1df9913c996adb2a42a6","665500ab8938657b03fbdba8","66577cb94d3e3430efe167fd","1625","stimuli/0111101.jpg","2","","prediction_trial","1","","false","","0","false","false","false","false","false","false","[1,2,0]","111","101","0","","","","","","",""
"","","","","","image-keyboard-response","249","943880","0.0-224.0","612e1df9913c996adb2a42a6","665500ab8938657b03fbdba8","66577cb94d3e3430efe167fd","747","stimuli/01111011.jpg"," ","","feedback_trial","1","","","","","","","","","","","","","","","","","","","","",""
"","","","","","image-keyboard-response","250","945535","0.0-225.0","612e1df9913c996adb2a42a6","665500ab8938657b03fbdba8","66577cb94d3e3430efe167fd","1655","stimuli/2011010.jpg","2","","prediction_trial","2","","true","","2","true","true","false","false","false","false","[2,1]","011","010","1","","","","","","",""
"","","","","","image-keyboard-response","251","946138","0.0-226.0","612e1df9913c996adb2a42a6","665500ab8938657b03fbdba8","66577cb94d3e3430efe167fd","602","stimuli/20110102.jpg"," ","","feedback_trial","2","","","","","","","","","","","","","","","","","","","","",""
"","","","","","image-keyboard-response","252","947744","0.0-227.0","612e1df9913c996adb2a42a6","665500ab8938657b03fbdba8","66577cb94d3e3430efe167fd","1605","stimuli/0010011.jpg","0","","prediction_trial","0","","true","","0","true","true","true","true","true","true","[0]","010","011","1","","","","","","",""
"","","","","","image-keyboard-response","253","948427","0.0-228.0","612e1df9913c996adb2a42a6","665500ab8938657b03fbdba8","66577cb94d3e3430efe167fd","682","stimuli/00100110.jpg"," ","","feedback_trial","0","","","","","","","","","","","","","","","","","","","","",""
"","","","","","image-keyboard-response","254","951941","0.0-229.0","612e1df9913c996adb2a42a6","665500ab8938657b03fbdba8","66577cb94d3e3430efe167fd","3513","stimuli/0001101.jpg","2","","prediction_trial","0","","false","","0","false","false","true","true","false","false","[0]","001","101","0","","","","","","",""
"","","","","","image-keyboard-response","255","954028","0.0-230.0","612e1df9913c996adb2a42a6","665500ab8938657b03fbdba8","66577cb94d3e3430efe167fd","2086","stimuli/00011010.jpg"," ","","feedback_trial","0","","","","","","","","","","","","","","","","","","","","",""
"","","","","","image-keyboard-response","256","1074458","0.0-231.0","612e1df9913c996adb2a42a6","665500ab8938657b03fbdba8","66577cb94d3e3430efe167fd","120421","stimuli/0111100.jpg","0","","prediction_trial","2","","false","","0","false","true","false","false","false","false","[2,0,1]","111","100","0","","","","","","",""
"","","","","","image-keyboard-response","257","1077514","0.0-232.0","612e1df9913c996adb2a42a6","665500ab8938657b03fbdba8","66577cb94d3e3430efe167fd","3055","stimuli/01111002.jpg"," ","","feedback_trial","2","","","","","","","","","","","","","","","","","","","","",""
"","","","","","image-keyboard-response","258","1079244","0.0-233.0","612e1df9913c996adb2a42a6","665500ab8938657b03fbdba8","66577cb94d3e3430efe167fd","1729","stimuli/0111110.jpg","1","","prediction_trial","2","","false","","0","false","false","false","false","false","false","[1,2,0]","111","110","0","","","","","","",""
"","","","","","image-keyboard-response","259","1079957","0.0-234.0","612e1df9913c996adb2a42a6","665500ab8938657b03fbdba8","66577cb94d3e3430efe167fd","712","stimuli/01111102.jpg"," ","","feedback_trial","1","","","","","","","","","","","","","","","","","","","","",""
"","","","","","image-keyboard-response","260","1083547","0.0-235.0","612e1df9913c996adb2a42a6","665500ab8938657b03fbdba8","66577cb94d3e3430efe167fd","3589","stimuli/2001010.jpg","2","","prediction_trial","2","","true","","2","true","true","false","true","false","true","[2]","001","010","1","","","","","","",""
"","","","","","image-keyboard-response","261","1084374","0.0-236.0","612e1df9913c996adb2a42a6","665500ab8938657b03fbdba8","66577cb94d3e3430efe167fd","826","stimuli/20010102.jpg"," ","","feedback_trial","2","","","","","","","","","","","","","","","","","","","","",""
"","","","","","image-keyboard-response","262","1085930","0.0-237.0","612e1df9913c996adb2a42a6","665500ab8938657b03fbdba8","66577cb94d3e3430efe167fd","1555","stimuli/0100001.jpg","0","","prediction_trial","0","","true","","0","true","true","false","true","false","true","[0]","100","001","1","","","","","","",""
"","","","","","image-keyboard-response","263","1088231","0.0-238.0","612e1df9913c996adb2a42a6","665500ab8938657b03fbdba8","66577cb94d3e3430efe167fd","2300","stimuli/01000010.jpg"," ","","feedback_trial","0","","","","","","","","","","","","","","","","","","","","",""
"","","","","","image-keyboard-response","264","1090466","0.0-239.0","612e1df9913c996adb2a42a6","665500ab8938657b03fbdba8","66577cb94d3e3430efe167fd","2234","stimuli/2001001.jpg","2","","prediction_trial","2","","true","","2","false","true","false","true","false","true","[2]","001","001","1","","","","","","",""
"","","","","","image-keyboard-response","265","1091175","0.0-240.0","612e1df9913c996adb2a42a6","665500ab8938657b03fbdba8","66577cb94d3e3430efe167fd","708","stimuli/20010012.jpg"," ","","feedback_trial","2","","","","","","","","","","","","","","","","","","","","",""
"","","","","","image-keyboard-response","266","1093330","0.0-241.0","612e1df9913c996adb2a42a6","665500ab8938657b03fbdba8","66577cb94d3e3430efe167fd","2154","stimuli/1010111.jpg","1","","prediction_trial","1","","true","","1","false","false","false","true","false","false","[1]","010","111","1","","","","","","",""
"","","","","","image-keyboard-response","267","1094058","0.0-242.0","612e1df9913c996adb2a42a6","665500ab8938657b03fbdba8","66577cb94d3e3430efe167fd","728","stimuli/10101111.jpg"," ","","feedback_trial","1","","","","","","","","","","","","","","","","","","","","",""
"","","","","","image-keyboard-response","268","1097063","0.0-243.0","612e1df9913c996adb2a42a6","665500ab8938657b03fbdba8","66577cb94d3e3430efe167fd","3003","stimuli/2100111.jpg","0","","prediction_trial","2","","false","","2","false","false","true","true","false","false","[2]","100","111","0","","","","","","",""
"","","","","","image-keyboard-response","269","1100303","0.0-244.0","612e1df9913c996adb2a42a6","665500ab8938657b03fbdba8","66577cb94d3e3430efe167fd","3240","stimuli/21001112.jpg"," ","","feedback_trial","2","","","","","","","","","","","","","","","","","","","","",""
"","","","","","image-keyboard-response","270","1102923","0.0-245.0","612e1df9913c996adb2a42a6","665500ab8938657b03fbdba8","66577cb94d3e3430efe167fd","2619","stimuli/1100011.jpg","2","","prediction_trial","1","","false","","1","false","false","true","true","false","false","[1]","100","011","0","","","","","","",""
"","","","","","image-keyboard-response","271","1103821","0.0-246.0","612e1df9913c996adb2a42a6","665500ab8938657b03fbdba8","66577cb94d3e3430efe167fd","897","stimuli/11000111.jpg"," ","","feedback_trial","1","","","","","","","","","","","","","","","","","","","","",""
"","","","","","image-keyboard-response","272","1106175","0.0-247.0","612e1df9913c996adb2a42a6","665500ab8938657b03fbdba8","66577cb94d3e3430efe167fd","2354","stimuli/0000111.jpg","2","","prediction_trial","0","","false","","0","false","false","true","true","false","false","[0]","000","111","0","","","","","","",""
"","","","","","image-keyboard-response","273","1106834","0.0-248.0","612e1df9913c996adb2a42a6","665500ab8938657b03fbdba8","66577cb94d3e3430efe167fd","658","stimuli/00001110.jpg"," ","","feedback_trial","0","","","","","","","","","","","","","","","","","","","","",""
"","","","","","image-keyboard-response","274","1109389","0.0-249.0","612e1df9913c996adb2a42a6","665500ab8938657b03fbdba8","66577cb94d3e3430efe167fd","2555","stimuli/0101100.jpg","0","","prediction_trial","0","","true","","0","false","true","false","false","false","false","[0,2]","101","100","1","","","","","","",""
"","","","","","image-keyboard-response","275","1110022","0.0-250.0","612e1df9913c996adb2a42a6","665500ab8938657b03fbdba8","66577cb94d3e3430efe167fd","631","stimuli/01011000.jpg"," ","","feedback_trial","0","","","","","","","","","","","","","","","","","","","","",""
"","","","","","image-keyboard-response","276","1112187","0.0-251.0","612e1df9913c996adb2a42a6","665500ab8938657b03fbdba8","66577cb94d3e3430efe167fd","2165","stimuli/1001010.jpg","1","","prediction_trial","1","","true","","1","false","true","true","true","false","true","[1]","001","010","1","","","","","","",""
"","","","","","image-keyboard-response","277","1112871","0.0-252.0","612e1df9913c996adb2a42a6","665500ab8938657b03fbdba8","66577cb94d3e3430efe167fd","683","stimuli/10010101.jpg"," ","","feedback_trial","1","","","","","","","","","","","","","","","","","","","","",""
"","","","","","image-keyboard-response","278","1114212","0.0-253.0","612e1df9913c996adb2a42a6","665500ab8938657b03fbdba8","66577cb94d3e3430efe167fd","1340","stimuli/2110010.jpg","2","","prediction_trial","2","","true","","2","true","true","true","true","true","true","[2]","110","010","1","","","","","","",""
"","","","","","image-keyboard-response","279","1116059","0.0-254.0","612e1df9913c996adb2a42a6","665500ab8938657b03fbdba8","66577cb94d3e3430efe167fd","1846","stimuli/21100102.jpg"," ","","feedback_trial","2","","","","","","","","","","","","","","","","","","","","",""
"","","","","","image-keyboard-response","280","1117415","0.0-255.0","612e1df9913c996adb2a42a6","665500ab8938657b03fbdba8","66577cb94d3e3430efe167fd","1355","stimuli/1010101.jpg","1","","prediction_trial","1","","true","","1","true","true","false","true","false","true","[1]","010","101","1","","","","","","",""
"","","","","","image-keyboard-response","281","1118027","0.0-256.0","612e1df9913c996adb2a42a6","665500ab8938657b03fbdba8","66577cb94d3e3430efe167fd","612","stimuli/10101011.jpg"," ","","feedback_trial","1","","","","","","","","","","","","","","","","","","","","",""
"","","","","","image-keyboard-response","282","1119623","0.0-257.0","612e1df9913c996adb2a42a6","665500ab8938657b03fbdba8","66577cb94d3e3430efe167fd","1595","stimuli/0110001.jpg","0","","prediction_trial","1","","false","","0","true","true","false","false","false","false","[0,1]","110","001","0","","","","","","",""
"","","","","","image-keyboard-response","283","1125263","0.0-258.0","612e1df9913c996adb2a42a6","665500ab8938657b03fbdba8","66577cb94d3e3430efe167fd","5639","stimuli/01100011.jpg"," ","","feedback_trial","0","","","","","","","","","","","","","","","","","","","","",""
"","","","","","image-keyboard-response","284","1127018","0.0-259.0","612e1df9913c996adb2a42a6","665500ab8938657b03fbdba8","66577cb94d3e3430efe167fd","1754","stimuli/2011111.jpg","1","","prediction_trial","1","","true","","2","false","false","false","false","false","false","[2,1]","011","111","1","","","","","","",""
"","","","","","image-keyboard-response","285","1127682","0.0-260.0","612e1df9913c996adb2a42a6","665500ab8938657b03fbdba8","66577cb94d3e3430efe167fd","664","stimuli/20111111.jpg"," ","","feedback_trial","2","","","","","","","","","","","","","","","","","","","","",""
"","","","","","image-keyboard-response","286","1129113","0.0-261.0","612e1df9913c996adb2a42a6","665500ab8938657b03fbdba8","66577cb94d3e3430efe167fd","1430","stimuli/0001010.jpg","0","","prediction_trial","0","","true","","0","true","true","true","true","true","true","[0]","001","010","1","","","","","","",""
"","","","","","image-keyboard-response","287","1129971","0.0-262.0","612e1df9913c996adb2a42a6","665500ab8938657b03fbdba8","66577cb94d3e3430efe167fd","857","stimuli/00010100.jpg"," ","","feedback_trial","0","","","","","","","","","","","","","","","","","","","","",""
"","","","","","image-keyboard-response","288","1131365","0.0-263.0","612e1df9913c996adb2a42a6","665500ab8938657b03fbdba8","66577cb94d3e3430efe167fd","1394","stimuli/0111001.jpg","0","","prediction_trial","2","","false","","0","true","true","false","false","false","false","[0,1,2]","111","001","0","","","","","","",""
"","","","","","image-keyboard-response","289","1132597","0.0-264.0","612e1df9913c996adb2a42a6","665500ab8938657b03fbdba8","66577cb94d3e3430efe167fd","1231","stimuli/01110012.jpg"," ","","feedback_trial","0","","","","","","","","","","","","","","","","","","","","",""
"","","","","","image-keyboard-response","290","1139254","0.0-265.0","612e1df9913c996adb2a42a6","665500ab8938657b03fbdba8","66577cb94d3e3430efe167fd","6663","stimuli/0011010.jpg","1","","prediction_trial","0","","false","","0","true","true","true","true","true","true","[0]","011","010","0","","","","","","",""
"","","","","","image-keyboard-response","291","1140846","0.0-266.0","612e1df9913c996adb2a42a6","665500ab8938657b03fbdba8","66577cb94d3e3430efe167fd","1590","stimuli/00110100.jpg"," ","","feedback_trial","0","","","","","","","","","","","","","","","","","","","","",""
"","","","","","image-keyboard-response","292","1142865","0.0-267.0","612e1df9913c996adb2a42a6","665500ab8938657b03fbdba8","66577cb94d3e3430efe167fd","2018","stimuli/1111100.jpg","1","","prediction_trial","2","","false","","1","true","true","false","false","false","false","[1,2,0]","111","100","0","","","","","","",""
"","","","","","image-keyboard-response","293","1145657","0.0-268.0","612e1df9913c996adb2a42a6","665500ab8938657b03fbdba8","66577cb94d3e3430efe167fd","2791","stimuli/11111002.jpg"," ","","feedback_trial","1","","","","","","","","","","","","","","","","","","","","",""
"","","","","","image-keyboard-response","294","1148772","0.0-269.0","612e1df9913c996adb2a42a6","665500ab8938657b03fbdba8","66577cb94d3e3430efe167fd","3114","stimuli/2000111.jpg","1","","prediction_trial","2","","false","","2","false","false","true","true","false","false","[2]","000","111","0","","","","","","",""
"","","","","","image-keyboard-response","295","1149434","0.0-270.0","612e1df9913c996adb2a42a6","665500ab8938657b03fbdba8","66577cb94d3e3430efe167fd","662","stimuli/20001112.jpg"," ","","feedback_trial","2","","","","","","","","","","","","","","","","","","","","",""
"","","","","","image-keyboard-response","296","1151844","0.0-271.0","612e1df9913c996adb2a42a6","665500ab8938657b03fbdba8","66577cb94d3e3430efe167fd","2409","stimuli/0110010.jpg","0","","prediction_trial","1","","false","","0","true","true","false","false","false","false","[1,0]","110","010","0","","","","","","",""
"","","","","","image-keyboard-response","297","1152956","0.0-272.0","612e1df9913c996adb2a42a6","665500ab8938657b03fbdba8","66577cb94d3e3430efe167fd","1111","stimuli/01100101.jpg"," ","","feedback_trial","1","","","","","","","","","","","","","","","","","","","","",""
"","","","","","image-keyboard-response","298","1154503","0.0-273.0","612e1df9913c996adb2a42a6","665500ab8938657b03fbdba8","66577cb94d3e3430efe167fd","1546","stimuli/0101110.jpg","2","","prediction_trial","0","","false","","0","false","false","false","false","false","false","[2,0]","101","110","0","","","","","","",""
"","","","","","image-keyboard-response","299","1155361","0.0-274.0","612e1df9913c996adb2a42a6","665500ab8938657b03fbdba8","66577cb94d3e3430efe167fd","857","stimuli/01011100.jpg"," ","","feedback_trial","2","","","","","","","","","","","","","","","","","","","","",""
"","","","","","image-keyboard-response","300","1156628","0.0-275.0","612e1df9913c996adb2a42a6","665500ab8938657b03fbdba8","66577cb94d3e3430efe167fd","1266","stimuli/0100000.jpg","0","","prediction_trial","0","","true","","0","true","true","false","true","false","true","[0]","100","000","1","","","","","","",""
"","","","","","image-keyboard-response","301","1157304","0.0-276.0","612e1df9913c996adb2a42a6","665500ab8938657b03fbdba8","66577cb94d3e3430efe167fd","676","stimuli/01000000.jpg"," ","","feedback_trial","0","","","","","","","","","","","","","","","","","","","","",""
"","","","","","image-keyboard-response","302","1158536","0.0-277.0","612e1df9913c996adb2a42a6","665500ab8938657b03fbdba8","66577cb94d3e3430efe167fd","1230","stimuli/1101000.jpg","1","","prediction_trial","1","","true","","1","true","true","true","true","true","true","[1]","101","000","1","","","","","","",""
"","","","","","image-keyboard-response","303","1159127","0.0-278.0","612e1df9913c996adb2a42a6","665500ab8938657b03fbdba8","66577cb94d3e3430efe167fd","591","stimuli/11010001.jpg"," ","","feedback_trial","1","","","","","","","","","","","","","","","","","","","","",""
"","","","","","image-keyboard-response","304","1160918","0.0-279.0","612e1df9913c996adb2a42a6","665500ab8938657b03fbdba8","66577cb94d3e3430efe167fd","1791","stimuli/0010010.jpg","0","","prediction_trial","0","","true","","0","true","true","true","true","true","true","[0]","010","010","1","","","","","","",""
"","","","","","image-keyboard-response","305","1161437","0.0-280.0","612e1df9913c996adb2a42a6","665500ab8938657b03fbdba8","66577cb94d3e3430efe167fd","517","stimuli/00100100.jpg"," ","","feedback_trial","0","","","","","","","","","","","","","","","","","","","","",""
"","","","","","image-keyboard-response","306","1391431","0.0-281.0","612e1df9913c996adb2a42a6","665500ab8938657b03fbdba8","66577cb94d3e3430efe167fd","229989","stimuli/0000100.jpg","0","","prediction_trial","0","","true","","0","false","true","true","true","false","true","[0]","000","100","1","","","","","","",""
"","","","","","image-keyboard-response","307","1392379","0.0-282.0","612e1df9913c996adb2a42a6","665500ab8938657b03fbdba8","66577cb94d3e3430efe167fd","946","stimuli/00001000.jpg"," ","","feedback_trial","0","","","","","","","","","","","","","","","","","","","","",""
"","","","","","image-keyboard-response","308","1393665","0.0-283.0","612e1df9913c996adb2a42a6","665500ab8938657b03fbdba8","66577cb94d3e3430efe167fd","1285","stimuli/1011010.jpg","1","","prediction_trial","1","","true","","1","false","true","false","false","false","false","[2,1]","011","010","1","","","","","","",""
"","","","","","image-keyboard-response","309","1394437","0.0-284.0","612e1df9913c996adb2a42a6","665500ab8938657b03fbdba8","66577cb94d3e3430efe167fd","771","stimuli/10110101.jpg"," ","","feedback_trial","2","","","","","","","","","","","","","","","","","","","","",""
"","","","","","image-keyboard-response","310","1395923","0.0-285.0","612e1df9913c996adb2a42a6","665500ab8938657b03fbdba8","66577cb94d3e3430efe167fd","1485","stimuli/1000101.jpg","1","","prediction_trial","1","","true","","1","true","true","true","true","true","true","[1]","000","101","1","","","","","","",""
"","","","","","image-keyboard-response","311","1396561","0.0-286.0","612e1df9913c996adb2a42a6","665500ab8938657b03fbdba8","66577cb94d3e3430efe167fd","637","stimuli/10001011.jpg"," ","","feedback_trial","1","","","","","","","","","","","","","","","","","","","","",""
"","","","","","image-keyboard-response","312","1401310","0.0-287.0","612e1df9913c996adb2a42a6","665500ab8938657b03fbdba8","66577cb94d3e3430efe167fd","4748","stimuli/1011110.jpg","2","","prediction_trial","1","","false","","1","false","false","false","false","false","false","[2,1]","011","110","0","","","","","","",""
"","","","","","image-keyboard-response","313","1402388","0.0-288.0","612e1df9913c996adb2a42a6","665500ab8938657b03fbdba8","66577cb94d3e3430efe167fd","1077","stimuli/10111101.jpg"," ","","feedback_trial","2","","","","","","","","","","","","","","","","","","","","",""
"","","","","","image-keyboard-response","314","1403804","0.0-289.0","612e1df9913c996adb2a42a6","665500ab8938657b03fbdba8","66577cb94d3e3430efe167fd","1415","stimuli/2011001.jpg","2","","prediction_trial","2","","true","","2","false","true","false","false","false","false","[2,1]","011","001","1","","","","","","",""
"","","","","","image-keyboard-response","315","1404526","0.0-290.0","612e1df9913c996adb2a42a6","665500ab8938657b03fbdba8","66577cb94d3e3430efe167fd","721","stimuli/20110012.jpg"," ","","feedback_trial","2","","","","","","","","","","","","","","","","","","","","",""
"","","","","","image-keyboard-response","316","1406472","0.0-291.0","612e1df9913c996adb2a42a6","665500ab8938657b03fbdba8","66577cb94d3e3430efe167fd","1945","stimuli/1110111.jpg","0","","prediction_trial","0","","true","","1","false","false","false","false","false","false","[1,0]","110","111","1","","","","","","",""
"","","","","","image-keyboard-response","317","1407190","0.0-292.0","612e1df9913c996adb2a42a6","665500ab8938657b03fbdba8","66577cb94d3e3430efe167fd","717","stimuli/11101110.jpg"," ","","feedback_trial","1","","","","","","","","","","","","","","","","","","","","",""
"","","","","","survey-html-form","318","1419151","0.0-293.0","612e1df9913c996adb2a42a6","665500ab8938657b03fbdba8","66577cb94d3e3430efe167fd","11959","","{""feedback"":"""",""age"":""66"",""gender"":""Female"",""other_gender"":"""",""race"":""Black/African American"",""other_race"":"""",""ethnicity"":""Non-Hispanic""}","","exit_survey","","","","","","","","","","","","","","","","","66","Non-Hispanic","Female","Black/African American","0.5763888888888888","0.5763888888888888"
