"success","timeout","failed_images","failed_audio","failed_video","trial_type","trial_index","time_elapsed","internal_node_id","prolific_id","prolific_study_id","prolific_session_id","rt","stimulus","response","view_history","trial","character_choice","stimulus_dict","accuracy","correct_response","ball_pos","ego_ball_visible","ego_can_infer","alter_ball_visible","alter_can_infer","collective_ball_visible","collective_can_infer","search_locations","alter_occluders","ego_occluders","accuracy_bool","feedback","age","ethnicity","gender","race","overall_accuracy","bonus"
"true","false","[]","[]","[]","preload","0","27850","0.0-0.0","59d0ec2446447f00011f0254","665500ab8938657b03fbdba8","66579345d450c094bccb2044","","","","","","","","","","","","","","","","","","","","","","","","","","",""
"true","","","","","fullscreen","1","42106","0.0-1.0","59d0ec2446447f00011f0254","665500ab8938657b03fbdba8","66579345d450c094bccb2044","","","","","","","","","","","","","","","","","","","","","","","","","","",""
"","","","","","html-button-response","2","43552","0.0-2.0","59d0ec2446447f00011f0254","665500ab8938657b03fbdba8","66579345d450c094bccb2044","1444","<p><b>Consent Form</b></p> <div style=""text-align:left;background-color:lightgrey; padding:20px; max-width:900px;""><p>Please consider this information carefully before deciding whether to participate in this research.</p> <p>The purpose of this research is to examine which factors influence social judgment and decision-making. You will be asked to make judgements about individuals and actions in social scenarios. We are simply interested in your judgement. The study will take less than 1 hour to complete, and you will receive less than $20 on Prolific. Your compensation and time commitment are specified in the study description. There are no anticipated risks associated with participating in this study. The effects of participating should be comparable to those you would ordinarily experience from viewing a computer monitor and using a mouse or keyboard for a similar amount of time. At the end of the study, we will provide an explanation of the questions that motivate this line of research and will describe the potential implications. </p><p> Your participation in this study is completely voluntary and you may refuse to participate or you may choose to withdraw at any time without penalty or loss of benefits to you which are otherwise entitled. Your participation in this study will remain confidential. No personally identifiable information will be associated with your data. Also, all analyses of the data will be averaged across all the participants, so your individual responses will never be specifically analyzed. </p><p> If you have questions or concerns about your participation or payment, or want to request a summary of research findings, please contact Dr. Jonathan Phillips at Jonathan.S.Phillips@dartmouth.edu. </p><p> Please save a copy of this form for your records. </p><p><b>Agreement: </b>The nature and purpose of this research have been sufficiently explained and I agree to participate in this study. I understand that I am free to withdraw at any time without incurring any penalty. Please consent by clicking the button below to continue. Otherwise, please exit the study at any time. </p>","0","","","","","","","","","","","","","","","","","","","","","","","",""
"","","","","","instructions","3","182228","0.0-3.0-0.0","59d0ec2446447f00011f0254","665500ab8938657b03fbdba8","66579345d450c094bccb2044","138675","","","[{""page_index"":0,""viewing_time"":1197},{""page_index"":1,""viewing_time"":1421},{""page_index"":2,""viewing_time"":1803},{""page_index"":3,""viewing_time"":4028},{""page_index"":4,""viewing_time"":1743},{""page_index"":5,""viewing_time"":1602},{""page_index"":6,""viewing_time"":2217},{""page_index"":7,""viewing_time"":1393},{""page_index"":8,""viewing_time"":2127},{""page_index"":9,""viewing_time"":2303},{""page_index"":10,""viewing_time"":45787},{""page_index"":11,""viewing_time"":2500},{""page_index"":12,""viewing_time"":69237},{""page_index"":13,""viewing_time"":1316}]","intro","","","","","","","","","","","","","","","","","","","","","",""
"","","","","","image-keyboard-response","4","185099","0.0-3.0-1.0","59d0ec2446447f00011f0254","665500ab8938657b03fbdba8","66579345d450c094bccb2044","2867","stimuli/1111000.jpg","1","","prediction_practice","0","{""filepath"":""stimuli/1111000.jpg"",""ball_pos"":1,""ego_ball_visible"":true,""ego_can_infer"":true,""alter_ball_visible"":false,""alter_can_infer"":false,""collective_ball_visible"":false,""collective_can_infer"":false,""search_locations"":[2,0,1],""alter_occluders"":""111"",""ego_occluders"":""000""}","false","","","","","","","","","","","","","","","","","","",""
"","","","","","image-keyboard-response","5","187810","0.0-3.0-2.0","59d0ec2446447f00011f0254","665500ab8938657b03fbdba8","66579345d450c094bccb2044","2709","stimuli/11110000.jpg"," ","","practrice_feedback","2","","","","","","","","","","","","","","","","","","","","",""
"","","","","","image-keyboard-response","6","190027","0.0-3.0-3.0","59d0ec2446447f00011f0254","665500ab8938657b03fbdba8","66579345d450c094bccb2044","2216","stimuli/0000110.jpg","2","","prediction_practice","0","{""filepath"":""stimuli/0000110.jpg"",""ball_pos"":0,""ego_ball_visible"":false,""ego_can_infer"":false,""alter_ball_visible"":true,""alter_can_infer"":true,""collective_ball_visible"":false,""collective_can_infer"":false,""search_locations"":[0],""alter_occluders"":""000"",""ego_occluders"":""110""}","false","","","","","","","","","","","","","","","","","","",""
"","","","","","image-keyboard-response","7","191378","0.0-3.0-4.0","59d0ec2446447f00011f0254","665500ab8938657b03fbdba8","66579345d450c094bccb2044","1350","stimuli/00001100.jpg"," ","","practrice_feedback","0","","","","","","","","","","","","","","","","","","","","",""
"","","","","","image-keyboard-response","8","192538","0.0-3.0-5.0","59d0ec2446447f00011f0254","665500ab8938657b03fbdba8","66579345d450c094bccb2044","1159","stimuli/2011000.jpg","0","","prediction_practice","1","{""filepath"":""stimuli/2011000.jpg"",""ball_pos"":2,""ego_ball_visible"":true,""ego_can_infer"":true,""alter_ball_visible"":false,""alter_can_infer"":false,""collective_ball_visible"":false,""collective_can_infer"":false,""search_locations"":[1,2],""alter_occluders"":""011"",""ego_occluders"":""000""}","false","","","","","","","","","","","","","","","","","","",""
"","","","","","image-keyboard-response","9","193714","0.0-3.0-6.0","59d0ec2446447f00011f0254","665500ab8938657b03fbdba8","66579345d450c094bccb2044","1174","stimuli/20110001.jpg"," ","","practrice_feedback","1","","","","","","","","","","","","","","","","","","","","",""
"","","","","","image-keyboard-response","10","195250","0.0-3.0-7.0","59d0ec2446447f00011f0254","665500ab8938657b03fbdba8","66579345d450c094bccb2044","1535","stimuli/1100111.jpg","1","","prediction_practice","1","{""filepath"":""stimuli/1100111.jpg"",""ball_pos"":1,""ego_ball_visible"":false,""ego_can_infer"":false,""alter_ball_visible"":true,""alter_can_infer"":true,""collective_ball_visible"":false,""collective_can_infer"":false,""search_locations"":[1],""alter_occluders"":""100"",""ego_occluders"":""111""}","true","","","","","","","","","","","","","","","","","","",""
"","","","","","image-keyboard-response","11","196490","0.0-3.0-8.0","59d0ec2446447f00011f0254","665500ab8938657b03fbdba8","66579345d450c094bccb2044","1239","stimuli/11001111.jpg"," ","","practrice_feedback","1","","","","","","","","","","","","","","","","","","","","",""
"","","","","","image-keyboard-response","12","197553","0.0-3.0-9.0","59d0ec2446447f00011f0254","665500ab8938657b03fbdba8","66579345d450c094bccb2044","1063","stimuli/0110111.jpg","1","","prediction_practice","0","{""filepath"":""stimuli/0110111.jpg"",""ball_pos"":0,""ego_ball_visible"":false,""ego_can_infer"":false,""alter_ball_visible"":false,""alter_can_infer"":false,""collective_ball_visible"":false,""collective_can_infer"":false,""search_locations"":[1,0],""alter_occluders"":""110"",""ego_occluders"":""111""}","false","","","","","","","","","","","","","","","","","","",""
"","","","","","image-keyboard-response","13","198514","0.0-3.0-10.0","59d0ec2446447f00011f0254","665500ab8938657b03fbdba8","66579345d450c094bccb2044","959","stimuli/01101110.jpg"," ","","practrice_feedback","1","","","","","","","","","","","","","","","","","","","","",""
"","","","","","image-keyboard-response","14","199442","0.0-3.0-11.0","59d0ec2446447f00011f0254","665500ab8938657b03fbdba8","66579345d450c094bccb2044","927","stimuli/0011101.jpg","2","","prediction_practice","0","{""filepath"":""stimuli/0011101.jpg"",""ball_pos"":0,""ego_ball_visible"":false,""ego_can_infer"":false,""alter_ball_visible"":true,""alter_can_infer"":true,""collective_ball_visible"":false,""collective_can_infer"":false,""search_locations"":[0],""alter_occluders"":""011"",""ego_occluders"":""101""}","false","","","","","","","","","","","","","","","","","","",""
"","","","","","image-keyboard-response","15","200522","0.0-3.0-12.0","59d0ec2446447f00011f0254","665500ab8938657b03fbdba8","66579345d450c094bccb2044","1079","stimuli/00111010.jpg"," ","","practrice_feedback","0","","","","","","","","","","","","","","","","","","","","",""
"","","","","","image-keyboard-response","16","201618","0.0-3.0-13.0","59d0ec2446447f00011f0254","665500ab8938657b03fbdba8","66579345d450c094bccb2044","1089","stimuli/0001111.jpg","2","","prediction_practice","0","{""filepath"":""stimuli/0001111.jpg"",""ball_pos"":0,""ego_ball_visible"":false,""ego_can_infer"":false,""alter_ball_visible"":true,""alter_can_infer"":true,""collective_ball_visible"":false,""collective_can_infer"":false,""search_locations"":[0],""alter_occluders"":""001"",""ego_occluders"":""111""}","false","","","","","","","","","","","","","","","","","","",""
"","","","","","image-keyboard-response","17","202483","0.0-3.0-14.0","59d0ec2446447f00011f0254","665500ab8938657b03fbdba8","66579345d450c094bccb2044","864","stimuli/00011110.jpg"," ","","practrice_feedback","0","","","","","","","","","","","","","","","","","","","","",""
"","","","","","image-keyboard-response","18","202785","0.0-3.0-15.0","59d0ec2446447f00011f0254","665500ab8938657b03fbdba8","66579345d450c094bccb2044","302","stimuli/2110111.jpg","2","","prediction_practice","2","{""filepath"":""stimuli/2110111.jpg"",""ball_pos"":2,""ego_ball_visible"":false,""ego_can_infer"":false,""alter_ball_visible"":true,""alter_can_infer"":true,""collective_ball_visible"":false,""collective_can_infer"":false,""search_locations"":[2],""alter_occluders"":""110"",""ego_occluders"":""111""}","true","","","","","","","","","","","","","","","","","","",""
"","","","","","image-keyboard-response","19","203890","0.0-3.0-16.0","59d0ec2446447f00011f0254","665500ab8938657b03fbdba8","66579345d450c094bccb2044","1103","stimuli/21101112.jpg"," ","","practrice_feedback","2","","","","","","","","","","","","","","","","","","","","",""
"","","","","","image-keyboard-response","20","204633","0.0-3.0-17.0","59d0ec2446447f00011f0254","665500ab8938657b03fbdba8","66579345d450c094bccb2044","743","stimuli/0001001.jpg","0","","prediction_practice","0","{""filepath"":""stimuli/0001001.jpg"",""ball_pos"":0,""ego_ball_visible"":true,""ego_can_infer"":true,""alter_ball_visible"":true,""alter_can_infer"":true,""collective_ball_visible"":true,""collective_can_infer"":true,""search_locations"":[0],""alter_occluders"":""001"",""ego_occluders"":""001""}","true","","","","","","","","","","","","","","","","","","",""
"","","","","","image-keyboard-response","21","205521","0.0-3.0-18.0","59d0ec2446447f00011f0254","665500ab8938657b03fbdba8","66579345d450c094bccb2044","887","stimuli/00010010.jpg"," ","","practrice_feedback","0","","","","","","","","","","","","","","","","","","","","",""
"","","","","","image-keyboard-response","22","206425","0.0-3.0-19.0","59d0ec2446447f00011f0254","665500ab8938657b03fbdba8","66579345d450c094bccb2044","903","stimuli/2010101.jpg","1","","prediction_practice","2","{""filepath"":""stimuli/2010101.jpg"",""ball_pos"":2,""ego_ball_visible"":false,""ego_can_infer"":false,""alter_ball_visible"":true,""alter_can_infer"":true,""collective_ball_visible"":false,""collective_can_infer"":false,""search_locations"":[2],""alter_occluders"":""010"",""ego_occluders"":""101""}","false","","","","","","","","","","","","","","","","","","",""
"","","","","","image-keyboard-response","23","207266","0.0-3.0-20.0","59d0ec2446447f00011f0254","665500ab8938657b03fbdba8","66579345d450c094bccb2044","839","stimuli/20101012.jpg"," ","","practrice_feedback","2","","","","","","","","","","","","","","","","","","","","",""
"","","","","","html-button-response","24","213345","0.0-3.0-21.0","59d0ec2446447f00011f0254","665500ab8938657b03fbdba8","66579345d450c094bccb2044","6079","Now that you've had some practice, you'll be tested with a couple of easy trials. If you correctly predict Sam's choice, you'll move on to complete the experiment!","0","","","","","","","","","","","","","","","","","","","","","","","",""
"","","","","","image-keyboard-response","25","216337","0.0-3.0-22.0-0.0","59d0ec2446447f00011f0254","665500ab8938657b03fbdba8","66579345d450c094bccb2044","2991","stimuli/0000011.jpg","arrowdown","","comprehension_quiz","","","false","arrowleft","","","","","","","","","","","","","","","","","",""
"","","","","","image-keyboard-response","26","217209","0.0-3.0-22.0-1.0","59d0ec2446447f00011f0254","665500ab8938657b03fbdba8","66579345d450c094bccb2044","871","stimuli/00000110.jpg"," ","","comprehension_quiz","","","true"," ","","","","","","","","","","","","","","","","","",""
"","","","","","image-keyboard-response","27","219441","0.0-3.0-22.0-2.0","59d0ec2446447f00011f0254","665500ab8938657b03fbdba8","66579345d450c094bccb2044","2231","stimuli/1010010.jpg","arrowdown","","comprehension_quiz","","","true","arrowdown","","","","","","","","","","","","","","","","","",""
"","","","","","image-keyboard-response","28","220522","0.0-3.0-22.0-3.0","59d0ec2446447f00011f0254","665500ab8938657b03fbdba8","66579345d450c094bccb2044","1080","stimuli/10100101.jpg"," ","","comprehension_quiz","","","true"," ","","","","","","","","","","","","","","","","","",""
"","","","","","html-button-response","29","224076","0.0-3.0-23.0-0.0","59d0ec2446447f00011f0254","665500ab8938657b03fbdba8","66579345d450c094bccb2044","3552","<p> Oops! You have answered one or more questions incorrectly.</p><p> Please Review the instructions again before continuing with the experiment </p>","0","","fail_message","","","false","","","","","","","","","","","","","","","","","","",""
"","","","","","instructions","30","253174","0.0-3.1-0.1","59d0ec2446447f00011f0254","665500ab8938657b03fbdba8","66579345d450c094bccb2044","29098","","","[{""page_index"":0,""viewing_time"":1405},{""page_index"":1,""viewing_time"":1432},{""page_index"":2,""viewing_time"":762},{""page_index"":3,""viewing_time"":2446},{""page_index"":4,""viewing_time"":2469},{""page_index"":5,""viewing_time"":1507},{""page_index"":6,""viewing_time"":4737},{""page_index"":7,""viewing_time"":2440},{""page_index"":8,""viewing_time"":2358},{""page_index"":9,""viewing_time"":1716},{""page_index"":10,""viewing_time"":3137},{""page_index"":11,""viewing_time"":2248},{""page_index"":12,""viewing_time"":1338},{""page_index"":13,""viewing_time"":1102}]","intro","","","","","","","","","","","","","","","","","","","","","",""
"","","","","","image-keyboard-response","31","255953","0.0-3.1-1.1","59d0ec2446447f00011f0254","665500ab8938657b03fbdba8","66579345d450c094bccb2044","2777","stimuli/1111000.jpg","1","","prediction_practice","0","{""filepath"":""stimuli/1111000.jpg"",""ball_pos"":1,""ego_ball_visible"":true,""ego_can_infer"":true,""alter_ball_visible"":false,""alter_can_infer"":false,""collective_ball_visible"":false,""collective_can_infer"":false,""search_locations"":[2,0,1],""alter_occluders"":""111"",""ego_occluders"":""000""}","false","","","","","","","","","","","","","","","","","","",""
"","","","","","image-keyboard-response","32","257912","0.0-3.1-2.1","59d0ec2446447f00011f0254","665500ab8938657b03fbdba8","66579345d450c094bccb2044","1958","stimuli/11110000.jpg"," ","","practrice_feedback","2","","","","","","","","","","","","","","","","","","","","",""
"","","","","","image-keyboard-response","33","259224","0.0-3.1-3.1","59d0ec2446447f00011f0254","665500ab8938657b03fbdba8","66579345d450c094bccb2044","1311","stimuli/0000110.jpg","2","","prediction_practice","0","{""filepath"":""stimuli/0000110.jpg"",""ball_pos"":0,""ego_ball_visible"":false,""ego_can_infer"":false,""alter_ball_visible"":true,""alter_can_infer"":true,""collective_ball_visible"":false,""collective_can_infer"":false,""search_locations"":[0],""alter_occluders"":""000"",""ego_occluders"":""110""}","false","","","","","","","","","","","","","","","","","","",""
"","","","","","image-keyboard-response","34","260272","0.0-3.1-4.1","59d0ec2446447f00011f0254","665500ab8938657b03fbdba8","66579345d450c094bccb2044","1047","stimuli/00001100.jpg"," ","","practrice_feedback","0","","","","","","","","","","","","","","","","","","","","",""
"","","","","","image-keyboard-response","35","263297","0.0-3.1-5.1","59d0ec2446447f00011f0254","665500ab8938657b03fbdba8","66579345d450c094bccb2044","3024","stimuli/2011000.jpg","2","","prediction_practice","1","{""filepath"":""stimuli/2011000.jpg"",""ball_pos"":2,""ego_ball_visible"":true,""ego_can_infer"":true,""alter_ball_visible"":false,""alter_can_infer"":false,""collective_ball_visible"":false,""collective_can_infer"":false,""search_locations"":[1,2],""alter_occluders"":""011"",""ego_occluders"":""000""}","false","","","","","","","","","","","","","","","","","","",""
"","","","","","image-keyboard-response","36","264184","0.0-3.1-6.1","59d0ec2446447f00011f0254","665500ab8938657b03fbdba8","66579345d450c094bccb2044","887","stimuli/20110001.jpg"," ","","practrice_feedback","1","","","","","","","","","","","","","","","","","","","","",""
"","","","","","image-keyboard-response","37","267785","0.0-3.1-7.1","59d0ec2446447f00011f0254","665500ab8938657b03fbdba8","66579345d450c094bccb2044","3600","stimuli/1100111.jpg","1","","prediction_practice","1","{""filepath"":""stimuli/1100111.jpg"",""ball_pos"":1,""ego_ball_visible"":false,""ego_can_infer"":false,""alter_ball_visible"":true,""alter_can_infer"":true,""collective_ball_visible"":false,""collective_can_infer"":false,""search_locations"":[1],""alter_occluders"":""100"",""ego_occluders"":""111""}","true","","","","","","","","","","","","","","","","","","",""
"","","","","","image-keyboard-response","38","269344","0.0-3.1-8.1","59d0ec2446447f00011f0254","665500ab8938657b03fbdba8","66579345d450c094bccb2044","1558","stimuli/11001111.jpg"," ","","practrice_feedback","1","","","","","","","","","","","","","","","","","","","","",""
"","","","","","image-keyboard-response","39","272632","0.0-3.1-9.1","59d0ec2446447f00011f0254","665500ab8938657b03fbdba8","66579345d450c094bccb2044","3287","stimuli/0110111.jpg","2","","prediction_practice","0","{""filepath"":""stimuli/0110111.jpg"",""ball_pos"":0,""ego_ball_visible"":false,""ego_can_infer"":false,""alter_ball_visible"":false,""alter_can_infer"":false,""collective_ball_visible"":false,""collective_can_infer"":false,""search_locations"":[1,0],""alter_occluders"":""110"",""ego_occluders"":""111""}","false","","","","","","","","","","","","","","","","","","",""
"","","","","","image-keyboard-response","40","273576","0.0-3.1-10.1","59d0ec2446447f00011f0254","665500ab8938657b03fbdba8","66579345d450c094bccb2044","944","stimuli/01101110.jpg"," ","","practrice_feedback","1","","","","","","","","","","","","","","","","","","","","",""
"","","","","","image-keyboard-response","41","275312","0.0-3.1-11.1","59d0ec2446447f00011f0254","665500ab8938657b03fbdba8","66579345d450c094bccb2044","1735","stimuli/0011101.jpg","1","","prediction_practice","0","{""filepath"":""stimuli/0011101.jpg"",""ball_pos"":0,""ego_ball_visible"":false,""ego_can_infer"":false,""alter_ball_visible"":true,""alter_can_infer"":true,""collective_ball_visible"":false,""collective_can_infer"":false,""search_locations"":[0],""alter_occluders"":""011"",""ego_occluders"":""101""}","false","","","","","","","","","","","","","","","","","","",""
"","","","","","image-keyboard-response","42","275912","0.0-3.1-12.1","59d0ec2446447f00011f0254","665500ab8938657b03fbdba8","66579345d450c094bccb2044","599","stimuli/00111010.jpg"," ","","practrice_feedback","0","","","","","","","","","","","","","","","","","","","","",""
"","","","","","image-keyboard-response","43","277088","0.0-3.1-13.1","59d0ec2446447f00011f0254","665500ab8938657b03fbdba8","66579345d450c094bccb2044","1175","stimuli/0001111.jpg","0","","prediction_practice","0","{""filepath"":""stimuli/0001111.jpg"",""ball_pos"":0,""ego_ball_visible"":false,""ego_can_infer"":false,""alter_ball_visible"":true,""alter_can_infer"":true,""collective_ball_visible"":false,""collective_can_infer"":false,""search_locations"":[0],""alter_occluders"":""001"",""ego_occluders"":""111""}","true","","","","","","","","","","","","","","","","","","",""
"","","","","","image-keyboard-response","44","278856","0.0-3.1-14.1","59d0ec2446447f00011f0254","665500ab8938657b03fbdba8","66579345d450c094bccb2044","1767","stimuli/00011110.jpg"," ","","practrice_feedback","0","","","","","","","","","","","","","","","","","","","","",""
"","","","","","image-keyboard-response","45","279856","0.0-3.1-15.1","59d0ec2446447f00011f0254","665500ab8938657b03fbdba8","66579345d450c094bccb2044","999","stimuli/2110111.jpg","2","","prediction_practice","2","{""filepath"":""stimuli/2110111.jpg"",""ball_pos"":2,""ego_ball_visible"":false,""ego_can_infer"":false,""alter_ball_visible"":true,""alter_can_infer"":true,""collective_ball_visible"":false,""collective_can_infer"":false,""search_locations"":[2],""alter_occluders"":""110"",""ego_occluders"":""111""}","true","","","","","","","","","","","","","","","","","","",""
"","","","","","image-keyboard-response","46","280808","0.0-3.1-16.1","59d0ec2446447f00011f0254","665500ab8938657b03fbdba8","66579345d450c094bccb2044","945","stimuli/21101112.jpg"," ","","practrice_feedback","2","","","","","","","","","","","","","","","","","","","","",""
"","","","","","image-keyboard-response","47","282448","0.0-3.1-17.1","59d0ec2446447f00011f0254","665500ab8938657b03fbdba8","66579345d450c094bccb2044","1639","stimuli/0001001.jpg","0","","prediction_practice","0","{""filepath"":""stimuli/0001001.jpg"",""ball_pos"":0,""ego_ball_visible"":true,""ego_can_infer"":true,""alter_ball_visible"":true,""alter_can_infer"":true,""collective_ball_visible"":true,""collective_can_infer"":true,""search_locations"":[0],""alter_occluders"":""001"",""ego_occluders"":""001""}","true","","","","","","","","","","","","","","","","","","",""
"","","","","","image-keyboard-response","48","283392","0.0-3.1-18.1","59d0ec2446447f00011f0254","665500ab8938657b03fbdba8","66579345d450c094bccb2044","943","stimuli/00010010.jpg"," ","","practrice_feedback","0","","","","","","","","","","","","","","","","","","","","",""
"","","","","","image-keyboard-response","49","285328","0.0-3.1-19.1","59d0ec2446447f00011f0254","665500ab8938657b03fbdba8","66579345d450c094bccb2044","1935","stimuli/2010101.jpg","2","","prediction_practice","2","{""filepath"":""stimuli/2010101.jpg"",""ball_pos"":2,""ego_ball_visible"":false,""ego_can_infer"":false,""alter_ball_visible"":true,""alter_can_infer"":true,""collective_ball_visible"":false,""collective_can_infer"":false,""search_locations"":[2],""alter_occluders"":""010"",""ego_occluders"":""101""}","true","","","","","","","","","","","","","","","","","","",""
"","","","","","image-keyboard-response","50","286480","0.0-3.1-20.1","59d0ec2446447f00011f0254","665500ab8938657b03fbdba8","66579345d450c094bccb2044","1151","stimuli/20101012.jpg"," ","","practrice_feedback","2","","","","","","","","","","","","","","","","","","","","",""
"","","","","","html-button-response","51","289441","0.0-3.1-21.1","59d0ec2446447f00011f0254","665500ab8938657b03fbdba8","66579345d450c094bccb2044","2961","Now that you've had some practice, you'll be tested with a couple of easy trials. If you correctly predict Sam's choice, you'll move on to complete the experiment!","0","","","","","","","","","","","","","","","","","","","","","","","",""
"","","","","","image-keyboard-response","52","291320","0.0-3.1-22.1-0.1","59d0ec2446447f00011f0254","665500ab8938657b03fbdba8","66579345d450c094bccb2044","1877","stimuli/0000011.jpg","arrowleft","","comprehension_quiz","","","true","arrowleft","","","","","","","","","","","","","","","","","",""
"","","","","","image-keyboard-response","53","292185","0.0-3.1-22.1-1.1","59d0ec2446447f00011f0254","665500ab8938657b03fbdba8","66579345d450c094bccb2044","864","stimuli/00000110.jpg"," ","","comprehension_quiz","","","true"," ","","","","","","","","","","","","","","","","","",""
"","","","","","image-keyboard-response","54","294097","0.0-3.1-22.1-2.1","59d0ec2446447f00011f0254","665500ab8938657b03fbdba8","66579345d450c094bccb2044","1911","stimuli/1010010.jpg","arrowdown","","comprehension_quiz","","","true","arrowdown","","","","","","","","","","","","","","","","","",""
"","","","","","image-keyboard-response","55","294920","0.0-3.1-22.1-3.1","59d0ec2446447f00011f0254","665500ab8938657b03fbdba8","66579345d450c094bccb2044","822","stimuli/10100101.jpg"," ","","comprehension_quiz","","","true"," ","","","","","","","","","","","","","","","","","",""
"","","","","","html-button-response","56","297247","0.0-4.0","59d0ec2446447f00011f0254","665500ab8938657b03fbdba8","66579345d450c094bccb2044","2326","The experiment will now begin.","0","","","","","","","","","","","","","","","","","","","","","","","",""
"","","","","","image-keyboard-response","57","299656","0.0-5.0","59d0ec2446447f00011f0254","665500ab8938657b03fbdba8","66579345d450c094bccb2044","2408","stimuli/0001110.jpg","1","","prediction_trial","0","","false","","0","false","false","true","true","false","false","[0]","001","110","0","","","","","","",""
"","","","","","image-keyboard-response","58","300712","0.0-6.0","59d0ec2446447f00011f0254","665500ab8938657b03fbdba8","66579345d450c094bccb2044","1055","stimuli/00011100.jpg"," ","","feedback_trial","0","","","","","","","","","","","","","","","","","","","","",""
"","","","","","image-keyboard-response","59","302600","0.0-7.0","59d0ec2446447f00011f0254","665500ab8938657b03fbdba8","66579345d450c094bccb2044","1887","stimuli/0111110.jpg","1","","prediction_trial","1","","true","","0","false","false","false","false","false","false","[1,0,2]","111","110","1","","","","","","",""
"","","","","","image-keyboard-response","60","303392","0.0-8.0","59d0ec2446447f00011f0254","665500ab8938657b03fbdba8","66579345d450c094bccb2044","790","stimuli/01111101.jpg"," ","","feedback_trial","1","","","","","","","","","","","","","","","","","","","","",""
"","","","","","image-keyboard-response","61","304416","0.0-9.0","59d0ec2446447f00011f0254","665500ab8938657b03fbdba8","66579345d450c094bccb2044","1017","stimuli/1001101.jpg","1","","prediction_trial","1","","true","","1","true","true","true","true","true","true","[1]","001","101","1","","","","","","",""
"","","","","","image-keyboard-response","62","304912","0.0-10.0","59d0ec2446447f00011f0254","665500ab8938657b03fbdba8","66579345d450c094bccb2044","495","stimuli/10011011.jpg"," ","","feedback_trial","1","","","","","","","","","","","","","","","","","","","","",""
"","","","","","image-keyboard-response","63","306248","0.0-11.0","59d0ec2446447f00011f0254","665500ab8938657b03fbdba8","66579345d450c094bccb2044","1335","stimuli/1110101.jpg","2","","prediction_trial","1","","false","","1","true","true","false","false","false","false","[1,0]","110","101","0","","","","","","",""
"","","","","","image-keyboard-response","64","307193","0.0-12.0","59d0ec2446447f00011f0254","665500ab8938657b03fbdba8","66579345d450c094bccb2044","943","stimuli/11101011.jpg"," ","","feedback_trial","1","","","","","","","","","","","","","","","","","","","","",""
"","","","","","image-keyboard-response","65","309080","0.0-13.0","59d0ec2446447f00011f0254","665500ab8938657b03fbdba8","66579345d450c094bccb2044","1886","stimuli/1110111.jpg","2","","prediction_trial","0","","false","","1","false","false","false","false","false","false","[0,1]","110","111","0","","","","","","",""
"","","","","","image-keyboard-response","66","309904","0.0-14.0","59d0ec2446447f00011f0254","665500ab8938657b03fbdba8","66579345d450c094bccb2044","823","stimuli/11101110.jpg"," ","","feedback_trial","0","","","","","","","","","","","","","","","","","","","","",""
"","","","","","image-keyboard-response","67","310920","0.0-15.0","59d0ec2446447f00011f0254","665500ab8938657b03fbdba8","66579345d450c094bccb2044","1015","stimuli/1001001.jpg","1","","prediction_trial","1","","true","","1","true","true","true","true","true","true","[1]","001","001","1","","","","","","",""
"","","","","","image-keyboard-response","68","311528","0.0-16.0","59d0ec2446447f00011f0254","665500ab8938657b03fbdba8","66579345d450c094bccb2044","607","stimuli/10010011.jpg"," ","","feedback_trial","1","","","","","","","","","","","","","","","","","","","","",""
"","","","","","image-keyboard-response","69","313199","0.0-17.0","59d0ec2446447f00011f0254","665500ab8938657b03fbdba8","66579345d450c094bccb2044","1671","stimuli/2110001.jpg","2","","prediction_trial","2","","true","","2","false","true","true","true","false","true","[2]","110","001","1","","","","","","",""
"","","","","","image-keyboard-response","70","313983","0.0-18.0","59d0ec2446447f00011f0254","665500ab8938657b03fbdba8","66579345d450c094bccb2044","783","stimuli/21100012.jpg"," ","","feedback_trial","2","","","","","","","","","","","","","","","","","","","","",""
"","","","","","image-keyboard-response","71","315984","0.0-19.0","59d0ec2446447f00011f0254","665500ab8938657b03fbdba8","66579345d450c094bccb2044","1999","stimuli/2101011.jpg","1","","prediction_trial","0","","false","","2","false","false","false","false","false","false","[2,0]","101","011","0","","","","","","",""
"","","","","","image-keyboard-response","72","318016","0.0-20.0","59d0ec2446447f00011f0254","665500ab8938657b03fbdba8","66579345d450c094bccb2044","2032","stimuli/21010110.jpg"," ","","feedback_trial","2","","","","","","","","","","","","","","","","","","","","",""
"","","","","","image-keyboard-response","73","320232","0.0-21.0","59d0ec2446447f00011f0254","665500ab8938657b03fbdba8","66579345d450c094bccb2044","2214","stimuli/2010100.jpg","2","","prediction_trial","2","","true","","2","true","true","true","true","true","true","[2]","010","100","1","","","","","","",""
"","","","","","image-keyboard-response","74","320999","0.0-22.0","59d0ec2446447f00011f0254","665500ab8938657b03fbdba8","66579345d450c094bccb2044","766","stimuli/20101002.jpg"," ","","feedback_trial","2","","","","","","","","","","","","","","","","","","","","",""
"","","","","","image-keyboard-response","75","322368","0.0-23.0","59d0ec2446447f00011f0254","665500ab8938657b03fbdba8","66579345d450c094bccb2044","1367","stimuli/0111101.jpg","0","","prediction_trial","2","","false","","0","false","false","false","false","false","false","[1,0,2]","111","101","0","","","","","","",""
"","","","","","image-keyboard-response","76","323032","0.0-24.0","59d0ec2446447f00011f0254","665500ab8938657b03fbdba8","66579345d450c094bccb2044","664","stimuli/01111012.jpg"," ","","feedback_trial","1","","","","","","","","","","","","","","","","","","","","",""
"","","","","","image-keyboard-response","77","325176","0.0-25.0","59d0ec2446447f00011f0254","665500ab8938657b03fbdba8","66579345d450c094bccb2044","2142","stimuli/1011000.jpg","1","","prediction_trial","2","","false","","1","true","true","false","false","false","false","[2,1]","011","000","0","","","","","","",""
"","","","","","image-keyboard-response","78","325888","0.0-26.0","59d0ec2446447f00011f0254","665500ab8938657b03fbdba8","66579345d450c094bccb2044","711","stimuli/10110002.jpg"," ","","feedback_trial","2","","","","","","","","","","","","","","","","","","","","",""
"","","","","","image-keyboard-response","79","327416","0.0-27.0","59d0ec2446447f00011f0254","665500ab8938657b03fbdba8","66579345d450c094bccb2044","1527","stimuli/1100101.jpg","1","","prediction_trial","1","","true","","1","true","true","true","true","true","true","[1]","100","101","1","","","","","","",""
"","","","","","image-keyboard-response","80","327847","0.0-28.0","59d0ec2446447f00011f0254","665500ab8938657b03fbdba8","66579345d450c094bccb2044","431","stimuli/11001011.jpg"," ","","feedback_trial","1","","","","","","","","","","","","","","","","","","","","",""
"","","","","","image-keyboard-response","81","329520","0.0-29.0","59d0ec2446447f00011f0254","665500ab8938657b03fbdba8","66579345d450c094bccb2044","1671","stimuli/0011111.jpg","0","","prediction_trial","0","","true","","0","false","false","true","true","false","false","[0]","011","111","1","","","","","","",""
"","","","","","image-keyboard-response","82","330464","0.0-30.0","59d0ec2446447f00011f0254","665500ab8938657b03fbdba8","66579345d450c094bccb2044","943","stimuli/00111110.jpg"," ","","feedback_trial","0","","","","","","","","","","","","","","","","","","","","",""
"","","","","","image-keyboard-response","83","332280","0.0-31.0","59d0ec2446447f00011f0254","665500ab8938657b03fbdba8","66579345d450c094bccb2044","1815","stimuli/0111011.jpg","1","","prediction_trial","1","","true","","0","true","true","false","false","false","false","[0,2,1]","111","011","1","","","","","","",""
"","","","","","image-keyboard-response","84","332944","0.0-32.0","59d0ec2446447f00011f0254","665500ab8938657b03fbdba8","66579345d450c094bccb2044","663","stimuli/01110111.jpg"," ","","feedback_trial","0","","","","","","","","","","","","","","","","","","","","",""
"","","","","","image-keyboard-response","85","334560","0.0-33.0","59d0ec2446447f00011f0254","665500ab8938657b03fbdba8","66579345d450c094bccb2044","1615","stimuli/2010101.jpg","0","","prediction_trial","2","","false","","2","false","false","true","true","false","false","[2]","010","101","0","","","","","","",""
"","","","","","image-keyboard-response","86","335256","0.0-34.0","59d0ec2446447f00011f0254","665500ab8938657b03fbdba8","66579345d450c094bccb2044","695","stimuli/20101012.jpg"," ","","feedback_trial","2","","","","","","","","","","","","","","","","","","","","",""
"","","","","","image-keyboard-response","87","336920","0.0-35.0","59d0ec2446447f00011f0254","665500ab8938657b03fbdba8","66579345d450c094bccb2044","1657","stimuli/1000011.jpg","1","","prediction_trial","1","","true","","1","false","false","true","true","false","false","[1]","000","011","1","","","","","","",""
"","","","","","image-keyboard-response","88","337551","0.0-36.0","59d0ec2446447f00011f0254","665500ab8938657b03fbdba8","66579345d450c094bccb2044","631","stimuli/10000111.jpg"," ","","feedback_trial","1","","","","","","","","","","","","","","","","","","","","",""
"","","","","","image-keyboard-response","89","339544","0.0-37.0","59d0ec2446447f00011f0254","665500ab8938657b03fbdba8","66579345d450c094bccb2044","1992","stimuli/2111010.jpg","2","","prediction_trial","1","","false","","2","true","true","false","false","false","false","[1,2,0]","111","010","0","","","","","","",""
"","","","","","image-keyboard-response","90","340176","0.0-38.0","59d0ec2446447f00011f0254","665500ab8938657b03fbdba8","66579345d450c094bccb2044","631","stimuli/21110101.jpg"," ","","feedback_trial","1","","","","","","","","","","","","","","","","","","","","",""
"","","","","","image-keyboard-response","91","341640","0.0-39.0","59d0ec2446447f00011f0254","665500ab8938657b03fbdba8","66579345d450c094bccb2044","1464","stimuli/0101001.jpg","0","","prediction_trial","0","","true","","0","true","true","false","false","false","false","[0,2]","101","001","1","","","","","","",""
"","","","","","image-keyboard-response","92","342207","0.0-40.0","59d0ec2446447f00011f0254","665500ab8938657b03fbdba8","66579345d450c094bccb2044","566","stimuli/01010010.jpg"," ","","feedback_trial","0","","","","","","","","","","","","","","","","","","","","",""
"","","","","","image-keyboard-response","93","343240","0.0-41.0","59d0ec2446447f00011f0254","665500ab8938657b03fbdba8","66579345d450c094bccb2044","1031","stimuli/2000100.jpg","2","","prediction_trial","2","","true","","2","true","true","true","true","true","true","[2]","000","100","1","","","","","","",""
"","","","","","image-keyboard-response","94","343655","0.0-42.0","59d0ec2446447f00011f0254","665500ab8938657b03fbdba8","66579345d450c094bccb2044","414","stimuli/20001002.jpg"," ","","feedback_trial","2","","","","","","","","","","","","","","","","","","","","",""
"","","","","","image-keyboard-response","95","345663","0.0-43.0","59d0ec2446447f00011f0254","665500ab8938657b03fbdba8","66579345d450c094bccb2044","2007","stimuli/1110100.jpg","1","","prediction_trial","0","","false","","1","true","true","false","false","false","false","[1,0]","110","100","0","","","","","","",""
"","","","","","image-keyboard-response","96","346263","0.0-44.0","59d0ec2446447f00011f0254","665500ab8938657b03fbdba8","66579345d450c094bccb2044","599","stimuli/11101000.jpg"," ","","feedback_trial","1","","","","","","","","","","","","","","","","","","","","",""
"","","","","","image-keyboard-response","97","348295","0.0-45.0","59d0ec2446447f00011f0254","665500ab8938657b03fbdba8","66579345d450c094bccb2044","2031","stimuli/0100110.jpg","0","","prediction_trial","0","","true","","0","false","false","false","true","false","false","[0]","100","110","1","","","","","","",""
"","","","","","image-keyboard-response","98","349064","0.0-46.0","59d0ec2446447f00011f0254","665500ab8938657b03fbdba8","66579345d450c094bccb2044","767","stimuli/01001100.jpg"," ","","feedback_trial","0","","","","","","","","","","","","","","","","","","","","",""
"","","","","","image-keyboard-response","99","352000","0.0-47.0","59d0ec2446447f00011f0254","665500ab8938657b03fbdba8","66579345d450c094bccb2044","2935","stimuli/0100001.jpg","0","","prediction_trial","0","","true","","0","true","true","false","true","false","true","[0]","100","001","1","","","","","","",""
"","","","","","image-keyboard-response","100","352599","0.0-48.0","59d0ec2446447f00011f0254","665500ab8938657b03fbdba8","66579345d450c094bccb2044","589","stimuli/01000010.jpg"," ","","feedback_trial","0","","","","","","","","","","","","","","","","","","","","",""
"","","","","","image-keyboard-response","101","354783","0.0-49.0","59d0ec2446447f00011f0254","665500ab8938657b03fbdba8","66579345d450c094bccb2044","2183","stimuli/2001110.jpg","2","","prediction_trial","2","","true","","2","true","true","false","true","false","true","[2]","001","110","1","","","","","","",""
"","","","","","image-keyboard-response","102","355352","0.0-50.0","59d0ec2446447f00011f0254","665500ab8938657b03fbdba8","66579345d450c094bccb2044","567","stimuli/20011102.jpg"," ","","feedback_trial","2","","","","","","","","","","","","","","","","","","","","",""
"","","","","","image-keyboard-response","103","358495","0.0-51.0","59d0ec2446447f00011f0254","665500ab8938657b03fbdba8","66579345d450c094bccb2044","3142","stimuli/2100111.jpg","0","","prediction_trial","2","","false","","2","false","false","true","true","false","false","[2]","100","111","0","","","","","","",""
"","","","","","image-keyboard-response","104","359392","0.0-52.0","59d0ec2446447f00011f0254","665500ab8938657b03fbdba8","66579345d450c094bccb2044","896","stimuli/21001112.jpg"," ","","feedback_trial","2","","","","","","","","","","","","","","","","","","","","",""
"","","","","","image-keyboard-response","105","361671","0.0-53.0","59d0ec2446447f00011f0254","665500ab8938657b03fbdba8","66579345d450c094bccb2044","2278","stimuli/1101111.jpg","1","","prediction_trial","1","","true","","1","false","false","true","true","false","false","[1]","101","111","1","","","","","","",""
"","","","","","image-keyboard-response","106","362239","0.0-54.0","59d0ec2446447f00011f0254","665500ab8938657b03fbdba8","66579345d450c094bccb2044","567","stimuli/11011111.jpg"," ","","feedback_trial","1","","","","","","","","","","","","","","","","","","","","",""
"","","","","","image-keyboard-response","107","365343","0.0-55.0","59d0ec2446447f00011f0254","665500ab8938657b03fbdba8","66579345d450c094bccb2044","3102","stimuli/1011101.jpg","1","","prediction_trial","1","","true","","1","true","true","false","false","false","false","[1,2]","011","101","1","","","","","","",""
"","","","","","image-keyboard-response","108","366023","0.0-56.0","59d0ec2446447f00011f0254","665500ab8938657b03fbdba8","66579345d450c094bccb2044","679","stimuli/10111011.jpg"," ","","feedback_trial","1","","","","","","","","","","","","","","","","","","","","",""
"","","","","","image-keyboard-response","109","368288","0.0-57.0","59d0ec2446447f00011f0254","665500ab8938657b03fbdba8","66579345d450c094bccb2044","2264","stimuli/1000110.jpg","1","","prediction_trial","1","","true","","1","false","false","true","true","false","false","[1]","000","110","1","","","","","","",""
"","","","","","image-keyboard-response","110","368832","0.0-58.0","59d0ec2446447f00011f0254","665500ab8938657b03fbdba8","66579345d450c094bccb2044","542","stimuli/10001101.jpg"," ","","feedback_trial","1","","","","","","","","","","","","","","","","","","","","",""
"","","","","","image-keyboard-response","111","371208","0.0-59.0","59d0ec2446447f00011f0254","665500ab8938657b03fbdba8","66579345d450c094bccb2044","2375","stimuli/1110000.jpg","1","","prediction_trial","0","","false","","1","true","true","false","false","false","false","[0,1]","110","000","0","","","","","","",""
"","","","","","image-keyboard-response","112","371735","0.0-60.0","59d0ec2446447f00011f0254","665500ab8938657b03fbdba8","66579345d450c094bccb2044","526","stimuli/11100000.jpg"," ","","feedback_trial","0","","","","","","","","","","","","","","","","","","","","",""
"","","","","","image-keyboard-response","113","373503","0.0-61.0","59d0ec2446447f00011f0254","665500ab8938657b03fbdba8","66579345d450c094bccb2044","1760","stimuli/1110011.jpg","1","","prediction_trial","1","","true","","1","false","false","false","false","false","false","[0,1]","110","011","1","","","","","","",""
"","","","","","image-keyboard-response","114","373887","0.0-62.0","59d0ec2446447f00011f0254","665500ab8938657b03fbdba8","66579345d450c094bccb2044","383","stimuli/11100111.jpg"," ","","feedback_trial","0","","","","","","","","","","","","","","","","","","","","",""
"","","","","","image-keyboard-response","115","376759","0.0-63.0","59d0ec2446447f00011f0254","665500ab8938657b03fbdba8","66579345d450c094bccb2044","2871","stimuli/1010011.jpg","1","","prediction_trial","1","","true","","1","false","false","false","true","false","false","[1]","010","011","1","","","","","","",""
"","","","","","image-keyboard-response","116","377408","0.0-64.0","59d0ec2446447f00011f0254","665500ab8938657b03fbdba8","66579345d450c094bccb2044","647","stimuli/10100111.jpg"," ","","feedback_trial","1","","","","","","","","","","","","","","","","","","","","",""
"","","","","","image-keyboard-response","117","380567","0.0-65.0","59d0ec2446447f00011f0254","665500ab8938657b03fbdba8","66579345d450c094bccb2044","3159","stimuli/1001010.jpg","1","","prediction_trial","1","","true","","1","false","true","true","true","false","true","[1]","001","010","1","","","","","","",""
"","","","","","image-keyboard-response","118","381087","0.0-66.0","59d0ec2446447f00011f0254","665500ab8938657b03fbdba8","66579345d450c094bccb2044","519","stimuli/10010101.jpg"," ","","feedback_trial","1","","","","","","","","","","","","","","","","","","","","",""
"","","","","","image-keyboard-response","119","382479","0.0-67.0","59d0ec2446447f00011f0254","665500ab8938657b03fbdba8","66579345d450c094bccb2044","1391","stimuli/2111101.jpg","2","","prediction_trial","1","","false","","2","false","false","false","false","false","false","[1,0,2]","111","101","0","","","","","","",""
"","","","","","image-keyboard-response","120","383383","0.0-68.0","59d0ec2446447f00011f0254","665500ab8938657b03fbdba8","66579345d450c094bccb2044","903","stimuli/21111011.jpg"," ","","feedback_trial","1","","","","","","","","","","","","","","","","","","","","",""
"","","","","","image-keyboard-response","121","386103","0.0-69.0","59d0ec2446447f00011f0254","665500ab8938657b03fbdba8","66579345d450c094bccb2044","2719","stimuli/2011000.jpg","2","","prediction_trial","1","","false","","2","true","true","false","false","false","false","[1,2]","011","000","0","","","","","","",""
"","","","","","image-keyboard-response","122","386991","0.0-70.0","59d0ec2446447f00011f0254","665500ab8938657b03fbdba8","66579345d450c094bccb2044","887","stimuli/20110001.jpg"," ","","feedback_trial","1","","","","","","","","","","","","","","","","","","","","",""
"","","","","","image-keyboard-response","123","388815","0.0-71.0","59d0ec2446447f00011f0254","665500ab8938657b03fbdba8","66579345d450c094bccb2044","1823","stimuli/0110100.jpg","0","","prediction_trial","0","","true","","0","false","true","false","false","false","false","[0,1]","110","100","1","","","","","","",""
"","","","","","image-keyboard-response","124","389336","0.0-72.0","59d0ec2446447f00011f0254","665500ab8938657b03fbdba8","66579345d450c094bccb2044","520","stimuli/01101000.jpg"," ","","feedback_trial","0","","","","","","","","","","","","","","","","","","","","",""
"","","","","","image-keyboard-response","125","391543","0.0-73.0","59d0ec2446447f00011f0254","665500ab8938657b03fbdba8","66579345d450c094bccb2044","2206","stimuli/0011110.jpg","1","","prediction_trial","0","","false","","0","false","false","true","true","false","false","[0]","011","110","0","","","","","","",""
"","","","","","image-keyboard-response","126","392247","0.0-74.0","59d0ec2446447f00011f0254","665500ab8938657b03fbdba8","66579345d450c094bccb2044","702","stimuli/00111100.jpg"," ","","feedback_trial","0","","","","","","","","","","","","","","","","","","","","",""
"","","","","","image-keyboard-response","127","396823","0.0-75.0","59d0ec2446447f00011f0254","665500ab8938657b03fbdba8","66579345d450c094bccb2044","4575","stimuli/0111100.jpg","1","","prediction_trial","0","","false","","0","false","true","false","false","false","false","[2,1,0]","111","100","0","","","","","","",""
"","","","","","image-keyboard-response","128","397415","0.0-76.0","59d0ec2446447f00011f0254","665500ab8938657b03fbdba8","66579345d450c094bccb2044","591","stimuli/01111000.jpg"," ","","feedback_trial","2","","","","","","","","","","","","","","","","","","","","",""
"","","","","","image-keyboard-response","129","400167","0.0-77.0","59d0ec2446447f00011f0254","665500ab8938657b03fbdba8","66579345d450c094bccb2044","2751","stimuli/0000110.jpg","1","","prediction_trial","0","","false","","0","false","false","true","true","false","false","[0]","000","110","0","","","","","","",""
"","","","","","image-keyboard-response","130","400911","0.0-78.0","59d0ec2446447f00011f0254","665500ab8938657b03fbdba8","66579345d450c094bccb2044","743","stimuli/00001100.jpg"," ","","feedback_trial","0","","","","","","","","","","","","","","","","","","","","",""
"","","","","","image-keyboard-response","131","402567","0.0-79.0","59d0ec2446447f00011f0254","665500ab8938657b03fbdba8","66579345d450c094bccb2044","1654","stimuli/2100100.jpg","2","","prediction_trial","2","","true","","2","true","true","true","true","true","true","[2]","100","100","1","","","","","","",""
"","","","","","image-keyboard-response","132","403119","0.0-80.0","59d0ec2446447f00011f0254","665500ab8938657b03fbdba8","66579345d450c094bccb2044","551","stimuli/21001002.jpg"," ","","feedback_trial","2","","","","","","","","","","","","","","","","","","","","",""
"","","","","","image-keyboard-response","133","405151","0.0-81.0","59d0ec2446447f00011f0254","665500ab8938657b03fbdba8","66579345d450c094bccb2044","2031","stimuli/0100101.jpg","0","","prediction_trial","0","","true","","0","false","false","false","true","false","false","[0]","100","101","1","","","","","","",""
"","","","","","image-keyboard-response","134","405807","0.0-82.0","59d0ec2446447f00011f0254","665500ab8938657b03fbdba8","66579345d450c094bccb2044","655","stimuli/01001010.jpg"," ","","feedback_trial","0","","","","","","","","","","","","","","","","","","","","",""
"","","","","","image-keyboard-response","135","409230","0.0-83.0","59d0ec2446447f00011f0254","665500ab8938657b03fbdba8","66579345d450c094bccb2044","3423","stimuli/1010100.jpg","1","","prediction_trial","1","","true","","1","true","true","false","true","false","true","[1]","010","100","1","","","","","","",""
"","","","","","image-keyboard-response","136","409798","0.0-84.0","59d0ec2446447f00011f0254","665500ab8938657b03fbdba8","66579345d450c094bccb2044","567","stimuli/10101001.jpg"," ","","feedback_trial","1","","","","","","","","","","","","","","","","","","","","",""
"","","","","","image-keyboard-response","137","413087","0.0-85.0","59d0ec2446447f00011f0254","665500ab8938657b03fbdba8","66579345d450c094bccb2044","3287","stimuli/2001100.jpg","2","","prediction_trial","2","","true","","2","true","true","false","true","false","true","[2]","001","100","1","","","","","","",""
"","","","","","image-keyboard-response","138","413606","0.0-86.0","59d0ec2446447f00011f0254","665500ab8938657b03fbdba8","66579345d450c094bccb2044","519","stimuli/20011002.jpg"," ","","feedback_trial","2","","","","","","","","","","","","","","","","","","","","",""
"","","","","","image-keyboard-response","139","415943","0.0-87.0","59d0ec2446447f00011f0254","665500ab8938657b03fbdba8","66579345d450c094bccb2044","2329","stimuli/1100110.jpg","0","","prediction_trial","1","","false","","1","false","false","true","true","false","false","[1]","100","110","0","","","","","","",""
"","","","","","image-keyboard-response","140","416663","0.0-88.0","59d0ec2446447f00011f0254","665500ab8938657b03fbdba8","66579345d450c094bccb2044","719","stimuli/11001101.jpg"," ","","feedback_trial","1","","","","","","","","","","","","","","","","","","","","",""
"","","","","","image-keyboard-response","141","417958","0.0-89.0","59d0ec2446447f00011f0254","665500ab8938657b03fbdba8","66579345d450c094bccb2044","1295","stimuli/2101010.jpg","2","","prediction_trial","0","","false","","2","true","true","false","false","false","false","[0,2]","101","010","0","","","","","","",""
"","","","","","image-keyboard-response","142","418743","0.0-90.0","59d0ec2446447f00011f0254","665500ab8938657b03fbdba8","66579345d450c094bccb2044","783","stimuli/21010100.jpg"," ","","feedback_trial","0","","","","","","","","","","","","","","","","","","","","",""
"","","","","","image-keyboard-response","143","421367","0.0-91.0","59d0ec2446447f00011f0254","665500ab8938657b03fbdba8","66579345d450c094bccb2044","2623","stimuli/1010110.jpg","1","","prediction_trial","1","","true","","1","false","false","false","true","false","false","[1]","010","110","1","","","","","","",""
"","","","","","image-keyboard-response","144","422038","0.0-92.0","59d0ec2446447f00011f0254","665500ab8938657b03fbdba8","66579345d450c094bccb2044","671","stimuli/10101101.jpg"," ","","feedback_trial","1","","","","","","","","","","","","","","","","","","","","",""
"","","","","","image-keyboard-response","145","423207","0.0-93.0","59d0ec2446447f00011f0254","665500ab8938657b03fbdba8","66579345d450c094bccb2044","1168","stimuli/0011001.jpg","0","","prediction_trial","0","","true","","0","true","true","true","true","true","true","[0]","011","001","1","","","","","","",""
"","","","","","image-keyboard-response","146","423911","0.0-94.0","59d0ec2446447f00011f0254","665500ab8938657b03fbdba8","66579345d450c094bccb2044","703","stimuli/00110010.jpg"," ","","feedback_trial","0","","","","","","","","","","","","","","","","","","","","",""
"","","","","","image-keyboard-response","147","425582","0.0-95.0","59d0ec2446447f00011f0254","665500ab8938657b03fbdba8","66579345d450c094bccb2044","1671","stimuli/0110011.jpg","0","","prediction_trial","1","","false","","0","true","true","false","false","false","false","[0,1]","110","011","0","","","","","","",""
"","","","","","image-keyboard-response","148","426063","0.0-96.0","59d0ec2446447f00011f0254","665500ab8938657b03fbdba8","66579345d450c094bccb2044","480","stimuli/01100111.jpg"," ","","feedback_trial","0","","","","","","","","","","","","","","","","","","","","",""
"","","","","","image-keyboard-response","149","427758","0.0-97.0","59d0ec2446447f00011f0254","665500ab8938657b03fbdba8","66579345d450c094bccb2044","1694","stimuli/0001111.jpg","1","","prediction_trial","0","","false","","0","false","false","true","true","false","false","[0]","001","111","0","","","","","","",""
"","","","","","image-keyboard-response","150","428246","0.0-98.0","59d0ec2446447f00011f0254","665500ab8938657b03fbdba8","66579345d450c094bccb2044","487","stimuli/00011110.jpg"," ","","feedback_trial","0","","","","","","","","","","","","","","","","","","","","",""
"","","","","","image-keyboard-response","151","430126","0.0-99.0","59d0ec2446447f00011f0254","665500ab8938657b03fbdba8","66579345d450c094bccb2044","1879","stimuli/0010000.jpg","0","","prediction_trial","0","","true","","0","true","true","true","true","true","true","[0]","010","000","1","","","","","","",""
"","","","","","image-keyboard-response","152","430638","0.0-100.0","59d0ec2446447f00011f0254","665500ab8938657b03fbdba8","66579345d450c094bccb2044","511","stimuli/00100000.jpg"," ","","feedback_trial","0","","","","","","","","","","","","","","","","","","","","",""
"","","","","","image-keyboard-response","153","432438","0.0-101.0","59d0ec2446447f00011f0254","665500ab8938657b03fbdba8","66579345d450c094bccb2044","1799","stimuli/2101000.jpg","2","","prediction_trial","0","","false","","2","true","true","false","false","false","false","[0,2]","101","000","0","","","","","","",""
"","","","","","image-keyboard-response","154","432975","0.0-102.0","59d0ec2446447f00011f0254","665500ab8938657b03fbdba8","66579345d450c094bccb2044","537","stimuli/21010000.jpg"," ","","feedback_trial","0","","","","","","","","","","","","","","","","","","","","",""
"","","","","","image-keyboard-response","155","434302","0.0-103.0","59d0ec2446447f00011f0254","665500ab8938657b03fbdba8","66579345d450c094bccb2044","1326","stimuli/2010000.jpg","2","","prediction_trial","2","","true","","2","true","true","true","true","true","true","[2]","010","000","1","","","","","","",""
"","","","","","image-keyboard-response","156","434686","0.0-104.0","59d0ec2446447f00011f0254","665500ab8938657b03fbdba8","66579345d450c094bccb2044","383","stimuli/20100002.jpg"," ","","feedback_trial","2","","","","","","","","","","","","","","","","","","","","",""
"","","","","","image-keyboard-response","157","435646","0.0-105.0","59d0ec2446447f00011f0254","665500ab8938657b03fbdba8","66579345d450c094bccb2044","959","stimuli/1000000.jpg","1","","prediction_trial","1","","true","","1","true","true","true","true","true","true","[1]","000","000","1","","","","","","",""
"","","","","","image-keyboard-response","158","436110","0.0-106.0","59d0ec2446447f00011f0254","665500ab8938657b03fbdba8","66579345d450c094bccb2044","464","stimuli/10000001.jpg"," ","","feedback_trial","1","","","","","","","","","","","","","","","","","","","","",""
"","","","","","image-keyboard-response","159","436918","0.0-107.0","59d0ec2446447f00011f0254","665500ab8938657b03fbdba8","66579345d450c094bccb2044","807","stimuli/1100001.jpg","1","","prediction_trial","1","","true","","1","true","true","true","true","true","true","[1]","100","001","1","","","","","","",""
"","","","","","image-keyboard-response","160","437343","0.0-108.0","59d0ec2446447f00011f0254","665500ab8938657b03fbdba8","66579345d450c094bccb2044","424","stimuli/11000011.jpg"," ","","feedback_trial","1","","","","","","","","","","","","","","","","","","","","",""
"","","","","","image-keyboard-response","161","438134","0.0-109.0","59d0ec2446447f00011f0254","665500ab8938657b03fbdba8","66579345d450c094bccb2044","790","stimuli/1101101.jpg","1","","prediction_trial","1","","true","","1","true","true","true","true","true","true","[1]","101","101","1","","","","","","",""
"","","","","","image-keyboard-response","162","438590","0.0-110.0","59d0ec2446447f00011f0254","665500ab8938657b03fbdba8","66579345d450c094bccb2044","455","stimuli/11011011.jpg"," ","","feedback_trial","1","","","","","","","","","","","","","","","","","","","","",""
"","","","","","image-keyboard-response","163","439439","0.0-111.0","59d0ec2446447f00011f0254","665500ab8938657b03fbdba8","66579345d450c094bccb2044","848","stimuli/0011010.jpg","0","","prediction_trial","0","","true","","0","true","true","true","true","true","true","[0]","011","010","1","","","","","","",""
"","","","","","image-keyboard-response","164","439790","0.0-112.0","59d0ec2446447f00011f0254","665500ab8938657b03fbdba8","66579345d450c094bccb2044","350","stimuli/00110100.jpg"," ","","feedback_trial","0","","","","","","","","","","","","","","","","","","","","",""
"","","","","","image-keyboard-response","165","441006","0.0-113.0","59d0ec2446447f00011f0254","665500ab8938657b03fbdba8","66579345d450c094bccb2044","1209","stimuli/2111000.jpg","2","","prediction_trial","0","","false","","2","true","true","false","false","false","false","[1,0,2]","111","000","0","","","","","","",""
"","","","","","image-keyboard-response","166","441462","0.0-114.0","59d0ec2446447f00011f0254","665500ab8938657b03fbdba8","66579345d450c094bccb2044","455","stimuli/21110000.jpg"," ","","feedback_trial","1","","","","","","","","","","","","","","","","","","","","",""
"","","","","","image-keyboard-response","167","442487","0.0-115.0","59d0ec2446447f00011f0254","665500ab8938657b03fbdba8","66579345d450c094bccb2044","1024","stimuli/2110000.jpg","2","","prediction_trial","2","","true","","2","true","true","true","true","true","true","[2]","110","000","1","","","","","","",""
"","","","","","image-keyboard-response","168","442782","0.0-116.0","59d0ec2446447f00011f0254","665500ab8938657b03fbdba8","66579345d450c094bccb2044","295","stimuli/21100002.jpg"," ","","feedback_trial","2","","","","","","","","","","","","","","","","","","","","",""
"","","","","","image-keyboard-response","169","444030","0.0-117.0","59d0ec2446447f00011f0254","665500ab8938657b03fbdba8","66579345d450c094bccb2044","1247","stimuli/1001111.jpg","1","","prediction_trial","1","","true","","1","false","false","true","true","false","false","[1]","001","111","1","","","","","","",""
"","","","","","image-keyboard-response","170","444359","0.0-118.0","59d0ec2446447f00011f0254","665500ab8938657b03fbdba8","66579345d450c094bccb2044","328","stimuli/10011111.jpg"," ","","feedback_trial","1","","","","","","","","","","","","","","","","","","","","",""
"","","","","","image-keyboard-response","171","445398","0.0-119.0","59d0ec2446447f00011f0254","665500ab8938657b03fbdba8","66579345d450c094bccb2044","1039","stimuli/0000010.jpg","0","","prediction_trial","0","","true","","0","true","true","true","true","true","true","[0]","000","010","1","","","","","","",""
"","","","","","image-keyboard-response","172","445686","0.0-120.0","59d0ec2446447f00011f0254","665500ab8938657b03fbdba8","66579345d450c094bccb2044","287","stimuli/00000100.jpg"," ","","feedback_trial","0","","","","","","","","","","","","","","","","","","","","",""
"","","","","","image-keyboard-response","173","447111","0.0-121.0","59d0ec2446447f00011f0254","665500ab8938657b03fbdba8","66579345d450c094bccb2044","1424","stimuli/2000011.jpg","2","","prediction_trial","2","","true","","2","false","false","true","true","false","false","[2]","000","011","1","","","","","","",""
"","","","","","image-keyboard-response","174","447646","0.0-122.0","59d0ec2446447f00011f0254","665500ab8938657b03fbdba8","66579345d450c094bccb2044","534","stimuli/20000112.jpg"," ","","feedback_trial","2","","","","","","","","","","","","","","","","","","","","",""
"","","","","","image-keyboard-response","175","449518","0.0-123.0","59d0ec2446447f00011f0254","665500ab8938657b03fbdba8","66579345d450c094bccb2044","1871","stimuli/0110010.jpg","0","","prediction_trial","0","","true","","0","true","true","false","false","false","false","[1,0]","110","010","1","","","","","","",""
"","","","","","image-keyboard-response","176","449878","0.0-124.0","59d0ec2446447f00011f0254","665500ab8938657b03fbdba8","66579345d450c094bccb2044","359","stimuli/01100100.jpg"," ","","feedback_trial","1","","","","","","","","","","","","","","","","","","","","",""
"","","","","","image-keyboard-response","177","451030","0.0-125.0","59d0ec2446447f00011f0254","665500ab8938657b03fbdba8","66579345d450c094bccb2044","1151","stimuli/0001010.jpg","0","","prediction_trial","0","","true","","0","true","true","true","true","true","true","[0]","001","010","1","","","","","","",""
"","","","","","image-keyboard-response","178","451351","0.0-126.0","59d0ec2446447f00011f0254","665500ab8938657b03fbdba8","66579345d450c094bccb2044","314","stimuli/00010100.jpg"," ","","feedback_trial","0","","","","","","","","","","","","","","","","","","","","",""
"","","","","","image-keyboard-response","179","452870","0.0-127.0","59d0ec2446447f00011f0254","665500ab8938657b03fbdba8","66579345d450c094bccb2044","1518","stimuli/0010100.jpg","0","","prediction_trial","0","","true","","0","false","true","true","true","false","true","[0]","010","100","1","","","","","","",""
"","","","","","image-keyboard-response","180","453207","0.0-128.0","59d0ec2446447f00011f0254","665500ab8938657b03fbdba8","66579345d450c094bccb2044","336","stimuli/00101000.jpg"," ","","feedback_trial","0","","","","","","","","","","","","","","","","","","","","",""
"","","","","","image-keyboard-response","181","454070","0.0-129.0","59d0ec2446447f00011f0254","665500ab8938657b03fbdba8","66579345d450c094bccb2044","863","stimuli/2110100.jpg","2","","prediction_trial","2","","true","","2","true","true","true","true","true","true","[2]","110","100","1","","","","","","",""
"","","","","","image-keyboard-response","182","454382","0.0-130.0","59d0ec2446447f00011f0254","665500ab8938657b03fbdba8","66579345d450c094bccb2044","311","stimuli/21101002.jpg"," ","","feedback_trial","2","","","","","","","","","","","","","","","","","","","","",""
"","","","","","image-keyboard-response","183","455166","0.0-131.0","59d0ec2446447f00011f0254","665500ab8938657b03fbdba8","66579345d450c094bccb2044","783","stimuli/0000100.jpg","0","","prediction_trial","0","","true","","0","false","true","true","true","false","true","[0]","000","100","1","","","","","","",""
"","","","","","image-keyboard-response","184","455606","0.0-132.0","59d0ec2446447f00011f0254","665500ab8938657b03fbdba8","66579345d450c094bccb2044","439","stimuli/00001000.jpg"," ","","feedback_trial","0","","","","","","","","","","","","","","","","","","","","",""
"","","","","","image-keyboard-response","185","456902","0.0-133.0","59d0ec2446447f00011f0254","665500ab8938657b03fbdba8","66579345d450c094bccb2044","1295","stimuli/2001001.jpg","2","","prediction_trial","2","","true","","2","false","true","false","true","false","true","[2]","001","001","1","","","","","","",""
"","","","","","image-keyboard-response","186","457262","0.0-134.0","59d0ec2446447f00011f0254","665500ab8938657b03fbdba8","66579345d450c094bccb2044","359","stimuli/20010012.jpg"," ","","feedback_trial","2","","","","","","","","","","","","","","","","","","","","",""
"","","","","","image-keyboard-response","187","458294","0.0-135.0","59d0ec2446447f00011f0254","665500ab8938657b03fbdba8","66579345d450c094bccb2044","1031","stimuli/0110111.jpg","2","","prediction_trial","1","","false","","0","false","false","false","false","false","false","[1,0]","110","111","0","","","","","","",""
"","","","","","image-keyboard-response","188","458942","0.0-136.0","59d0ec2446447f00011f0254","665500ab8938657b03fbdba8","66579345d450c094bccb2044","647","stimuli/01101111.jpg"," ","","feedback_trial","1","","","","","","","","","","","","","","","","","","","","",""
"","","","","","image-keyboard-response","189","460662","0.0-137.0","59d0ec2446447f00011f0254","665500ab8938657b03fbdba8","66579345d450c094bccb2044","1719","stimuli/0101010.jpg","0","","prediction_trial","0","","true","","0","true","true","false","false","false","false","[2,0]","101","010","1","","","","","","",""
"","","","","","image-keyboard-response","190","461054","0.0-138.0","59d0ec2446447f00011f0254","665500ab8938657b03fbdba8","66579345d450c094bccb2044","391","stimuli/01010100.jpg"," ","","feedback_trial","2","","","","","","","","","","","","","","","","","","","","",""
"","","","","","image-keyboard-response","191","462135","0.0-139.0","59d0ec2446447f00011f0254","665500ab8938657b03fbdba8","66579345d450c094bccb2044","1072","stimuli/1001110.jpg","1","","prediction_trial","1","","true","","1","false","false","true","true","false","false","[1]","001","110","1","","","","","","",""
"","","","","","image-keyboard-response","192","462598","0.0-140.0","59d0ec2446447f00011f0254","665500ab8938657b03fbdba8","66579345d450c094bccb2044","462","stimuli/10011101.jpg"," ","","feedback_trial","1","","","","","","","","","","","","","","","","","","","","",""
"","","","","","image-keyboard-response","193","465398","0.0-141.0","59d0ec2446447f00011f0254","665500ab8938657b03fbdba8","66579345d450c094bccb2044","2799","stimuli/0001101.jpg","0","","prediction_trial","0","","true","","0","false","false","true","true","false","false","[0]","001","101","1","","","","","","",""
"","","","","","image-keyboard-response","194","465798","0.0-142.0","59d0ec2446447f00011f0254","665500ab8938657b03fbdba8","66579345d450c094bccb2044","399","stimuli/00011010.jpg"," ","","feedback_trial","0","","","","","","","","","","","","","","","","","","","","",""
"","","","","","image-keyboard-response","195","466877","0.0-143.0","59d0ec2446447f00011f0254","665500ab8938657b03fbdba8","66579345d450c094bccb2044","1078","stimuli/0000001.jpg","0","","prediction_trial","0","","true","","0","true","true","true","true","true","true","[0]","000","001","1","","","","","","",""
"","","","","","image-keyboard-response","196","467190","0.0-144.0","59d0ec2446447f00011f0254","665500ab8938657b03fbdba8","66579345d450c094bccb2044","312","stimuli/00000010.jpg"," ","","feedback_trial","0","","","","","","","","","","","","","","","","","","","","",""
"","","","","","image-keyboard-response","197","468414","0.0-145.0","59d0ec2446447f00011f0254","665500ab8938657b03fbdba8","66579345d450c094bccb2044","1223","stimuli/0001011.jpg","0","","prediction_trial","0","","true","","0","true","true","true","true","true","true","[0]","001","011","1","","","","","","",""
"","","","","","image-keyboard-response","198","468718","0.0-146.0","59d0ec2446447f00011f0254","665500ab8938657b03fbdba8","66579345d450c094bccb2044","302","stimuli/00010110.jpg"," ","","feedback_trial","0","","","","","","","","","","","","","","","","","","","","",""
"","","","","","image-keyboard-response","199","469869","0.0-147.0","59d0ec2446447f00011f0254","665500ab8938657b03fbdba8","66579345d450c094bccb2044","1151","stimuli/1111100.jpg","1","","prediction_trial","2","","false","","1","true","true","false","false","false","false","[1,0,2]","111","100","0","","","","","","",""
"","","","","","image-keyboard-response","200","470230","0.0-148.0","59d0ec2446447f00011f0254","665500ab8938657b03fbdba8","66579345d450c094bccb2044","360","stimuli/11111002.jpg"," ","","feedback_trial","1","","","","","","","","","","","","","","","","","","","","",""
"","","","","","image-keyboard-response","201","471470","0.0-149.0","59d0ec2446447f00011f0254","665500ab8938657b03fbdba8","66579345d450c094bccb2044","1240","stimuli/0110000.jpg","0","","prediction_trial","1","","false","","0","true","true","false","false","false","false","[0,1]","110","000","0","","","","","","",""
"","","","","","image-keyboard-response","202","472110","0.0-150.0","59d0ec2446447f00011f0254","665500ab8938657b03fbdba8","66579345d450c094bccb2044","639","stimuli/01100001.jpg"," ","","feedback_trial","0","","","","","","","","","","","","","","","","","","","","",""
"","","","","","image-keyboard-response","203","473742","0.0-151.0","59d0ec2446447f00011f0254","665500ab8938657b03fbdba8","66579345d450c094bccb2044","1631","stimuli/0010010.jpg","0","","prediction_trial","0","","true","","0","true","true","true","true","true","true","[0]","010","010","1","","","","","","",""
"","","","","","image-keyboard-response","204","474127","0.0-152.0","59d0ec2446447f00011f0254","665500ab8938657b03fbdba8","66579345d450c094bccb2044","378","stimuli/00100100.jpg"," ","","feedback_trial","0","","","","","","","","","","","","","","","","","","","","",""
"","","","","","image-keyboard-response","205","475846","0.0-153.0","59d0ec2446447f00011f0254","665500ab8938657b03fbdba8","66579345d450c094bccb2044","1719","stimuli/0101110.jpg","1","","prediction_trial","0","","false","","0","false","false","false","false","false","false","[0,2]","101","110","0","","","","","","",""
"","","","","","image-keyboard-response","206","476438","0.0-154.0","59d0ec2446447f00011f0254","665500ab8938657b03fbdba8","66579345d450c094bccb2044","591","stimuli/01011100.jpg"," ","","feedback_trial","0","","","","","","","","","","","","","","","","","","","","",""
"","","","","","image-keyboard-response","207","479598","0.0-155.0","59d0ec2446447f00011f0254","665500ab8938657b03fbdba8","66579345d450c094bccb2044","3159","stimuli/2101110.jpg","2","","prediction_trial","2","","true","","2","true","true","false","false","false","false","[2,0]","101","110","1","","","","","","",""
"","","","","","image-keyboard-response","208","480110","0.0-156.0","59d0ec2446447f00011f0254","665500ab8938657b03fbdba8","66579345d450c094bccb2044","511","stimuli/21011102.jpg"," ","","feedback_trial","2","","","","","","","","","","","","","","","","","","","","",""
"","","","","","image-keyboard-response","209","482613","0.0-157.0","59d0ec2446447f00011f0254","665500ab8938657b03fbdba8","66579345d450c094bccb2044","2503","stimuli/2110101.jpg","0","","prediction_trial","2","","false","","2","false","false","true","true","false","false","[2]","110","101","0","","","","","","",""
"","","","","","image-keyboard-response","210","483118","0.0-158.0","59d0ec2446447f00011f0254","665500ab8938657b03fbdba8","66579345d450c094bccb2044","504","stimuli/21101012.jpg"," ","","feedback_trial","2","","","","","","","","","","","","","","","","","","","","",""
"","","","","","image-keyboard-response","211","484110","0.0-159.0","59d0ec2446447f00011f0254","665500ab8938657b03fbdba8","66579345d450c094bccb2044","991","stimuli/2100000.jpg","2","","prediction_trial","2","","true","","2","true","true","true","true","true","true","[2]","100","000","1","","","","","","",""
"","","","","","image-keyboard-response","212","484485","0.0-160.0","59d0ec2446447f00011f0254","665500ab8938657b03fbdba8","66579345d450c094bccb2044","375","stimuli/21000002.jpg"," ","","feedback_trial","2","","","","","","","","","","","","","","","","","","","","",""
"","","","","","image-keyboard-response","213","485405","0.0-161.0","59d0ec2446447f00011f0254","665500ab8938657b03fbdba8","66579345d450c094bccb2044","919","stimuli/2011111.jpg","0","","prediction_trial","2","","false","","2","false","false","false","false","false","false","[1,2]","011","111","0","","","","","","",""
"","","","","","image-keyboard-response","214","485878","0.0-162.0","59d0ec2446447f00011f0254","665500ab8938657b03fbdba8","66579345d450c094bccb2044","471","stimuli/20111112.jpg"," ","","feedback_trial","1","","","","","","","","","","","","","","","","","","","","",""
"","","","","","image-keyboard-response","215","486829","0.0-163.0","59d0ec2446447f00011f0254","665500ab8938657b03fbdba8","66579345d450c094bccb2044","951","stimuli/2010111.jpg","1","","prediction_trial","2","","false","","2","false","false","true","true","false","false","[2]","010","111","0","","","","","","",""
"","","","","","image-keyboard-response","216","487253","0.0-164.0","59d0ec2446447f00011f0254","665500ab8938657b03fbdba8","66579345d450c094bccb2044","423","stimuli/20101112.jpg"," ","","feedback_trial","2","","","","","","","","","","","","","","","","","","","","",""
"","","","","","image-keyboard-response","217","488333","0.0-165.0","59d0ec2446447f00011f0254","665500ab8938657b03fbdba8","66579345d450c094bccb2044","1073","stimuli/2000101.jpg","2","","prediction_trial","2","","true","","2","false","false","true","true","false","false","[2]","000","101","1","","","","","","",""
"","","","","","image-keyboard-response","218","488694","0.0-166.0","59d0ec2446447f00011f0254","665500ab8938657b03fbdba8","66579345d450c094bccb2044","360","stimuli/20001012.jpg"," ","","feedback_trial","2","","","","","","","","","","","","","","","","","","","","",""
"","","","","","image-keyboard-response","219","490110","0.0-167.0","59d0ec2446447f00011f0254","665500ab8938657b03fbdba8","66579345d450c094bccb2044","1415","stimuli/2110011.jpg","2","","prediction_trial","2","","true","","2","false","false","true","true","false","false","[2]","110","011","1","","","","","","",""
"","","","","","image-keyboard-response","220","490478","0.0-168.0","59d0ec2446447f00011f0254","665500ab8938657b03fbdba8","66579345d450c094bccb2044","367","stimuli/21100112.jpg"," ","","feedback_trial","2","","","","","","","","","","","","","","","","","","","","",""
"","","","","","image-keyboard-response","221","491742","0.0-169.0","59d0ec2446447f00011f0254","665500ab8938657b03fbdba8","66579345d450c094bccb2044","1263","stimuli/2001101.jpg","0","","prediction_trial","2","","false","","2","false","false","false","true","false","false","[2]","001","101","0","","","","","","",""
"","","","","","image-keyboard-response","222","492455","0.0-170.0","59d0ec2446447f00011f0254","665500ab8938657b03fbdba8","66579345d450c094bccb2044","712","stimuli/20011012.jpg"," ","","feedback_trial","2","","","","","","","","","","","","","","","","","","","","",""
"","","","","","image-keyboard-response","223","493389","0.0-171.0","59d0ec2446447f00011f0254","665500ab8938657b03fbdba8","66579345d450c094bccb2044","934","stimuli/0010111.jpg","2","","prediction_trial","0","","false","","0","false","false","true","true","false","false","[0]","010","111","0","","","","","","",""
"","","","","","image-keyboard-response","224","493893","0.0-172.0","59d0ec2446447f00011f0254","665500ab8938657b03fbdba8","66579345d450c094bccb2044","503","stimuli/00101110.jpg"," ","","feedback_trial","0","","","","","","","","","","","","","","","","","","","","",""
"","","","","","image-keyboard-response","225","494853","0.0-173.0","59d0ec2446447f00011f0254","665500ab8938657b03fbdba8","66579345d450c094bccb2044","959","stimuli/1100000.jpg","1","","prediction_trial","1","","true","","1","true","true","true","true","true","true","[1]","100","000","1","","","","","","",""
"","","","","","image-keyboard-response","226","495181","0.0-174.0","59d0ec2446447f00011f0254","665500ab8938657b03fbdba8","66579345d450c094bccb2044","327","stimuli/11000001.jpg"," ","","feedback_trial","1","","","","","","","","","","","","","","","","","","","","",""
"","","","","","image-keyboard-response","227","496253","0.0-175.0","59d0ec2446447f00011f0254","665500ab8938657b03fbdba8","66579345d450c094bccb2044","1071","stimuli/0101011.jpg","0","","prediction_trial","0","","true","","0","true","true","false","false","false","false","[0,2]","101","011","1","","","","","","",""
"","","","","","image-keyboard-response","228","496685","0.0-176.0","59d0ec2446447f00011f0254","665500ab8938657b03fbdba8","66579345d450c094bccb2044","431","stimuli/01010110.jpg"," ","","feedback_trial","0","","","","","","","","","","","","","","","","","","","","",""
"","","","","","image-keyboard-response","229","497646","0.0-177.0","59d0ec2446447f00011f0254","665500ab8938657b03fbdba8","66579345d450c094bccb2044","960","stimuli/2000001.jpg","2","","prediction_trial","2","","true","","2","false","true","true","true","false","true","[2]","000","001","1","","","","","","",""
"","","","","","image-keyboard-response","230","497941","0.0-178.0","59d0ec2446447f00011f0254","665500ab8938657b03fbdba8","66579345d450c094bccb2044","287","stimuli/20000012.jpg"," ","","feedback_trial","2","","","","","","","","","","","","","","","","","","","","",""
"","","","","","image-keyboard-response","231","499006","0.0-179.0","59d0ec2446447f00011f0254","665500ab8938657b03fbdba8","66579345d450c094bccb2044","1064","stimuli/1100010.jpg","1","","prediction_trial","1","","true","","1","false","true","true","true","false","true","[1]","100","010","1","","","","","","",""
"","","","","","image-keyboard-response","232","499245","0.0-180.0","59d0ec2446447f00011f0254","665500ab8938657b03fbdba8","66579345d450c094bccb2044","239","stimuli/11000101.jpg"," ","","feedback_trial","1","","","","","","","","","","","","","","","","","","","","",""
"","","","","","image-keyboard-response","233","500429","0.0-181.0","59d0ec2446447f00011f0254","665500ab8938657b03fbdba8","66579345d450c094bccb2044","1183","stimuli/2011010.jpg","2","","prediction_trial","1","","false","","2","true","true","false","false","false","false","[1,2]","011","010","0","","","","","","",""
"","","","","","image-keyboard-response","234","500813","0.0-182.0","59d0ec2446447f00011f0254","665500ab8938657b03fbdba8","66579345d450c094bccb2044","383","stimuli/20110101.jpg"," ","","feedback_trial","1","","","","","","","","","","","","","","","","","","","","",""
"","","","","","image-keyboard-response","235","501998","0.0-183.0","59d0ec2446447f00011f0254","665500ab8938657b03fbdba8","66579345d450c094bccb2044","1184","stimuli/2001011.jpg","1","","prediction_trial","2","","false","","2","false","false","false","true","false","false","[2]","001","011","0","","","","","","",""
"","","","","","image-keyboard-response","236","502413","0.0-184.0","59d0ec2446447f00011f0254","665500ab8938657b03fbdba8","66579345d450c094bccb2044","415","stimuli/20010112.jpg"," ","","feedback_trial","2","","","","","","","","","","","","","","","","","","","","",""
"","","","","","image-keyboard-response","237","503205","0.0-185.0","59d0ec2446447f00011f0254","665500ab8938657b03fbdba8","66579345d450c094bccb2044","790","stimuli/1001000.jpg","1","","prediction_trial","1","","true","","1","true","true","true","true","true","true","[1]","001","000","1","","","","","","",""
"","","","","","image-keyboard-response","238","503477","0.0-186.0","59d0ec2446447f00011f0254","665500ab8938657b03fbdba8","66579345d450c094bccb2044","271","stimuli/10010001.jpg"," ","","feedback_trial","1","","","","","","","","","","","","","","","","","","","","",""
"","","","","","image-keyboard-response","239","504261","0.0-187.0","59d0ec2446447f00011f0254","665500ab8938657b03fbdba8","66579345d450c094bccb2044","783","stimuli/0011100.jpg","0","","prediction_trial","0","","true","","0","false","true","true","true","false","true","[0]","011","100","1","","","","","","",""
"","","","","","image-keyboard-response","240","504517","0.0-188.0","59d0ec2446447f00011f0254","665500ab8938657b03fbdba8","66579345d450c094bccb2044","255","stimuli/00111000.jpg"," ","","feedback_trial","0","","","","","","","","","","","","","","","","","","","","",""
"","","","","","image-keyboard-response","241","505517","0.0-189.0","59d0ec2446447f00011f0254","665500ab8938657b03fbdba8","66579345d450c094bccb2044","999","stimuli/0111010.jpg","0","","prediction_trial","1","","false","","0","true","true","false","false","false","false","[2,0,1]","111","010","0","","","","","","",""
"","","","","","image-keyboard-response","242","505685","0.0-190.0","59d0ec2446447f00011f0254","665500ab8938657b03fbdba8","66579345d450c094bccb2044","168","stimuli/01110101.jpg"," ","","feedback_trial","2","","","","","","","","","","","","","","","","","","","","",""
"","","","","","image-keyboard-response","243","506541","0.0-191.0","59d0ec2446447f00011f0254","665500ab8938657b03fbdba8","66579345d450c094bccb2044","848","stimuli/0001001.jpg","0","","prediction_trial","0","","true","","0","true","true","true","true","true","true","[0]","001","001","1","","","","","","",""
"","","","","","image-keyboard-response","244","506853","0.0-192.0","59d0ec2446447f00011f0254","665500ab8938657b03fbdba8","66579345d450c094bccb2044","311","stimuli/00010010.jpg"," ","","feedback_trial","0","","","","","","","","","","","","","","","","","","","","",""
"","","","","","image-keyboard-response","245","507941","0.0-193.0","59d0ec2446447f00011f0254","665500ab8938657b03fbdba8","66579345d450c094bccb2044","1087","stimuli/0010101.jpg","2","","prediction_trial","0","","false","","0","false","false","true","true","false","false","[0]","010","101","0","","","","","","",""
"","","","","","image-keyboard-response","246","508501","0.0-194.0","59d0ec2446447f00011f0254","665500ab8938657b03fbdba8","66579345d450c094bccb2044","559","stimuli/00101010.jpg"," ","","feedback_trial","0","","","","","","","","","","","","","","","","","","","","",""
"","","","","","image-keyboard-response","247","509221","0.0-195.0","59d0ec2446447f00011f0254","665500ab8938657b03fbdba8","66579345d450c094bccb2044","719","stimuli/1000001.jpg","1","","prediction_trial","1","","true","","1","true","true","true","true","true","true","[1]","000","001","1","","","","","","",""
"","","","","","image-keyboard-response","248","509549","0.0-196.0","59d0ec2446447f00011f0254","665500ab8938657b03fbdba8","66579345d450c094bccb2044","327","stimuli/10000011.jpg"," ","","feedback_trial","1","","","","","","","","","","","","","","","","","","","","",""
"","","","","","image-keyboard-response","249","510597","0.0-197.0","59d0ec2446447f00011f0254","665500ab8938657b03fbdba8","66579345d450c094bccb2044","1047","stimuli/0111000.jpg","0","","prediction_trial","0","","true","","0","true","true","false","false","false","false","[1,0,2]","111","000","1","","","","","","",""
"","","","","","image-keyboard-response","250","510837","0.0-198.0","59d0ec2446447f00011f0254","665500ab8938657b03fbdba8","66579345d450c094bccb2044","239","stimuli/01110000.jpg"," ","","feedback_trial","1","","","","","","","","","","","","","","","","","","","","",""
"","","","","","image-keyboard-response","251","512125","0.0-199.0","59d0ec2446447f00011f0254","665500ab8938657b03fbdba8","66579345d450c094bccb2044","1287","stimuli/1010010.jpg","1","","prediction_trial","1","","true","","1","false","true","false","true","false","true","[1]","010","010","1","","","","","","",""
"","","","","","image-keyboard-response","252","512341","0.0-200.0","59d0ec2446447f00011f0254","665500ab8938657b03fbdba8","66579345d450c094bccb2044","215","stimuli/10100101.jpg"," ","","feedback_trial","1","","","","","","","","","","","","","","","","","","","","",""
"","","","","","image-keyboard-response","253","513333","0.0-201.0","59d0ec2446447f00011f0254","665500ab8938657b03fbdba8","66579345d450c094bccb2044","990","stimuli/2001010.jpg","2","","prediction_trial","2","","true","","2","true","true","false","true","false","true","[2]","001","010","1","","","","","","",""
"","","","","","image-keyboard-response","254","513565","0.0-202.0","59d0ec2446447f00011f0254","665500ab8938657b03fbdba8","66579345d450c094bccb2044","231","stimuli/20010102.jpg"," ","","feedback_trial","2","","","","","","","","","","","","","","","","","","","","",""
"","","","","","image-keyboard-response","255","514421","0.0-203.0","59d0ec2446447f00011f0254","665500ab8938657b03fbdba8","66579345d450c094bccb2044","855","stimuli/1101000.jpg","1","","prediction_trial","1","","true","","1","true","true","true","true","true","true","[1]","101","000","1","","","","","","",""
"","","","","","image-keyboard-response","256","514565","0.0-204.0","59d0ec2446447f00011f0254","665500ab8938657b03fbdba8","66579345d450c094bccb2044","135","stimuli/11010001.jpg"," ","","feedback_trial","1","","","","","","","","","","","","","","","","","","","","",""
"","","","","","image-keyboard-response","257","515446","0.0-205.0","59d0ec2446447f00011f0254","665500ab8938657b03fbdba8","66579345d450c094bccb2044","880","stimuli/2010001.jpg","2","","prediction_trial","2","","true","","2","false","true","true","true","false","true","[2]","010","001","1","","","","","","",""
"","","","","","image-keyboard-response","258","515693","0.0-206.0","59d0ec2446447f00011f0254","665500ab8938657b03fbdba8","66579345d450c094bccb2044","246","stimuli/20100012.jpg"," ","","feedback_trial","2","","","","","","","","","","","","","","","","","","","","",""
"","","","","","image-keyboard-response","259","516653","0.0-207.0","59d0ec2446447f00011f0254","665500ab8938657b03fbdba8","66579345d450c094bccb2044","959","stimuli/1111111.jpg","1","","prediction_trial","1","","true","","1","false","false","false","false","false","false","[1,2,0]","111","111","1","","","","","","",""
"","","","","","image-keyboard-response","260","516765","0.0-208.0","59d0ec2446447f00011f0254","665500ab8938657b03fbdba8","66579345d450c094bccb2044","111","stimuli/11111111.jpg"," ","","feedback_trial","1","","","","","","","","","","","","","","","","","","","","",""
"","","","","","image-keyboard-response","261","518133","0.0-209.0","59d0ec2446447f00011f0254","665500ab8938657b03fbdba8","66579345d450c094bccb2044","1367","stimuli/0110110.jpg","0","","prediction_trial","0","","true","","0","false","false","false","false","false","false","[1,0]","110","110","1","","","","","","",""
"","","","","","image-keyboard-response","262","518357","0.0-210.0","59d0ec2446447f00011f0254","665500ab8938657b03fbdba8","66579345d450c094bccb2044","224","stimuli/01101100.jpg"," ","","feedback_trial","1","","","","","","","","","","","","","","","","","","","","",""
"","","","","","image-keyboard-response","263","519205","0.0-211.0","59d0ec2446447f00011f0254","665500ab8938657b03fbdba8","66579345d450c094bccb2044","847","stimuli/1001100.jpg","1","","prediction_trial","1","","true","","1","true","true","true","true","true","true","[1]","001","100","1","","","","","","",""
"","","","","","image-keyboard-response","264","519437","0.0-212.0","59d0ec2446447f00011f0254","665500ab8938657b03fbdba8","66579345d450c094bccb2044","231","stimuli/10011001.jpg"," ","","feedback_trial","1","","","","","","","","","","","","","","","","","","","","",""
"","","","","","image-keyboard-response","265","520653","0.0-213.0","59d0ec2446447f00011f0254","665500ab8938657b03fbdba8","66579345d450c094bccb2044","1215","stimuli/1111110.jpg","0","","prediction_trial","2","","false","","1","false","false","false","false","false","false","[1,2,0]","111","110","0","","","","","","",""
"","","","","","image-keyboard-response","266","520965","0.0-214.0","59d0ec2446447f00011f0254","665500ab8938657b03fbdba8","66579345d450c094bccb2044","311","stimuli/11111102.jpg"," ","","feedback_trial","1","","","","","","","","","","","","","","","","","","","","",""
"","","","","","image-keyboard-response","267","521869","0.0-215.0","59d0ec2446447f00011f0254","665500ab8938657b03fbdba8","66579345d450c094bccb2044","903","stimuli/1011100.jpg","1","","prediction_trial","1","","true","","1","true","true","false","false","false","false","[1,2]","011","100","1","","","","","","",""
"","","","","","image-keyboard-response","268","522325","0.0-216.0","59d0ec2446447f00011f0254","665500ab8938657b03fbdba8","66579345d450c094bccb2044","455","stimuli/10111001.jpg"," ","","feedback_trial","1","","","","","","","","","","","","","","","","","","","","",""
"","","","","","image-keyboard-response","269","523333","0.0-217.0","59d0ec2446447f00011f0254","665500ab8938657b03fbdba8","66579345d450c094bccb2044","1001","stimuli/1010000.jpg","1","","prediction_trial","1","","true","","1","true","true","false","true","false","true","[1]","010","000","1","","","","","","",""
"","","","","","image-keyboard-response","270","523509","0.0-218.0","59d0ec2446447f00011f0254","665500ab8938657b03fbdba8","66579345d450c094bccb2044","175","stimuli/10100001.jpg"," ","","feedback_trial","1","","","","","","","","","","","","","","","","","","","","",""
"","","","","","image-keyboard-response","271","524604","0.0-219.0","59d0ec2446447f00011f0254","665500ab8938657b03fbdba8","66579345d450c094bccb2044","1095","stimuli/1011001.jpg","1","","prediction_trial","2","","false","","1","true","true","false","false","false","false","[1,2]","011","001","0","","","","","","",""
"","","","","","image-keyboard-response","272","524773","0.0-220.0","59d0ec2446447f00011f0254","665500ab8938657b03fbdba8","66579345d450c094bccb2044","167","stimuli/10110012.jpg"," ","","feedback_trial","1","","","","","","","","","","","","","","","","","","","","",""
"","","","","","image-keyboard-response","273","525917","0.0-221.0","59d0ec2446447f00011f0254","665500ab8938657b03fbdba8","66579345d450c094bccb2044","1143","stimuli/0011101.jpg","0","","prediction_trial","0","","true","","0","false","false","true","true","false","false","[0]","011","101","1","","","","","","",""
"","","","","","image-keyboard-response","274","526454","0.0-222.0","59d0ec2446447f00011f0254","665500ab8938657b03fbdba8","66579345d450c094bccb2044","535","stimuli/00111010.jpg"," ","","feedback_trial","0","","","","","","","","","","","","","","","","","","","","",""
"","","","","","image-keyboard-response","275","527717","0.0-223.0","59d0ec2446447f00011f0254","665500ab8938657b03fbdba8","66579345d450c094bccb2044","1263","stimuli/0100000.jpg","0","","prediction_trial","0","","true","","0","true","true","false","true","false","true","[0]","100","000","1","","","","","","",""
"","","","","","image-keyboard-response","276","528045","0.0-224.0","59d0ec2446447f00011f0254","665500ab8938657b03fbdba8","66579345d450c094bccb2044","327","stimuli/01000000.jpg"," ","","feedback_trial","0","","","","","","","","","","","","","","","","","","","","",""
"","","","","","image-keyboard-response","277","528925","0.0-225.0","59d0ec2446447f00011f0254","665500ab8938657b03fbdba8","66579345d450c094bccb2044","879","stimuli/1111000.jpg","1","","prediction_trial","1","","true","","1","true","true","false","false","false","false","[2,0,1]","111","000","1","","","","","","",""
"","","","","","image-keyboard-response","278","529253","0.0-226.0","59d0ec2446447f00011f0254","665500ab8938657b03fbdba8","66579345d450c094bccb2044","327","stimuli/11110001.jpg"," ","","feedback_trial","2","","","","","","","","","","","","","","","","","","","","",""
"","","","","","image-keyboard-response","279","530197","0.0-227.0","59d0ec2446447f00011f0254","665500ab8938657b03fbdba8","66579345d450c094bccb2044","943","stimuli/1010001.jpg","1","","prediction_trial","1","","true","","1","true","true","false","true","false","true","[1]","010","001","1","","","","","","",""
"","","","","","image-keyboard-response","280","530493","0.0-228.0","59d0ec2446447f00011f0254","665500ab8938657b03fbdba8","66579345d450c094bccb2044","295","stimuli/10100011.jpg"," ","","feedback_trial","1","","","","","","","","","","","","","","","","","","","","",""
"","","","","","image-keyboard-response","281","531341","0.0-229.0","59d0ec2446447f00011f0254","665500ab8938657b03fbdba8","66579345d450c094bccb2044","847","stimuli/0000011.jpg","0","","prediction_trial","0","","true","","0","true","true","true","true","true","true","[0]","000","011","1","","","","","","",""
"","","","","","image-keyboard-response","282","531669","0.0-230.0","59d0ec2446447f00011f0254","665500ab8938657b03fbdba8","66579345d450c094bccb2044","327","stimuli/00000110.jpg"," ","","feedback_trial","0","","","","","","","","","","","","","","","","","","","","",""
"","","","","","image-keyboard-response","283","532565","0.0-231.0","59d0ec2446447f00011f0254","665500ab8938657b03fbdba8","66579345d450c094bccb2044","895","stimuli/0111001.jpg","0","","prediction_trial","1","","false","","0","true","true","false","false","false","false","[2,0,1]","111","001","0","","","","","","",""
"","","","","","image-keyboard-response","284","534053","0.0-232.0","59d0ec2446447f00011f0254","665500ab8938657b03fbdba8","66579345d450c094bccb2044","1488","stimuli/01110011.jpg"," ","","feedback_trial","2","","","","","","","","","","","","","","","","","","","","",""
"","","","","","image-keyboard-response","285","535797","0.0-233.0","59d0ec2446447f00011f0254","665500ab8938657b03fbdba8","66579345d450c094bccb2044","1743","stimuli/0100111.jpg","1","","prediction_trial","0","","false","","0","false","false","false","true","false","false","[0]","100","111","0","","","","","","",""
"","","","","","image-keyboard-response","286","536461","0.0-234.0","59d0ec2446447f00011f0254","665500ab8938657b03fbdba8","66579345d450c094bccb2044","662","stimuli/01001110.jpg"," ","","feedback_trial","0","","","","","","","","","","","","","","","","","","","","",""
"","","","","","image-keyboard-response","287","537549","0.0-235.0","59d0ec2446447f00011f0254","665500ab8938657b03fbdba8","66579345d450c094bccb2044","1087","stimuli/0100100.jpg","0","","prediction_trial","0","","true","","0","false","true","false","true","false","true","[0]","100","100","1","","","","","","",""
"","","","","","image-keyboard-response","288","537861","0.0-236.0","59d0ec2446447f00011f0254","665500ab8938657b03fbdba8","66579345d450c094bccb2044","311","stimuli/01001000.jpg"," ","","feedback_trial","0","","","","","","","","","","","","","","","","","","","","",""
"","","","","","image-keyboard-response","289","538757","0.0-237.0","59d0ec2446447f00011f0254","665500ab8938657b03fbdba8","66579345d450c094bccb2044","895","stimuli/0100010.jpg","0","","prediction_trial","0","","true","","0","true","true","false","true","false","true","[0]","100","010","1","","","","","","",""
"","","","","","image-keyboard-response","290","539005","0.0-238.0","59d0ec2446447f00011f0254","665500ab8938657b03fbdba8","66579345d450c094bccb2044","246","stimuli/01000100.jpg"," ","","feedback_trial","0","","","","","","","","","","","","","","","","","","","","",""
"","","","","","image-keyboard-response","291","539862","0.0-239.0","59d0ec2446447f00011f0254","665500ab8938657b03fbdba8","66579345d450c094bccb2044","856","stimuli/1100111.jpg","0","","prediction_trial","1","","false","","1","false","false","true","true","false","false","[1]","100","111","0","","","","","","",""
"","","","","","image-keyboard-response","292","540045","0.0-240.0","59d0ec2446447f00011f0254","665500ab8938657b03fbdba8","66579345d450c094bccb2044","182","stimuli/11001111.jpg"," ","","feedback_trial","1","","","","","","","","","","","","","","","","","","","","",""
"","","","","","image-keyboard-response","293","540998","0.0-241.0","59d0ec2446447f00011f0254","665500ab8938657b03fbdba8","66579345d450c094bccb2044","952","stimuli/2000111.jpg","1","","prediction_trial","2","","false","","2","false","false","true","true","false","false","[2]","000","111","0","","","","","","",""
"","","","","","image-keyboard-response","294","541413","0.0-242.0","59d0ec2446447f00011f0254","665500ab8938657b03fbdba8","66579345d450c094bccb2044","414","stimuli/20001112.jpg"," ","","feedback_trial","2","","","","","","","","","","","","","","","","","","","","",""
"","","","","","image-keyboard-response","295","542565","0.0-243.0","59d0ec2446447f00011f0254","665500ab8938657b03fbdba8","66579345d450c094bccb2044","1145","stimuli/2011001.jpg","2","","prediction_trial","1","","false","","2","false","true","false","false","false","false","[2,1]","011","001","0","","","","","","",""
"","","","","","image-keyboard-response","296","543141","0.0-244.0","59d0ec2446447f00011f0254","665500ab8938657b03fbdba8","66579345d450c094bccb2044","575","stimuli/20110011.jpg"," ","","feedback_trial","2","","","","","","","","","","","","","","","","","","","","",""
"","","","","","image-keyboard-response","297","543877","0.0-245.0","59d0ec2446447f00011f0254","665500ab8938657b03fbdba8","66579345d450c094bccb2044","735","stimuli/2111011.jpg","1","","prediction_trial","0","","false","","2","false","false","false","false","false","false","[0,1,2]","111","011","0","","","","","","",""
"","","","","","image-keyboard-response","298","544285","0.0-246.0","59d0ec2446447f00011f0254","665500ab8938657b03fbdba8","66579345d450c094bccb2044","406","stimuli/21110110.jpg"," ","","feedback_trial","0","","","","","","","","","","","","","","","","","","","","",""
"","","","","","image-keyboard-response","299","545125","0.0-247.0","59d0ec2446447f00011f0254","665500ab8938657b03fbdba8","66579345d450c094bccb2044","839","stimuli/0000111.jpg","0","","prediction_trial","0","","true","","0","false","false","true","true","false","false","[0]","000","111","1","","","","","","",""
"","","","","","image-keyboard-response","300","545557","0.0-248.0","59d0ec2446447f00011f0254","665500ab8938657b03fbdba8","66579345d450c094bccb2044","431","stimuli/00001110.jpg"," ","","feedback_trial","0","","","","","","","","","","","","","","","","","","","","",""
"","","","","","image-keyboard-response","301","546950","0.0-249.0","59d0ec2446447f00011f0254","665500ab8938657b03fbdba8","66579345d450c094bccb2044","1392","stimuli/2111111.jpg","0","","prediction_trial","0","","true","","2","false","false","false","false","false","false","[1,2,0]","111","111","1","","","","","","",""
"","","","","","image-keyboard-response","302","547325","0.0-250.0","59d0ec2446447f00011f0254","665500ab8938657b03fbdba8","66579345d450c094bccb2044","374","stimuli/21111110.jpg"," ","","feedback_trial","1","","","","","","","","","","","","","","","","","","","","",""
"","","","","","image-keyboard-response","303","548301","0.0-251.0","59d0ec2446447f00011f0254","665500ab8938657b03fbdba8","66579345d450c094bccb2044","976","stimuli/0000000.jpg","0","","prediction_trial","0","","true","","0","true","true","true","true","true","true","[0]","000","000","1","","","","","","",""
"","","","","","image-keyboard-response","304","548581","0.0-252.0","59d0ec2446447f00011f0254","665500ab8938657b03fbdba8","66579345d450c094bccb2044","278","stimuli/00000000.jpg"," ","","feedback_trial","0","","","","","","","","","","","","","","","","","","","","",""
"","","","","","image-keyboard-response","305","549589","0.0-253.0","59d0ec2446447f00011f0254","665500ab8938657b03fbdba8","66579345d450c094bccb2044","1007","stimuli/2101100.jpg","2","","prediction_trial","0","","false","","2","true","true","false","false","false","false","[2,0]","101","100","0","","","","","","",""
"","","","","","image-keyboard-response","306","550245","0.0-254.0","59d0ec2446447f00011f0254","665500ab8938657b03fbdba8","66579345d450c094bccb2044","655","stimuli/21011000.jpg"," ","","feedback_trial","2","","","","","","","","","","","","","","","","","","","","",""
"","","","","","image-keyboard-response","307","551014","0.0-255.0","59d0ec2446447f00011f0254","665500ab8938657b03fbdba8","66579345d450c094bccb2044","768","stimuli/1000101.jpg","1","","prediction_trial","1","","true","","1","true","true","true","true","true","true","[1]","000","101","1","","","","","","",""
"","","","","","image-keyboard-response","308","551373","0.0-256.0","59d0ec2446447f00011f0254","665500ab8938657b03fbdba8","66579345d450c094bccb2044","350","stimuli/10001011.jpg"," ","","feedback_trial","1","","","","","","","","","","","","","","","","","","","","",""
"","","","","","image-keyboard-response","309","552709","0.0-257.0","59d0ec2446447f00011f0254","665500ab8938657b03fbdba8","66579345d450c094bccb2044","1335","stimuli/0010110.jpg","0","","prediction_trial","0","","true","","0","false","false","true","true","false","false","[0]","010","110","1","","","","","","",""
