"success","timeout","failed_images","failed_audio","failed_video","trial_type","trial_index","time_elapsed","internal_node_id","prolific_id","prolific_study_id","prolific_session_id","rt","stimulus","response","view_history","trial","character_choice","stimulus_dict","accuracy","correct_response","ball_pos","ego_ball_visible","ego_can_infer","alter_ball_visible","alter_can_infer","collective_ball_visible","collective_can_infer","search_locations","alter_occluders","ego_occluders","accuracy_bool","feedback","age","ethnicity","gender","race","overall_accuracy","bonus"
"true","false","[]","[]","[]","preload","0","2029","0.0-0.0","5dcea7314d51e4107516c80d","665500ab8938657b03fbdba8","6657936867794463652049c7","","","","","","","","","","","","","","","","","","","","","","","","","","",""
"true","","","","","fullscreen","1","7454","0.0-1.0","5dcea7314d51e4107516c80d","665500ab8938657b03fbdba8","6657936867794463652049c7","","","","","","","","","","","","","","","","","","","","","","","","","","",""
"","","","","","html-button-response","2","21831","0.0-2.0","5dcea7314d51e4107516c80d","665500ab8938657b03fbdba8","6657936867794463652049c7","14375","<p><b>Consent Form</b></p> <div style=""text-align:left;background-color:lightgrey; padding:20px; max-width:900px;""><p>Please consider this information carefully before deciding whether to participate in this research.</p> <p>The purpose of this research is to examine which factors influence social judgment and decision-making. You will be asked to make judgements about individuals and actions in social scenarios. We are simply interested in your judgement. The study will take less than 1 hour to complete, and you will receive less than $20 on Prolific. Your compensation and time commitment are specified in the study description. There are no anticipated risks associated with participating in this study. The effects of participating should be comparable to those you would ordinarily experience from viewing a computer monitor and using a mouse or keyboard for a similar amount of time. At the end of the study, we will provide an explanation of the questions that motivate this line of research and will describe the potential implications. </p><p> Your participation in this study is completely voluntary and you may refuse to participate or you may choose to withdraw at any time without penalty or loss of benefits to you which are otherwise entitled. Your participation in this study will remain confidential. No personally identifiable information will be associated with your data. Also, all analyses of the data will be averaged across all the participants, so your individual responses will never be specifically analyzed. </p><p> If you have questions or concerns about your participation or payment, or want to request a summary of research findings, please contact Dr. Jonathan Phillips at Jonathan.S.Phillips@dartmouth.edu. </p><p> Please save a copy of this form for your records. </p><p><b>Agreement: </b>The nature and purpose of this research have been sufficiently explained and I agree to participate in this study. I understand that I am free to withdraw at any time without incurring any penalty. Please consent by clicking the button below to continue. Otherwise, please exit the study at any time. </p>","0","","","","","","","","","","","","","","","","","","","","","","","",""
"","","","","","instructions","3","80405","0.0-3.0-0.0","5dcea7314d51e4107516c80d","665500ab8938657b03fbdba8","6657936867794463652049c7","58572","","","[{""page_index"":0,""viewing_time"":2265},{""page_index"":1,""viewing_time"":3343},{""page_index"":2,""viewing_time"":3057},{""page_index"":3,""viewing_time"":6082},{""page_index"":4,""viewing_time"":3988},{""page_index"":5,""viewing_time"":1985},{""page_index"":6,""viewing_time"":3476},{""page_index"":7,""viewing_time"":3269},{""page_index"":8,""viewing_time"":2365},{""page_index"":9,""viewing_time"":4252},{""page_index"":10,""viewing_time"":14457},{""page_index"":11,""viewing_time"":4037},{""page_index"":12,""viewing_time"":4125},{""page_index"":13,""viewing_time"":1870}]","intro","","","","","","","","","","","","","","","","","","","","","",""
"","","","","","image-keyboard-response","4","92536","0.0-3.0-1.0","5dcea7314d51e4107516c80d","665500ab8938657b03fbdba8","6657936867794463652049c7","12128","stimuli/2000101.jpg","2","","prediction_practice","2","{""filepath"":""stimuli/2000101.jpg"",""ball_pos"":2,""ego_ball_visible"":false,""ego_can_infer"":false,""alter_ball_visible"":true,""alter_can_infer"":true,""collective_ball_visible"":false,""collective_can_infer"":false,""search_locations"":[2],""alter_occluders"":""000"",""ego_occluders"":""101""}","true","","","","","","","","","","","","","","","","","","",""
"","","","","","image-keyboard-response","5","94622","0.0-3.0-2.0","5dcea7314d51e4107516c80d","665500ab8938657b03fbdba8","6657936867794463652049c7","2084","stimuli/20001012.jpg"," ","","practrice_feedback","2","","","","","","","","","","","","","","","","","","","","",""
"","","","","","image-keyboard-response","6","108643","0.0-3.0-3.0","5dcea7314d51e4107516c80d","665500ab8938657b03fbdba8","6657936867794463652049c7","14021","stimuli/1000110.jpg","1","","prediction_practice","1","{""filepath"":""stimuli/1000110.jpg"",""ball_pos"":1,""ego_ball_visible"":false,""ego_can_infer"":false,""alter_ball_visible"":true,""alter_can_infer"":true,""collective_ball_visible"":false,""collective_can_infer"":false,""search_locations"":[1],""alter_occluders"":""000"",""ego_occluders"":""110""}","true","","","","","","","","","","","","","","","","","","",""
"","","","","","image-keyboard-response","7","110768","0.0-3.0-4.0","5dcea7314d51e4107516c80d","665500ab8938657b03fbdba8","6657936867794463652049c7","2123","stimuli/10001101.jpg"," ","","practrice_feedback","1","","","","","","","","","","","","","","","","","","","","",""
"","","","","","image-keyboard-response","8","113491","0.0-3.0-5.0","5dcea7314d51e4107516c80d","665500ab8938657b03fbdba8","6657936867794463652049c7","2723","stimuli/0001111.jpg","1","","prediction_practice","0","{""filepath"":""stimuli/0001111.jpg"",""ball_pos"":0,""ego_ball_visible"":false,""ego_can_infer"":false,""alter_ball_visible"":true,""alter_can_infer"":true,""collective_ball_visible"":false,""collective_can_infer"":false,""search_locations"":[0],""alter_occluders"":""001"",""ego_occluders"":""111""}","false","","","","","","","","","","","","","","","","","","",""
"","","","","","image-keyboard-response","9","115429","0.0-3.0-6.0","5dcea7314d51e4107516c80d","665500ab8938657b03fbdba8","6657936867794463652049c7","1937","stimuli/00011110.jpg"," ","","practrice_feedback","0","","","","","","","","","","","","","","","","","","","","",""
"","","","","","image-keyboard-response","10","117879","0.0-3.0-7.0","5dcea7314d51e4107516c80d","665500ab8938657b03fbdba8","6657936867794463652049c7","2449","stimuli/0110000.jpg","0","","prediction_practice","0","{""filepath"":""stimuli/0110000.jpg"",""ball_pos"":0,""ego_ball_visible"":true,""ego_can_infer"":true,""alter_ball_visible"":false,""alter_can_infer"":false,""collective_ball_visible"":false,""collective_can_infer"":false,""search_locations"":[1,0],""alter_occluders"":""110"",""ego_occluders"":""000""}","true","","","","","","","","","","","","","","","","","","",""
"","","","","","image-keyboard-response","11","119008","0.0-3.0-8.0","5dcea7314d51e4107516c80d","665500ab8938657b03fbdba8","6657936867794463652049c7","1129","stimuli/01100000.jpg"," ","","practrice_feedback","1","","","","","","","","","","","","","","","","","","","","",""
"","","","","","image-keyboard-response","12","122247","0.0-3.0-9.0","5dcea7314d51e4107516c80d","665500ab8938657b03fbdba8","6657936867794463652049c7","3238","stimuli/0000111.jpg","0","","prediction_practice","0","{""filepath"":""stimuli/0000111.jpg"",""ball_pos"":0,""ego_ball_visible"":false,""ego_can_infer"":false,""alter_ball_visible"":true,""alter_can_infer"":true,""collective_ball_visible"":false,""collective_can_infer"":false,""search_locations"":[0],""alter_occluders"":""000"",""ego_occluders"":""111""}","true","","","","","","","","","","","","","","","","","","",""
"","","","","","image-keyboard-response","13","123862","0.0-3.0-10.0","5dcea7314d51e4107516c80d","665500ab8938657b03fbdba8","6657936867794463652049c7","1614","stimuli/00001110.jpg"," ","","practrice_feedback","0","","","","","","","","","","","","","","","","","","","","",""
"","","","","","image-keyboard-response","14","127140","0.0-3.0-11.0","5dcea7314d51e4107516c80d","665500ab8938657b03fbdba8","6657936867794463652049c7","3277","stimuli/1011011.jpg","1","","prediction_practice","2","{""filepath"":""stimuli/1011011.jpg"",""ball_pos"":1,""ego_ball_visible"":false,""ego_can_infer"":false,""alter_ball_visible"":false,""alter_can_infer"":false,""collective_ball_visible"":false,""collective_can_infer"":false,""search_locations"":[2,1],""alter_occluders"":""011"",""ego_occluders"":""011""}","false","","","","","","","","","","","","","","","","","","",""
"","","","","","image-keyboard-response","15","128852","0.0-3.0-12.0","5dcea7314d51e4107516c80d","665500ab8938657b03fbdba8","6657936867794463652049c7","1711","stimuli/10110112.jpg"," ","","practrice_feedback","2","","","","","","","","","","","","","","","","","","","","",""
"","","","","","image-keyboard-response","16","133475","0.0-3.0-13.0","5dcea7314d51e4107516c80d","665500ab8938657b03fbdba8","6657936867794463652049c7","4623","stimuli/0110111.jpg","0","","prediction_practice","1","{""filepath"":""stimuli/0110111.jpg"",""ball_pos"":0,""ego_ball_visible"":false,""ego_can_infer"":false,""alter_ball_visible"":false,""alter_can_infer"":false,""collective_ball_visible"":false,""collective_can_infer"":false,""search_locations"":[1,0],""alter_occluders"":""110"",""ego_occluders"":""111""}","false","","","","","","","","","","","","","","","","","","",""
"","","","","","image-keyboard-response","17","134669","0.0-3.0-14.0","5dcea7314d51e4107516c80d","665500ab8938657b03fbdba8","6657936867794463652049c7","1186","stimuli/01101111.jpg"," ","","practrice_feedback","1","","","","","","","","","","","","","","","","","","","","",""
"","","","","","image-keyboard-response","18","137924","0.0-3.0-15.0","5dcea7314d51e4107516c80d","665500ab8938657b03fbdba8","6657936867794463652049c7","3254","stimuli/0110110.jpg","0","","prediction_practice","0","{""filepath"":""stimuli/0110110.jpg"",""ball_pos"":0,""ego_ball_visible"":false,""ego_can_infer"":false,""alter_ball_visible"":false,""alter_can_infer"":false,""collective_ball_visible"":false,""collective_can_infer"":false,""search_locations"":[0,1],""alter_occluders"":""110"",""ego_occluders"":""110""}","true","","","","","","","","","","","","","","","","","","",""
"","","","","","image-keyboard-response","19","139112","0.0-3.0-16.0","5dcea7314d51e4107516c80d","665500ab8938657b03fbdba8","6657936867794463652049c7","1188","stimuli/01101100.jpg"," ","","practrice_feedback","0","","","","","","","","","","","","","","","","","","","","",""
"","","","","","image-keyboard-response","20","142707","0.0-3.0-17.0","5dcea7314d51e4107516c80d","665500ab8938657b03fbdba8","6657936867794463652049c7","3593","stimuli/2110001.jpg","2","","prediction_practice","2","{""filepath"":""stimuli/2110001.jpg"",""ball_pos"":2,""ego_ball_visible"":false,""ego_can_infer"":true,""alter_ball_visible"":true,""alter_can_infer"":true,""collective_ball_visible"":false,""collective_can_infer"":true,""search_locations"":[2],""alter_occluders"":""110"",""ego_occluders"":""001""}","true","","","","","","","","","","","","","","","","","","",""
"","","","","","image-keyboard-response","21","143637","0.0-3.0-18.0","5dcea7314d51e4107516c80d","665500ab8938657b03fbdba8","6657936867794463652049c7","930","stimuli/21100012.jpg"," ","","practrice_feedback","2","","","","","","","","","","","","","","","","","","","","",""
"","","","","","image-keyboard-response","22","144846","0.0-3.0-19.0","5dcea7314d51e4107516c80d","665500ab8938657b03fbdba8","6657936867794463652049c7","1208","stimuli/2010100.jpg","2","","prediction_practice","2","{""filepath"":""stimuli/2010100.jpg"",""ball_pos"":2,""ego_ball_visible"":true,""ego_can_infer"":true,""alter_ball_visible"":true,""alter_can_infer"":true,""collective_ball_visible"":true,""collective_can_infer"":true,""search_locations"":[2],""alter_occluders"":""010"",""ego_occluders"":""100""}","true","","","","","","","","","","","","","","","","","","",""
"","","","","","image-keyboard-response","23","145772","0.0-3.0-20.0","5dcea7314d51e4107516c80d","665500ab8938657b03fbdba8","6657936867794463652049c7","926","stimuli/20101002.jpg"," ","","practrice_feedback","2","","","","","","","","","","","","","","","","","","","","",""
"","","","","","html-button-response","24","150899","0.0-3.0-21.0","5dcea7314d51e4107516c80d","665500ab8938657b03fbdba8","6657936867794463652049c7","5126","Now that you've had some practice, you'll be tested with a couple of easy trials. If you correctly predict Sam's choice, you'll move on to complete the experiment!","0","","","","","","","","","","","","","","","","","","","","","","","",""
"","","","","","image-keyboard-response","25","153567","0.0-3.0-22.0-0.0","5dcea7314d51e4107516c80d","665500ab8938657b03fbdba8","6657936867794463652049c7","2667","stimuli/0000011.jpg","arrowleft","","comprehension_quiz","","","true","arrowleft","","","","","","","","","","","","","","","","","",""
"","","","","","image-keyboard-response","26","154664","0.0-3.0-22.0-1.0","5dcea7314d51e4107516c80d","665500ab8938657b03fbdba8","6657936867794463652049c7","1096","stimuli/00000110.jpg"," ","","comprehension_quiz","","","true"," ","","","","","","","","","","","","","","","","","",""
"","","","","","image-keyboard-response","27","158669","0.0-3.0-22.0-2.0","5dcea7314d51e4107516c80d","665500ab8938657b03fbdba8","6657936867794463652049c7","4004","stimuli/1010010.jpg","arrowdown","","comprehension_quiz","","","true","arrowdown","","","","","","","","","","","","","","","","","",""
"","","","","","image-keyboard-response","28","159506","0.0-3.0-22.0-3.0","5dcea7314d51e4107516c80d","665500ab8938657b03fbdba8","6657936867794463652049c7","835","stimuli/10100101.jpg"," ","","comprehension_quiz","","","true"," ","","","","","","","","","","","","","","","","","",""
"","","","","","html-button-response","29","165518","0.0-4.0","5dcea7314d51e4107516c80d","665500ab8938657b03fbdba8","6657936867794463652049c7","6010","The experiment will now begin.","0","","","","","","","","","","","","","","","","","","","","","","","",""
"","","","","","image-keyboard-response","30","167464","0.0-5.0","5dcea7314d51e4107516c80d","665500ab8938657b03fbdba8","6657936867794463652049c7","1945","stimuli/0010001.jpg","0","","prediction_trial","0","","true","","0","true","true","true","true","true","true","[0]","010","001","1","","","","","","",""
"","","","","","image-keyboard-response","31","168351","0.0-6.0","5dcea7314d51e4107516c80d","665500ab8938657b03fbdba8","6657936867794463652049c7","886","stimuli/00100010.jpg"," ","","feedback_trial","0","","","","","","","","","","","","","","","","","","","","",""
"","","","","","image-keyboard-response","32","169915","0.0-7.0","5dcea7314d51e4107516c80d","665500ab8938657b03fbdba8","6657936867794463652049c7","1563","stimuli/1111001.jpg","1","","prediction_trial","0","","false","","1","true","true","false","false","false","false","[0,2,1]","111","001","0","","","","","","",""
"","","","","","image-keyboard-response","33","174751","0.0-8.0","5dcea7314d51e4107516c80d","665500ab8938657b03fbdba8","6657936867794463652049c7","4835","stimuli/11110010.jpg"," ","","feedback_trial","0","","","","","","","","","","","","","","","","","","","","",""
"","","","","","image-keyboard-response","34","176928","0.0-9.0","5dcea7314d51e4107516c80d","665500ab8938657b03fbdba8","6657936867794463652049c7","2177","stimuli/2000001.jpg","2","","prediction_trial","2","","true","","2","false","true","true","true","false","true","[2]","000","001","1","","","","","","",""
"","","","","","image-keyboard-response","35","177957","0.0-10.0","5dcea7314d51e4107516c80d","665500ab8938657b03fbdba8","6657936867794463652049c7","1028","stimuli/20000012.jpg"," ","","feedback_trial","2","","","","","","","","","","","","","","","","","","","","",""
"","","","","","image-keyboard-response","36","179647","0.0-11.0","5dcea7314d51e4107516c80d","665500ab8938657b03fbdba8","6657936867794463652049c7","1690","stimuli/0100000.jpg","0","","prediction_trial","0","","true","","0","true","true","false","true","false","true","[0]","100","000","1","","","","","","",""
"","","","","","image-keyboard-response","37","180567","0.0-12.0","5dcea7314d51e4107516c80d","665500ab8938657b03fbdba8","6657936867794463652049c7","919","stimuli/01000000.jpg"," ","","feedback_trial","0","","","","","","","","","","","","","","","","","","","","",""
"","","","","","image-keyboard-response","38","185071","0.0-13.0","5dcea7314d51e4107516c80d","665500ab8938657b03fbdba8","6657936867794463652049c7","4503","stimuli/0000111.jpg","2","","prediction_trial","0","","false","","0","false","false","true","true","false","false","[0]","000","111","0","","","","","","",""
"","","","","","image-keyboard-response","39","186308","0.0-14.0","5dcea7314d51e4107516c80d","665500ab8938657b03fbdba8","6657936867794463652049c7","1236","stimuli/00001110.jpg"," ","","feedback_trial","0","","","","","","","","","","","","","","","","","","","","",""
"","","","","","image-keyboard-response","40","188676","0.0-15.0","5dcea7314d51e4107516c80d","665500ab8938657b03fbdba8","6657936867794463652049c7","2361","stimuli/1111111.jpg","1","","prediction_trial","1","","true","","1","false","false","false","false","false","false","[2,1,0]","111","111","1","","","","","","",""
"","","","","","image-keyboard-response","41","189613","0.0-16.0","5dcea7314d51e4107516c80d","665500ab8938657b03fbdba8","6657936867794463652049c7","936","stimuli/11111111.jpg"," ","","feedback_trial","2","","","","","","","","","","","","","","","","","","","","",""
"","","","","","image-keyboard-response","42","191835","0.0-17.0","5dcea7314d51e4107516c80d","665500ab8938657b03fbdba8","6657936867794463652049c7","2221","stimuli/1110011.jpg","2","","prediction_trial","1","","false","","1","false","false","false","false","false","false","[1,0]","110","011","0","","","","","","",""
"","","","","","image-keyboard-response","43","192615","0.0-18.0","5dcea7314d51e4107516c80d","665500ab8938657b03fbdba8","6657936867794463652049c7","779","stimuli/11100111.jpg"," ","","feedback_trial","1","","","","","","","","","","","","","","","","","","","","",""
"","","","","","image-keyboard-response","44","193913","0.0-19.0","5dcea7314d51e4107516c80d","665500ab8938657b03fbdba8","6657936867794463652049c7","1297","stimuli/1000001.jpg","1","","prediction_trial","1","","true","","1","true","true","true","true","true","true","[1]","000","001","1","","","","","","",""
"","","","","","image-keyboard-response","45","194570","0.0-20.0","5dcea7314d51e4107516c80d","665500ab8938657b03fbdba8","6657936867794463652049c7","656","stimuli/10000011.jpg"," ","","feedback_trial","1","","","","","","","","","","","","","","","","","","","","",""
"","","","","","image-keyboard-response","46","195949","0.0-21.0","5dcea7314d51e4107516c80d","665500ab8938657b03fbdba8","6657936867794463652049c7","1378","stimuli/0111001.jpg","0","","prediction_trial","0","","true","","0","true","true","false","false","false","false","[2,1,0]","111","001","1","","","","","","",""
"","","","","","image-keyboard-response","47","196468","0.0-22.0","5dcea7314d51e4107516c80d","665500ab8938657b03fbdba8","6657936867794463652049c7","518","stimuli/01110010.jpg"," ","","feedback_trial","2","","","","","","","","","","","","","","","","","","","","",""
"","","","","","image-keyboard-response","48","197863","0.0-23.0","5dcea7314d51e4107516c80d","665500ab8938657b03fbdba8","6657936867794463652049c7","1394","stimuli/0001000.jpg","0","","prediction_trial","0","","true","","0","true","true","true","true","true","true","[0]","001","000","1","","","","","","",""
"","","","","","image-keyboard-response","49","198329","0.0-24.0","5dcea7314d51e4107516c80d","665500ab8938657b03fbdba8","6657936867794463652049c7","466","stimuli/00010000.jpg"," ","","feedback_trial","0","","","","","","","","","","","","","","","","","","","","",""
"","","","","","image-keyboard-response","50","199541","0.0-25.0","5dcea7314d51e4107516c80d","665500ab8938657b03fbdba8","6657936867794463652049c7","1210","stimuli/2010100.jpg","2","","prediction_trial","2","","true","","2","true","true","true","true","true","true","[2]","010","100","1","","","","","","",""
"","","","","","image-keyboard-response","51","200026","0.0-26.0","5dcea7314d51e4107516c80d","665500ab8938657b03fbdba8","6657936867794463652049c7","475","stimuli/20101002.jpg"," ","","feedback_trial","2","","","","","","","","","","","","","","","","","","","","",""
"","","","","","image-keyboard-response","52","202779","0.0-27.0","5dcea7314d51e4107516c80d","665500ab8938657b03fbdba8","6657936867794463652049c7","2752","stimuli/1010111.jpg","1","","prediction_trial","1","","true","","1","false","false","false","true","false","false","[1]","010","111","1","","","","","","",""
"","","","","","image-keyboard-response","53","203702","0.0-28.0","5dcea7314d51e4107516c80d","665500ab8938657b03fbdba8","6657936867794463652049c7","922","stimuli/10101111.jpg"," ","","feedback_trial","1","","","","","","","","","","","","","","","","","","","","",""
"","","","","","image-keyboard-response","54","204612","0.0-29.0","5dcea7314d51e4107516c80d","665500ab8938657b03fbdba8","6657936867794463652049c7","909","stimuli/1001000.jpg","1","","prediction_trial","1","","true","","1","true","true","true","true","true","true","[1]","001","000","1","","","","","","",""
"","","","","","image-keyboard-response","55","205059","0.0-30.0","5dcea7314d51e4107516c80d","665500ab8938657b03fbdba8","6657936867794463652049c7","446","stimuli/10010001.jpg"," ","","feedback_trial","1","","","","","","","","","","","","","","","","","","","","",""
"","","","","","image-keyboard-response","56","206412","0.0-31.0","5dcea7314d51e4107516c80d","665500ab8938657b03fbdba8","6657936867794463652049c7","1352","stimuli/2001100.jpg","2","","prediction_trial","2","","true","","2","true","true","false","true","false","true","[2]","001","100","1","","","","","","",""
"","","","","","image-keyboard-response","57","206815","0.0-32.0","5dcea7314d51e4107516c80d","665500ab8938657b03fbdba8","6657936867794463652049c7","402","stimuli/20011002.jpg"," ","","feedback_trial","2","","","","","","","","","","","","","","","","","","","","",""
"","","","","","image-keyboard-response","58","207833","0.0-33.0","5dcea7314d51e4107516c80d","665500ab8938657b03fbdba8","6657936867794463652049c7","1017","stimuli/1111100.jpg","1","","prediction_trial","1","","true","","1","true","true","false","false","false","false","[2,1,0]","111","100","1","","","","","","",""
"","","","","","image-keyboard-response","59","208244","0.0-34.0","5dcea7314d51e4107516c80d","665500ab8938657b03fbdba8","6657936867794463652049c7","409","stimuli/11111001.jpg"," ","","feedback_trial","2","","","","","","","","","","","","","","","","","","","","",""
"","","","","","image-keyboard-response","60","210305","0.0-35.0","5dcea7314d51e4107516c80d","665500ab8938657b03fbdba8","6657936867794463652049c7","2061","stimuli/2101010.jpg","2","","prediction_trial","0","","false","","2","true","true","false","false","false","false","[0,2]","101","010","0","","","","","","",""
"","","","","","image-keyboard-response","61","215743","0.0-36.0","5dcea7314d51e4107516c80d","665500ab8938657b03fbdba8","6657936867794463652049c7","5437","stimuli/21010100.jpg"," ","","feedback_trial","0","","","","","","","","","","","","","","","","","","","","",""
"","","","","","image-keyboard-response","62","217752","0.0-37.0","5dcea7314d51e4107516c80d","665500ab8938657b03fbdba8","6657936867794463652049c7","2003","stimuli/1100110.jpg","1","","prediction_trial","1","","true","","1","false","false","true","true","false","false","[1]","100","110","1","","","","","","",""
"","","","","","image-keyboard-response","63","218515","0.0-38.0","5dcea7314d51e4107516c80d","665500ab8938657b03fbdba8","6657936867794463652049c7","762","stimuli/11001101.jpg"," ","","feedback_trial","1","","","","","","","","","","","","","","","","","","","","",""
"","","","","","image-keyboard-response","64","219456","0.0-39.0","5dcea7314d51e4107516c80d","665500ab8938657b03fbdba8","6657936867794463652049c7","940","stimuli/1111101.jpg","1","","prediction_trial","0","","false","","1","true","true","false","false","false","false","[2,0,1]","111","101","0","","","","","","",""
"","","","","","image-keyboard-response","65","220444","0.0-40.0","5dcea7314d51e4107516c80d","665500ab8938657b03fbdba8","6657936867794463652049c7","986","stimuli/11111010.jpg"," ","","feedback_trial","2","","","","","","","","","","","","","","","","","","","","",""
"","","","","","image-keyboard-response","66","221431","0.0-41.0","5dcea7314d51e4107516c80d","665500ab8938657b03fbdba8","6657936867794463652049c7","987","stimuli/2000010.jpg","2","","prediction_trial","2","","true","","2","true","true","true","true","true","true","[2]","000","010","1","","","","","","",""
"","","","","","image-keyboard-response","67","222128","0.0-42.0","5dcea7314d51e4107516c80d","665500ab8938657b03fbdba8","6657936867794463652049c7","696","stimuli/20000102.jpg"," ","","feedback_trial","2","","","","","","","","","","","","","","","","","","","","",""
"","","","","","image-keyboard-response","68","222850","0.0-43.0","5dcea7314d51e4107516c80d","665500ab8938657b03fbdba8","6657936867794463652049c7","722","stimuli/2010000.jpg","2","","prediction_trial","2","","true","","2","true","true","true","true","true","true","[2]","010","000","1","","","","","","",""
"","","","","","image-keyboard-response","69","223373","0.0-44.0","5dcea7314d51e4107516c80d","665500ab8938657b03fbdba8","6657936867794463652049c7","521","stimuli/20100002.jpg"," ","","feedback_trial","2","","","","","","","","","","","","","","","","","","","","",""
"","","","","","image-keyboard-response","70","224710","0.0-45.0","5dcea7314d51e4107516c80d","665500ab8938657b03fbdba8","6657936867794463652049c7","1336","stimuli/0111010.jpg","0","","prediction_trial","1","","false","","0","true","true","false","false","false","false","[2,1,0]","111","010","0","","","","","","",""
"","","","","","image-keyboard-response","71","225530","0.0-46.0","5dcea7314d51e4107516c80d","665500ab8938657b03fbdba8","6657936867794463652049c7","819","stimuli/01110101.jpg"," ","","feedback_trial","2","","","","","","","","","","","","","","","","","","","","",""
"","","","","","image-keyboard-response","72","227623","0.0-47.0","5dcea7314d51e4107516c80d","665500ab8938657b03fbdba8","6657936867794463652049c7","2093","stimuli/1001100.jpg","1","","prediction_trial","1","","true","","1","true","true","true","true","true","true","[1]","001","100","1","","","","","","",""
"","","","","","image-keyboard-response","73","228657","0.0-48.0","5dcea7314d51e4107516c80d","665500ab8938657b03fbdba8","6657936867794463652049c7","1026","stimuli/10011001.jpg"," ","","feedback_trial","1","","","","","","","","","","","","","","","","","","","","",""
"","","","","","image-keyboard-response","74","229818","0.0-49.0","5dcea7314d51e4107516c80d","665500ab8938657b03fbdba8","6657936867794463652049c7","1160","stimuli/2000110.jpg","2","","prediction_trial","2","","true","","2","true","true","true","true","true","true","[2]","000","110","1","","","","","","",""
"","","","","","image-keyboard-response","75","230444","0.0-50.0","5dcea7314d51e4107516c80d","665500ab8938657b03fbdba8","6657936867794463652049c7","625","stimuli/20001102.jpg"," ","","feedback_trial","2","","","","","","","","","","","","","","","","","","","","",""
"","","","","","image-keyboard-response","76","232142","0.0-51.0","5dcea7314d51e4107516c80d","665500ab8938657b03fbdba8","6657936867794463652049c7","1697","stimuli/2001101.jpg","2","","prediction_trial","2","","true","","2","false","false","false","true","false","false","[2]","001","101","1","","","","","","",""
"","","","","","image-keyboard-response","77","233050","0.0-52.0","5dcea7314d51e4107516c80d","665500ab8938657b03fbdba8","6657936867794463652049c7","907","stimuli/20011012.jpg"," ","","feedback_trial","2","","","","","","","","","","","","","","","","","","","","",""
"","","","","","image-keyboard-response","78","234525","0.0-53.0","5dcea7314d51e4107516c80d","665500ab8938657b03fbdba8","6657936867794463652049c7","1475","stimuli/0011011.jpg","0","","prediction_trial","0","","true","","0","true","true","true","true","true","true","[0]","011","011","1","","","","","","",""
"","","","","","image-keyboard-response","79","235141","0.0-54.0","5dcea7314d51e4107516c80d","665500ab8938657b03fbdba8","6657936867794463652049c7","615","stimuli/00110110.jpg"," ","","feedback_trial","0","","","","","","","","","","","","","","","","","","","","",""
"","","","","","image-keyboard-response","80","237574","0.0-55.0","5dcea7314d51e4107516c80d","665500ab8938657b03fbdba8","6657936867794463652049c7","2432","stimuli/1110111.jpg","1","","prediction_trial","1","","true","","1","false","false","false","false","false","false","[0,1]","110","111","1","","","","","","",""
"","","","","","image-keyboard-response","81","238592","0.0-56.0","5dcea7314d51e4107516c80d","665500ab8938657b03fbdba8","6657936867794463652049c7","1018","stimuli/11101111.jpg"," ","","feedback_trial","0","","","","","","","","","","","","","","","","","","","","",""
"","","","","","image-keyboard-response","82","240550","0.0-57.0","5dcea7314d51e4107516c80d","665500ab8938657b03fbdba8","6657936867794463652049c7","1956","stimuli/2000011.jpg","1","","prediction_trial","2","","false","","2","false","false","true","true","false","false","[2]","000","011","0","","","","","","",""
"","","","","","image-keyboard-response","83","241220","0.0-58.0","5dcea7314d51e4107516c80d","665500ab8938657b03fbdba8","6657936867794463652049c7","669","stimuli/20000112.jpg"," ","","feedback_trial","2","","","","","","","","","","","","","","","","","","","","",""
"","","","","","image-keyboard-response","84","242470","0.0-59.0","5dcea7314d51e4107516c80d","665500ab8938657b03fbdba8","6657936867794463652049c7","1243","stimuli/0110000.jpg","0","","prediction_trial","0","","true","","0","true","true","false","false","false","false","[1,0]","110","000","1","","","","","","",""
"","","","","","image-keyboard-response","85","242933","0.0-60.0","5dcea7314d51e4107516c80d","665500ab8938657b03fbdba8","6657936867794463652049c7","462","stimuli/01100000.jpg"," ","","feedback_trial","1","","","","","","","","","","","","","","","","","","","","",""
"","","","","","image-keyboard-response","86","244625","0.0-61.0","5dcea7314d51e4107516c80d","665500ab8938657b03fbdba8","6657936867794463652049c7","1690","stimuli/0011111.jpg","1","","prediction_trial","0","","false","","0","false","false","true","true","false","false","[0]","011","111","0","","","","","","",""
"","","","","","image-keyboard-response","87","245194","0.0-62.0","5dcea7314d51e4107516c80d","665500ab8938657b03fbdba8","6657936867794463652049c7","568","stimuli/00111110.jpg"," ","","feedback_trial","0","","","","","","","","","","","","","","","","","","","","",""
"","","","","","image-keyboard-response","88","247002","0.0-63.0","5dcea7314d51e4107516c80d","665500ab8938657b03fbdba8","6657936867794463652049c7","1807","stimuli/2000100.jpg","2","","prediction_trial","2","","true","","2","true","true","true","true","true","true","[2]","000","100","1","","","","","","",""
"","","","","","image-keyboard-response","89","247525","0.0-64.0","5dcea7314d51e4107516c80d","665500ab8938657b03fbdba8","6657936867794463652049c7","523","stimuli/20001002.jpg"," ","","feedback_trial","2","","","","","","","","","","","","","","","","","","","","",""
"","","","","","image-keyboard-response","90","249655","0.0-65.0","5dcea7314d51e4107516c80d","665500ab8938657b03fbdba8","6657936867794463652049c7","2129","stimuli/1001111.jpg","1","","prediction_trial","1","","true","","1","false","false","true","true","false","false","[1]","001","111","1","","","","","","",""
"","","","","","image-keyboard-response","91","250691","0.0-66.0","5dcea7314d51e4107516c80d","665500ab8938657b03fbdba8","6657936867794463652049c7","1034","stimuli/10011111.jpg"," ","","feedback_trial","1","","","","","","","","","","","","","","","","","","","","",""
"","","","","","image-keyboard-response","92","253503","0.0-67.0","5dcea7314d51e4107516c80d","665500ab8938657b03fbdba8","6657936867794463652049c7","2812","stimuli/0000100.jpg","0","","prediction_trial","0","","true","","0","false","true","true","true","false","true","[0]","000","100","1","","","","","","",""
"","","","","","image-keyboard-response","93","254012","0.0-68.0","5dcea7314d51e4107516c80d","665500ab8938657b03fbdba8","6657936867794463652049c7","508","stimuli/00001000.jpg"," ","","feedback_trial","0","","","","","","","","","","","","","","","","","","","","",""
"","","","","","image-keyboard-response","94","255119","0.0-69.0","5dcea7314d51e4107516c80d","665500ab8938657b03fbdba8","6657936867794463652049c7","1106","stimuli/0100011.jpg","0","","prediction_trial","0","","true","","0","true","true","false","true","false","true","[0]","100","011","1","","","","","","",""
"","","","","","image-keyboard-response","95","255624","0.0-70.0","5dcea7314d51e4107516c80d","665500ab8938657b03fbdba8","6657936867794463652049c7","497","stimuli/01000110.jpg"," ","","feedback_trial","0","","","","","","","","","","","","","","","","","","","","",""
"","","","","","image-keyboard-response","96","257092","0.0-71.0","5dcea7314d51e4107516c80d","665500ab8938657b03fbdba8","6657936867794463652049c7","1467","stimuli/2010010.jpg","2","","prediction_trial","2","","true","","2","true","true","true","true","true","true","[2]","010","010","1","","","","","","",""
"","","","","","image-keyboard-response","97","257636","0.0-72.0","5dcea7314d51e4107516c80d","665500ab8938657b03fbdba8","6657936867794463652049c7","542","stimuli/20100102.jpg"," ","","feedback_trial","2","","","","","","","","","","","","","","","","","","","","",""
"","","","","","image-keyboard-response","98","258369","0.0-73.0","5dcea7314d51e4107516c80d","665500ab8938657b03fbdba8","6657936867794463652049c7","732","stimuli/2110100.jpg","2","","prediction_trial","2","","true","","2","true","true","true","true","true","true","[2]","110","100","1","","","","","","",""
"","","","","","image-keyboard-response","99","258872","0.0-74.0","5dcea7314d51e4107516c80d","665500ab8938657b03fbdba8","6657936867794463652049c7","503","stimuli/21101002.jpg"," ","","feedback_trial","2","","","","","","","","","","","","","","","","","","","","",""
"","","","","","image-keyboard-response","100","260351","0.0-75.0","5dcea7314d51e4107516c80d","665500ab8938657b03fbdba8","6657936867794463652049c7","1478","stimuli/0011101.jpg","2","","prediction_trial","0","","false","","0","false","false","true","true","false","false","[0]","011","101","0","","","","","","",""
"","","","","","image-keyboard-response","101","261045","0.0-76.0","5dcea7314d51e4107516c80d","665500ab8938657b03fbdba8","6657936867794463652049c7","694","stimuli/00111010.jpg"," ","","feedback_trial","0","","","","","","","","","","","","","","","","","","","","",""
"","","","","","image-keyboard-response","102","262051","0.0-77.0","5dcea7314d51e4107516c80d","665500ab8938657b03fbdba8","6657936867794463652049c7","1005","stimuli/2010111.jpg","2","","prediction_trial","2","","true","","2","false","false","true","true","false","false","[2]","010","111","1","","","","","","",""
"","","","","","image-keyboard-response","103","263143","0.0-78.0","5dcea7314d51e4107516c80d","665500ab8938657b03fbdba8","6657936867794463652049c7","1091","stimuli/20101112.jpg"," ","","feedback_trial","2","","","","","","","","","","","","","","","","","","","","",""
"","","","","","image-keyboard-response","104","264221","0.0-79.0","5dcea7314d51e4107516c80d","665500ab8938657b03fbdba8","6657936867794463652049c7","1077","stimuli/1010000.jpg","1","","prediction_trial","1","","true","","1","true","true","false","true","false","true","[1]","010","000","1","","","","","","",""
"","","","","","image-keyboard-response","105","264876","0.0-80.0","5dcea7314d51e4107516c80d","665500ab8938657b03fbdba8","6657936867794463652049c7","654","stimuli/10100001.jpg"," ","","feedback_trial","1","","","","","","","","","","","","","","","","","","","","",""
"","","","","","image-keyboard-response","106","265896","0.0-81.0","5dcea7314d51e4107516c80d","665500ab8938657b03fbdba8","6657936867794463652049c7","1013","stimuli/0110111.jpg","2","","prediction_trial","0","","false","","0","false","false","false","false","false","false","[1,0]","110","111","0","","","","","","",""
"","","","","","image-keyboard-response","107","266584","0.0-82.0","5dcea7314d51e4107516c80d","665500ab8938657b03fbdba8","6657936867794463652049c7","687","stimuli/01101110.jpg"," ","","feedback_trial","1","","","","","","","","","","","","","","","","","","","","",""
"","","","","","image-keyboard-response","108","267742","0.0-83.0","5dcea7314d51e4107516c80d","665500ab8938657b03fbdba8","6657936867794463652049c7","1157","stimuli/1011001.jpg","1","","prediction_trial","1","","true","","1","true","true","false","false","false","false","[1,2]","011","001","1","","","","","","",""
"","","","","","image-keyboard-response","109","268295","0.0-84.0","5dcea7314d51e4107516c80d","665500ab8938657b03fbdba8","6657936867794463652049c7","552","stimuli/10110011.jpg"," ","","feedback_trial","1","","","","","","","","","","","","","","","","","","","","",""
"","","","","","image-keyboard-response","110","269901","0.0-85.0","5dcea7314d51e4107516c80d","665500ab8938657b03fbdba8","6657936867794463652049c7","1605","stimuli/2011111.jpg","0","","prediction_trial","1","","false","","2","false","false","false","false","false","false","[1,2]","011","111","0","","","","","","",""
"","","","","","image-keyboard-response","111","270536","0.0-86.0","5dcea7314d51e4107516c80d","665500ab8938657b03fbdba8","6657936867794463652049c7","634","stimuli/20111111.jpg"," ","","feedback_trial","1","","","","","","","","","","","","","","","","","","","","",""
"","","","","","image-keyboard-response","112","271687","0.0-87.0","5dcea7314d51e4107516c80d","665500ab8938657b03fbdba8","6657936867794463652049c7","1151","stimuli/2100100.jpg","2","","prediction_trial","2","","true","","2","true","true","true","true","true","true","[2]","100","100","1","","","","","","",""
"","","","","","image-keyboard-response","113","272317","0.0-88.0","5dcea7314d51e4107516c80d","665500ab8938657b03fbdba8","6657936867794463652049c7","629","stimuli/21001002.jpg"," ","","feedback_trial","2","","","","","","","","","","","","","","","","","","","","",""
"","","","","","image-keyboard-response","114","273578","0.0-89.0","5dcea7314d51e4107516c80d","665500ab8938657b03fbdba8","6657936867794463652049c7","1260","stimuli/2011101.jpg","2","","prediction_trial","2","","true","","2","false","false","false","false","false","false","[1,2]","011","101","1","","","","","","",""
"","","","","","image-keyboard-response","115","274293","0.0-90.0","5dcea7314d51e4107516c80d","665500ab8938657b03fbdba8","6657936867794463652049c7","714","stimuli/20111012.jpg"," ","","feedback_trial","1","","","","","","","","","","","","","","","","","","","","",""
"","","","","","image-keyboard-response","116","274964","0.0-91.0","5dcea7314d51e4107516c80d","665500ab8938657b03fbdba8","6657936867794463652049c7","670","stimuli/2101110.jpg","2","","prediction_trial","2","","true","","2","true","true","false","false","false","false","[0,2]","101","110","1","","","","","","",""
"","","","","","image-keyboard-response","117","275423","0.0-92.0","5dcea7314d51e4107516c80d","665500ab8938657b03fbdba8","6657936867794463652049c7","452","stimuli/21011102.jpg"," ","","feedback_trial","0","","","","","","","","","","","","","","","","","","","","",""
"","","","","","image-keyboard-response","118","276698","0.0-93.0","5dcea7314d51e4107516c80d","665500ab8938657b03fbdba8","6657936867794463652049c7","1273","stimuli/0001010.jpg","0","","prediction_trial","0","","true","","0","true","true","true","true","true","true","[0]","001","010","1","","","","","","",""
"","","","","","image-keyboard-response","119","277170","0.0-94.0","5dcea7314d51e4107516c80d","665500ab8938657b03fbdba8","6657936867794463652049c7","471","stimuli/00010100.jpg"," ","","feedback_trial","0","","","","","","","","","","","","","","","","","","","","",""
"","","","","","image-keyboard-response","120","277931","0.0-95.0","5dcea7314d51e4107516c80d","665500ab8938657b03fbdba8","6657936867794463652049c7","761","stimuli/0101100.jpg","0","","prediction_trial","2","","false","","0","false","true","false","false","false","false","[2,0]","101","100","0","","","","","","",""
"","","","","","image-keyboard-response","121","278788","0.0-96.0","5dcea7314d51e4107516c80d","665500ab8938657b03fbdba8","6657936867794463652049c7","856","stimuli/01011002.jpg"," ","","feedback_trial","2","","","","","","","","","","","","","","","","","","","","",""
"","","","","","image-keyboard-response","122","280844","0.0-97.0","5dcea7314d51e4107516c80d","665500ab8938657b03fbdba8","6657936867794463652049c7","2055","stimuli/1001110.jpg","0","","prediction_trial","1","","false","","1","false","false","true","true","false","false","[1]","001","110","0","","","","","","",""
"","","","","","image-keyboard-response","123","281470","0.0-98.0","5dcea7314d51e4107516c80d","665500ab8938657b03fbdba8","6657936867794463652049c7","626","stimuli/10011101.jpg"," ","","feedback_trial","1","","","","","","","","","","","","","","","","","","","","",""
"","","","","","image-keyboard-response","124","282734","0.0-99.0","5dcea7314d51e4107516c80d","665500ab8938657b03fbdba8","6657936867794463652049c7","1263","stimuli/2001000.jpg","2","","prediction_trial","2","","true","","2","true","true","false","true","false","true","[2]","001","000","1","","","","","","",""
"","","","","","image-keyboard-response","125","283156","0.0-100.0","5dcea7314d51e4107516c80d","665500ab8938657b03fbdba8","6657936867794463652049c7","421","stimuli/20010002.jpg"," ","","feedback_trial","2","","","","","","","","","","","","","","","","","","","","",""
"","","","","","image-keyboard-response","126","285390","0.0-101.0","5dcea7314d51e4107516c80d","665500ab8938657b03fbdba8","6657936867794463652049c7","2233","stimuli/2000101.jpg","2","","prediction_trial","2","","true","","2","false","false","true","true","false","false","[2]","000","101","1","","","","","","",""
"","","","","","image-keyboard-response","127","285885","0.0-102.0","5dcea7314d51e4107516c80d","665500ab8938657b03fbdba8","6657936867794463652049c7","493","stimuli/20001012.jpg"," ","","feedback_trial","2","","","","","","","","","","","","","","","","","","","","",""
"","","","","","image-keyboard-response","128","286988","0.0-103.0","5dcea7314d51e4107516c80d","665500ab8938657b03fbdba8","6657936867794463652049c7","1097","stimuli/0011000.jpg","0","","prediction_trial","0","","true","","0","true","true","true","true","true","true","[0]","011","000","1","","","","","","",""
"","","","","","image-keyboard-response","129","287400","0.0-104.0","5dcea7314d51e4107516c80d","665500ab8938657b03fbdba8","6657936867794463652049c7","411","stimuli/00110000.jpg"," ","","feedback_trial","0","","","","","","","","","","","","","","","","","","","","",""
"","","","","","image-keyboard-response","130","288350","0.0-105.0","5dcea7314d51e4107516c80d","665500ab8938657b03fbdba8","6657936867794463652049c7","949","stimuli/2010101.jpg","0","","prediction_trial","2","","false","","2","false","false","true","true","false","false","[2]","010","101","0","","","","","","",""
"","","","","","image-keyboard-response","131","288888","0.0-106.0","5dcea7314d51e4107516c80d","665500ab8938657b03fbdba8","6657936867794463652049c7","537","stimuli/20101012.jpg"," ","","feedback_trial","2","","","","","","","","","","","","","","","","","","","","",""
"","","","","","image-keyboard-response","132","289709","0.0-107.0","5dcea7314d51e4107516c80d","665500ab8938657b03fbdba8","6657936867794463652049c7","820","stimuli/2001001.jpg","2","","prediction_trial","2","","true","","2","false","true","false","true","false","true","[2]","001","001","1","","","","","","",""
"","","","","","image-keyboard-response","133","290457","0.0-108.0","5dcea7314d51e4107516c80d","665500ab8938657b03fbdba8","6657936867794463652049c7","748","stimuli/20010012.jpg"," ","","feedback_trial","2","","","","","","","","","","","","","","","","","","","","",""
"","","","","","image-keyboard-response","134","291818","0.0-109.0","5dcea7314d51e4107516c80d","665500ab8938657b03fbdba8","6657936867794463652049c7","1359","stimuli/1101100.jpg","1","","prediction_trial","1","","true","","1","true","true","true","true","true","true","[1]","101","100","1","","","","","","",""
"","","","","","image-keyboard-response","135","292302","0.0-110.0","5dcea7314d51e4107516c80d","665500ab8938657b03fbdba8","6657936867794463652049c7","483","stimuli/11011001.jpg"," ","","feedback_trial","1","","","","","","","","","","","","","","","","","","","","",""
"","","","","","image-keyboard-response","136","293236","0.0-111.0","5dcea7314d51e4107516c80d","665500ab8938657b03fbdba8","6657936867794463652049c7","933","stimuli/0001011.jpg","0","","prediction_trial","0","","true","","0","true","true","true","true","true","true","[0]","001","011","1","","","","","","",""
"","","","","","image-keyboard-response","137","293592","0.0-112.0","5dcea7314d51e4107516c80d","665500ab8938657b03fbdba8","6657936867794463652049c7","355","stimuli/00010110.jpg"," ","","feedback_trial","0","","","","","","","","","","","","","","","","","","","","",""
"","","","","","image-keyboard-response","138","294597","0.0-113.0","5dcea7314d51e4107516c80d","665500ab8938657b03fbdba8","6657936867794463652049c7","1005","stimuli/0100111.jpg","0","","prediction_trial","0","","true","","0","false","false","false","true","false","false","[0]","100","111","1","","","","","","",""
"","","","","","image-keyboard-response","139","295025","0.0-114.0","5dcea7314d51e4107516c80d","665500ab8938657b03fbdba8","6657936867794463652049c7","420","stimuli/01001110.jpg"," ","","feedback_trial","0","","","","","","","","","","","","","","","","","","","","",""
"","","","","","image-keyboard-response","140","296503","0.0-115.0","5dcea7314d51e4107516c80d","665500ab8938657b03fbdba8","6657936867794463652049c7","1477","stimuli/1111011.jpg","1","","prediction_trial","2","","false","","1","false","false","false","false","false","false","[1,0,2]","111","011","0","","","","","","",""
"","","","","","image-keyboard-response","141","296997","0.0-116.0","5dcea7314d51e4107516c80d","665500ab8938657b03fbdba8","6657936867794463652049c7","493","stimuli/11110112.jpg"," ","","feedback_trial","1","","","","","","","","","","","","","","","","","","","","",""
"","","","","","image-keyboard-response","142","297883","0.0-117.0","5dcea7314d51e4107516c80d","665500ab8938657b03fbdba8","6657936867794463652049c7","885","stimuli/0000110.jpg","1","","prediction_trial","0","","false","","0","false","false","true","true","false","false","[0]","000","110","0","","","","","","",""
"","","","","","image-keyboard-response","143","298452","0.0-118.0","5dcea7314d51e4107516c80d","665500ab8938657b03fbdba8","6657936867794463652049c7","568","stimuli/00001100.jpg"," ","","feedback_trial","0","","","","","","","","","","","","","","","","","","","","",""
"","","","","","image-keyboard-response","144","299172","0.0-119.0","5dcea7314d51e4107516c80d","665500ab8938657b03fbdba8","6657936867794463652049c7","720","stimuli/0101110.jpg","1","","prediction_trial","0","","false","","0","false","false","false","false","false","false","[0,2]","101","110","0","","","","","","",""
"","","","","","image-keyboard-response","145","299721","0.0-120.0","5dcea7314d51e4107516c80d","665500ab8938657b03fbdba8","6657936867794463652049c7","548","stimuli/01011100.jpg"," ","","feedback_trial","0","","","","","","","","","","","","","","","","","","","","",""
"","","","","","image-keyboard-response","146","300389","0.0-121.0","5dcea7314d51e4107516c80d","665500ab8938657b03fbdba8","6657936867794463652049c7","667","stimuli/1000100.jpg","1","","prediction_trial","1","","true","","1","true","true","true","true","true","true","[1]","000","100","1","","","","","","",""
"","","","","","image-keyboard-response","147","300879","0.0-122.0","5dcea7314d51e4107516c80d","665500ab8938657b03fbdba8","6657936867794463652049c7","489","stimuli/10001001.jpg"," ","","feedback_trial","1","","","","","","","","","","","","","","","","","","","","",""
"","","","","","image-keyboard-response","148","301519","0.0-123.0","5dcea7314d51e4107516c80d","665500ab8938657b03fbdba8","6657936867794463652049c7","639","stimuli/1011111.jpg","1","","prediction_trial","2","","false","","1","false","false","false","false","false","false","[1,2]","011","111","0","","","","","","",""
"","","","","","image-keyboard-response","149","302065","0.0-124.0","5dcea7314d51e4107516c80d","665500ab8938657b03fbdba8","6657936867794463652049c7","545","stimuli/10111112.jpg"," ","","feedback_trial","1","","","","","","","","","","","","","","","","","","","","",""
"","","","","","image-keyboard-response","150","302955","0.0-125.0","5dcea7314d51e4107516c80d","665500ab8938657b03fbdba8","6657936867794463652049c7","883","stimuli/2011100.jpg","2","","prediction_trial","1","","false","","2","true","true","false","false","false","false","[2,1]","011","100","0","","","","","","",""
"","","","","","image-keyboard-response","151","303840","0.0-126.0","5dcea7314d51e4107516c80d","665500ab8938657b03fbdba8","6657936867794463652049c7","884","stimuli/20111001.jpg"," ","","feedback_trial","2","","","","","","","","","","","","","","","","","","","","",""
"","","","","","image-keyboard-response","152","305030","0.0-127.0","5dcea7314d51e4107516c80d","665500ab8938657b03fbdba8","6657936867794463652049c7","1189","stimuli/2101100.jpg","2","","prediction_trial","2","","true","","2","true","true","false","false","false","false","[0,2]","101","100","1","","","","","","",""
"","","","","","image-keyboard-response","153","306178","0.0-128.0","5dcea7314d51e4107516c80d","665500ab8938657b03fbdba8","6657936867794463652049c7","1147","stimuli/21011002.jpg"," ","","feedback_trial","0","","","","","","","","","","","","","","","","","","","","",""
"","","","","","image-keyboard-response","154","308682","0.0-129.0","5dcea7314d51e4107516c80d","665500ab8938657b03fbdba8","6657936867794463652049c7","2503","stimuli/1011101.jpg","1","","prediction_trial","2","","false","","1","true","true","false","false","false","false","[2,1]","011","101","0","","","","","","",""
"","","","","","image-keyboard-response","155","309424","0.0-130.0","5dcea7314d51e4107516c80d","665500ab8938657b03fbdba8","6657936867794463652049c7","741","stimuli/10111012.jpg"," ","","feedback_trial","2","","","","","","","","","","","","","","","","","","","","",""
"","","","","","image-keyboard-response","156","312213","0.0-131.0","5dcea7314d51e4107516c80d","665500ab8938657b03fbdba8","6657936867794463652049c7","2789","stimuli/1000110.jpg","1","","prediction_trial","1","","true","","1","false","false","true","true","false","false","[1]","000","110","1","","","","","","",""
"","","","","","image-keyboard-response","157","312958","0.0-132.0","5dcea7314d51e4107516c80d","665500ab8938657b03fbdba8","6657936867794463652049c7","744","stimuli/10001101.jpg"," ","","feedback_trial","1","","","","","","","","","","","","","","","","","","","","",""
"","","","","","image-keyboard-response","158","315724","0.0-133.0","5dcea7314d51e4107516c80d","665500ab8938657b03fbdba8","6657936867794463652049c7","2765","stimuli/1011010.jpg","2","","prediction_trial","1","","false","","1","false","true","false","false","false","false","[1,2]","011","010","0","","","","","","",""
"","","","","","image-keyboard-response","159","316375","0.0-134.0","5dcea7314d51e4107516c80d","665500ab8938657b03fbdba8","6657936867794463652049c7","651","stimuli/10110101.jpg"," ","","feedback_trial","1","","","","","","","","","","","","","","","","","","","","",""
"","","","","","image-keyboard-response","160","317425","0.0-135.0","5dcea7314d51e4107516c80d","665500ab8938657b03fbdba8","6657936867794463652049c7","1049","stimuli/1110101.jpg","1","","prediction_trial","1","","true","","1","true","true","false","false","false","false","[0,1]","110","101","1","","","","","","",""
"","","","","","image-keyboard-response","161","317901","0.0-136.0","5dcea7314d51e4107516c80d","665500ab8938657b03fbdba8","6657936867794463652049c7","468","stimuli/11101011.jpg"," ","","feedback_trial","0","","","","","","","","","","","","","","","","","","","","",""
"","","","","","image-keyboard-response","162","322725","0.0-137.0","5dcea7314d51e4107516c80d","665500ab8938657b03fbdba8","6657936867794463652049c7","4823","stimuli/1101111.jpg","2","","prediction_trial","1","","false","","1","false","false","true","true","false","false","[1]","101","111","0","","","","","","",""
"","","","","","image-keyboard-response","163","323897","0.0-138.0","5dcea7314d51e4107516c80d","665500ab8938657b03fbdba8","6657936867794463652049c7","1172","stimuli/11011111.jpg"," ","","feedback_trial","1","","","","","","","","","","","","","","","","","","","","",""
"","","","","","image-keyboard-response","164","326465","0.0-139.0","5dcea7314d51e4107516c80d","665500ab8938657b03fbdba8","6657936867794463652049c7","2567","stimuli/1010100.jpg","1","","prediction_trial","1","","true","","1","true","true","false","true","false","true","[1]","010","100","1","","","","","","",""
"","","","","","image-keyboard-response","165","327193","0.0-140.0","5dcea7314d51e4107516c80d","665500ab8938657b03fbdba8","6657936867794463652049c7","727","stimuli/10101001.jpg"," ","","feedback_trial","1","","","","","","","","","","","","","","","","","","","","",""
"","","","","","image-keyboard-response","166","328728","0.0-141.0","5dcea7314d51e4107516c80d","665500ab8938657b03fbdba8","6657936867794463652049c7","1534","stimuli/0010011.jpg","0","","prediction_trial","0","","true","","0","true","true","true","true","true","true","[0]","010","011","1","","","","","","",""
"","","","","","image-keyboard-response","167","329186","0.0-142.0","5dcea7314d51e4107516c80d","665500ab8938657b03fbdba8","6657936867794463652049c7","457","stimuli/00100110.jpg"," ","","feedback_trial","0","","","","","","","","","","","","","","","","","","","","",""
"","","","","","image-keyboard-response","168","331078","0.0-143.0","5dcea7314d51e4107516c80d","665500ab8938657b03fbdba8","6657936867794463652049c7","1892","stimuli/2011010.jpg","2","","prediction_trial","1","","false","","2","true","true","false","false","false","false","[1,2]","011","010","0","","","","","","",""
"","","","","","image-keyboard-response","169","331658","0.0-144.0","5dcea7314d51e4107516c80d","665500ab8938657b03fbdba8","6657936867794463652049c7","579","stimuli/20110101.jpg"," ","","feedback_trial","1","","","","","","","","","","","","","","","","","","","","",""
"","","","","","image-keyboard-response","170","338011","0.0-145.0","5dcea7314d51e4107516c80d","665500ab8938657b03fbdba8","6657936867794463652049c7","6351","stimuli/0011010.jpg","0","","prediction_trial","0","","true","","0","true","true","true","true","true","true","[0]","011","010","1","","","","","","",""
"","","","","","image-keyboard-response","171","339316","0.0-146.0","5dcea7314d51e4107516c80d","665500ab8938657b03fbdba8","6657936867794463652049c7","1304","stimuli/00110100.jpg"," ","","feedback_trial","0","","","","","","","","","","","","","","","","","","","","",""
"","","","","","image-keyboard-response","172","341106","0.0-147.0","5dcea7314d51e4107516c80d","665500ab8938657b03fbdba8","6657936867794463652049c7","1782","stimuli/1110001.jpg","0","","prediction_trial","0","","true","","1","true","true","false","false","false","false","[0,1]","110","001","1","","","","","","",""
"","","","","","image-keyboard-response","173","341564","0.0-148.0","5dcea7314d51e4107516c80d","665500ab8938657b03fbdba8","6657936867794463652049c7","457","stimuli/11100010.jpg"," ","","feedback_trial","0","","","","","","","","","","","","","","","","","","","","",""
"","","","","","image-keyboard-response","174","343522","0.0-149.0","5dcea7314d51e4107516c80d","665500ab8938657b03fbdba8","6657936867794463652049c7","1957","stimuli/1100100.jpg","1","","prediction_trial","1","","true","","1","true","true","true","true","true","true","[1]","100","100","1","","","","","","",""
"","","","","","image-keyboard-response","175","343968","0.0-150.0","5dcea7314d51e4107516c80d","665500ab8938657b03fbdba8","6657936867794463652049c7","445","stimuli/11001001.jpg"," ","","feedback_trial","1","","","","","","","","","","","","","","","","","","","","",""
"","","","","","image-keyboard-response","176","347339","0.0-151.0","5dcea7314d51e4107516c80d","665500ab8938657b03fbdba8","6657936867794463652049c7","3370","stimuli/0100101.jpg","0","","prediction_trial","0","","true","","0","false","false","false","true","false","false","[0]","100","101","1","","","","","","",""
"","","","","","image-keyboard-response","177","348251","0.0-152.0","5dcea7314d51e4107516c80d","665500ab8938657b03fbdba8","6657936867794463652049c7","911","stimuli/01001010.jpg"," ","","feedback_trial","0","","","","","","","","","","","","","","","","","","","","",""
"","","","","","image-keyboard-response","178","350862","0.0-153.0","5dcea7314d51e4107516c80d","665500ab8938657b03fbdba8","6657936867794463652049c7","2610","stimuli/2101011.jpg","2","","prediction_trial","2","","true","","2","false","false","false","false","false","false","[2,0]","101","011","1","","","","","","",""
"","","","","","image-keyboard-response","179","351724","0.0-154.0","5dcea7314d51e4107516c80d","665500ab8938657b03fbdba8","6657936867794463652049c7","862","stimuli/21010112.jpg"," ","","feedback_trial","2","","","","","","","","","","","","","","","","","","","","",""
"","","","","","image-keyboard-response","180","353655","0.0-155.0","5dcea7314d51e4107516c80d","665500ab8938657b03fbdba8","6657936867794463652049c7","1930","stimuli/2110111.jpg","1","","prediction_trial","2","","false","","2","false","false","true","true","false","false","[2]","110","111","0","","","","","","",""
"","","","","","image-keyboard-response","181","354507","0.0-156.0","5dcea7314d51e4107516c80d","665500ab8938657b03fbdba8","6657936867794463652049c7","851","stimuli/21101112.jpg"," ","","feedback_trial","2","","","","","","","","","","","","","","","","","","","","",""
"","","","","","image-keyboard-response","182","362266","0.0-157.0","5dcea7314d51e4107516c80d","665500ab8938657b03fbdba8","6657936867794463652049c7","7759","stimuli/2110101.jpg","1","","prediction_trial","2","","false","","2","false","false","true","true","false","false","[2]","110","101","0","","","","","","",""
"","","","","","image-keyboard-response","183","363042","0.0-158.0","5dcea7314d51e4107516c80d","665500ab8938657b03fbdba8","6657936867794463652049c7","769","stimuli/21101012.jpg"," ","","feedback_trial","2","","","","","","","","","","","","","","","","","","","","",""
"","","","","","image-keyboard-response","184","364170","0.0-159.0","5dcea7314d51e4107516c80d","665500ab8938657b03fbdba8","6657936867794463652049c7","1128","stimuli/2100000.jpg","2","","prediction_trial","2","","true","","2","true","true","true","true","true","true","[2]","100","000","1","","","","","","",""
"","","","","","image-keyboard-response","185","364667","0.0-160.0","5dcea7314d51e4107516c80d","665500ab8938657b03fbdba8","6657936867794463652049c7","496","stimuli/21000002.jpg"," ","","feedback_trial","2","","","","","","","","","","","","","","","","","","","","",""
"","","","","","image-keyboard-response","186","367378","0.0-161.0","5dcea7314d51e4107516c80d","665500ab8938657b03fbdba8","6657936867794463652049c7","2710","stimuli/1111010.jpg","2","","prediction_trial","2","","true","","1","false","true","false","false","false","false","[2,1,0]","111","010","1","","","","","","",""
"","","","","","image-keyboard-response","187","367861","0.0-162.0","5dcea7314d51e4107516c80d","665500ab8938657b03fbdba8","6657936867794463652049c7","483","stimuli/11110102.jpg"," ","","feedback_trial","2","","","","","","","","","","","","","","","","","","","","",""
"","","","","","image-keyboard-response","188","370029","0.0-163.0","5dcea7314d51e4107516c80d","665500ab8938657b03fbdba8","6657936867794463652049c7","2167","stimuli/2111100.jpg","1","","prediction_trial","1","","true","","2","true","true","false","false","false","false","[1,0,2]","111","100","1","","","","","","",""
"","","","","","image-keyboard-response","189","370540","0.0-164.0","5dcea7314d51e4107516c80d","665500ab8938657b03fbdba8","6657936867794463652049c7","510","stimuli/21111001.jpg"," ","","feedback_trial","1","","","","","","","","","","","","","","","","","","","","",""
"","","","","","image-keyboard-response","190","372049","0.0-165.0","5dcea7314d51e4107516c80d","665500ab8938657b03fbdba8","6657936867794463652049c7","1508","stimuli/0101011.jpg","1","","prediction_trial","0","","false","","0","true","true","false","false","false","false","[0,2]","101","011","0","","","","","","",""
"","","","","","image-keyboard-response","191","372584","0.0-166.0","5dcea7314d51e4107516c80d","665500ab8938657b03fbdba8","6657936867794463652049c7","534","stimuli/01010110.jpg"," ","","feedback_trial","0","","","","","","","","","","","","","","","","","","","","",""
"","","","","","image-keyboard-response","192","374535","0.0-167.0","5dcea7314d51e4107516c80d","665500ab8938657b03fbdba8","6657936867794463652049c7","1949","stimuli/2111101.jpg","1","","prediction_trial","0","","false","","2","false","false","false","false","false","false","[1,0,2]","111","101","0","","","","","","",""
"","","","","","image-keyboard-response","193","375024","0.0-168.0","5dcea7314d51e4107516c80d","665500ab8938657b03fbdba8","6657936867794463652049c7","488","stimuli/21111010.jpg"," ","","feedback_trial","1","","","","","","","","","","","","","","","","","","","","",""
"","","","","","image-keyboard-response","194","375977","0.0-169.0","5dcea7314d51e4107516c80d","665500ab8938657b03fbdba8","6657936867794463652049c7","946","stimuli/1111000.jpg","1","","prediction_trial","0","","false","","1","true","true","false","false","false","false","[1,0,2]","111","000","0","","","","","","",""
"","","","","","image-keyboard-response","195","376395","0.0-170.0","5dcea7314d51e4107516c80d","665500ab8938657b03fbdba8","6657936867794463652049c7","416","stimuli/11110000.jpg"," ","","feedback_trial","1","","","","","","","","","","","","","","","","","","","","",""
"","","","","","image-keyboard-response","196","377737","0.0-171.0","5dcea7314d51e4107516c80d","665500ab8938657b03fbdba8","6657936867794463652049c7","1342","stimuli/2111011.jpg","1","","prediction_trial","2","","false","","2","false","false","false","false","false","false","[2,0,1]","111","011","0","","","","","","",""
"","","","","","image-keyboard-response","197","378283","0.0-172.0","5dcea7314d51e4107516c80d","665500ab8938657b03fbdba8","6657936867794463652049c7","546","stimuli/21110112.jpg"," ","","feedback_trial","2","","","","","","","","","","","","","","","","","","","","",""
"","","","","","image-keyboard-response","198","379626","0.0-173.0","5dcea7314d51e4107516c80d","665500ab8938657b03fbdba8","6657936867794463652049c7","1342","stimuli/0110001.jpg","0","","prediction_trial","1","","false","","0","true","true","false","false","false","false","[1,0]","110","001","0","","","","","","",""
"","","","","","image-keyboard-response","199","380123","0.0-174.0","5dcea7314d51e4107516c80d","665500ab8938657b03fbdba8","6657936867794463652049c7","495","stimuli/01100011.jpg"," ","","feedback_trial","1","","","","","","","","","","","","","","","","","","","","",""
"","","","","","image-keyboard-response","200","380931","0.0-175.0","5dcea7314d51e4107516c80d","665500ab8938657b03fbdba8","6657936867794463652049c7","808","stimuli/0000000.jpg","0","","prediction_trial","0","","true","","0","true","true","true","true","true","true","[0]","000","000","1","","","","","","",""
"","","","","","image-keyboard-response","201","381374","0.0-176.0","5dcea7314d51e4107516c80d","665500ab8938657b03fbdba8","6657936867794463652049c7","441","stimuli/00000000.jpg"," ","","feedback_trial","0","","","","","","","","","","","","","","","","","","","","",""
"","","","","","image-keyboard-response","202","384463","0.0-177.0","5dcea7314d51e4107516c80d","665500ab8938657b03fbdba8","6657936867794463652049c7","3088","stimuli/1010001.jpg","1","","prediction_trial","1","","true","","1","true","true","false","true","false","true","[1]","010","001","1","","","","","","",""
"","","","","","image-keyboard-response","203","384978","0.0-178.0","5dcea7314d51e4107516c80d","665500ab8938657b03fbdba8","6657936867794463652049c7","514","stimuli/10100011.jpg"," ","","feedback_trial","1","","","","","","","","","","","","","","","","","","","","",""
"","","","","","image-keyboard-response","204","390375","0.0-179.0","5dcea7314d51e4107516c80d","665500ab8938657b03fbdba8","6657936867794463652049c7","5397","stimuli/0110101.jpg","2","","prediction_trial","0","","false","","0","false","false","false","false","false","false","[1,0]","110","101","0","","","","","","",""
"","","","","","image-keyboard-response","205","391078","0.0-180.0","5dcea7314d51e4107516c80d","665500ab8938657b03fbdba8","6657936867794463652049c7","696","stimuli/01101010.jpg"," ","","feedback_trial","1","","","","","","","","","","","","","","","","","","","","",""
"","","","","","image-keyboard-response","206","391772","0.0-181.0","5dcea7314d51e4107516c80d","665500ab8938657b03fbdba8","6657936867794463652049c7","692","stimuli/2010110.jpg","2","","prediction_trial","2","","true","","2","true","true","true","true","true","true","[2]","010","110","1","","","","","","",""
"","","","","","image-keyboard-response","207","392193","0.0-182.0","5dcea7314d51e4107516c80d","665500ab8938657b03fbdba8","6657936867794463652049c7","420","stimuli/20101102.jpg"," ","","feedback_trial","2","","","","","","","","","","","","","","","","","","","","",""
"","","","","","image-keyboard-response","208","394504","0.0-183.0","5dcea7314d51e4107516c80d","665500ab8938657b03fbdba8","6657936867794463652049c7","2310","stimuli/1010010.jpg","1","","prediction_trial","1","","true","","1","false","true","false","true","false","true","[1]","010","010","1","","","","","","",""
"","","","","","image-keyboard-response","209","395034","0.0-184.0","5dcea7314d51e4107516c80d","665500ab8938657b03fbdba8","6657936867794463652049c7","530","stimuli/10100101.jpg"," ","","feedback_trial","1","","","","","","","","","","","","","","","","","","","","",""
"","","","","","image-keyboard-response","210","396306","0.0-185.0","5dcea7314d51e4107516c80d","665500ab8938657b03fbdba8","6657936867794463652049c7","1271","stimuli/1100001.jpg","1","","prediction_trial","1","","true","","1","true","true","true","true","true","true","[1]","100","001","1","","","","","","",""
"","","","","","image-keyboard-response","211","396705","0.0-186.0","5dcea7314d51e4107516c80d","665500ab8938657b03fbdba8","6657936867794463652049c7","399","stimuli/11000011.jpg"," ","","feedback_trial","1","","","","","","","","","","","","","","","","","","","","",""
"","","","","","image-keyboard-response","212","397626","0.0-187.0","5dcea7314d51e4107516c80d","665500ab8938657b03fbdba8","6657936867794463652049c7","920","stimuli/1100000.jpg","1","","prediction_trial","1","","true","","1","true","true","true","true","true","true","[1]","100","000","1","","","","","","",""
"","","","","","image-keyboard-response","213","397968","0.0-188.0","5dcea7314d51e4107516c80d","665500ab8938657b03fbdba8","6657936867794463652049c7","341","stimuli/11000001.jpg"," ","","feedback_trial","1","","","","","","","","","","","","","","","","","","","","",""
"","","","","","image-keyboard-response","214","400174","0.0-189.0","5dcea7314d51e4107516c80d","665500ab8938657b03fbdba8","6657936867794463652049c7","2205","stimuli/0110010.jpg","1","","prediction_trial","1","","true","","0","true","true","false","false","false","false","[0,1]","110","010","1","","","","","","",""
"","","","","","image-keyboard-response","215","400692","0.0-190.0","5dcea7314d51e4107516c80d","665500ab8938657b03fbdba8","6657936867794463652049c7","517","stimuli/01100101.jpg"," ","","feedback_trial","0","","","","","","","","","","","","","","","","","","","","",""
"","","","","","image-keyboard-response","216","406921","0.0-191.0","5dcea7314d51e4107516c80d","665500ab8938657b03fbdba8","6657936867794463652049c7","6222","stimuli/0011110.jpg","1","","prediction_trial","0","","false","","0","false","false","true","true","false","false","[0]","011","110","0","","","","","","",""
"","","","","","image-keyboard-response","217","407519","0.0-192.0","5dcea7314d51e4107516c80d","665500ab8938657b03fbdba8","6657936867794463652049c7","597","stimuli/00111100.jpg"," ","","feedback_trial","0","","","","","","","","","","","","","","","","","","","","",""
"","","","","","image-keyboard-response","218","409073","0.0-193.0","5dcea7314d51e4107516c80d","665500ab8938657b03fbdba8","6657936867794463652049c7","1554","stimuli/0111111.jpg","1","","prediction_trial","1","","true","","0","false","false","false","false","false","false","[1,2,0]","111","111","1","","","","","","",""
"","","","","","image-keyboard-response","219","409604","0.0-194.0","5dcea7314d51e4107516c80d","665500ab8938657b03fbdba8","6657936867794463652049c7","530","stimuli/01111111.jpg"," ","","feedback_trial","1","","","","","","","","","","","","","","","","","","","","",""
"","","","","","image-keyboard-response","220","412348","0.0-195.0","5dcea7314d51e4107516c80d","665500ab8938657b03fbdba8","6657936867794463652049c7","2743","stimuli/0100001.jpg","0","","prediction_trial","0","","true","","0","true","true","false","true","false","true","[0]","100","001","1","","","","","","",""
"","","","","","image-keyboard-response","221","412917","0.0-196.0","5dcea7314d51e4107516c80d","665500ab8938657b03fbdba8","6657936867794463652049c7","568","stimuli/01000010.jpg"," ","","feedback_trial","0","","","","","","","","","","","","","","","","","","","","",""
"","","","","","image-keyboard-response","222","414782","0.0-197.0","5dcea7314d51e4107516c80d","665500ab8938657b03fbdba8","6657936867794463652049c7","1865","stimuli/1110110.jpg","0","","prediction_trial","1","","false","","1","false","false","false","false","false","false","[0,1]","110","110","0","","","","","","",""
"","","","","","image-keyboard-response","223","415294","0.0-198.0","5dcea7314d51e4107516c80d","665500ab8938657b03fbdba8","6657936867794463652049c7","511","stimuli/11101101.jpg"," ","","feedback_trial","0","","","","","","","","","","","","","","","","","","","","",""
"","","","","","image-keyboard-response","224","416603","0.0-199.0","5dcea7314d51e4107516c80d","665500ab8938657b03fbdba8","6657936867794463652049c7","1308","stimuli/0101001.jpg","0","","prediction_trial","2","","false","","0","true","true","false","false","false","false","[0,2]","101","001","0","","","","","","",""
"","","","","","image-keyboard-response","225","417098","0.0-200.0","5dcea7314d51e4107516c80d","665500ab8938657b03fbdba8","6657936867794463652049c7","494","stimuli/01010012.jpg"," ","","feedback_trial","0","","","","","","","","","","","","","","","","","","","","",""
"","","","","","image-keyboard-response","226","418168","0.0-201.0","5dcea7314d51e4107516c80d","665500ab8938657b03fbdba8","6657936867794463652049c7","1069","stimuli/0010010.jpg","0","","prediction_trial","0","","true","","0","true","true","true","true","true","true","[0]","010","010","1","","","","","","",""
"","","","","","image-keyboard-response","227","418580","0.0-202.0","5dcea7314d51e4107516c80d","665500ab8938657b03fbdba8","6657936867794463652049c7","411","stimuli/00100100.jpg"," ","","feedback_trial","0","","","","","","","","","","","","","","","","","","","","",""
"","","","","","image-keyboard-response","228","420324","0.0-203.0","5dcea7314d51e4107516c80d","665500ab8938657b03fbdba8","6657936867794463652049c7","1744","stimuli/0110110.jpg","1","","prediction_trial","1","","true","","0","false","false","false","false","false","false","[0,1]","110","110","1","","","","","","",""
"","","","","","image-keyboard-response","229","420889","0.0-204.0","5dcea7314d51e4107516c80d","665500ab8938657b03fbdba8","6657936867794463652049c7","564","stimuli/01101101.jpg"," ","","feedback_trial","0","","","","","","","","","","","","","","","","","","","","",""
"","","","","","image-keyboard-response","230","423968","0.0-205.0","5dcea7314d51e4107516c80d","665500ab8938657b03fbdba8","6657936867794463652049c7","3078","stimuli/0001101.jpg","2","","prediction_trial","0","","false","","0","false","false","true","true","false","false","[0]","001","101","0","","","","","","",""
"","","","","","image-keyboard-response","231","424567","0.0-206.0","5dcea7314d51e4107516c80d","665500ab8938657b03fbdba8","6657936867794463652049c7","598","stimuli/00011010.jpg"," ","","feedback_trial","0","","","","","","","","","","","","","","","","","","","","",""
"","","","","","image-keyboard-response","232","425604","0.0-207.0","5dcea7314d51e4107516c80d","665500ab8938657b03fbdba8","6657936867794463652049c7","1036","stimuli/1000000.jpg","1","","prediction_trial","1","","true","","1","true","true","true","true","true","true","[1]","000","000","1","","","","","","",""
"","","","","","image-keyboard-response","233","426104","0.0-208.0","5dcea7314d51e4107516c80d","665500ab8938657b03fbdba8","6657936867794463652049c7","499","stimuli/10000001.jpg"," ","","feedback_trial","1","","","","","","","","","","","","","","","","","","","","",""
"","","","","","image-keyboard-response","234","427070","0.0-209.0","5dcea7314d51e4107516c80d","665500ab8938657b03fbdba8","6657936867794463652049c7","965","stimuli/1101001.jpg","1","","prediction_trial","1","","true","","1","true","true","true","true","true","true","[1]","101","001","1","","","","","","",""
"","","","","","image-keyboard-response","235","427480","0.0-210.0","5dcea7314d51e4107516c80d","665500ab8938657b03fbdba8","6657936867794463652049c7","409","stimuli/11010011.jpg"," ","","feedback_trial","1","","","","","","","","","","","","","","","","","","","","",""
"","","","","","image-keyboard-response","236","429099","0.0-211.0","5dcea7314d51e4107516c80d","665500ab8938657b03fbdba8","6657936867794463652049c7","1618","stimuli/2100111.jpg","2","","prediction_trial","2","","true","","2","false","false","true","true","false","false","[2]","100","111","1","","","","","","",""
"","","","","","image-keyboard-response","237","429960","0.0-212.0","5dcea7314d51e4107516c80d","665500ab8938657b03fbdba8","6657936867794463652049c7","860","stimuli/21001112.jpg"," ","","feedback_trial","2","","","","","","","","","","","","","","","","","","","","",""
"","","","","","image-keyboard-response","238","431995","0.0-213.0","5dcea7314d51e4107516c80d","665500ab8938657b03fbdba8","6657936867794463652049c7","2034","stimuli/0111011.jpg","1","","prediction_trial","0","","false","","0","true","true","false","false","false","false","[2,1,0]","111","011","0","","","","","","",""
"","","","","","image-keyboard-response","239","432503","0.0-214.0","5dcea7314d51e4107516c80d","665500ab8938657b03fbdba8","6657936867794463652049c7","508","stimuli/01110110.jpg"," ","","feedback_trial","2","","","","","","","","","","","","","","","","","","","","",""
"","","","","","image-keyboard-response","240","434633","0.0-215.0","5dcea7314d51e4107516c80d","665500ab8938657b03fbdba8","6657936867794463652049c7","2129","stimuli/2001010.jpg","2","","prediction_trial","2","","true","","2","true","true","false","true","false","true","[2]","001","010","1","","","","","","",""
"","","","","","image-keyboard-response","241","435099","0.0-216.0","5dcea7314d51e4107516c80d","665500ab8938657b03fbdba8","6657936867794463652049c7","465","stimuli/20010102.jpg"," ","","feedback_trial","2","","","","","","","","","","","","","","","","","","","","",""
"","","","","","image-keyboard-response","242","436681","0.0-217.0","5dcea7314d51e4107516c80d","665500ab8938657b03fbdba8","6657936867794463652049c7","1581","stimuli/0011001.jpg","0","","prediction_trial","0","","true","","0","true","true","true","true","true","true","[0]","011","001","1","","","","","","",""
"","","","","","image-keyboard-response","243","437068","0.0-218.0","5dcea7314d51e4107516c80d","665500ab8938657b03fbdba8","6657936867794463652049c7","387","stimuli/00110010.jpg"," ","","feedback_trial","0","","","","","","","","","","","","","","","","","","","","",""
"","","","","","image-keyboard-response","244","439544","0.0-219.0","5dcea7314d51e4107516c80d","665500ab8938657b03fbdba8","6657936867794463652049c7","2475","stimuli/1110000.jpg","1","","prediction_trial","0","","false","","1","true","true","false","false","false","false","[1,0]","110","000","0","","","","","","",""
"","","","","","image-keyboard-response","245","440025","0.0-220.0","5dcea7314d51e4107516c80d","665500ab8938657b03fbdba8","6657936867794463652049c7","480","stimuli/11100000.jpg"," ","","feedback_trial","1","","","","","","","","","","","","","","","","","","","","",""
"","","","","","image-keyboard-response","246","442421","0.0-221.0","5dcea7314d51e4107516c80d","665500ab8938657b03fbdba8","6657936867794463652049c7","2395","stimuli/2011000.jpg","2","","prediction_trial","1","","false","","2","true","true","false","false","false","false","[2,1]","011","000","0","","","","","","",""
"","","","","","image-keyboard-response","247","442914","0.0-222.0","5dcea7314d51e4107516c80d","665500ab8938657b03fbdba8","6657936867794463652049c7","492","stimuli/20110001.jpg"," ","","feedback_trial","2","","","","","","","","","","","","","","","","","","","","",""
"","","","","","image-keyboard-response","248","445072","0.0-223.0","5dcea7314d51e4107516c80d","665500ab8938657b03fbdba8","6657936867794463652049c7","2158","stimuli/0100100.jpg","0","","prediction_trial","0","","true","","0","false","true","false","true","false","true","[0]","100","100","1","","","","","","",""
"","","","","","image-keyboard-response","249","445303","0.0-224.0","5dcea7314d51e4107516c80d","665500ab8938657b03fbdba8","6657936867794463652049c7","230","stimuli/01001000.jpg"," ","","feedback_trial","0","","","","","","","","","","","","","","","","","","","","",""
"","","","","","image-keyboard-response","250","452411","0.0-225.0","5dcea7314d51e4107516c80d","665500ab8938657b03fbdba8","6657936867794463652049c7","7107","stimuli/2100011.jpg","1","","prediction_trial","2","","false","","2","false","false","true","true","false","false","[2]","100","011","0","","","","","","",""
"","","","","","image-keyboard-response","251","452949","0.0-226.0","5dcea7314d51e4107516c80d","665500ab8938657b03fbdba8","6657936867794463652049c7","537","stimuli/21000112.jpg"," ","","feedback_trial","2","","","","","","","","","","","","","","","","","","","","",""
"","","","","","image-keyboard-response","252","456097","0.0-227.0","5dcea7314d51e4107516c80d","665500ab8938657b03fbdba8","6657936867794463652049c7","3147","stimuli/2101101.jpg","2","","prediction_trial","0","","false","","2","false","false","false","false","false","false","[2,0]","101","101","0","","","","","","",""
"","","","","","image-keyboard-response","253","456718","0.0-228.0","5dcea7314d51e4107516c80d","665500ab8938657b03fbdba8","6657936867794463652049c7","619","stimuli/21011010.jpg"," ","","feedback_trial","2","","","","","","","","","","","","","","","","","","","","",""
"","","","","","image-keyboard-response","254","458779","0.0-229.0","5dcea7314d51e4107516c80d","665500ab8938657b03fbdba8","6657936867794463652049c7","2060","stimuli/2111110.jpg","2","","prediction_trial","2","","true","","2","true","true","false","false","false","false","[2,1,0]","111","110","1","","","","","","",""
"","","","","","image-keyboard-response","255","459427","0.0-230.0","5dcea7314d51e4107516c80d","665500ab8938657b03fbdba8","6657936867794463652049c7","648","stimuli/21111102.jpg"," ","","feedback_trial","2","","","","","","","","","","","","","","","","","","","","",""
"","","","","","image-keyboard-response","256","461562","0.0-231.0","5dcea7314d51e4107516c80d","665500ab8938657b03fbdba8","6657936867794463652049c7","2134","stimuli/2001011.jpg","1","","prediction_trial","2","","false","","2","false","false","false","true","false","false","[2]","001","011","0","","","","","","",""
"","","","","","image-keyboard-response","257","462041","0.0-232.0","5dcea7314d51e4107516c80d","665500ab8938657b03fbdba8","6657936867794463652049c7","477","stimuli/20010112.jpg"," ","","feedback_trial","2","","","","","","","","","","","","","","","","","","","","",""
"","","","","","image-keyboard-response","258","464212","0.0-233.0","5dcea7314d51e4107516c80d","665500ab8938657b03fbdba8","6657936867794463652049c7","2171","stimuli/2011001.jpg","1","","prediction_trial","2","","false","","2","false","true","false","false","false","false","[2,1]","011","001","0","","","","","","",""
"","","","","","image-keyboard-response","259","464996","0.0-234.0","5dcea7314d51e4107516c80d","665500ab8938657b03fbdba8","6657936867794463652049c7","783","stimuli/20110012.jpg"," ","","feedback_trial","2","","","","","","","","","","","","","","","","","","","","",""
"","","","","","image-keyboard-response","260","467862","0.0-235.0","5dcea7314d51e4107516c80d","665500ab8938657b03fbdba8","6657936867794463652049c7","2865","stimuli/0011100.jpg","2","","prediction_trial","0","","false","","0","false","true","true","true","false","true","[0]","011","100","0","","","","","","",""
"","","","","","image-keyboard-response","261","468432","0.0-236.0","5dcea7314d51e4107516c80d","665500ab8938657b03fbdba8","6657936867794463652049c7","569","stimuli/00111000.jpg"," ","","feedback_trial","0","","","","","","","","","","","","","","","","","","","","",""
"","","","","","image-keyboard-response","262","472315","0.0-237.0","5dcea7314d51e4107516c80d","665500ab8938657b03fbdba8","6657936867794463652049c7","3883","stimuli/1001010.jpg","2","","prediction_trial","1","","false","","1","false","true","true","true","false","true","[1]","001","010","0","","","","","","",""
"","","","","","image-keyboard-response","263","473061","0.0-238.0","5dcea7314d51e4107516c80d","665500ab8938657b03fbdba8","6657936867794463652049c7","744","stimuli/10010101.jpg"," ","","feedback_trial","1","","","","","","","","","","","","","","","","","","","","",""
"","","","","","image-keyboard-response","264","474561","0.0-239.0","5dcea7314d51e4107516c80d","665500ab8938657b03fbdba8","6657936867794463652049c7","1500","stimuli/1000101.jpg","1","","prediction_trial","1","","true","","1","true","true","true","true","true","true","[1]","000","101","1","","","","","","",""
"","","","","","image-keyboard-response","265","475009","0.0-240.0","5dcea7314d51e4107516c80d","665500ab8938657b03fbdba8","6657936867794463652049c7","447","stimuli/10001011.jpg"," ","","feedback_trial","1","","","","","","","","","","","","","","","","","","","","",""
"","","","","","image-keyboard-response","266","476572","0.0-241.0","5dcea7314d51e4107516c80d","665500ab8938657b03fbdba8","6657936867794463652049c7","1561","stimuli/2110000.jpg","2","","prediction_trial","2","","true","","2","true","true","true","true","true","true","[2]","110","000","1","","","","","","",""
"","","","","","image-keyboard-response","267","477004","0.0-242.0","5dcea7314d51e4107516c80d","665500ab8938657b03fbdba8","6657936867794463652049c7","431","stimuli/21100002.jpg"," ","","feedback_trial","2","","","","","","","","","","","","","","","","","","","","",""
"","","","","","image-keyboard-response","268","479088","0.0-243.0","5dcea7314d51e4107516c80d","665500ab8938657b03fbdba8","6657936867794463652049c7","2082","stimuli/0100110.jpg","1","","prediction_trial","0","","false","","0","false","false","false","true","false","false","[0]","100","110","0","","","","","","",""
"","","","","","image-keyboard-response","269","479542","0.0-244.0","5dcea7314d51e4107516c80d","665500ab8938657b03fbdba8","6657936867794463652049c7","454","stimuli/01001100.jpg"," ","","feedback_trial","0","","","","","","","","","","","","","","","","","","","","",""
"","","","","","image-keyboard-response","270","481674","0.0-245.0","5dcea7314d51e4107516c80d","665500ab8938657b03fbdba8","6657936867794463652049c7","2131","stimuli/0111100.jpg","1","","prediction_trial","2","","false","","0","false","true","false","false","false","false","[1,0,2]","111","100","0","","","","","","",""
"","","","","","image-keyboard-response","271","482347","0.0-246.0","5dcea7314d51e4107516c80d","665500ab8938657b03fbdba8","6657936867794463652049c7","672","stimuli/01111002.jpg"," ","","feedback_trial","1","","","","","","","","","","","","","","","","","","","","",""
"","","","","","image-keyboard-response","272","483940","0.0-247.0","5dcea7314d51e4107516c80d","665500ab8938657b03fbdba8","6657936867794463652049c7","1592","stimuli/2000111.jpg","1","","prediction_trial","2","","false","","2","false","false","true","true","false","false","[2]","000","111","0","","","","","","",""
"","","","","","image-keyboard-response","273","484436","0.0-248.0","5dcea7314d51e4107516c80d","665500ab8938657b03fbdba8","6657936867794463652049c7","494","stimuli/20001112.jpg"," ","","feedback_trial","2","","","","","","","","","","","","","","","","","","","","",""
"","","","","","image-keyboard-response","274","485093","0.0-249.0","5dcea7314d51e4107516c80d","665500ab8938657b03fbdba8","6657936867794463652049c7","656","stimuli/1001101.jpg","1","","prediction_trial","1","","true","","1","true","true","true","true","true","true","[1]","001","101","1","","","","","","",""
"","","","","","image-keyboard-response","275","485483","0.0-250.0","5dcea7314d51e4107516c80d","665500ab8938657b03fbdba8","6657936867794463652049c7","389","stimuli/10011011.jpg"," ","","feedback_trial","1","","","","","","","","","","","","","","","","","","","","",""
"","","","","","image-keyboard-response","276","486994","0.0-251.0","5dcea7314d51e4107516c80d","665500ab8938657b03fbdba8","6657936867794463652049c7","1511","stimuli/0010000.jpg","0","","prediction_trial","0","","true","","0","true","true","true","true","true","true","[0]","010","000","1","","","","","","",""
"","","","","","image-keyboard-response","277","487396","0.0-252.0","5dcea7314d51e4107516c80d","665500ab8938657b03fbdba8","6657936867794463652049c7","400","stimuli/00100000.jpg"," ","","feedback_trial","0","","","","","","","","","","","","","","","","","","","","",""
"","","","","","image-keyboard-response","278","488434","0.0-253.0","5dcea7314d51e4107516c80d","665500ab8938657b03fbdba8","6657936867794463652049c7","1038","stimuli/1101101.jpg","1","","prediction_trial","1","","true","","1","true","true","true","true","true","true","[1]","101","101","1","","","","","","",""
"","","","","","image-keyboard-response","279","488841","0.0-254.0","5dcea7314d51e4107516c80d","665500ab8938657b03fbdba8","6657936867794463652049c7","406","stimuli/11011011.jpg"," ","","feedback_trial","1","","","","","","","","","","","","","","","","","","","","",""
"","","","","","image-keyboard-response","280","491395","0.0-255.0","5dcea7314d51e4107516c80d","665500ab8938657b03fbdba8","6657936867794463652049c7","2553","stimuli/2101001.jpg","2","","prediction_trial","0","","false","","2","false","true","false","false","false","false","[2,0]","101","001","0","","","","","","",""
"","","","","","image-keyboard-response","281","492041","0.0-256.0","5dcea7314d51e4107516c80d","665500ab8938657b03fbdba8","6657936867794463652049c7","646","stimuli/21010010.jpg"," ","","feedback_trial","2","","","","","","","","","","","","","","","","","","","","",""
"","","","","","image-keyboard-response","282","493224","0.0-257.0","5dcea7314d51e4107516c80d","665500ab8938657b03fbdba8","6657936867794463652049c7","1181","stimuli/2101111.jpg","2","","prediction_trial","2","","true","","2","false","false","false","false","false","false","[2,0]","101","111","1","","","","","","",""
"","","","","","image-keyboard-response","283","493869","0.0-258.0","5dcea7314d51e4107516c80d","665500ab8938657b03fbdba8","6657936867794463652049c7","643","stimuli/21011112.jpg"," ","","feedback_trial","2","","","","","","","","","","","","","","","","","","","","",""
"","","","","","image-keyboard-response","284","495996","0.0-259.0","5dcea7314d51e4107516c80d","665500ab8938657b03fbdba8","6657936867794463652049c7","2126","stimuli/2011011.jpg","1","","prediction_trial","1","","true","","2","false","false","false","false","false","false","[2,1]","011","011","1","","","","","","",""
"","","","","","image-keyboard-response","285","496533","0.0-260.0","5dcea7314d51e4107516c80d","665500ab8938657b03fbdba8","6657936867794463652049c7","536","stimuli/20110111.jpg"," ","","feedback_trial","2","","","","","","","","","","","","","","","","","","","","",""
"","","","","","image-keyboard-response","286","497891","0.0-261.0","5dcea7314d51e4107516c80d","665500ab8938657b03fbdba8","6657936867794463652049c7","1357","stimuli/2111010.jpg","1","","prediction_trial","1","","true","","2","true","true","false","false","false","false","[0,2,1]","111","010","1","","","","","","",""
"","","","","","image-keyboard-response","287","498311","0.0-262.0","5dcea7314d51e4107516c80d","665500ab8938657b03fbdba8","6657936867794463652049c7","419","stimuli/21110101.jpg"," ","","feedback_trial","0","","","","","","","","","","","","","","","","","","","","",""
"","","","","","image-keyboard-response","288","501358","0.0-263.0","5dcea7314d51e4107516c80d","665500ab8938657b03fbdba8","6657936867794463652049c7","3046","stimuli/0001110.jpg","0","","prediction_trial","0","","true","","0","false","false","true","true","false","false","[0]","001","110","1","","","","","","",""
"","","","","","image-keyboard-response","289","502129","0.0-264.0","5dcea7314d51e4107516c80d","665500ab8938657b03fbdba8","6657936867794463652049c7","770","stimuli/00011100.jpg"," ","","feedback_trial","0","","","","","","","","","","","","","","","","","","","","",""
"","","","","","image-keyboard-response","290","503008","0.0-265.0","5dcea7314d51e4107516c80d","665500ab8938657b03fbdba8","6657936867794463652049c7","878","stimuli/0000010.jpg","0","","prediction_trial","0","","true","","0","true","true","true","true","true","true","[0]","000","010","1","","","","","","",""
"","","","","","image-keyboard-response","291","503387","0.0-266.0","5dcea7314d51e4107516c80d","665500ab8938657b03fbdba8","6657936867794463652049c7","377","stimuli/00000100.jpg"," ","","feedback_trial","0","","","","","","","","","","","","","","","","","","","","",""
"","","","","","image-keyboard-response","292","505205","0.0-267.0","5dcea7314d51e4107516c80d","665500ab8938657b03fbdba8","6657936867794463652049c7","1818","stimuli/1110100.jpg","1","","prediction_trial","0","","false","","1","true","true","false","false","false","false","[0,1]","110","100","0","","","","","","",""
"","","","","","image-keyboard-response","293","505761","0.0-268.0","5dcea7314d51e4107516c80d","665500ab8938657b03fbdba8","6657936867794463652049c7","548","stimuli/11101000.jpg"," ","","feedback_trial","0","","","","","","","","","","","","","","","","","","","","",""
"","","","","","image-keyboard-response","294","508678","0.0-269.0","5dcea7314d51e4107516c80d","665500ab8938657b03fbdba8","6657936867794463652049c7","2916","stimuli/1011110.jpg","1","","prediction_trial","2","","false","","1","false","false","false","false","false","false","[2,1]","011","110","0","","","","","","",""
"","","","","","image-keyboard-response","295","509302","0.0-270.0","5dcea7314d51e4107516c80d","665500ab8938657b03fbdba8","6657936867794463652049c7","623","stimuli/10111102.jpg"," ","","feedback_trial","2","","","","","","","","","","","","","","","","","","","","",""
"","","","","","image-keyboard-response","296","512530","0.0-271.0","5dcea7314d51e4107516c80d","665500ab8938657b03fbdba8","6657936867794463652049c7","3228","stimuli/2100001.jpg","2","","prediction_trial","2","","true","","2","false","true","true","true","false","true","[2]","100","001","1","","","","","","",""
"","","","","","image-keyboard-response","297","513086","0.0-272.0","5dcea7314d51e4107516c80d","665500ab8938657b03fbdba8","6657936867794463652049c7","554","stimuli/21000012.jpg"," ","","feedback_trial","2","","","","","","","","","","","","","","","","","","","","",""
"","","","","","image-keyboard-response","298","516268","0.0-273.0","5dcea7314d51e4107516c80d","665500ab8938657b03fbdba8","6657936867794463652049c7","3181","stimuli/1100111.jpg","2","","prediction_trial","1","","false","","1","false","false","true","true","false","false","[1]","100","111","0","","","","","","",""
"","","","","","image-keyboard-response","299","516857","0.0-274.0","5dcea7314d51e4107516c80d","665500ab8938657b03fbdba8","6657936867794463652049c7","588","stimuli/11001111.jpg"," ","","feedback_trial","1","","","","","","","","","","","","","","","","","","","","",""
"","","","","","image-keyboard-response","300","521225","0.0-275.0","5dcea7314d51e4107516c80d","665500ab8938657b03fbdba8","6657936867794463652049c7","4367","stimuli/0001100.jpg","2","","prediction_trial","0","","false","","0","false","true","true","true","false","true","[0]","001","100","0","","","","","","",""
"","","","","","image-keyboard-response","301","521751","0.0-276.0","5dcea7314d51e4107516c80d","665500ab8938657b03fbdba8","6657936867794463652049c7","525","stimuli/00011000.jpg"," ","","feedback_trial","0","","","","","","","","","","","","","","","","","","","","",""
"","","","","","image-keyboard-response","302","523614","0.0-277.0","5dcea7314d51e4107516c80d","665500ab8938657b03fbdba8","6657936867794463652049c7","1862","stimuli/1010101.jpg","1","","prediction_trial","1","","true","","1","true","true","false","true","false","true","[1]","010","101","1","","","","","","",""
"","","","","","image-keyboard-response","303","524061","0.0-278.0","5dcea7314d51e4107516c80d","665500ab8938657b03fbdba8","6657936867794463652049c7","446","stimuli/10101011.jpg"," ","","feedback_trial","1","","","","","","","","","","","","","","","","","","","","",""
"","","","","","image-keyboard-response","304","524929","0.0-279.0","5dcea7314d51e4107516c80d","665500ab8938657b03fbdba8","6657936867794463652049c7","860","stimuli/1101000.jpg","1","","prediction_trial","1","","true","","1","true","true","true","true","true","true","[1]","101","000","1","","","","","","",""
"","","","","","image-keyboard-response","305","525221","0.0-280.0","5dcea7314d51e4107516c80d","665500ab8938657b03fbdba8","6657936867794463652049c7","291","stimuli/11010001.jpg"," ","","feedback_trial","1","","","","","","","","","","","","","","","","","","","","",""
"","","","","","image-keyboard-response","306","526297","0.0-281.0","5dcea7314d51e4107516c80d","665500ab8938657b03fbdba8","6657936867794463652049c7","1075","stimuli/2100110.jpg","2","","prediction_trial","2","","true","","2","true","true","true","true","true","true","[2]","100","110","1","","","","","","",""
"","","","","","image-keyboard-response","307","526674","0.0-282.0","5dcea7314d51e4107516c80d","665500ab8938657b03fbdba8","6657936867794463652049c7","376","stimuli/21001102.jpg"," ","","feedback_trial","2","","","","","","","","","","","","","","","","","","","","",""
"","","","","","image-keyboard-response","308","527966","0.0-283.0","5dcea7314d51e4107516c80d","665500ab8938657b03fbdba8","6657936867794463652049c7","1291","stimuli/0001001.jpg","0","","prediction_trial","0","","true","","0","true","true","true","true","true","true","[0]","001","001","1","","","","","","",""
"","","","","","image-keyboard-response","309","528258","0.0-284.0","5dcea7314d51e4107516c80d","665500ab8938657b03fbdba8","6657936867794463652049c7","291","stimuli/00010010.jpg"," ","","feedback_trial","0","","","","","","","","","","","","","","","","","","","","",""
"","","","","","image-keyboard-response","310","530589","0.0-285.0","5dcea7314d51e4107516c80d","665500ab8938657b03fbdba8","6657936867794463652049c7","2331","stimuli/0110100.jpg","0","","prediction_trial","0","","true","","0","false","true","false","false","false","false","[0,1]","110","100","1","","","","","","",""
"","","","","","image-keyboard-response","311","531157","0.0-286.0","5dcea7314d51e4107516c80d","665500ab8938657b03fbdba8","6657936867794463652049c7","567","stimuli/01101000.jpg"," ","","feedback_trial","0","","","","","","","","","","","","","","","","","","","","",""
"","","","","","image-keyboard-response","312","532737","0.0-287.0","5dcea7314d51e4107516c80d","665500ab8938657b03fbdba8","6657936867794463652049c7","1580","stimuli/0111000.jpg","0","","prediction_trial","2","","false","","0","true","true","false","false","false","false","[1,2,0]","111","000","0","","","","","","",""
"","","","","","image-keyboard-response","313","533291","0.0-288.0","5dcea7314d51e4107516c80d","665500ab8938657b03fbdba8","6657936867794463652049c7","552","stimuli/01110002.jpg"," ","","feedback_trial","1","","","","","","","","","","","","","","","","","","","","",""
"","","","","","image-keyboard-response","314","536451","0.0-289.0","5dcea7314d51e4107516c80d","665500ab8938657b03fbdba8","6657936867794463652049c7","3160","stimuli/1100010.jpg","1","","prediction_trial","1","","true","","1","false","true","true","true","false","true","[1]","100","010","1","","","","","","",""
"","","","","","image-keyboard-response","315","536946","0.0-290.0","5dcea7314d51e4107516c80d","665500ab8938657b03fbdba8","6657936867794463652049c7","487","stimuli/11000101.jpg"," ","","feedback_trial","1","","","","","","","","","","","","","","","","","","","","",""
"","","","","","image-keyboard-response","316","540459","0.0-291.0","5dcea7314d51e4107516c80d","665500ab8938657b03fbdba8","6657936867794463652049c7","3511","stimuli/2010001.jpg","2","","prediction_trial","2","","true","","2","false","true","true","true","false","true","[2]","010","001","1","","","","","","",""
"","","","","","image-keyboard-response","317","541075","0.0-292.0","5dcea7314d51e4107516c80d","665500ab8938657b03fbdba8","6657936867794463652049c7","615","stimuli/20100012.jpg"," ","","feedback_trial","2","","","","","","","","","","","","","","","","","","","","",""
"","","","","","survey-html-form","318","579731","0.0-293.0","5dcea7314d51e4107516c80d","665500ab8938657b03fbdba8","6657936867794463652049c7","38654","","{""feedback"":""Obvious when balls were visible to him; otherwise, guessing"",""age"":""55"",""gender"":""Female"",""other_gender"":"""",""race"":""White"",""other_race"":"""",""ethnicity"":""Non-Hispanic""}","","exit_survey","","","","","","","","","","","","","","","","Obvious when balls were visible to him; otherwise, guessing","55","Non-Hispanic","Female","White","0.6319444444444444","0.6319444444444444"
