"success","timeout","failed_images","failed_audio","failed_video","trial_type","trial_index","time_elapsed","internal_node_id","prolific_id","prolific_study_id","prolific_session_id","rt","stimulus","response","view_history","trial","character_choice","stimulus_dict","accuracy","correct_response","ball_pos","ego_ball_visible","ego_can_infer","alter_ball_visible","alter_can_infer","collective_ball_visible","collective_can_infer","search_locations","alter_occluders","ego_occluders","accuracy_bool","feedback","age","ethnicity","gender","race","overall_accuracy","bonus"
"true","false","[]","[]","[]","preload","0","2293","0.0-0.0","5f4a5b3dccae1c5e215cfe3e","665500ab8938657b03fbdba8","6657809249d4c30ce9fb2415","","","","","","","","","","","","","","","","","","","","","","","","","","",""
"true","","","","","fullscreen","1","4596","0.0-1.0","5f4a5b3dccae1c5e215cfe3e","665500ab8938657b03fbdba8","6657809249d4c30ce9fb2415","","","","","","","","","","","","","","","","","","","","","","","","","","",""
"","","","","","html-button-response","2","5837","0.0-2.0","5f4a5b3dccae1c5e215cfe3e","665500ab8938657b03fbdba8","6657809249d4c30ce9fb2415","1240","<p><b>Consent Form</b></p> <div style=""text-align:left;background-color:lightgrey; padding:20px; max-width:900px;""><p>Please consider this information carefully before deciding whether to participate in this research.</p> <p>The purpose of this research is to examine which factors influence social judgment and decision-making. You will be asked to make judgements about individuals and actions in social scenarios. We are simply interested in your judgement. The study will take less than 1 hour to complete, and you will receive less than $20 on Prolific. Your compensation and time commitment are specified in the study description. There are no anticipated risks associated with participating in this study. The effects of participating should be comparable to those you would ordinarily experience from viewing a computer monitor and using a mouse or keyboard for a similar amount of time. At the end of the study, we will provide an explanation of the questions that motivate this line of research and will describe the potential implications. </p><p> Your participation in this study is completely voluntary and you may refuse to participate or you may choose to withdraw at any time without penalty or loss of benefits to you which are otherwise entitled. Your participation in this study will remain confidential. No personally identifiable information will be associated with your data. Also, all analyses of the data will be averaged across all the participants, so your individual responses will never be specifically analyzed. </p><p> If you have questions or concerns about your participation or payment, or want to request a summary of research findings, please contact Dr. Jonathan Phillips at Jonathan.S.Phillips@dartmouth.edu. </p><p> Please save a copy of this form for your records. </p><p><b>Agreement: </b>The nature and purpose of this research have been sufficiently explained and I agree to participate in this study. I understand that I am free to withdraw at any time without incurring any penalty. Please consent by clicking the button below to continue. Otherwise, please exit the study at any time. </p>","0","","","","","","","","","","","","","","","","","","","","","","","",""
"","","","","","instructions","3","35676","0.0-3.0-0.0","5f4a5b3dccae1c5e215cfe3e","665500ab8938657b03fbdba8","6657809249d4c30ce9fb2415","29838","","","[{""page_index"":0,""viewing_time"":1266},{""page_index"":1,""viewing_time"":1651},{""page_index"":2,""viewing_time"":1406},{""page_index"":3,""viewing_time"":2849},{""page_index"":4,""viewing_time"":1786},{""page_index"":5,""viewing_time"":1843},{""page_index"":6,""viewing_time"":2565},{""page_index"":7,""viewing_time"":2220},{""page_index"":8,""viewing_time"":2249},{""page_index"":9,""viewing_time"":1482},{""page_index"":10,""viewing_time"":5366},{""page_index"":11,""viewing_time"":1555},{""page_index"":12,""viewing_time"":2757},{""page_index"":13,""viewing_time"":844}]","intro","","","","","","","","","","","","","","","","","","","","","",""
"","","","","","image-keyboard-response","4","38340","0.0-3.0-1.0","5f4a5b3dccae1c5e215cfe3e","665500ab8938657b03fbdba8","6657809249d4c30ce9fb2415","2657","stimuli/2000010.jpg","2","","prediction_practice","2","{""filepath"":""stimuli/2000010.jpg"",""ball_pos"":2,""ego_ball_visible"":true,""ego_can_infer"":true,""alter_ball_visible"":true,""alter_can_infer"":true,""collective_ball_visible"":true,""collective_can_infer"":true,""search_locations"":[2],""alter_occluders"":""000"",""ego_occluders"":""010""}","true","","","","","","","","","","","","","","","","","","",""
"","","","","","image-keyboard-response","5","39348","0.0-3.0-2.0","5f4a5b3dccae1c5e215cfe3e","665500ab8938657b03fbdba8","6657809249d4c30ce9fb2415","1005","stimuli/20000102.jpg"," ","","practrice_feedback","2","","","","","","","","","","","","","","","","","","","","",""
"","","","","","image-keyboard-response","6","42155","0.0-3.0-3.0","5f4a5b3dccae1c5e215cfe3e","665500ab8938657b03fbdba8","6657809249d4c30ce9fb2415","2802","stimuli/2101001.jpg","2","","prediction_practice","2","{""filepath"":""stimuli/2101001.jpg"",""ball_pos"":2,""ego_ball_visible"":false,""ego_can_infer"":true,""alter_ball_visible"":false,""alter_can_infer"":false,""collective_ball_visible"":false,""collective_can_infer"":false,""search_locations"":[0,2],""alter_occluders"":""101"",""ego_occluders"":""001""}","true","","","","","","","","","","","","","","","","","","",""
"","","","","","image-keyboard-response","7","42898","0.0-3.0-4.0","5f4a5b3dccae1c5e215cfe3e","665500ab8938657b03fbdba8","6657809249d4c30ce9fb2415","741","stimuli/21010012.jpg"," ","","practrice_feedback","0","","","","","","","","","","","","","","","","","","","","",""
"","","","","","image-keyboard-response","8","44770","0.0-3.0-5.0","5f4a5b3dccae1c5e215cfe3e","665500ab8938657b03fbdba8","6657809249d4c30ce9fb2415","1869","stimuli/1000001.jpg","1","","prediction_practice","1","{""filepath"":""stimuli/1000001.jpg"",""ball_pos"":1,""ego_ball_visible"":true,""ego_can_infer"":true,""alter_ball_visible"":true,""alter_can_infer"":true,""collective_ball_visible"":true,""collective_can_infer"":true,""search_locations"":[1],""alter_occluders"":""000"",""ego_occluders"":""001""}","true","","","","","","","","","","","","","","","","","","",""
"","","","","","image-keyboard-response","9","45652","0.0-3.0-6.0","5f4a5b3dccae1c5e215cfe3e","665500ab8938657b03fbdba8","6657809249d4c30ce9fb2415","879","stimuli/10000011.jpg"," ","","practrice_feedback","1","","","","","","","","","","","","","","","","","","","","",""
"","","","","","image-keyboard-response","10","46466","0.0-3.0-7.0","5f4a5b3dccae1c5e215cfe3e","665500ab8938657b03fbdba8","6657809249d4c30ce9fb2415","811","stimuli/1101001.jpg","1","","prediction_practice","1","{""filepath"":""stimuli/1101001.jpg"",""ball_pos"":1,""ego_ball_visible"":true,""ego_can_infer"":true,""alter_ball_visible"":true,""alter_can_infer"":true,""collective_ball_visible"":true,""collective_can_infer"":true,""search_locations"":[1],""alter_occluders"":""101"",""ego_occluders"":""001""}","true","","","","","","","","","","","","","","","","","","",""
"","","","","","image-keyboard-response","11","46752","0.0-3.0-8.0","5f4a5b3dccae1c5e215cfe3e","665500ab8938657b03fbdba8","6657809249d4c30ce9fb2415","283","stimuli/11010011.jpg"," ","","practrice_feedback","1","","","","","","","","","","","","","","","","","","","","",""
"","","","","","image-keyboard-response","12","47198","0.0-3.0-9.0","5f4a5b3dccae1c5e215cfe3e","665500ab8938657b03fbdba8","6657809249d4c30ce9fb2415","443","stimuli/1001101.jpg","1","","prediction_practice","1","{""filepath"":""stimuli/1001101.jpg"",""ball_pos"":1,""ego_ball_visible"":true,""ego_can_infer"":true,""alter_ball_visible"":true,""alter_can_infer"":true,""collective_ball_visible"":true,""collective_can_infer"":true,""search_locations"":[1],""alter_occluders"":""001"",""ego_occluders"":""101""}","true","","","","","","","","","","","","","","","","","","",""
"","","","","","image-keyboard-response","13","47512","0.0-3.0-10.0","5f4a5b3dccae1c5e215cfe3e","665500ab8938657b03fbdba8","6657809249d4c30ce9fb2415","312","stimuli/10011011.jpg"," ","","practrice_feedback","1","","","","","","","","","","","","","","","","","","","","",""
"","","","","","image-keyboard-response","14","48722","0.0-3.0-11.0","5f4a5b3dccae1c5e215cfe3e","665500ab8938657b03fbdba8","6657809249d4c30ce9fb2415","1208","stimuli/1111110.jpg","0","","prediction_practice","1","{""filepath"":""stimuli/1111110.jpg"",""ball_pos"":1,""ego_ball_visible"":false,""ego_can_infer"":false,""alter_ball_visible"":false,""alter_can_infer"":false,""collective_ball_visible"":false,""collective_can_infer"":false,""search_locations"":[1,0,2],""alter_occluders"":""111"",""ego_occluders"":""110""}","false","","","","","","","","","","","","","","","","","","",""
"","","","","","image-keyboard-response","15","50504","0.0-3.0-12.0","5f4a5b3dccae1c5e215cfe3e","665500ab8938657b03fbdba8","6657809249d4c30ce9fb2415","1779","stimuli/11111101.jpg"," ","","practrice_feedback","1","","","","","","","","","","","","","","","","","","","","",""
"","","","","","image-keyboard-response","16","51226","0.0-3.0-13.0","5f4a5b3dccae1c5e215cfe3e","665500ab8938657b03fbdba8","6657809249d4c30ce9fb2415","720","stimuli/0100001.jpg","0","","prediction_practice","0","{""filepath"":""stimuli/0100001.jpg"",""ball_pos"":0,""ego_ball_visible"":true,""ego_can_infer"":true,""alter_ball_visible"":false,""alter_can_infer"":true,""collective_ball_visible"":false,""collective_can_infer"":true,""search_locations"":[0],""alter_occluders"":""100"",""ego_occluders"":""001""}","true","","","","","","","","","","","","","","","","","","",""
"","","","","","image-keyboard-response","17","51802","0.0-3.0-14.0","5f4a5b3dccae1c5e215cfe3e","665500ab8938657b03fbdba8","6657809249d4c30ce9fb2415","573","stimuli/01000010.jpg"," ","","practrice_feedback","0","","","","","","","","","","","","","","","","","","","","",""
"","","","","","image-keyboard-response","18","52352","0.0-3.0-15.0","5f4a5b3dccae1c5e215cfe3e","665500ab8938657b03fbdba8","6657809249d4c30ce9fb2415","548","stimuli/2111110.jpg","2","","prediction_practice","0","{""filepath"":""stimuli/2111110.jpg"",""ball_pos"":2,""ego_ball_visible"":true,""ego_can_infer"":true,""alter_ball_visible"":false,""alter_can_infer"":false,""collective_ball_visible"":false,""collective_can_infer"":false,""search_locations"":[0,1,2],""alter_occluders"":""111"",""ego_occluders"":""110""}","false","","","","","","","","","","","","","","","","","","",""
"","","","","","image-keyboard-response","19","53862","0.0-3.0-16.0","5f4a5b3dccae1c5e215cfe3e","665500ab8938657b03fbdba8","6657809249d4c30ce9fb2415","1507","stimuli/21111100.jpg"," ","","practrice_feedback","0","","","","","","","","","","","","","","","","","","","","",""
"","","","","","image-keyboard-response","20","54588","0.0-3.0-17.0","5f4a5b3dccae1c5e215cfe3e","665500ab8938657b03fbdba8","6657809249d4c30ce9fb2415","710","stimuli/1110100.jpg","1","","prediction_practice","1","{""filepath"":""stimuli/1110100.jpg"",""ball_pos"":1,""ego_ball_visible"":true,""ego_can_infer"":true,""alter_ball_visible"":false,""alter_can_infer"":false,""collective_ball_visible"":false,""collective_can_infer"":false,""search_locations"":[0,1],""alter_occluders"":""110"",""ego_occluders"":""100""}","true","","","","","","","","","","","","","","","","","","",""
"","","","","","image-keyboard-response","21","54884","0.0-3.0-18.0","5f4a5b3dccae1c5e215cfe3e","665500ab8938657b03fbdba8","6657809249d4c30ce9fb2415","294","stimuli/11101001.jpg"," ","","practrice_feedback","0","","","","","","","","","","","","","","","","","","","","",""
"","","","","","image-keyboard-response","22","55926","0.0-3.0-19.0","5f4a5b3dccae1c5e215cfe3e","665500ab8938657b03fbdba8","6657809249d4c30ce9fb2415","1039","stimuli/2110101.jpg","2","","prediction_practice","2","{""filepath"":""stimuli/2110101.jpg"",""ball_pos"":2,""ego_ball_visible"":false,""ego_can_infer"":false,""alter_ball_visible"":true,""alter_can_infer"":true,""collective_ball_visible"":false,""collective_can_infer"":false,""search_locations"":[2],""alter_occluders"":""110"",""ego_occluders"":""101""}","true","","","","","","","","","","","","","","","","","","",""
"","","","","","image-keyboard-response","23","56384","0.0-3.0-20.0","5f4a5b3dccae1c5e215cfe3e","665500ab8938657b03fbdba8","6657809249d4c30ce9fb2415","455","stimuli/21101012.jpg"," ","","practrice_feedback","2","","","","","","","","","","","","","","","","","","","","",""
"","","","","","html-button-response","24","61024","0.0-3.0-21.0","5f4a5b3dccae1c5e215cfe3e","665500ab8938657b03fbdba8","6657809249d4c30ce9fb2415","4639","Now that you've had some practice, you'll be tested with a couple of easy trials. If you correctly predict Sam's choice, you'll move on to complete the experiment!","0","","","","","","","","","","","","","","","","","","","","","","","",""
"","","","","","image-keyboard-response","25","62375","0.0-3.0-22.0-0.0","5f4a5b3dccae1c5e215cfe3e","665500ab8938657b03fbdba8","6657809249d4c30ce9fb2415","1348","stimuli/0000011.jpg","arrowleft","","comprehension_quiz","","","true","arrowleft","","","","","","","","","","","","","","","","","",""
"","","","","","image-keyboard-response","26","62875","0.0-3.0-22.0-1.0","5f4a5b3dccae1c5e215cfe3e","665500ab8938657b03fbdba8","6657809249d4c30ce9fb2415","497","stimuli/00000110.jpg"," ","","comprehension_quiz","","","true"," ","","","","","","","","","","","","","","","","","",""
"","","","","","image-keyboard-response","27","64227","0.0-3.0-22.0-2.0","5f4a5b3dccae1c5e215cfe3e","665500ab8938657b03fbdba8","6657809249d4c30ce9fb2415","1350","stimuli/1010010.jpg","arrowright","","comprehension_quiz","","","false","arrowdown","","","","","","","","","","","","","","","","","",""
"","","","","","image-keyboard-response","28","65545","0.0-3.0-22.0-3.0","5f4a5b3dccae1c5e215cfe3e","665500ab8938657b03fbdba8","6657809249d4c30ce9fb2415","1313","stimuli/10100101.jpg"," ","","comprehension_quiz","","","true"," ","","","","","","","","","","","","","","","","","",""
"","","","","","html-button-response","29","67724","0.0-3.0-23.0-0.0","5f4a5b3dccae1c5e215cfe3e","665500ab8938657b03fbdba8","6657809249d4c30ce9fb2415","2178","<p> Oops! You have answered one or more questions incorrectly.</p><p> Please Review the instructions again before continuing with the experiment </p>","0","","fail_message","","","false","","","","","","","","","","","","","","","","","","",""
"","","","","","instructions","30","76525","0.0-3.1-0.1","5f4a5b3dccae1c5e215cfe3e","665500ab8938657b03fbdba8","6657809249d4c30ce9fb2415","8800","","","[{""page_index"":0,""viewing_time"":1003},{""page_index"":1,""viewing_time"":840},{""page_index"":2,""viewing_time"":400},{""page_index"":3,""viewing_time"":430},{""page_index"":4,""viewing_time"":492},{""page_index"":5,""viewing_time"":352},{""page_index"":6,""viewing_time"":442},{""page_index"":7,""viewing_time"":266},{""page_index"":8,""viewing_time"":274},{""page_index"":9,""viewing_time"":240},{""page_index"":10,""viewing_time"":984},{""page_index"":11,""viewing_time"":1850},{""page_index"":12,""viewing_time"":820},{""page_index"":13,""viewing_time"":408}]","intro","","","","","","","","","","","","","","","","","","","","","",""
"","","","","","image-keyboard-response","31","77379","0.0-3.1-1.1","5f4a5b3dccae1c5e215cfe3e","665500ab8938657b03fbdba8","6657809249d4c30ce9fb2415","854","stimuli/2000010.jpg","2","","prediction_practice","2","{""filepath"":""stimuli/2000010.jpg"",""ball_pos"":2,""ego_ball_visible"":true,""ego_can_infer"":true,""alter_ball_visible"":true,""alter_can_infer"":true,""collective_ball_visible"":true,""collective_can_infer"":true,""search_locations"":[2],""alter_occluders"":""000"",""ego_occluders"":""010""}","true","","","","","","","","","","","","","","","","","","",""
"","","","","","image-keyboard-response","32","78353","0.0-3.1-2.1","5f4a5b3dccae1c5e215cfe3e","665500ab8938657b03fbdba8","6657809249d4c30ce9fb2415","974","stimuli/20000102.jpg"," ","","practrice_feedback","2","","","","","","","","","","","","","","","","","","","","",""
"","","","","","image-keyboard-response","33","80371","0.0-3.1-3.1","5f4a5b3dccae1c5e215cfe3e","665500ab8938657b03fbdba8","6657809249d4c30ce9fb2415","2018","stimuli/2101001.jpg","2","","prediction_practice","2","{""filepath"":""stimuli/2101001.jpg"",""ball_pos"":2,""ego_ball_visible"":false,""ego_can_infer"":true,""alter_ball_visible"":false,""alter_can_infer"":false,""collective_ball_visible"":false,""collective_can_infer"":false,""search_locations"":[0,2],""alter_occluders"":""101"",""ego_occluders"":""001""}","true","","","","","","","","","","","","","","","","","","",""
"","","","","","image-keyboard-response","34","80739","0.0-3.1-4.1","5f4a5b3dccae1c5e215cfe3e","665500ab8938657b03fbdba8","6657809249d4c30ce9fb2415","367","stimuli/21010012.jpg"," ","","practrice_feedback","0","","","","","","","","","","","","","","","","","","","","",""
"","","","","","image-keyboard-response","35","81489","0.0-3.1-5.1","5f4a5b3dccae1c5e215cfe3e","665500ab8938657b03fbdba8","6657809249d4c30ce9fb2415","749","stimuli/1000001.jpg","1","","prediction_practice","1","{""filepath"":""stimuli/1000001.jpg"",""ball_pos"":1,""ego_ball_visible"":true,""ego_can_infer"":true,""alter_ball_visible"":true,""alter_can_infer"":true,""collective_ball_visible"":true,""collective_can_infer"":true,""search_locations"":[1],""alter_occluders"":""000"",""ego_occluders"":""001""}","true","","","","","","","","","","","","","","","","","","",""
"","","","","","image-keyboard-response","36","81829","0.0-3.1-6.1","5f4a5b3dccae1c5e215cfe3e","665500ab8938657b03fbdba8","6657809249d4c30ce9fb2415","340","stimuli/10000011.jpg"," ","","practrice_feedback","1","","","","","","","","","","","","","","","","","","","","",""
"","","","","","image-keyboard-response","37","82601","0.0-3.1-7.1","5f4a5b3dccae1c5e215cfe3e","665500ab8938657b03fbdba8","6657809249d4c30ce9fb2415","771","stimuli/1101001.jpg","1","","prediction_practice","1","{""filepath"":""stimuli/1101001.jpg"",""ball_pos"":1,""ego_ball_visible"":true,""ego_can_infer"":true,""alter_ball_visible"":true,""alter_can_infer"":true,""collective_ball_visible"":true,""collective_can_infer"":true,""search_locations"":[1],""alter_occluders"":""101"",""ego_occluders"":""001""}","true","","","","","","","","","","","","","","","","","","",""
"","","","","","image-keyboard-response","38","82877","0.0-3.1-8.1","5f4a5b3dccae1c5e215cfe3e","665500ab8938657b03fbdba8","6657809249d4c30ce9fb2415","276","stimuli/11010011.jpg"," ","","practrice_feedback","1","","","","","","","","","","","","","","","","","","","","",""
"","","","","","image-keyboard-response","39","83337","0.0-3.1-9.1","5f4a5b3dccae1c5e215cfe3e","665500ab8938657b03fbdba8","6657809249d4c30ce9fb2415","459","stimuli/1001101.jpg","1","","prediction_practice","1","{""filepath"":""stimuli/1001101.jpg"",""ball_pos"":1,""ego_ball_visible"":true,""ego_can_infer"":true,""alter_ball_visible"":true,""alter_can_infer"":true,""collective_ball_visible"":true,""collective_can_infer"":true,""search_locations"":[1],""alter_occluders"":""001"",""ego_occluders"":""101""}","true","","","","","","","","","","","","","","","","","","",""
"","","","","","image-keyboard-response","40","83669","0.0-3.1-10.1","5f4a5b3dccae1c5e215cfe3e","665500ab8938657b03fbdba8","6657809249d4c30ce9fb2415","332","stimuli/10011011.jpg"," ","","practrice_feedback","1","","","","","","","","","","","","","","","","","","","","",""
"","","","","","image-keyboard-response","41","84971","0.0-3.1-11.1","5f4a5b3dccae1c5e215cfe3e","665500ab8938657b03fbdba8","6657809249d4c30ce9fb2415","1301","stimuli/1111110.jpg","0","","prediction_practice","1","{""filepath"":""stimuli/1111110.jpg"",""ball_pos"":1,""ego_ball_visible"":false,""ego_can_infer"":false,""alter_ball_visible"":false,""alter_can_infer"":false,""collective_ball_visible"":false,""collective_can_infer"":false,""search_locations"":[1,0,2],""alter_occluders"":""111"",""ego_occluders"":""110""}","false","","","","","","","","","","","","","","","","","","",""
"","","","","","image-keyboard-response","42","85871","0.0-3.1-12.1","5f4a5b3dccae1c5e215cfe3e","665500ab8938657b03fbdba8","6657809249d4c30ce9fb2415","899","stimuli/11111101.jpg"," ","","practrice_feedback","1","","","","","","","","","","","","","","","","","","","","",""
"","","","","","image-keyboard-response","43","87099","0.0-3.1-13.1","5f4a5b3dccae1c5e215cfe3e","665500ab8938657b03fbdba8","6657809249d4c30ce9fb2415","1228","stimuli/0100001.jpg","0","","prediction_practice","0","{""filepath"":""stimuli/0100001.jpg"",""ball_pos"":0,""ego_ball_visible"":true,""ego_can_infer"":true,""alter_ball_visible"":false,""alter_can_infer"":true,""collective_ball_visible"":false,""collective_can_infer"":true,""search_locations"":[0],""alter_occluders"":""100"",""ego_occluders"":""001""}","true","","","","","","","","","","","","","","","","","","",""
"","","","","","image-keyboard-response","44","89237","0.0-3.1-14.1","5f4a5b3dccae1c5e215cfe3e","665500ab8938657b03fbdba8","6657809249d4c30ce9fb2415","2137","stimuli/01000010.jpg"," ","","practrice_feedback","0","","","","","","","","","","","","","","","","","","","","",""
"","","","","","image-keyboard-response","45","90141","0.0-3.1-15.1","5f4a5b3dccae1c5e215cfe3e","665500ab8938657b03fbdba8","6657809249d4c30ce9fb2415","903","stimuli/2111110.jpg","2","","prediction_practice","0","{""filepath"":""stimuli/2111110.jpg"",""ball_pos"":2,""ego_ball_visible"":true,""ego_can_infer"":true,""alter_ball_visible"":false,""alter_can_infer"":false,""collective_ball_visible"":false,""collective_can_infer"":false,""search_locations"":[0,1,2],""alter_occluders"":""111"",""ego_occluders"":""110""}","false","","","","","","","","","","","","","","","","","","",""
"","","","","","image-keyboard-response","46","90755","0.0-3.1-16.1","5f4a5b3dccae1c5e215cfe3e","665500ab8938657b03fbdba8","6657809249d4c30ce9fb2415","614","stimuli/21111100.jpg"," ","","practrice_feedback","0","","","","","","","","","","","","","","","","","","","","",""
"","","","","","image-keyboard-response","47","91671","0.0-3.1-17.1","5f4a5b3dccae1c5e215cfe3e","665500ab8938657b03fbdba8","6657809249d4c30ce9fb2415","915","stimuli/1110100.jpg","1","","prediction_practice","1","{""filepath"":""stimuli/1110100.jpg"",""ball_pos"":1,""ego_ball_visible"":true,""ego_can_infer"":true,""alter_ball_visible"":false,""alter_can_infer"":false,""collective_ball_visible"":false,""collective_can_infer"":false,""search_locations"":[0,1],""alter_occluders"":""110"",""ego_occluders"":""100""}","true","","","","","","","","","","","","","","","","","","",""
"","","","","","image-keyboard-response","48","92013","0.0-3.1-18.1","5f4a5b3dccae1c5e215cfe3e","665500ab8938657b03fbdba8","6657809249d4c30ce9fb2415","341","stimuli/11101001.jpg"," ","","practrice_feedback","0","","","","","","","","","","","","","","","","","","","","",""
"","","","","","image-keyboard-response","49","92756","0.0-3.1-19.1","5f4a5b3dccae1c5e215cfe3e","665500ab8938657b03fbdba8","6657809249d4c30ce9fb2415","743","stimuli/2110101.jpg","2","","prediction_practice","2","{""filepath"":""stimuli/2110101.jpg"",""ball_pos"":2,""ego_ball_visible"":false,""ego_can_infer"":false,""alter_ball_visible"":true,""alter_can_infer"":true,""collective_ball_visible"":false,""collective_can_infer"":false,""search_locations"":[2],""alter_occluders"":""110"",""ego_occluders"":""101""}","true","","","","","","","","","","","","","","","","","","",""
"","","","","","image-keyboard-response","50","93612","0.0-3.1-20.1","5f4a5b3dccae1c5e215cfe3e","665500ab8938657b03fbdba8","6657809249d4c30ce9fb2415","856","stimuli/21101012.jpg"," ","","practrice_feedback","2","","","","","","","","","","","","","","","","","","","","",""
"","","","","","html-button-response","51","96330","0.0-3.1-21.1","5f4a5b3dccae1c5e215cfe3e","665500ab8938657b03fbdba8","6657809249d4c30ce9fb2415","2718","Now that you've had some practice, you'll be tested with a couple of easy trials. If you correctly predict Sam's choice, you'll move on to complete the experiment!","0","","","","","","","","","","","","","","","","","","","","","","","",""
"","","","","","image-keyboard-response","52","97266","0.0-3.1-22.1-0.1","5f4a5b3dccae1c5e215cfe3e","665500ab8938657b03fbdba8","6657809249d4c30ce9fb2415","935","stimuli/0000011.jpg","arrowleft","","comprehension_quiz","","","true","arrowleft","","","","","","","","","","","","","","","","","",""
"","","","","","image-keyboard-response","53","97604","0.0-3.1-22.1-1.1","5f4a5b3dccae1c5e215cfe3e","665500ab8938657b03fbdba8","6657809249d4c30ce9fb2415","337","stimuli/00000110.jpg"," ","","comprehension_quiz","","","true"," ","","","","","","","","","","","","","","","","","",""
"","","","","","image-keyboard-response","54","98823","0.0-3.1-22.1-2.1","5f4a5b3dccae1c5e215cfe3e","665500ab8938657b03fbdba8","6657809249d4c30ce9fb2415","1219","stimuli/1010010.jpg","arrowdown","","comprehension_quiz","","","true","arrowdown","","","","","","","","","","","","","","","","","",""
"","","","","","image-keyboard-response","55","99119","0.0-3.1-22.1-3.1","5f4a5b3dccae1c5e215cfe3e","665500ab8938657b03fbdba8","6657809249d4c30ce9fb2415","295","stimuli/10100101.jpg"," ","","comprehension_quiz","","","true"," ","","","","","","","","","","","","","","","","","",""
"","","","","","html-button-response","56","100357","0.0-4.0","5f4a5b3dccae1c5e215cfe3e","665500ab8938657b03fbdba8","6657809249d4c30ce9fb2415","1239","The experiment will now begin.","0","","","","","","","","","","","","","","","","","","","","","","","",""
"","","","","","image-keyboard-response","57","102255","0.0-5.0","5f4a5b3dccae1c5e215cfe3e","665500ab8938657b03fbdba8","6657809249d4c30ce9fb2415","1897","stimuli/2110111.jpg","1","","prediction_trial","2","","false","","2","false","false","true","true","false","false","[2]","110","111","0","","","","","","",""
"","","","","","image-keyboard-response","58","103253","0.0-6.0","5f4a5b3dccae1c5e215cfe3e","665500ab8938657b03fbdba8","6657809249d4c30ce9fb2415","997","stimuli/21101112.jpg"," ","","feedback_trial","2","","","","","","","","","","","","","","","","","","","","",""
"","","","","","image-keyboard-response","59","104705","0.0-7.0","5f4a5b3dccae1c5e215cfe3e","665500ab8938657b03fbdba8","6657809249d4c30ce9fb2415","1451","stimuli/2001101.jpg","2","","prediction_trial","2","","true","","2","false","false","false","true","false","false","[2]","001","101","1","","","","","","",""
"","","","","","image-keyboard-response","60","105381","0.0-8.0","5f4a5b3dccae1c5e215cfe3e","665500ab8938657b03fbdba8","6657809249d4c30ce9fb2415","675","stimuli/20011012.jpg"," ","","feedback_trial","2","","","","","","","","","","","","","","","","","","","","",""
"","","","","","image-keyboard-response","61","106077","0.0-9.0","5f4a5b3dccae1c5e215cfe3e","665500ab8938657b03fbdba8","6657809249d4c30ce9fb2415","695","stimuli/2110010.jpg","2","","prediction_trial","2","","true","","2","true","true","true","true","true","true","[2]","110","010","1","","","","","","",""
"","","","","","image-keyboard-response","62","106307","0.0-10.0","5f4a5b3dccae1c5e215cfe3e","665500ab8938657b03fbdba8","6657809249d4c30ce9fb2415","230","stimuli/21100102.jpg"," ","","feedback_trial","2","","","","","","","","","","","","","","","","","","","","",""
"","","","","","image-keyboard-response","63","107143","0.0-11.0","5f4a5b3dccae1c5e215cfe3e","665500ab8938657b03fbdba8","6657809249d4c30ce9fb2415","836","stimuli/1001000.jpg","1","","prediction_trial","1","","true","","1","true","true","true","true","true","true","[1]","001","000","1","","","","","","",""
"","","","","","image-keyboard-response","64","107483","0.0-12.0","5f4a5b3dccae1c5e215cfe3e","665500ab8938657b03fbdba8","6657809249d4c30ce9fb2415","339","stimuli/10010001.jpg"," ","","feedback_trial","1","","","","","","","","","","","","","","","","","","","","",""
"","","","","","image-keyboard-response","65","107935","0.0-13.0","5f4a5b3dccae1c5e215cfe3e","665500ab8938657b03fbdba8","6657809249d4c30ce9fb2415","452","stimuli/0001011.jpg","0","","prediction_trial","0","","true","","0","true","true","true","true","true","true","[0]","001","011","1","","","","","","",""
"","","","","","image-keyboard-response","66","108207","0.0-14.0","5f4a5b3dccae1c5e215cfe3e","665500ab8938657b03fbdba8","6657809249d4c30ce9fb2415","271","stimuli/00010110.jpg"," ","","feedback_trial","0","","","","","","","","","","","","","","","","","","","","",""
"","","","","","image-keyboard-response","67","110163","0.0-15.0","5f4a5b3dccae1c5e215cfe3e","665500ab8938657b03fbdba8","6657809249d4c30ce9fb2415","1956","stimuli/1011010.jpg","1","","prediction_trial","1","","true","","1","false","true","false","false","false","false","[2,1]","011","010","1","","","","","","",""
"","","","","","image-keyboard-response","68","110479","0.0-16.0","5f4a5b3dccae1c5e215cfe3e","665500ab8938657b03fbdba8","6657809249d4c30ce9fb2415","315","stimuli/10110101.jpg"," ","","feedback_trial","2","","","","","","","","","","","","","","","","","","","","",""
"","","","","","image-keyboard-response","69","111695","0.0-17.0","5f4a5b3dccae1c5e215cfe3e","665500ab8938657b03fbdba8","6657809249d4c30ce9fb2415","1216","stimuli/1000111.jpg","1","","prediction_trial","1","","true","","1","false","false","true","true","false","false","[1]","000","111","1","","","","","","",""
"","","","","","image-keyboard-response","70","112147","0.0-18.0","5f4a5b3dccae1c5e215cfe3e","665500ab8938657b03fbdba8","6657809249d4c30ce9fb2415","452","stimuli/10001111.jpg"," ","","feedback_trial","1","","","","","","","","","","","","","","","","","","","","",""
"","","","","","image-keyboard-response","71","112887","0.0-19.0","5f4a5b3dccae1c5e215cfe3e","665500ab8938657b03fbdba8","6657809249d4c30ce9fb2415","739","stimuli/0000011.jpg","0","","prediction_trial","0","","true","","0","true","true","true","true","true","true","[0]","000","011","1","","","","","","",""
"","","","","","image-keyboard-response","72","113159","0.0-20.0","5f4a5b3dccae1c5e215cfe3e","665500ab8938657b03fbdba8","6657809249d4c30ce9fb2415","272","stimuli/00000110.jpg"," ","","feedback_trial","0","","","","","","","","","","","","","","","","","","","","",""
"","","","","","image-keyboard-response","73","113885","0.0-21.0","5f4a5b3dccae1c5e215cfe3e","665500ab8938657b03fbdba8","6657809249d4c30ce9fb2415","725","stimuli/1110010.jpg","1","","prediction_trial","0","","false","","1","false","true","false","false","false","false","[0,1]","110","010","0","","","","","","",""
"","","","","","image-keyboard-response","74","114413","0.0-22.0","5f4a5b3dccae1c5e215cfe3e","665500ab8938657b03fbdba8","6657809249d4c30ce9fb2415","527","stimuli/11100100.jpg"," ","","feedback_trial","0","","","","","","","","","","","","","","","","","","","","",""
"","","","","","image-keyboard-response","75","115487","0.0-23.0","5f4a5b3dccae1c5e215cfe3e","665500ab8938657b03fbdba8","6657809249d4c30ce9fb2415","1073","stimuli/0101000.jpg","0","","prediction_trial","2","","false","","0","true","true","false","false","false","false","[0,2]","101","000","0","","","","","","",""
"","","","","","image-keyboard-response","76","117361","0.0-24.0","5f4a5b3dccae1c5e215cfe3e","665500ab8938657b03fbdba8","6657809249d4c30ce9fb2415","1874","stimuli/01010002.jpg"," ","","feedback_trial","0","","","","","","","","","","","","","","","","","","","","",""
"","","","","","image-keyboard-response","77","118107","0.0-25.0","5f4a5b3dccae1c5e215cfe3e","665500ab8938657b03fbdba8","6657809249d4c30ce9fb2415","745","stimuli/2001111.jpg","1","","prediction_trial","2","","false","","2","false","false","false","true","false","false","[2]","001","111","0","","","","","","",""
"","","","","","image-keyboard-response","78","118609","0.0-26.0","5f4a5b3dccae1c5e215cfe3e","665500ab8938657b03fbdba8","6657809249d4c30ce9fb2415","502","stimuli/20011112.jpg"," ","","feedback_trial","2","","","","","","","","","","","","","","","","","","","","",""
"","","","","","image-keyboard-response","79","119490","0.0-27.0","5f4a5b3dccae1c5e215cfe3e","665500ab8938657b03fbdba8","6657809249d4c30ce9fb2415","880","stimuli/1011001.jpg","1","","prediction_trial","1","","true","","1","true","true","false","false","false","false","[2,1]","011","001","1","","","","","","",""
"","","","","","image-keyboard-response","80","119755","0.0-28.0","5f4a5b3dccae1c5e215cfe3e","665500ab8938657b03fbdba8","6657809249d4c30ce9fb2415","265","stimuli/10110011.jpg"," ","","feedback_trial","2","","","","","","","","","","","","","","","","","","","","",""
"","","","","","image-keyboard-response","81","120191","0.0-29.0","5f4a5b3dccae1c5e215cfe3e","665500ab8938657b03fbdba8","6657809249d4c30ce9fb2415","435","stimuli/0101001.jpg","0","","prediction_trial","0","","true","","0","true","true","false","false","false","false","[2,0]","101","001","1","","","","","","",""
"","","","","","image-keyboard-response","82","120441","0.0-30.0","5f4a5b3dccae1c5e215cfe3e","665500ab8938657b03fbdba8","6657809249d4c30ce9fb2415","249","stimuli/01010010.jpg"," ","","feedback_trial","2","","","","","","","","","","","","","","","","","","","","",""
"","","","","","image-keyboard-response","83","120907","0.0-31.0","5f4a5b3dccae1c5e215cfe3e","665500ab8938657b03fbdba8","6657809249d4c30ce9fb2415","466","stimuli/0010001.jpg","0","","prediction_trial","0","","true","","0","true","true","true","true","true","true","[0]","010","001","1","","","","","","",""
"","","","","","image-keyboard-response","84","121171","0.0-32.0","5f4a5b3dccae1c5e215cfe3e","665500ab8938657b03fbdba8","6657809249d4c30ce9fb2415","264","stimuli/00100010.jpg"," ","","feedback_trial","0","","","","","","","","","","","","","","","","","","","","",""
"","","","","","image-keyboard-response","85","121903","0.0-33.0","5f4a5b3dccae1c5e215cfe3e","665500ab8938657b03fbdba8","6657809249d4c30ce9fb2415","731","stimuli/1110110.jpg","1","","prediction_trial","1","","true","","1","false","false","false","false","false","false","[1,0]","110","110","1","","","","","","",""
"","","","","","image-keyboard-response","86","122183","0.0-34.0","5f4a5b3dccae1c5e215cfe3e","665500ab8938657b03fbdba8","6657809249d4c30ce9fb2415","280","stimuli/11101101.jpg"," ","","feedback_trial","1","","","","","","","","","","","","","","","","","","","","",""
"","","","","","image-keyboard-response","87","122978","0.0-35.0","5f4a5b3dccae1c5e215cfe3e","665500ab8938657b03fbdba8","6657809249d4c30ce9fb2415","794","stimuli/1111011.jpg","1","","prediction_trial","1","","true","","1","false","false","false","false","false","false","[2,0,1]","111","011","1","","","","","","",""
"","","","","","image-keyboard-response","88","123342","0.0-36.0","5f4a5b3dccae1c5e215cfe3e","665500ab8938657b03fbdba8","6657809249d4c30ce9fb2415","364","stimuli/11110111.jpg"," ","","feedback_trial","2","","","","","","","","","","","","","","","","","","","","",""
"","","","","","image-keyboard-response","89","123958","0.0-37.0","5f4a5b3dccae1c5e215cfe3e","665500ab8938657b03fbdba8","6657809249d4c30ce9fb2415","615","stimuli/2001010.jpg","2","","prediction_trial","2","","true","","2","true","true","false","true","false","true","[2]","001","010","1","","","","","","",""
"","","","","","image-keyboard-response","90","124256","0.0-38.0","5f4a5b3dccae1c5e215cfe3e","665500ab8938657b03fbdba8","6657809249d4c30ce9fb2415","297","stimuli/20010102.jpg"," ","","feedback_trial","2","","","","","","","","","","","","","","","","","","","","",""
"","","","","","image-keyboard-response","91","124774","0.0-39.0","5f4a5b3dccae1c5e215cfe3e","665500ab8938657b03fbdba8","6657809249d4c30ce9fb2415","518","stimuli/0001001.jpg","0","","prediction_trial","0","","true","","0","true","true","true","true","true","true","[0]","001","001","1","","","","","","",""
"","","","","","image-keyboard-response","92","124964","0.0-40.0","5f4a5b3dccae1c5e215cfe3e","665500ab8938657b03fbdba8","6657809249d4c30ce9fb2415","189","stimuli/00010010.jpg"," ","","feedback_trial","0","","","","","","","","","","","","","","","","","","","","",""
"","","","","","image-keyboard-response","93","125454","0.0-41.0","5f4a5b3dccae1c5e215cfe3e","665500ab8938657b03fbdba8","6657809249d4c30ce9fb2415","489","stimuli/0110001.jpg","0","","prediction_trial","0","","true","","0","true","true","false","false","false","false","[1,0]","110","001","1","","","","","","",""
"","","","","","image-keyboard-response","94","125734","0.0-42.0","5f4a5b3dccae1c5e215cfe3e","665500ab8938657b03fbdba8","6657809249d4c30ce9fb2415","280","stimuli/01100010.jpg"," ","","feedback_trial","1","","","","","","","","","","","","","","","","","","","","",""
"","","","","","image-keyboard-response","95","126636","0.0-43.0","5f4a5b3dccae1c5e215cfe3e","665500ab8938657b03fbdba8","6657809249d4c30ce9fb2415","902","stimuli/0110111.jpg","1","","prediction_trial","0","","false","","0","false","false","false","false","false","false","[1,0]","110","111","0","","","","","","",""
"","","","","","image-keyboard-response","96","126838","0.0-44.0","5f4a5b3dccae1c5e215cfe3e","665500ab8938657b03fbdba8","6657809249d4c30ce9fb2415","202","stimuli/01101110.jpg"," ","","feedback_trial","1","","","","","","","","","","","","","","","","","","","","",""
"","","","","","image-keyboard-response","97","127732","0.0-45.0","5f4a5b3dccae1c5e215cfe3e","665500ab8938657b03fbdba8","6657809249d4c30ce9fb2415","893","stimuli/0011101.jpg","2","","prediction_trial","0","","false","","0","false","false","true","true","false","false","[0]","011","101","0","","","","","","",""
"","","","","","image-keyboard-response","98","127967","0.0-46.0","5f4a5b3dccae1c5e215cfe3e","665500ab8938657b03fbdba8","6657809249d4c30ce9fb2415","235","stimuli/00111010.jpg"," ","","feedback_trial","0","","","","","","","","","","","","","","","","","","","","",""
"","","","","","image-keyboard-response","99","128636","0.0-47.0","5f4a5b3dccae1c5e215cfe3e","665500ab8938657b03fbdba8","6657809249d4c30ce9fb2415","668","stimuli/1100000.jpg","1","","prediction_trial","1","","true","","1","true","true","true","true","true","true","[1]","100","000","1","","","","","","",""
"","","","","","image-keyboard-response","100","128778","0.0-48.0","5f4a5b3dccae1c5e215cfe3e","665500ab8938657b03fbdba8","6657809249d4c30ce9fb2415","142","stimuli/11000001.jpg"," ","","feedback_trial","1","","","","","","","","","","","","","","","","","","","","",""
"","","","","","image-keyboard-response","101","129432","0.0-49.0","5f4a5b3dccae1c5e215cfe3e","665500ab8938657b03fbdba8","6657809249d4c30ce9fb2415","653","stimuli/0100101.jpg","0","","prediction_trial","0","","true","","0","false","false","false","true","false","false","[0]","100","101","1","","","","","","",""
"","","","","","image-keyboard-response","102","129568","0.0-50.0","5f4a5b3dccae1c5e215cfe3e","665500ab8938657b03fbdba8","6657809249d4c30ce9fb2415","135","stimuli/01001010.jpg"," ","","feedback_trial","0","","","","","","","","","","","","","","","","","","","","",""
"","","","","","image-keyboard-response","103","130238","0.0-51.0","5f4a5b3dccae1c5e215cfe3e","665500ab8938657b03fbdba8","6657809249d4c30ce9fb2415","669","stimuli/1100111.jpg","1","","prediction_trial","1","","true","","1","false","false","true","true","false","false","[1]","100","111","1","","","","","","",""
"","","","","","image-keyboard-response","104","130480","0.0-52.0","5f4a5b3dccae1c5e215cfe3e","665500ab8938657b03fbdba8","6657809249d4c30ce9fb2415","241","stimuli/11001111.jpg"," ","","feedback_trial","1","","","","","","","","","","","","","","","","","","","","",""
"","","","","","image-keyboard-response","105","131030","0.0-53.0","5f4a5b3dccae1c5e215cfe3e","665500ab8938657b03fbdba8","6657809249d4c30ce9fb2415","549","stimuli/1111000.jpg","1","","prediction_trial","1","","true","","1","true","true","false","false","false","false","[2,1,0]","111","000","1","","","","","","",""
"","","","","","image-keyboard-response","106","131318","0.0-54.0","5f4a5b3dccae1c5e215cfe3e","665500ab8938657b03fbdba8","6657809249d4c30ce9fb2415","288","stimuli/11110001.jpg"," ","","feedback_trial","2","","","","","","","","","","","","","","","","","","","","",""
"","","","","","image-keyboard-response","107","132828","0.0-55.0","5f4a5b3dccae1c5e215cfe3e","665500ab8938657b03fbdba8","6657809249d4c30ce9fb2415","1510","stimuli/2001011.jpg","2","","prediction_trial","2","","true","","2","false","false","false","true","false","false","[2]","001","011","1","","","","","","",""
"","","","","","image-keyboard-response","108","133158","0.0-56.0","5f4a5b3dccae1c5e215cfe3e","665500ab8938657b03fbdba8","6657809249d4c30ce9fb2415","329","stimuli/20010112.jpg"," ","","feedback_trial","2","","","","","","","","","","","","","","","","","","","","",""
"","","","","","image-keyboard-response","109","133744","0.0-57.0","5f4a5b3dccae1c5e215cfe3e","665500ab8938657b03fbdba8","6657809249d4c30ce9fb2415","586","stimuli/0001000.jpg","0","","prediction_trial","0","","true","","0","true","true","true","true","true","true","[0]","001","000","1","","","","","","",""
"","","","","","image-keyboard-response","110","133974","0.0-58.0","5f4a5b3dccae1c5e215cfe3e","665500ab8938657b03fbdba8","6657809249d4c30ce9fb2415","229","stimuli/00010000.jpg"," ","","feedback_trial","0","","","","","","","","","","","","","","","","","","","","",""
"","","","","","image-keyboard-response","111","134498","0.0-59.0","5f4a5b3dccae1c5e215cfe3e","665500ab8938657b03fbdba8","6657809249d4c30ce9fb2415","524","stimuli/2111000.jpg","2","","prediction_trial","2","","true","","2","true","true","false","false","false","false","[0,2,1]","111","000","1","","","","","","",""
"","","","","","image-keyboard-response","112","134840","0.0-60.0","5f4a5b3dccae1c5e215cfe3e","665500ab8938657b03fbdba8","6657809249d4c30ce9fb2415","342","stimuli/21110002.jpg"," ","","feedback_trial","0","","","","","","","","","","","","","","","","","","","","",""
"","","","","","image-keyboard-response","113","135530","0.0-61.0","5f4a5b3dccae1c5e215cfe3e","665500ab8938657b03fbdba8","6657809249d4c30ce9fb2415","690","stimuli/1111101.jpg","1","","prediction_trial","1","","true","","1","true","true","false","false","false","false","[0,1,2]","111","101","1","","","","","","",""
"","","","","","image-keyboard-response","114","136054","0.0-62.0","5f4a5b3dccae1c5e215cfe3e","665500ab8938657b03fbdba8","6657809249d4c30ce9fb2415","523","stimuli/11111011.jpg"," ","","feedback_trial","0","","","","","","","","","","","","","","","","","","","","",""
"","","","","","image-keyboard-response","115","136740","0.0-63.0","5f4a5b3dccae1c5e215cfe3e","665500ab8938657b03fbdba8","6657809249d4c30ce9fb2415","685","stimuli/1011100.jpg","1","","prediction_trial","2","","false","","1","true","true","false","false","false","false","[1,2]","011","100","0","","","","","","",""
"","","","","","image-keyboard-response","116","137829","0.0-64.0","5f4a5b3dccae1c5e215cfe3e","665500ab8938657b03fbdba8","6657809249d4c30ce9fb2415","1089","stimuli/10111002.jpg"," ","","feedback_trial","1","","","","","","","","","","","","","","","","","","","","",""
"","","","","","image-keyboard-response","117","138290","0.0-65.0","5f4a5b3dccae1c5e215cfe3e","665500ab8938657b03fbdba8","6657809249d4c30ce9fb2415","460","stimuli/2111110.jpg","2","","prediction_trial","1","","false","","2","true","true","false","false","false","false","[0,1,2]","111","110","0","","","","","","",""
"","","","","","image-keyboard-response","118","138472","0.0-66.0","5f4a5b3dccae1c5e215cfe3e","665500ab8938657b03fbdba8","6657809249d4c30ce9fb2415","181","stimuli/21111101.jpg"," ","","feedback_trial","0","","","","","","","","","","","","","","","","","","","","",""
"","","","","","image-keyboard-response","119","139674","0.0-67.0","5f4a5b3dccae1c5e215cfe3e","665500ab8938657b03fbdba8","6657809249d4c30ce9fb2415","1202","stimuli/0100110.jpg","1","","prediction_trial","0","","false","","0","false","false","false","true","false","false","[0]","100","110","0","","","","","","",""
"","","","","","image-keyboard-response","120","139867","0.0-68.0","5f4a5b3dccae1c5e215cfe3e","665500ab8938657b03fbdba8","6657809249d4c30ce9fb2415","193","stimuli/01001100.jpg"," ","","feedback_trial","0","","","","","","","","","","","","","","","","","","","","",""
"","","","","","image-keyboard-response","121","140576","0.0-69.0","5f4a5b3dccae1c5e215cfe3e","665500ab8938657b03fbdba8","6657809249d4c30ce9fb2415","708","stimuli/0000110.jpg","2","","prediction_trial","0","","false","","0","false","false","true","true","false","false","[0]","000","110","0","","","","","","",""
"","","","","","image-keyboard-response","122","141048","0.0-70.0","5f4a5b3dccae1c5e215cfe3e","665500ab8938657b03fbdba8","6657809249d4c30ce9fb2415","472","stimuli/00001100.jpg"," ","","feedback_trial","0","","","","","","","","","","","","","","","","","","","","",""
"","","","","","image-keyboard-response","123","141906","0.0-71.0","5f4a5b3dccae1c5e215cfe3e","665500ab8938657b03fbdba8","6657809249d4c30ce9fb2415","857","stimuli/0011111.jpg","0","","prediction_trial","0","","true","","0","false","false","true","true","false","false","[0]","011","111","1","","","","","","",""
"","","","","","image-keyboard-response","124","142138","0.0-72.0","5f4a5b3dccae1c5e215cfe3e","665500ab8938657b03fbdba8","6657809249d4c30ce9fb2415","232","stimuli/00111110.jpg"," ","","feedback_trial","0","","","","","","","","","","","","","","","","","","","","",""
"","","","","","image-keyboard-response","125","142709","0.0-73.0","5f4a5b3dccae1c5e215cfe3e","665500ab8938657b03fbdba8","6657809249d4c30ce9fb2415","572","stimuli/0000000.jpg","0","","prediction_trial","0","","true","","0","true","true","true","true","true","true","[0]","000","000","1","","","","","","",""
"","","","","","image-keyboard-response","126","142940","0.0-74.0","5f4a5b3dccae1c5e215cfe3e","665500ab8938657b03fbdba8","6657809249d4c30ce9fb2415","230","stimuli/00000000.jpg"," ","","feedback_trial","0","","","","","","","","","","","","","","","","","","","","",""
"","","","","","image-keyboard-response","127","143450","0.0-75.0","5f4a5b3dccae1c5e215cfe3e","665500ab8938657b03fbdba8","6657809249d4c30ce9fb2415","509","stimuli/0010011.jpg","0","","prediction_trial","0","","true","","0","true","true","true","true","true","true","[0]","010","011","1","","","","","","",""
"","","","","","image-keyboard-response","128","143709","0.0-76.0","5f4a5b3dccae1c5e215cfe3e","665500ab8938657b03fbdba8","6657809249d4c30ce9fb2415","259","stimuli/00100110.jpg"," ","","feedback_trial","0","","","","","","","","","","","","","","","","","","","","",""
"","","","","","image-keyboard-response","129","144276","0.0-77.0","5f4a5b3dccae1c5e215cfe3e","665500ab8938657b03fbdba8","6657809249d4c30ce9fb2415","566","stimuli/2010110.jpg","2","","prediction_trial","2","","true","","2","true","true","true","true","true","true","[2]","010","110","1","","","","","","",""
"","","","","","image-keyboard-response","130","144472","0.0-78.0","5f4a5b3dccae1c5e215cfe3e","665500ab8938657b03fbdba8","6657809249d4c30ce9fb2415","195","stimuli/20101102.jpg"," ","","feedback_trial","2","","","","","","","","","","","","","","","","","","","","",""
"","","","","","image-keyboard-response","131","145036","0.0-79.0","5f4a5b3dccae1c5e215cfe3e","665500ab8938657b03fbdba8","6657809249d4c30ce9fb2415","563","stimuli/2011110.jpg","2","","prediction_trial","1","","false","","2","true","true","false","false","false","false","[1,2]","011","110","0","","","","","","",""
"","","","","","image-keyboard-response","132","145356","0.0-80.0","5f4a5b3dccae1c5e215cfe3e","665500ab8938657b03fbdba8","6657809249d4c30ce9fb2415","320","stimuli/20111101.jpg"," ","","feedback_trial","1","","","","","","","","","","","","","","","","","","","","",""
"","","","","","image-keyboard-response","133","146178","0.0-81.0","5f4a5b3dccae1c5e215cfe3e","665500ab8938657b03fbdba8","6657809249d4c30ce9fb2415","822","stimuli/2100111.jpg","1","","prediction_trial","2","","false","","2","false","false","true","true","false","false","[2]","100","111","0","","","","","","",""
"","","","","","image-keyboard-response","134","146553","0.0-82.0","5f4a5b3dccae1c5e215cfe3e","665500ab8938657b03fbdba8","6657809249d4c30ce9fb2415","375","stimuli/21001112.jpg"," ","","feedback_trial","2","","","","","","","","","","","","","","","","","","","","",""
"","","","","","image-keyboard-response","135","147148","0.0-83.0","5f4a5b3dccae1c5e215cfe3e","665500ab8938657b03fbdba8","6657809249d4c30ce9fb2415","594","stimuli/2011010.jpg","2","","prediction_trial","1","","false","","2","true","true","false","false","false","false","[2,1]","011","010","0","","","","","","",""
"","","","","","image-keyboard-response","136","147382","0.0-84.0","5f4a5b3dccae1c5e215cfe3e","665500ab8938657b03fbdba8","6657809249d4c30ce9fb2415","234","stimuli/20110101.jpg"," ","","feedback_trial","2","","","","","","","","","","","","","","","","","","","","",""
"","","","","","image-keyboard-response","137","148024","0.0-85.0","5f4a5b3dccae1c5e215cfe3e","665500ab8938657b03fbdba8","6657809249d4c30ce9fb2415","642","stimuli/1110100.jpg","1","","prediction_trial","0","","false","","1","true","true","false","false","false","false","[0,1]","110","100","0","","","","","","",""
"","","","","","image-keyboard-response","138","148151","0.0-86.0","5f4a5b3dccae1c5e215cfe3e","665500ab8938657b03fbdba8","6657809249d4c30ce9fb2415","127","stimuli/11101000.jpg"," ","","feedback_trial","0","","","","","","","","","","","","","","","","","","","","",""
"","","","","","image-keyboard-response","139","148962","0.0-87.0","5f4a5b3dccae1c5e215cfe3e","665500ab8938657b03fbdba8","6657809249d4c30ce9fb2415","810","stimuli/1000010.jpg","1","","prediction_trial","1","","true","","1","false","true","true","true","false","true","[1]","000","010","1","","","","","","",""
"","","","","","image-keyboard-response","140","149279","0.0-88.0","5f4a5b3dccae1c5e215cfe3e","665500ab8938657b03fbdba8","6657809249d4c30ce9fb2415","317","stimuli/10000101.jpg"," ","","feedback_trial","1","","","","","","","","","","","","","","","","","","","","",""
"","","","","","image-keyboard-response","141","150242","0.0-89.0","5f4a5b3dccae1c5e215cfe3e","665500ab8938657b03fbdba8","6657809249d4c30ce9fb2415","962","stimuli/2000111.jpg","1","","prediction_trial","2","","false","","2","false","false","true","true","false","false","[2]","000","111","0","","","","","","",""
"","","","","","image-keyboard-response","142","150710","0.0-90.0","5f4a5b3dccae1c5e215cfe3e","665500ab8938657b03fbdba8","6657809249d4c30ce9fb2415","467","stimuli/20001112.jpg"," ","","feedback_trial","2","","","","","","","","","","","","","","","","","","","","",""
"","","","","","image-keyboard-response","143","151452","0.0-91.0","5f4a5b3dccae1c5e215cfe3e","665500ab8938657b03fbdba8","6657809249d4c30ce9fb2415","742","stimuli/2101101.jpg","0","","prediction_trial","0","","true","","2","false","false","false","false","false","false","[0,2]","101","101","1","","","","","","",""
"","","","","","image-keyboard-response","144","151642","0.0-92.0","5f4a5b3dccae1c5e215cfe3e","665500ab8938657b03fbdba8","6657809249d4c30ce9fb2415","190","stimuli/21011010.jpg"," ","","feedback_trial","0","","","","","","","","","","","","","","","","","","","","",""
"","","","","","image-keyboard-response","145","152306","0.0-93.0","5f4a5b3dccae1c5e215cfe3e","665500ab8938657b03fbdba8","6657809249d4c30ce9fb2415","663","stimuli/1110001.jpg","1","","prediction_trial","1","","true","","1","true","true","false","false","false","false","[0,1]","110","001","1","","","","","","",""
"","","","","","image-keyboard-response","146","152481","0.0-94.0","5f4a5b3dccae1c5e215cfe3e","665500ab8938657b03fbdba8","6657809249d4c30ce9fb2415","175","stimuli/11100011.jpg"," ","","feedback_trial","0","","","","","","","","","","","","","","","","","","","","",""
"","","","","","image-keyboard-response","147","153320","0.0-95.0","5f4a5b3dccae1c5e215cfe3e","665500ab8938657b03fbdba8","6657809249d4c30ce9fb2415","838","stimuli/0110110.jpg","0","","prediction_trial","1","","false","","0","false","false","false","false","false","false","[0,1]","110","110","0","","","","","","",""
"","","","","","image-keyboard-response","148","153502","0.0-96.0","5f4a5b3dccae1c5e215cfe3e","665500ab8938657b03fbdba8","6657809249d4c30ce9fb2415","181","stimuli/01101101.jpg"," ","","feedback_trial","0","","","","","","","","","","","","","","","","","","","","",""
"","","","","","image-keyboard-response","149","154114","0.0-97.0","5f4a5b3dccae1c5e215cfe3e","665500ab8938657b03fbdba8","6657809249d4c30ce9fb2415","613","stimuli/1010001.jpg","1","","prediction_trial","1","","true","","1","true","true","false","true","false","true","[1]","010","001","1","","","","","","",""
"","","","","","image-keyboard-response","150","154321","0.0-98.0","5f4a5b3dccae1c5e215cfe3e","665500ab8938657b03fbdba8","6657809249d4c30ce9fb2415","206","stimuli/10100011.jpg"," ","","feedback_trial","1","","","","","","","","","","","","","","","","","","","","",""
"","","","","","image-keyboard-response","151","154838","0.0-99.0","5f4a5b3dccae1c5e215cfe3e","665500ab8938657b03fbdba8","6657809249d4c30ce9fb2415","517","stimuli/2000101.jpg","0","","prediction_trial","2","","false","","2","false","false","true","true","false","false","[2]","000","101","0","","","","","","",""
"","","","","","image-keyboard-response","152","155157","0.0-100.0","5f4a5b3dccae1c5e215cfe3e","665500ab8938657b03fbdba8","6657809249d4c30ce9fb2415","318","stimuli/20001012.jpg"," ","","feedback_trial","2","","","","","","","","","","","","","","","","","","","","",""
"","","","","","image-keyboard-response","153","155805","0.0-101.0","5f4a5b3dccae1c5e215cfe3e","665500ab8938657b03fbdba8","6657809249d4c30ce9fb2415","648","stimuli/0111000.jpg","0","","prediction_trial","0","","true","","0","true","true","false","false","false","false","[2,1,0]","111","000","1","","","","","","",""
"","","","","","image-keyboard-response","154","156010","0.0-102.0","5f4a5b3dccae1c5e215cfe3e","665500ab8938657b03fbdba8","6657809249d4c30ce9fb2415","205","stimuli/01110000.jpg"," ","","feedback_trial","2","","","","","","","","","","","","","","","","","","","","",""
"","","","","","image-keyboard-response","155","156558","0.0-103.0","5f4a5b3dccae1c5e215cfe3e","665500ab8938657b03fbdba8","6657809249d4c30ce9fb2415","548","stimuli/0111010.jpg","0","","prediction_trial","0","","true","","0","true","true","false","false","false","false","[1,2,0]","111","010","1","","","","","","",""
"","","","","","image-keyboard-response","156","156783","0.0-104.0","5f4a5b3dccae1c5e215cfe3e","665500ab8938657b03fbdba8","6657809249d4c30ce9fb2415","224","stimuli/01110100.jpg"," ","","feedback_trial","1","","","","","","","","","","","","","","","","","","","","",""
"","","","","","image-keyboard-response","157","157558","0.0-105.0","5f4a5b3dccae1c5e215cfe3e","665500ab8938657b03fbdba8","6657809249d4c30ce9fb2415","775","stimuli/1111110.jpg","1","","prediction_trial","2","","false","","1","false","false","false","false","false","false","[1,0,2]","111","110","0","","","","","","",""
"","","","","","image-keyboard-response","158","157738","0.0-106.0","5f4a5b3dccae1c5e215cfe3e","665500ab8938657b03fbdba8","6657809249d4c30ce9fb2415","179","stimuli/11111102.jpg"," ","","feedback_trial","1","","","","","","","","","","","","","","","","","","","","",""
"","","","","","image-keyboard-response","159","158476","0.0-107.0","5f4a5b3dccae1c5e215cfe3e","665500ab8938657b03fbdba8","6657809249d4c30ce9fb2415","737","stimuli/2100101.jpg","0","","prediction_trial","2","","false","","2","false","false","true","true","false","false","[2]","100","101","0","","","","","","",""
"","","","","","image-keyboard-response","160","158770","0.0-108.0","5f4a5b3dccae1c5e215cfe3e","665500ab8938657b03fbdba8","6657809249d4c30ce9fb2415","294","stimuli/21001012.jpg"," ","","feedback_trial","2","","","","","","","","","","","","","","","","","","","","",""
"","","","","","image-keyboard-response","161","159357","0.0-109.0","5f4a5b3dccae1c5e215cfe3e","665500ab8938657b03fbdba8","6657809249d4c30ce9fb2415","586","stimuli/2110101.jpg","0","","prediction_trial","2","","false","","2","false","false","true","true","false","false","[2]","110","101","0","","","","","","",""
"","","","","","image-keyboard-response","162","159696","0.0-110.0","5f4a5b3dccae1c5e215cfe3e","665500ab8938657b03fbdba8","6657809249d4c30ce9fb2415","339","stimuli/21101012.jpg"," ","","feedback_trial","2","","","","","","","","","","","","","","","","","","","","",""
"","","","","","image-keyboard-response","163","160152","0.0-111.0","5f4a5b3dccae1c5e215cfe3e","665500ab8938657b03fbdba8","6657809249d4c30ce9fb2415","456","stimuli/2010000.jpg","2","","prediction_trial","2","","true","","2","true","true","true","true","true","true","[2]","010","000","1","","","","","","",""
"","","","","","image-keyboard-response","164","160391","0.0-112.0","5f4a5b3dccae1c5e215cfe3e","665500ab8938657b03fbdba8","6657809249d4c30ce9fb2415","238","stimuli/20100002.jpg"," ","","feedback_trial","2","","","","","","","","","","","","","","","","","","","","",""
"","","","","","image-keyboard-response","165","160843","0.0-113.0","5f4a5b3dccae1c5e215cfe3e","665500ab8938657b03fbdba8","6657809249d4c30ce9fb2415","451","stimuli/1101111.jpg","0","","prediction_trial","1","","false","","1","false","false","true","true","false","false","[1]","101","111","0","","","","","","",""
"","","","","","image-keyboard-response","166","161139","0.0-114.0","5f4a5b3dccae1c5e215cfe3e","665500ab8938657b03fbdba8","6657809249d4c30ce9fb2415","296","stimuli/11011111.jpg"," ","","feedback_trial","1","","","","","","","","","","","","","","","","","","","","",""
"","","","","","image-keyboard-response","167","161593","0.0-115.0","5f4a5b3dccae1c5e215cfe3e","665500ab8938657b03fbdba8","6657809249d4c30ce9fb2415","453","stimuli/2100011.jpg","2","","prediction_trial","2","","true","","2","false","false","true","true","false","false","[2]","100","011","1","","","","","","",""
"","","","","","image-keyboard-response","168","161865","0.0-116.0","5f4a5b3dccae1c5e215cfe3e","665500ab8938657b03fbdba8","6657809249d4c30ce9fb2415","272","stimuli/21000112.jpg"," ","","feedback_trial","2","","","","","","","","","","","","","","","","","","","","",""
"","","","","","image-keyboard-response","169","162423","0.0-117.0","5f4a5b3dccae1c5e215cfe3e","665500ab8938657b03fbdba8","6657809249d4c30ce9fb2415","558","stimuli/2110011.jpg","1","","prediction_trial","2","","false","","2","false","false","true","true","false","false","[2]","110","011","0","","","","","","",""
"","","","","","image-keyboard-response","170","162711","0.0-118.0","5f4a5b3dccae1c5e215cfe3e","665500ab8938657b03fbdba8","6657809249d4c30ce9fb2415","288","stimuli/21100112.jpg"," ","","feedback_trial","2","","","","","","","","","","","","","","","","","","","","",""
"","","","","","image-keyboard-response","171","163253","0.0-119.0","5f4a5b3dccae1c5e215cfe3e","665500ab8938657b03fbdba8","6657809249d4c30ce9fb2415","541","stimuli/1100110.jpg","0","","prediction_trial","1","","false","","1","false","false","true","true","false","false","[1]","100","110","0","","","","","","",""
"","","","","","image-keyboard-response","172","163437","0.0-120.0","5f4a5b3dccae1c5e215cfe3e","665500ab8938657b03fbdba8","6657809249d4c30ce9fb2415","184","stimuli/11001101.jpg"," ","","feedback_trial","1","","","","","","","","","","","","","","","","","","","","",""
"","","","","","image-keyboard-response","173","164009","0.0-121.0","5f4a5b3dccae1c5e215cfe3e","665500ab8938657b03fbdba8","6657809249d4c30ce9fb2415","571","stimuli/0101100.jpg","0","","prediction_trial","0","","true","","0","false","true","false","false","false","false","[2,0]","101","100","1","","","","","","",""
"","","","","","image-keyboard-response","174","164309","0.0-122.0","5f4a5b3dccae1c5e215cfe3e","665500ab8938657b03fbdba8","6657809249d4c30ce9fb2415","299","stimuli/01011000.jpg"," ","","feedback_trial","2","","","","","","","","","","","","","","","","","","","","",""
"","","","","","image-keyboard-response","175","164955","0.0-123.0","5f4a5b3dccae1c5e215cfe3e","665500ab8938657b03fbdba8","6657809249d4c30ce9fb2415","646","stimuli/0111011.jpg","0","","prediction_trial","2","","false","","0","true","true","false","false","false","false","[0,1,2]","111","011","0","","","","","","",""
"","","","","","image-keyboard-response","176","165155","0.0-124.0","5f4a5b3dccae1c5e215cfe3e","665500ab8938657b03fbdba8","6657809249d4c30ce9fb2415","199","stimuli/01110112.jpg"," ","","feedback_trial","0","","","","","","","","","","","","","","","","","","","","",""
"","","","","","image-keyboard-response","177","165719","0.0-125.0","5f4a5b3dccae1c5e215cfe3e","665500ab8938657b03fbdba8","6657809249d4c30ce9fb2415","563","stimuli/0010000.jpg","0","","prediction_trial","0","","true","","0","true","true","true","true","true","true","[0]","010","000","1","","","","","","",""
"","","","","","image-keyboard-response","178","165927","0.0-126.0","5f4a5b3dccae1c5e215cfe3e","665500ab8938657b03fbdba8","6657809249d4c30ce9fb2415","208","stimuli/00100000.jpg"," ","","feedback_trial","0","","","","","","","","","","","","","","","","","","","","",""
"","","","","","image-keyboard-response","179","166313","0.0-127.0","5f4a5b3dccae1c5e215cfe3e","665500ab8938657b03fbdba8","6657809249d4c30ce9fb2415","385","stimuli/1111001.jpg","0","","prediction_trial","2","","false","","1","true","true","false","false","false","false","[0,2,1]","111","001","0","","","","","","",""
"","","","","","image-keyboard-response","180","167263","0.0-128.0","5f4a5b3dccae1c5e215cfe3e","665500ab8938657b03fbdba8","6657809249d4c30ce9fb2415","949","stimuli/11110012.jpg"," ","","feedback_trial","0","","","","","","","","","","","","","","","","","","","","",""
"","","","","","image-keyboard-response","181","168045","0.0-129.0","5f4a5b3dccae1c5e215cfe3e","665500ab8938657b03fbdba8","6657809249d4c30ce9fb2415","782","stimuli/2011101.jpg","2","","prediction_trial","1","","false","","2","false","false","false","false","false","false","[1,2]","011","101","0","","","","","","",""
"","","","","","image-keyboard-response","182","168315","0.0-130.0","5f4a5b3dccae1c5e215cfe3e","665500ab8938657b03fbdba8","6657809249d4c30ce9fb2415","270","stimuli/20111011.jpg"," ","","feedback_trial","1","","","","","","","","","","","","","","","","","","","","",""
"","","","","","image-keyboard-response","183","168801","0.0-131.0","5f4a5b3dccae1c5e215cfe3e","665500ab8938657b03fbdba8","6657809249d4c30ce9fb2415","485","stimuli/0001111.jpg","2","","prediction_trial","0","","false","","0","false","false","true","true","false","false","[0]","001","111","0","","","","","","",""
"","","","","","image-keyboard-response","184","169139","0.0-132.0","5f4a5b3dccae1c5e215cfe3e","665500ab8938657b03fbdba8","6657809249d4c30ce9fb2415","338","stimuli/00011110.jpg"," ","","feedback_trial","0","","","","","","","","","","","","","","","","","","","","",""
"","","","","","image-keyboard-response","185","169583","0.0-133.0","5f4a5b3dccae1c5e215cfe3e","665500ab8938657b03fbdba8","6657809249d4c30ce9fb2415","443","stimuli/1001001.jpg","1","","prediction_trial","1","","true","","1","true","true","true","true","true","true","[1]","001","001","1","","","","","","",""
"","","","","","image-keyboard-response","186","169773","0.0-134.0","5f4a5b3dccae1c5e215cfe3e","665500ab8938657b03fbdba8","6657809249d4c30ce9fb2415","190","stimuli/10010011.jpg"," ","","feedback_trial","1","","","","","","","","","","","","","","","","","","","","",""
"","","","","","image-keyboard-response","187","170231","0.0-135.0","5f4a5b3dccae1c5e215cfe3e","665500ab8938657b03fbdba8","6657809249d4c30ce9fb2415","458","stimuli/0111001.jpg","0","","prediction_trial","1","","false","","0","true","true","false","false","false","false","[0,2,1]","111","001","0","","","","","","",""
"","","","","","image-keyboard-response","188","170496","0.0-136.0","5f4a5b3dccae1c5e215cfe3e","665500ab8938657b03fbdba8","6657809249d4c30ce9fb2415","264","stimuli/01110011.jpg"," ","","feedback_trial","0","","","","","","","","","","","","","","","","","","","","",""
"","","","","","image-keyboard-response","189","171241","0.0-137.0","5f4a5b3dccae1c5e215cfe3e","665500ab8938657b03fbdba8","6657809249d4c30ce9fb2415","745","stimuli/1111010.jpg","2","","prediction_trial","2","","true","","1","false","true","false","false","false","false","[0,2,1]","111","010","1","","","","","","",""
"","","","","","image-keyboard-response","190","171525","0.0-138.0","5f4a5b3dccae1c5e215cfe3e","665500ab8938657b03fbdba8","6657809249d4c30ce9fb2415","283","stimuli/11110102.jpg"," ","","feedback_trial","0","","","","","","","","","","","","","","","","","","","","",""
"","","","","","image-keyboard-response","191","172067","0.0-139.0","5f4a5b3dccae1c5e215cfe3e","665500ab8938657b03fbdba8","6657809249d4c30ce9fb2415","541","stimuli/2100010.jpg","2","","prediction_trial","2","","true","","2","true","true","true","true","true","true","[2]","100","010","1","","","","","","",""
"","","","","","image-keyboard-response","192","172297","0.0-140.0","5f4a5b3dccae1c5e215cfe3e","665500ab8938657b03fbdba8","6657809249d4c30ce9fb2415","230","stimuli/21000102.jpg"," ","","feedback_trial","2","","","","","","","","","","","","","","","","","","","","",""
"","","","","","image-keyboard-response","193","172801","0.0-141.0","5f4a5b3dccae1c5e215cfe3e","665500ab8938657b03fbdba8","6657809249d4c30ce9fb2415","503","stimuli/2111100.jpg","2","","prediction_trial","0","","false","","2","true","true","false","false","false","false","[0,1,2]","111","100","0","","","","","","",""
"","","","","","image-keyboard-response","194","173021","0.0-142.0","5f4a5b3dccae1c5e215cfe3e","665500ab8938657b03fbdba8","6657809249d4c30ce9fb2415","220","stimuli/21111000.jpg"," ","","feedback_trial","0","","","","","","","","","","","","","","","","","","","","",""
"","","","","","image-keyboard-response","195","173431","0.0-143.0","5f4a5b3dccae1c5e215cfe3e","665500ab8938657b03fbdba8","6657809249d4c30ce9fb2415","409","stimuli/2011000.jpg","2","","prediction_trial","2","","true","","2","true","true","false","false","false","false","[1,2]","011","000","1","","","","","","",""
"","","","","","image-keyboard-response","196","173733","0.0-144.0","5f4a5b3dccae1c5e215cfe3e","665500ab8938657b03fbdba8","6657809249d4c30ce9fb2415","301","stimuli/20110002.jpg"," ","","feedback_trial","1","","","","","","","","","","","","","","","","","","","","",""
"","","","","","image-keyboard-response","197","174245","0.0-145.0","5f4a5b3dccae1c5e215cfe3e","665500ab8938657b03fbdba8","6657809249d4c30ce9fb2415","512","stimuli/2111001.jpg","2","","prediction_trial","0","","false","","2","false","true","false","false","false","false","[2,1,0]","111","001","0","","","","","","",""
"","","","","","image-keyboard-response","198","174715","0.0-146.0","5f4a5b3dccae1c5e215cfe3e","665500ab8938657b03fbdba8","6657809249d4c30ce9fb2415","469","stimuli/21110010.jpg"," ","","feedback_trial","2","","","","","","","","","","","","","","","","","","","","",""
"","","","","","image-keyboard-response","199","175267","0.0-147.0","5f4a5b3dccae1c5e215cfe3e","665500ab8938657b03fbdba8","6657809249d4c30ce9fb2415","552","stimuli/2011100.jpg","2","","prediction_trial","2","","true","","2","true","true","false","false","false","false","[2,1]","011","100","1","","","","","","",""
"","","","","","image-keyboard-response","200","175581","0.0-148.0","5f4a5b3dccae1c5e215cfe3e","665500ab8938657b03fbdba8","6657809249d4c30ce9fb2415","313","stimuli/20111002.jpg"," ","","feedback_trial","2","","","","","","","","","","","","","","","","","","","","",""
"","","","","","image-keyboard-response","201","176235","0.0-149.0","5f4a5b3dccae1c5e215cfe3e","665500ab8938657b03fbdba8","6657809249d4c30ce9fb2415","653","stimuli/1110011.jpg","1","","prediction_trial","0","","false","","1","false","false","false","false","false","false","[1,0]","110","011","0","","","","","","",""
"","","","","","image-keyboard-response","202","176467","0.0-150.0","5f4a5b3dccae1c5e215cfe3e","665500ab8938657b03fbdba8","6657809249d4c30ce9fb2415","231","stimuli/11100110.jpg"," ","","feedback_trial","1","","","","","","","","","","","","","","","","","","","","",""
"","","","","","image-keyboard-response","203","176901","0.0-151.0","5f4a5b3dccae1c5e215cfe3e","665500ab8938657b03fbdba8","6657809249d4c30ce9fb2415","434","stimuli/1100001.jpg","1","","prediction_trial","1","","true","","1","true","true","true","true","true","true","[1]","100","001","1","","","","","","",""
"","","","","","image-keyboard-response","204","177174","0.0-152.0","5f4a5b3dccae1c5e215cfe3e","665500ab8938657b03fbdba8","6657809249d4c30ce9fb2415","272","stimuli/11000011.jpg"," ","","feedback_trial","1","","","","","","","","","","","","","","","","","","","","",""
"","","","","","image-keyboard-response","205","177563","0.0-153.0","5f4a5b3dccae1c5e215cfe3e","665500ab8938657b03fbdba8","6657809249d4c30ce9fb2415","389","stimuli/1010011.jpg","1","","prediction_trial","1","","true","","1","false","false","false","true","false","false","[1]","010","011","1","","","","","","",""
"","","","","","image-keyboard-response","206","177886","0.0-154.0","5f4a5b3dccae1c5e215cfe3e","665500ab8938657b03fbdba8","6657809249d4c30ce9fb2415","322","stimuli/10100111.jpg"," ","","feedback_trial","1","","","","","","","","","","","","","","","","","","","","",""
"","","","","","image-keyboard-response","207","178347","0.0-155.0","5f4a5b3dccae1c5e215cfe3e","665500ab8938657b03fbdba8","6657809249d4c30ce9fb2415","461","stimuli/2001110.jpg","2","","prediction_trial","2","","true","","2","true","true","false","true","false","true","[2]","001","110","1","","","","","","",""
"","","","","","image-keyboard-response","208","178653","0.0-156.0","5f4a5b3dccae1c5e215cfe3e","665500ab8938657b03fbdba8","6657809249d4c30ce9fb2415","306","stimuli/20011102.jpg"," ","","feedback_trial","2","","","","","","","","","","","","","","","","","","","","",""
"","","","","","image-keyboard-response","209","179137","0.0-157.0","5f4a5b3dccae1c5e215cfe3e","665500ab8938657b03fbdba8","6657809249d4c30ce9fb2415","483","stimuli/1011110.jpg","1","","prediction_trial","2","","false","","1","false","false","false","false","false","false","[1,2]","011","110","0","","","","","","",""
"","","","","","image-keyboard-response","210","179423","0.0-158.0","5f4a5b3dccae1c5e215cfe3e","665500ab8938657b03fbdba8","6657809249d4c30ce9fb2415","285","stimuli/10111102.jpg"," ","","feedback_trial","1","","","","","","","","","","","","","","","","","","","","",""
"","","","","","image-keyboard-response","211","179827","0.0-159.0","5f4a5b3dccae1c5e215cfe3e","665500ab8938657b03fbdba8","6657809249d4c30ce9fb2415","404","stimuli/1111100.jpg","1","","prediction_trial","1","","true","","1","true","true","false","false","false","false","[2,1,0]","111","100","1","","","","","","",""
"","","","","","image-keyboard-response","212","180043","0.0-160.0","5f4a5b3dccae1c5e215cfe3e","665500ab8938657b03fbdba8","6657809249d4c30ce9fb2415","216","stimuli/11111001.jpg"," ","","feedback_trial","2","","","","","","","","","","","","","","","","","","","","",""
"","","","","","image-keyboard-response","213","180529","0.0-161.0","5f4a5b3dccae1c5e215cfe3e","665500ab8938657b03fbdba8","6657809249d4c30ce9fb2415","485","stimuli/1011000.jpg","1","","prediction_trial","2","","false","","1","true","true","false","false","false","false","[2,1]","011","000","0","","","","","","",""
"","","","","","image-keyboard-response","214","181557","0.0-162.0","5f4a5b3dccae1c5e215cfe3e","665500ab8938657b03fbdba8","6657809249d4c30ce9fb2415","1028","stimuli/10110002.jpg"," ","","feedback_trial","2","","","","","","","","","","","","","","","","","","","","",""
"","","","","","image-keyboard-response","215","182091","0.0-163.0","5f4a5b3dccae1c5e215cfe3e","665500ab8938657b03fbdba8","6657809249d4c30ce9fb2415","533","stimuli/0000010.jpg","0","","prediction_trial","0","","true","","0","true","true","true","true","true","true","[0]","000","010","1","","","","","","",""
"","","","","","image-keyboard-response","216","182313","0.0-164.0","5f4a5b3dccae1c5e215cfe3e","665500ab8938657b03fbdba8","6657809249d4c30ce9fb2415","221","stimuli/00000100.jpg"," ","","feedback_trial","0","","","","","","","","","","","","","","","","","","","","",""
"","","","","","image-keyboard-response","217","182799","0.0-165.0","5f4a5b3dccae1c5e215cfe3e","665500ab8938657b03fbdba8","6657809249d4c30ce9fb2415","485","stimuli/1011101.jpg","1","","prediction_trial","2","","false","","1","true","true","false","false","false","false","[2,1]","011","101","0","","","","","","",""
"","","","","","image-keyboard-response","218","183013","0.0-166.0","5f4a5b3dccae1c5e215cfe3e","665500ab8938657b03fbdba8","6657809249d4c30ce9fb2415","214","stimuli/10111012.jpg"," ","","feedback_trial","2","","","","","","","","","","","","","","","","","","","","",""
"","","","","","image-keyboard-response","219","183455","0.0-167.0","5f4a5b3dccae1c5e215cfe3e","665500ab8938657b03fbdba8","6657809249d4c30ce9fb2415","441","stimuli/0110101.jpg","0","","prediction_trial","1","","false","","0","false","false","false","false","false","false","[1,0]","110","101","0","","","","","","",""
"","","","","","image-keyboard-response","220","183861","0.0-168.0","5f4a5b3dccae1c5e215cfe3e","665500ab8938657b03fbdba8","6657809249d4c30ce9fb2415","406","stimuli/01101011.jpg"," ","","feedback_trial","1","","","","","","","","","","","","","","","","","","","","",""
"","","","","","image-keyboard-response","221","184348","0.0-169.0","5f4a5b3dccae1c5e215cfe3e","665500ab8938657b03fbdba8","6657809249d4c30ce9fb2415","486","stimuli/1100010.jpg","1","","prediction_trial","1","","true","","1","false","true","true","true","false","true","[1]","100","010","1","","","","","","",""
"","","","","","image-keyboard-response","222","184788","0.0-170.0","5f4a5b3dccae1c5e215cfe3e","665500ab8938657b03fbdba8","6657809249d4c30ce9fb2415","439","stimuli/11000101.jpg"," ","","feedback_trial","1","","","","","","","","","","","","","","","","","","","","",""
"","","","","","image-keyboard-response","223","185226","0.0-171.0","5f4a5b3dccae1c5e215cfe3e","665500ab8938657b03fbdba8","6657809249d4c30ce9fb2415","438","stimuli/1101101.jpg","1","","prediction_trial","1","","true","","1","true","true","true","true","true","true","[1]","101","101","1","","","","","","",""
"","","","","","image-keyboard-response","224","185496","0.0-172.0","5f4a5b3dccae1c5e215cfe3e","665500ab8938657b03fbdba8","6657809249d4c30ce9fb2415","270","stimuli/11011011.jpg"," ","","feedback_trial","1","","","","","","","","","","","","","","","","","","","","",""
"","","","","","image-keyboard-response","225","185934","0.0-173.0","5f4a5b3dccae1c5e215cfe3e","665500ab8938657b03fbdba8","6657809249d4c30ce9fb2415","437","stimuli/1000011.jpg","1","","prediction_trial","1","","true","","1","false","false","true","true","false","false","[1]","000","011","1","","","","","","",""
"","","","","","image-keyboard-response","226","186360","0.0-174.0","5f4a5b3dccae1c5e215cfe3e","665500ab8938657b03fbdba8","6657809249d4c30ce9fb2415","426","stimuli/10000111.jpg"," ","","feedback_trial","1","","","","","","","","","","","","","","","","","","","","",""
"","","","","","image-keyboard-response","227","186808","0.0-175.0","5f4a5b3dccae1c5e215cfe3e","665500ab8938657b03fbdba8","6657809249d4c30ce9fb2415","447","stimuli/2111101.jpg","2","","prediction_trial","0","","false","","2","false","false","false","false","false","false","[1,0,2]","111","101","0","","","","","","",""
"","","","","","image-keyboard-response","228","187110","0.0-176.0","5f4a5b3dccae1c5e215cfe3e","665500ab8938657b03fbdba8","6657809249d4c30ce9fb2415","302","stimuli/21111010.jpg"," ","","feedback_trial","1","","","","","","","","","","","","","","","","","","","","",""
"","","","","","image-keyboard-response","229","187610","0.0-177.0","5f4a5b3dccae1c5e215cfe3e","665500ab8938657b03fbdba8","6657809249d4c30ce9fb2415","499","stimuli/2000011.jpg","1","","prediction_trial","2","","false","","2","false","false","true","true","false","false","[2]","000","011","0","","","","","","",""
"","","","","","image-keyboard-response","230","188058","0.0-178.0","5f4a5b3dccae1c5e215cfe3e","665500ab8938657b03fbdba8","6657809249d4c30ce9fb2415","448","stimuli/20000112.jpg"," ","","feedback_trial","2","","","","","","","","","","","","","","","","","","","","",""
"","","","","","image-keyboard-response","231","188580","0.0-179.0","5f4a5b3dccae1c5e215cfe3e","665500ab8938657b03fbdba8","6657809249d4c30ce9fb2415","522","stimuli/2010010.jpg","2","","prediction_trial","2","","true","","2","true","true","true","true","true","true","[2]","010","010","1","","","","","","",""
"","","","","","image-keyboard-response","232","188830","0.0-180.0","5f4a5b3dccae1c5e215cfe3e","665500ab8938657b03fbdba8","6657809249d4c30ce9fb2415","249","stimuli/20100102.jpg"," ","","feedback_trial","2","","","","","","","","","","","","","","","","","","","","",""
"","","","","","image-keyboard-response","233","189318","0.0-181.0","5f4a5b3dccae1c5e215cfe3e","665500ab8938657b03fbdba8","6657809249d4c30ce9fb2415","487","stimuli/2110100.jpg","2","","prediction_trial","2","","true","","2","true","true","true","true","true","true","[2]","110","100","1","","","","","","",""
"","","","","","image-keyboard-response","234","189576","0.0-182.0","5f4a5b3dccae1c5e215cfe3e","665500ab8938657b03fbdba8","6657809249d4c30ce9fb2415","258","stimuli/21101002.jpg"," ","","feedback_trial","2","","","","","","","","","","","","","","","","","","","","",""
"","","","","","image-keyboard-response","235","190548","0.0-183.0","5f4a5b3dccae1c5e215cfe3e","665500ab8938657b03fbdba8","6657809249d4c30ce9fb2415","971","stimuli/0101110.jpg","0","","prediction_trial","0","","true","","0","false","false","false","false","false","false","[0,2]","101","110","1","","","","","","",""
"","","","","","image-keyboard-response","236","190696","0.0-184.0","5f4a5b3dccae1c5e215cfe3e","665500ab8938657b03fbdba8","6657809249d4c30ce9fb2415","148","stimuli/01011100.jpg"," ","","feedback_trial","0","","","","","","","","","","","","","","","","","","","","",""
"","","","","","image-keyboard-response","237","191246","0.0-185.0","5f4a5b3dccae1c5e215cfe3e","665500ab8938657b03fbdba8","6657809249d4c30ce9fb2415","548","stimuli/2100100.jpg","2","","prediction_trial","2","","true","","2","true","true","true","true","true","true","[2]","100","100","1","","","","","","",""
"","","","","","image-keyboard-response","238","191468","0.0-186.0","5f4a5b3dccae1c5e215cfe3e","665500ab8938657b03fbdba8","6657809249d4c30ce9fb2415","222","stimuli/21001002.jpg"," ","","feedback_trial","2","","","","","","","","","","","","","","","","","","","","",""
"","","","","","image-keyboard-response","239","192012","0.0-187.0","5f4a5b3dccae1c5e215cfe3e","665500ab8938657b03fbdba8","6657809249d4c30ce9fb2415","543","stimuli/0001101.jpg","0","","prediction_trial","0","","true","","0","false","false","true","true","false","false","[0]","001","101","1","","","","","","",""
"","","","","","image-keyboard-response","240","192258","0.0-188.0","5f4a5b3dccae1c5e215cfe3e","665500ab8938657b03fbdba8","6657809249d4c30ce9fb2415","245","stimuli/00011010.jpg"," ","","feedback_trial","0","","","","","","","","","","","","","","","","","","","","",""
"","","","","","image-keyboard-response","241","192890","0.0-189.0","5f4a5b3dccae1c5e215cfe3e","665500ab8938657b03fbdba8","6657809249d4c30ce9fb2415","632","stimuli/2011111.jpg","2","","prediction_trial","2","","true","","2","false","false","false","false","false","false","[2,1]","011","111","1","","","","","","",""
"","","","","","image-keyboard-response","242","193114","0.0-190.0","5f4a5b3dccae1c5e215cfe3e","665500ab8938657b03fbdba8","6657809249d4c30ce9fb2415","224","stimuli/20111112.jpg"," ","","feedback_trial","2","","","","","","","","","","","","","","","","","","","","",""
"","","","","","image-keyboard-response","243","194098","0.0-191.0","5f4a5b3dccae1c5e215cfe3e","665500ab8938657b03fbdba8","6657809249d4c30ce9fb2415","983","stimuli/2001001.jpg","0","","prediction_trial","2","","false","","2","false","true","false","true","false","true","[2]","001","001","0","","","","","","",""
"","","","","","image-keyboard-response","244","194262","0.0-192.0","5f4a5b3dccae1c5e215cfe3e","665500ab8938657b03fbdba8","6657809249d4c30ce9fb2415","164","stimuli/20010012.jpg"," ","","feedback_trial","2","","","","","","","","","","","","","","","","","","","","",""
"","","","","","image-keyboard-response","245","194888","0.0-193.0","5f4a5b3dccae1c5e215cfe3e","665500ab8938657b03fbdba8","6657809249d4c30ce9fb2415","626","stimuli/1001101.jpg","1","","prediction_trial","1","","true","","1","true","true","true","true","true","true","[1]","001","101","1","","","","","","",""
"","","","","","image-keyboard-response","246","195110","0.0-194.0","5f4a5b3dccae1c5e215cfe3e","665500ab8938657b03fbdba8","6657809249d4c30ce9fb2415","221","stimuli/10011011.jpg"," ","","feedback_trial","1","","","","","","","","","","","","","","","","","","","","",""
"","","","","","image-keyboard-response","247","195600","0.0-195.0","5f4a5b3dccae1c5e215cfe3e","665500ab8938657b03fbdba8","6657809249d4c30ce9fb2415","490","stimuli/0111110.jpg","0","","prediction_trial","2","","false","","0","false","false","false","false","false","false","[0,1,2]","111","110","0","","","","","","",""
"","","","","","image-keyboard-response","248","196064","0.0-196.0","5f4a5b3dccae1c5e215cfe3e","665500ab8938657b03fbdba8","6657809249d4c30ce9fb2415","463","stimuli/01111102.jpg"," ","","feedback_trial","0","","","","","","","","","","","","","","","","","","","","",""
"","","","","","image-keyboard-response","249","196552","0.0-197.0","5f4a5b3dccae1c5e215cfe3e","665500ab8938657b03fbdba8","6657809249d4c30ce9fb2415","487","stimuli/0101111.jpg","0","","prediction_trial","2","","false","","0","false","false","false","false","false","false","[0,2]","101","111","0","","","","","","",""
"","","","","","image-keyboard-response","250","196970","0.0-198.0","5f4a5b3dccae1c5e215cfe3e","665500ab8938657b03fbdba8","6657809249d4c30ce9fb2415","418","stimuli/01011112.jpg"," ","","feedback_trial","0","","","","","","","","","","","","","","","","","","","","",""
"","","","","","image-keyboard-response","251","197436","0.0-199.0","5f4a5b3dccae1c5e215cfe3e","665500ab8938657b03fbdba8","6657809249d4c30ce9fb2415","465","stimuli/1100011.jpg","1","","prediction_trial","1","","true","","1","false","false","true","true","false","false","[1]","100","011","1","","","","","","",""
"","","","","","image-keyboard-response","252","197720","0.0-200.0","5f4a5b3dccae1c5e215cfe3e","665500ab8938657b03fbdba8","6657809249d4c30ce9fb2415","284","stimuli/11000111.jpg"," ","","feedback_trial","1","","","","","","","","","","","","","","","","","","","","",""
"","","","","","image-keyboard-response","253","198100","0.0-201.0","5f4a5b3dccae1c5e215cfe3e","665500ab8938657b03fbdba8","6657809249d4c30ce9fb2415","379","stimuli/2101010.jpg","2","","prediction_trial","2","","true","","2","true","true","false","false","false","false","[2,0]","101","010","1","","","","","","",""
"","","","","","image-keyboard-response","254","198344","0.0-202.0","5f4a5b3dccae1c5e215cfe3e","665500ab8938657b03fbdba8","6657809249d4c30ce9fb2415","243","stimuli/21010102.jpg"," ","","feedback_trial","2","","","","","","","","","","","","","","","","","","","","",""
"","","","","","image-keyboard-response","255","199132","0.0-203.0","5f4a5b3dccae1c5e215cfe3e","665500ab8938657b03fbdba8","6657809249d4c30ce9fb2415","788","stimuli/0001110.jpg","0","","prediction_trial","0","","true","","0","false","false","true","true","false","false","[0]","001","110","1","","","","","","",""
"","","","","","image-keyboard-response","256","199304","0.0-204.0","5f4a5b3dccae1c5e215cfe3e","665500ab8938657b03fbdba8","6657809249d4c30ce9fb2415","171","stimuli/00011100.jpg"," ","","feedback_trial","0","","","","","","","","","","","","","","","","","","","","",""
"","","","","","image-keyboard-response","257","199838","0.0-205.0","5f4a5b3dccae1c5e215cfe3e","665500ab8938657b03fbdba8","6657809249d4c30ce9fb2415","533","stimuli/0100011.jpg","0","","prediction_trial","0","","true","","0","true","true","false","true","false","true","[0]","100","011","1","","","","","","",""
"","","","","","image-keyboard-response","258","200070","0.0-206.0","5f4a5b3dccae1c5e215cfe3e","665500ab8938657b03fbdba8","6657809249d4c30ce9fb2415","232","stimuli/01000110.jpg"," ","","feedback_trial","0","","","","","","","","","","","","","","","","","","","","",""
"","","","","","image-keyboard-response","259","200630","0.0-207.0","5f4a5b3dccae1c5e215cfe3e","665500ab8938657b03fbdba8","6657809249d4c30ce9fb2415","559","stimuli/1010101.jpg","1","","prediction_trial","1","","true","","1","true","true","false","true","false","true","[1]","010","101","1","","","","","","",""
"","","","","","image-keyboard-response","260","200806","0.0-208.0","5f4a5b3dccae1c5e215cfe3e","665500ab8938657b03fbdba8","6657809249d4c30ce9fb2415","176","stimuli/10101011.jpg"," ","","feedback_trial","1","","","","","","","","","","","","","","","","","","","","",""
"","","","","","image-keyboard-response","261","201496","0.0-209.0","5f4a5b3dccae1c5e215cfe3e","665500ab8938657b03fbdba8","6657809249d4c30ce9fb2415","690","stimuli/1110101.jpg","1","","prediction_trial","0","","false","","1","true","true","false","false","false","false","[0,1]","110","101","0","","","","","","",""
"","","","","","image-keyboard-response","262","201654","0.0-210.0","5f4a5b3dccae1c5e215cfe3e","665500ab8938657b03fbdba8","6657809249d4c30ce9fb2415","157","stimuli/11101010.jpg"," ","","feedback_trial","0","","","","","","","","","","","","","","","","","","","","",""
"","","","","","image-keyboard-response","263","202212","0.0-211.0","5f4a5b3dccae1c5e215cfe3e","665500ab8938657b03fbdba8","6657809249d4c30ce9fb2415","558","stimuli/0010111.jpg","0","","prediction_trial","0","","true","","0","false","false","true","true","false","false","[0]","010","111","1","","","","","","",""
"","","","","","image-keyboard-response","264","202440","0.0-212.0","5f4a5b3dccae1c5e215cfe3e","665500ab8938657b03fbdba8","6657809249d4c30ce9fb2415","227","stimuli/00101110.jpg"," ","","feedback_trial","0","","","","","","","","","","","","","","","","","","","","",""
"","","","","","image-keyboard-response","265","203094","0.0-213.0","5f4a5b3dccae1c5e215cfe3e","665500ab8938657b03fbdba8","6657809249d4c30ce9fb2415","653","stimuli/2101001.jpg","2","","prediction_trial","0","","false","","2","false","true","false","false","false","false","[0,2]","101","001","0","","","","","","",""
"","","","","","image-keyboard-response","266","203296","0.0-214.0","5f4a5b3dccae1c5e215cfe3e","665500ab8938657b03fbdba8","6657809249d4c30ce9fb2415","202","stimuli/21010010.jpg"," ","","feedback_trial","0","","","","","","","","","","","","","","","","","","","","",""
"","","","","","image-keyboard-response","267","203768","0.0-215.0","5f4a5b3dccae1c5e215cfe3e","665500ab8938657b03fbdba8","6657809249d4c30ce9fb2415","471","stimuli/2000010.jpg","2","","prediction_trial","2","","true","","2","true","true","true","true","true","true","[2]","000","010","1","","","","","","",""
"","","","","","image-keyboard-response","268","204014","0.0-216.0","5f4a5b3dccae1c5e215cfe3e","665500ab8938657b03fbdba8","6657809249d4c30ce9fb2415","245","stimuli/20000102.jpg"," ","","feedback_trial","2","","","","","","","","","","","","","","","","","","","","",""
"","","","","","image-keyboard-response","269","204418","0.0-217.0","5f4a5b3dccae1c5e215cfe3e","665500ab8938657b03fbdba8","6657809249d4c30ce9fb2415","403","stimuli/0000111.jpg","2","","prediction_trial","0","","false","","0","false","false","true","true","false","false","[0]","000","111","0","","","","","","",""
"","","","","","image-keyboard-response","270","204766","0.0-218.0","5f4a5b3dccae1c5e215cfe3e","665500ab8938657b03fbdba8","6657809249d4c30ce9fb2415","348","stimuli/00001110.jpg"," ","","feedback_trial","0","","","","","","","","","","","","","","","","","","","","",""
"","","","","","image-keyboard-response","271","205304","0.0-219.0","5f4a5b3dccae1c5e215cfe3e","665500ab8938657b03fbdba8","6657809249d4c30ce9fb2415","537","stimuli/2010101.jpg","2","","prediction_trial","2","","true","","2","false","false","true","true","false","false","[2]","010","101","1","","","","","","",""
"","","","","","image-keyboard-response","272","205552","0.0-220.0","5f4a5b3dccae1c5e215cfe3e","665500ab8938657b03fbdba8","6657809249d4c30ce9fb2415","247","stimuli/20101012.jpg"," ","","feedback_trial","2","","","","","","","","","","","","","","","","","","","","",""
"","","","","","image-keyboard-response","273","206124","0.0-221.0","5f4a5b3dccae1c5e215cfe3e","665500ab8938657b03fbdba8","6657809249d4c30ce9fb2415","571","stimuli/0011011.jpg","0","","prediction_trial","0","","true","","0","true","true","true","true","true","true","[0]","011","011","1","","","","","","",""
"","","","","","image-keyboard-response","274","206256","0.0-222.0","5f4a5b3dccae1c5e215cfe3e","665500ab8938657b03fbdba8","6657809249d4c30ce9fb2415","132","stimuli/00110110.jpg"," ","","feedback_trial","0","","","","","","","","","","","","","","","","","","","","",""
"","","","","","image-keyboard-response","275","206796","0.0-223.0","5f4a5b3dccae1c5e215cfe3e","665500ab8938657b03fbdba8","6657809249d4c30ce9fb2415","539","stimuli/2101000.jpg","2","","prediction_trial","0","","false","","2","true","true","false","false","false","false","[2,0]","101","000","0","","","","","","",""
"","","","","","image-keyboard-response","276","206988","0.0-224.0","5f4a5b3dccae1c5e215cfe3e","665500ab8938657b03fbdba8","6657809249d4c30ce9fb2415","192","stimuli/21010000.jpg"," ","","feedback_trial","2","","","","","","","","","","","","","","","","","","","","",""
"","","","","","image-keyboard-response","277","207504","0.0-225.0","5f4a5b3dccae1c5e215cfe3e","665500ab8938657b03fbdba8","6657809249d4c30ce9fb2415","515","stimuli/1011011.jpg","2","","prediction_trial","1","","false","","1","false","false","false","false","false","false","[2,1]","011","011","0","","","","","","",""
"","","","","","image-keyboard-response","278","207852","0.0-226.0","5f4a5b3dccae1c5e215cfe3e","665500ab8938657b03fbdba8","6657809249d4c30ce9fb2415","348","stimuli/10110111.jpg"," ","","feedback_trial","2","","","","","","","","","","","","","","","","","","","","",""
"","","","","","image-keyboard-response","279","208450","0.0-227.0","5f4a5b3dccae1c5e215cfe3e","665500ab8938657b03fbdba8","6657809249d4c30ce9fb2415","596","stimuli/2010011.jpg","1","","prediction_trial","2","","false","","2","false","false","true","true","false","false","[2]","010","011","0","","","","","","",""
"","","","","","image-keyboard-response","280","208706","0.0-228.0","5f4a5b3dccae1c5e215cfe3e","665500ab8938657b03fbdba8","6657809249d4c30ce9fb2415","256","stimuli/20100112.jpg"," ","","feedback_trial","2","","","","","","","","","","","","","","","","","","","","",""
"","","","","","image-keyboard-response","281","209194","0.0-229.0","5f4a5b3dccae1c5e215cfe3e","665500ab8938657b03fbdba8","6657809249d4c30ce9fb2415","488","stimuli/0000001.jpg","0","","prediction_trial","0","","true","","0","true","true","true","true","true","true","[0]","000","001","1","","","","","","",""
"","","","","","image-keyboard-response","282","209404","0.0-230.0","5f4a5b3dccae1c5e215cfe3e","665500ab8938657b03fbdba8","6657809249d4c30ce9fb2415","209","stimuli/00000010.jpg"," ","","feedback_trial","0","","","","","","","","","","","","","","","","","","","","",""
"","","","","","image-keyboard-response","283","209976","0.0-231.0","5f4a5b3dccae1c5e215cfe3e","665500ab8938657b03fbdba8","6657809249d4c30ce9fb2415","572","stimuli/0010101.jpg","0","","prediction_trial","0","","true","","0","false","false","true","true","false","false","[0]","010","101","1","","","","","","",""
"","","","","","image-keyboard-response","284","210216","0.0-232.0","5f4a5b3dccae1c5e215cfe3e","665500ab8938657b03fbdba8","6657809249d4c30ce9fb2415","239","stimuli/00101010.jpg"," ","","feedback_trial","0","","","","","","","","","","","","","","","","","","","","",""
"","","","","","image-keyboard-response","285","210686","0.0-233.0","5f4a5b3dccae1c5e215cfe3e","665500ab8938657b03fbdba8","6657809249d4c30ce9fb2415","470","stimuli/2101100.jpg","2","","prediction_trial","2","","true","","2","true","true","false","false","false","false","[2,0]","101","100","1","","","","","","",""
"","","","","","image-keyboard-response","286","210920","0.0-234.0","5f4a5b3dccae1c5e215cfe3e","665500ab8938657b03fbdba8","6657809249d4c30ce9fb2415","233","stimuli/21011002.jpg"," ","","feedback_trial","2","","","","","","","","","","","","","","","","","","","","",""
"","","","","","image-keyboard-response","287","211528","0.0-235.0","5f4a5b3dccae1c5e215cfe3e","665500ab8938657b03fbdba8","6657809249d4c30ce9fb2415","608","stimuli/1010100.jpg","1","","prediction_trial","1","","true","","1","true","true","false","true","false","true","[1]","010","100","1","","","","","","",""
"","","","","","image-keyboard-response","288","211760","0.0-236.0","5f4a5b3dccae1c5e215cfe3e","665500ab8938657b03fbdba8","6657809249d4c30ce9fb2415","232","stimuli/10101001.jpg"," ","","feedback_trial","1","","","","","","","","","","","","","","","","","","","","",""
"","","","","","image-keyboard-response","289","212342","0.0-237.0","5f4a5b3dccae1c5e215cfe3e","665500ab8938657b03fbdba8","6657809249d4c30ce9fb2415","582","stimuli/1000000.jpg","1","","prediction_trial","1","","true","","1","true","true","true","true","true","true","[1]","000","000","1","","","","","","",""
"","","","","","image-keyboard-response","290","212512","0.0-238.0","5f4a5b3dccae1c5e215cfe3e","665500ab8938657b03fbdba8","6657809249d4c30ce9fb2415","169","stimuli/10000001.jpg"," ","","feedback_trial","1","","","","","","","","","","","","","","","","","","","","",""
"","","","","","image-keyboard-response","291","213024","0.0-239.0","5f4a5b3dccae1c5e215cfe3e","665500ab8938657b03fbdba8","6657809249d4c30ce9fb2415","512","stimuli/2001000.jpg","2","","prediction_trial","2","","true","","2","true","true","false","true","false","true","[2]","001","000","1","","","","","","",""
"","","","","","image-keyboard-response","292","213292","0.0-240.0","5f4a5b3dccae1c5e215cfe3e","665500ab8938657b03fbdba8","6657809249d4c30ce9fb2415","268","stimuli/20010002.jpg"," ","","feedback_trial","2","","","","","","","","","","","","","","","","","","","","",""
"","","","","","image-keyboard-response","293","213848","0.0-241.0","5f4a5b3dccae1c5e215cfe3e","665500ab8938657b03fbdba8","6657809249d4c30ce9fb2415","555","stimuli/2100001.jpg","0","","prediction_trial","2","","false","","2","false","true","true","true","false","true","[2]","100","001","0","","","","","","",""
"","","","","","image-keyboard-response","294","215017","0.0-242.0","5f4a5b3dccae1c5e215cfe3e","665500ab8938657b03fbdba8","6657809249d4c30ce9fb2415","1169","stimuli/21000012.jpg"," ","","feedback_trial","2","","","","","","","","","","","","","","","","","","","","",""
"","","","","","image-keyboard-response","295","215501","0.0-243.0","5f4a5b3dccae1c5e215cfe3e","665500ab8938657b03fbdba8","6657809249d4c30ce9fb2415","484","stimuli/2101011.jpg","2","","prediction_trial","0","","false","","2","false","false","false","false","false","false","[0,2]","101","011","0","","","","","","",""
"","","","","","image-keyboard-response","296","215875","0.0-244.0","5f4a5b3dccae1c5e215cfe3e","665500ab8938657b03fbdba8","6657809249d4c30ce9fb2415","373","stimuli/21010110.jpg"," ","","feedback_trial","0","","","","","","","","","","","","","","","","","","","","",""
"","","","","","image-keyboard-response","297","216353","0.0-245.0","5f4a5b3dccae1c5e215cfe3e","665500ab8938657b03fbdba8","6657809249d4c30ce9fb2415","478","stimuli/0011110.jpg","2","","prediction_trial","0","","false","","0","false","false","true","true","false","false","[0]","011","110","0","","","","","","",""
"","","","","","image-keyboard-response","298","216875","0.0-246.0","5f4a5b3dccae1c5e215cfe3e","665500ab8938657b03fbdba8","6657809249d4c30ce9fb2415","521","stimuli/00111100.jpg"," ","","feedback_trial","0","","","","","","","","","","","","","","","","","","","","",""
"","","","","","image-keyboard-response","299","217343","0.0-247.0","5f4a5b3dccae1c5e215cfe3e","665500ab8938657b03fbdba8","6657809249d4c30ce9fb2415","467","stimuli/1000101.jpg","1","","prediction_trial","1","","true","","1","true","true","true","true","true","true","[1]","000","101","1","","","","","","",""
"","","","","","image-keyboard-response","300","217555","0.0-248.0","5f4a5b3dccae1c5e215cfe3e","665500ab8938657b03fbdba8","6657809249d4c30ce9fb2415","211","stimuli/10001011.jpg"," ","","feedback_trial","1","","","","","","","","","","","","","","","","","","","","",""
"","","","","","image-keyboard-response","301","218219","0.0-249.0","5f4a5b3dccae1c5e215cfe3e","665500ab8938657b03fbdba8","6657809249d4c30ce9fb2415","664","stimuli/0110100.jpg","0","","prediction_trial","0","","true","","0","false","true","false","false","false","false","[1,0]","110","100","1","","","","","","",""
"","","","","","image-keyboard-response","302","218363","0.0-250.0","5f4a5b3dccae1c5e215cfe3e","665500ab8938657b03fbdba8","6657809249d4c30ce9fb2415","143","stimuli/01101000.jpg"," ","","feedback_trial","1","","","","","","","","","","","","","","","","","","","","",""
"","","","","","image-keyboard-response","303","218891","0.0-251.0","5f4a5b3dccae1c5e215cfe3e","665500ab8938657b03fbdba8","6657809249d4c30ce9fb2415","527","stimuli/1101100.jpg","1","","prediction_trial","1","","true","","1","true","true","true","true","true","true","[1]","101","100","1","","","","","","",""
"","","","","","image-keyboard-response","304","219161","0.0-252.0","5f4a5b3dccae1c5e215cfe3e","665500ab8938657b03fbdba8","6657809249d4c30ce9fb2415","270","stimuli/11011001.jpg"," ","","feedback_trial","1","","","","","","","","","","","","","","","","","","","","",""
"","","","","","image-keyboard-response","305","219853","0.0-253.0","5f4a5b3dccae1c5e215cfe3e","665500ab8938657b03fbdba8","6657809249d4c30ce9fb2415","692","stimuli/2111011.jpg","2","","prediction_trial","1","","false","","2","false","false","false","false","false","false","[0,2,1]","111","011","0","","","","","","",""
"","","","","","image-keyboard-response","306","220086","0.0-254.0","5f4a5b3dccae1c5e215cfe3e","665500ab8938657b03fbdba8","6657809249d4c30ce9fb2415","233","stimuli/21110111.jpg"," ","","feedback_trial","0","","","","","","","","","","","","","","","","","","","","",""
"","","","","","image-keyboard-response","307","220612","0.0-255.0","5f4a5b3dccae1c5e215cfe3e","665500ab8938657b03fbdba8","6657809249d4c30ce9fb2415","526","stimuli/2110110.jpg","2","","prediction_trial","2","","true","","2","true","true","true","true","true","true","[2]","110","110","1","","","","","","",""
"","","","","","image-keyboard-response","308","220842","0.0-256.0","5f4a5b3dccae1c5e215cfe3e","665500ab8938657b03fbdba8","6657809249d4c30ce9fb2415","230","stimuli/21101102.jpg"," ","","feedback_trial","2","","","","","","","","","","","","","","","","","","","","",""
"","","","","","image-keyboard-response","309","221694","0.0-257.0","5f4a5b3dccae1c5e215cfe3e","665500ab8938657b03fbdba8","6657809249d4c30ce9fb2415","851","stimuli/1011111.jpg","1","","prediction_trial","1","","true","","1","false","false","false","false","false","false","[2,1]","011","111","1","","","","","","",""
"","","","","","image-keyboard-response","310","221892","0.0-258.0","5f4a5b3dccae1c5e215cfe3e","665500ab8938657b03fbdba8","6657809249d4c30ce9fb2415","197","stimuli/10111111.jpg"," ","","feedback_trial","2","","","","","","","","","","","","","","","","","","","","",""
