"success","timeout","failed_images","failed_audio","failed_video","trial_type","trial_index","time_elapsed","internal_node_id","prolific_id","prolific_study_id","prolific_session_id","rt","stimulus","response","view_history","trial","character_choice","stimulus_dict","accuracy","correct_response","ball_pos","ego_ball_visible","ego_can_infer","alter_ball_visible","alter_can_infer","collective_ball_visible","collective_can_infer","search_locations","alter_occluders","ego_occluders","accuracy_bool","feedback","age","ethnicity","gender","race","overall_accuracy","bonus"
"true","false","[]","[]","[]","preload","0","5698","0.0-0.0","609ac8ca9e4928ec75d40a10","665500ab8938657b03fbdba8","665792c27c36d98757dd932e","","","","","","","","","","","","","","","","","","","","","","","","","","",""
"true","","","","","fullscreen","1","377974","0.0-1.0","609ac8ca9e4928ec75d40a10","665500ab8938657b03fbdba8","665792c27c36d98757dd932e","","","","","","","","","","","","","","","","","","","","","","","","","","",""
"","","","","","html-button-response","2","389030","0.0-2.0","609ac8ca9e4928ec75d40a10","665500ab8938657b03fbdba8","665792c27c36d98757dd932e","11045","<p><b>Consent Form</b></p> <div style=""text-align:left;background-color:lightgrey; padding:20px; max-width:900px;""><p>Please consider this information carefully before deciding whether to participate in this research.</p> <p>The purpose of this research is to examine which factors influence social judgment and decision-making. You will be asked to make judgements about individuals and actions in social scenarios. We are simply interested in your judgement. The study will take less than 1 hour to complete, and you will receive less than $20 on Prolific. Your compensation and time commitment are specified in the study description. There are no anticipated risks associated with participating in this study. The effects of participating should be comparable to those you would ordinarily experience from viewing a computer monitor and using a mouse or keyboard for a similar amount of time. At the end of the study, we will provide an explanation of the questions that motivate this line of research and will describe the potential implications. </p><p> Your participation in this study is completely voluntary and you may refuse to participate or you may choose to withdraw at any time without penalty or loss of benefits to you which are otherwise entitled. Your participation in this study will remain confidential. No personally identifiable information will be associated with your data. Also, all analyses of the data will be averaged across all the participants, so your individual responses will never be specifically analyzed. </p><p> If you have questions or concerns about your participation or payment, or want to request a summary of research findings, please contact Dr. Jonathan Phillips at Jonathan.S.Phillips@dartmouth.edu. </p><p> Please save a copy of this form for your records. </p><p><b>Agreement: </b>The nature and purpose of this research have been sufficiently explained and I agree to participate in this study. I understand that I am free to withdraw at any time without incurring any penalty. Please consent by clicking the button below to continue. Otherwise, please exit the study at any time. </p>","0","","","","","","","","","","","","","","","","","","","","","","","",""
"","","","","","instructions","3","472357","0.0-3.0-0.0","609ac8ca9e4928ec75d40a10","665500ab8938657b03fbdba8","665792c27c36d98757dd932e","83324","","","[{""page_index"":0,""viewing_time"":971},{""page_index"":1,""viewing_time"":1919},{""page_index"":2,""viewing_time"":3822},{""page_index"":3,""viewing_time"":4280},{""page_index"":4,""viewing_time"":2184},{""page_index"":5,""viewing_time"":3449},{""page_index"":6,""viewing_time"":3858},{""page_index"":7,""viewing_time"":2712},{""page_index"":8,""viewing_time"":23262},{""page_index"":9,""viewing_time"":1905},{""page_index"":10,""viewing_time"":6662},{""page_index"":11,""viewing_time"":25960},{""page_index"":12,""viewing_time"":1564},{""page_index"":13,""viewing_time"":772}]","intro","","","","","","","","","","","","","","","","","","","","","",""
"","","","","","image-keyboard-response","4","475347","0.0-3.0-1.0","609ac8ca9e4928ec75d40a10","665500ab8938657b03fbdba8","665792c27c36d98757dd932e","2981","stimuli/2111010.jpg","2","","prediction_practice","0","{""filepath"":""stimuli/2111010.jpg"",""ball_pos"":2,""ego_ball_visible"":true,""ego_can_infer"":true,""alter_ball_visible"":false,""alter_can_infer"":false,""collective_ball_visible"":false,""collective_can_infer"":false,""search_locations"":[0,2,1],""alter_occluders"":""111"",""ego_occluders"":""010""}","false","","","","","","","","","","","","","","","","","","",""
"","","","","","image-keyboard-response","5","477498","0.0-3.0-2.0","609ac8ca9e4928ec75d40a10","665500ab8938657b03fbdba8","665792c27c36d98757dd932e","2146","stimuli/21110100.jpg"," ","","practrice_feedback","0","","","","","","","","","","","","","","","","","","","","",""
"","","","","","image-keyboard-response","6","478634","0.0-3.0-3.0","609ac8ca9e4928ec75d40a10","665500ab8938657b03fbdba8","665792c27c36d98757dd932e","1130","stimuli/1001000.jpg","1","","prediction_practice","1","{""filepath"":""stimuli/1001000.jpg"",""ball_pos"":1,""ego_ball_visible"":true,""ego_can_infer"":true,""alter_ball_visible"":true,""alter_can_infer"":true,""collective_ball_visible"":true,""collective_can_infer"":true,""search_locations"":[1],""alter_occluders"":""001"",""ego_occluders"":""000""}","true","","","","","","","","","","","","","","","","","","",""
"","","","","","image-keyboard-response","7","479113","0.0-3.0-4.0","609ac8ca9e4928ec75d40a10","665500ab8938657b03fbdba8","665792c27c36d98757dd932e","472","stimuli/10010001.jpg"," ","","practrice_feedback","1","","","","","","","","","","","","","","","","","","","","",""
"","","","","","image-keyboard-response","8","479913","0.0-3.0-5.0","609ac8ca9e4928ec75d40a10","665500ab8938657b03fbdba8","665792c27c36d98757dd932e","796","stimuli/1001001.jpg","1","","prediction_practice","1","{""filepath"":""stimuli/1001001.jpg"",""ball_pos"":1,""ego_ball_visible"":true,""ego_can_infer"":true,""alter_ball_visible"":true,""alter_can_infer"":true,""collective_ball_visible"":true,""collective_can_infer"":true,""search_locations"":[1],""alter_occluders"":""001"",""ego_occluders"":""001""}","true","","","","","","","","","","","","","","","","","","",""
"","","","","","image-keyboard-response","9","480219","0.0-3.0-6.0","609ac8ca9e4928ec75d40a10","665500ab8938657b03fbdba8","665792c27c36d98757dd932e","300","stimuli/10010011.jpg"," ","","practrice_feedback","1","","","","","","","","","","","","","","","","","","","","",""
"","","","","","image-keyboard-response","10","481442","0.0-3.0-7.0","609ac8ca9e4928ec75d40a10","665500ab8938657b03fbdba8","665792c27c36d98757dd932e","1219","stimuli/1110001.jpg","1","","prediction_practice","1","{""filepath"":""stimuli/1110001.jpg"",""ball_pos"":1,""ego_ball_visible"":true,""ego_can_infer"":true,""alter_ball_visible"":false,""alter_can_infer"":false,""collective_ball_visible"":false,""collective_can_infer"":false,""search_locations"":[1,0],""alter_occluders"":""110"",""ego_occluders"":""001""}","true","","","","","","","","","","","","","","","","","","",""
"","","","","","image-keyboard-response","11","481701","0.0-3.0-8.0","609ac8ca9e4928ec75d40a10","665500ab8938657b03fbdba8","665792c27c36d98757dd932e","252","stimuli/11100011.jpg"," ","","practrice_feedback","1","","","","","","","","","","","","","","","","","","","","",""
"","","","","","image-keyboard-response","12","484807","0.0-3.0-9.0","609ac8ca9e4928ec75d40a10","665500ab8938657b03fbdba8","665792c27c36d98757dd932e","3103","stimuli/0001110.jpg","1","","prediction_practice","0","{""filepath"":""stimuli/0001110.jpg"",""ball_pos"":0,""ego_ball_visible"":false,""ego_can_infer"":false,""alter_ball_visible"":true,""alter_can_infer"":true,""collective_ball_visible"":false,""collective_can_infer"":false,""search_locations"":[0],""alter_occluders"":""001"",""ego_occluders"":""110""}","false","","","","","","","","","","","","","","","","","","",""
"","","","","","image-keyboard-response","13","485056","0.0-3.0-10.0","609ac8ca9e4928ec75d40a10","665500ab8938657b03fbdba8","665792c27c36d98757dd932e","245","stimuli/00011100.jpg"," ","","practrice_feedback","0","","","","","","","","","","","","","","","","","","","","",""
"","","","","","image-keyboard-response","14","487682","0.0-3.0-11.0","609ac8ca9e4928ec75d40a10","665500ab8938657b03fbdba8","665792c27c36d98757dd932e","2619","stimuli/0111100.jpg","0","","prediction_practice","2","{""filepath"":""stimuli/0111100.jpg"",""ball_pos"":0,""ego_ball_visible"":false,""ego_can_infer"":true,""alter_ball_visible"":false,""alter_can_infer"":false,""collective_ball_visible"":false,""collective_can_infer"":false,""search_locations"":[2,0,1],""alter_occluders"":""111"",""ego_occluders"":""100""}","false","","","","","","","","","","","","","","","","","","",""
"","","","","","image-keyboard-response","15","487888","0.0-3.0-12.0","609ac8ca9e4928ec75d40a10","665500ab8938657b03fbdba8","665792c27c36d98757dd932e","199","stimuli/01111002.jpg"," ","","practrice_feedback","2","","","","","","","","","","","","","","","","","","","","",""
"","","","","","image-keyboard-response","16","489562","0.0-3.0-13.0","609ac8ca9e4928ec75d40a10","665500ab8938657b03fbdba8","665792c27c36d98757dd932e","1671","stimuli/2011111.jpg","0","","prediction_practice","2","{""filepath"":""stimuli/2011111.jpg"",""ball_pos"":2,""ego_ball_visible"":false,""ego_can_infer"":false,""alter_ball_visible"":false,""alter_can_infer"":false,""collective_ball_visible"":false,""collective_can_infer"":false,""search_locations"":[1,2],""alter_occluders"":""011"",""ego_occluders"":""111""}","false","","","","","","","","","","","","","","","","","","",""
"","","","","","image-keyboard-response","17","489844","0.0-3.0-14.0","609ac8ca9e4928ec75d40a10","665500ab8938657b03fbdba8","665792c27c36d98757dd932e","279","stimuli/20111112.jpg"," ","","practrice_feedback","1","","","","","","","","","","","","","","","","","","","","",""
"","","","","","image-keyboard-response","18","491040","0.0-3.0-15.0","609ac8ca9e4928ec75d40a10","665500ab8938657b03fbdba8","665792c27c36d98757dd932e","1191","stimuli/1000010.jpg","1","","prediction_practice","1","{""filepath"":""stimuli/1000010.jpg"",""ball_pos"":1,""ego_ball_visible"":false,""ego_can_infer"":true,""alter_ball_visible"":true,""alter_can_infer"":true,""collective_ball_visible"":false,""collective_can_infer"":true,""search_locations"":[1],""alter_occluders"":""000"",""ego_occluders"":""010""}","true","","","","","","","","","","","","","","","","","","",""
"","","","","","image-keyboard-response","19","491373","0.0-3.0-16.0","609ac8ca9e4928ec75d40a10","665500ab8938657b03fbdba8","665792c27c36d98757dd932e","327","stimuli/10000101.jpg"," ","","practrice_feedback","1","","","","","","","","","","","","","","","","","","","","",""
"","","","","","image-keyboard-response","20","493288","0.0-3.0-17.0","609ac8ca9e4928ec75d40a10","665500ab8938657b03fbdba8","665792c27c36d98757dd932e","1911","stimuli/0011111.jpg","0","","prediction_practice","0","{""filepath"":""stimuli/0011111.jpg"",""ball_pos"":0,""ego_ball_visible"":false,""ego_can_infer"":false,""alter_ball_visible"":true,""alter_can_infer"":true,""collective_ball_visible"":false,""collective_can_infer"":false,""search_locations"":[0],""alter_occluders"":""011"",""ego_occluders"":""111""}","true","","","","","","","","","","","","","","","","","","",""
"","","","","","image-keyboard-response","21","493439","0.0-3.0-18.0","609ac8ca9e4928ec75d40a10","665500ab8938657b03fbdba8","665792c27c36d98757dd932e","146","stimuli/00111110.jpg"," ","","practrice_feedback","0","","","","","","","","","","","","","","","","","","","","",""
"","","","","","image-keyboard-response","22","494071","0.0-3.0-19.0","609ac8ca9e4928ec75d40a10","665500ab8938657b03fbdba8","665792c27c36d98757dd932e","627","stimuli/1001100.jpg","1","","prediction_practice","1","{""filepath"":""stimuli/1001100.jpg"",""ball_pos"":1,""ego_ball_visible"":true,""ego_can_infer"":true,""alter_ball_visible"":true,""alter_can_infer"":true,""collective_ball_visible"":true,""collective_can_infer"":true,""search_locations"":[1],""alter_occluders"":""001"",""ego_occluders"":""100""}","true","","","","","","","","","","","","","","","","","","",""
"","","","","","image-keyboard-response","23","494202","0.0-3.0-20.0","609ac8ca9e4928ec75d40a10","665500ab8938657b03fbdba8","665792c27c36d98757dd932e","127","stimuli/10011001.jpg"," ","","practrice_feedback","1","","","","","","","","","","","","","","","","","","","","",""
"","","","","","html-button-response","24","496255","0.0-3.0-21.0","609ac8ca9e4928ec75d40a10","665500ab8938657b03fbdba8","665792c27c36d98757dd932e","2051","Now that you've had some practice, you'll be tested with a couple of easy trials. If you correctly predict Sam's choice, you'll move on to complete the experiment!","0","","","","","","","","","","","","","","","","","","","","","","","",""
"","","","","","image-keyboard-response","25","497124","0.0-3.0-22.0-0.0","609ac8ca9e4928ec75d40a10","665500ab8938657b03fbdba8","665792c27c36d98757dd932e","855","stimuli/0000011.jpg","arrowleft","","comprehension_quiz","","","true","arrowleft","","","","","","","","","","","","","","","","","",""
"","","","","","image-keyboard-response","26","497283","0.0-3.0-22.0-1.0","609ac8ca9e4928ec75d40a10","665500ab8938657b03fbdba8","665792c27c36d98757dd932e","161","stimuli/00000110.jpg"," ","","comprehension_quiz","","","true"," ","","","","","","","","","","","","","","","","","",""
"","","","","","image-keyboard-response","27","498761","0.0-3.0-22.0-2.0","609ac8ca9e4928ec75d40a10","665500ab8938657b03fbdba8","665792c27c36d98757dd932e","1475","stimuli/1010010.jpg","arrowdown","","comprehension_quiz","","","true","arrowdown","","","","","","","","","","","","","","","","","",""
"","","","","","image-keyboard-response","28","498881","0.0-3.0-22.0-3.0","609ac8ca9e4928ec75d40a10","665500ab8938657b03fbdba8","665792c27c36d98757dd932e","114","stimuli/10100101.jpg"," ","","comprehension_quiz","","","true"," ","","","","","","","","","","","","","","","","","",""
"","","","","","html-button-response","29","500682","0.0-4.0","609ac8ca9e4928ec75d40a10","665500ab8938657b03fbdba8","665792c27c36d98757dd932e","1796","The experiment will now begin.","0","","","","","","","","","","","","","","","","","","","","","","","",""
"","","","","","image-keyboard-response","30","501997","0.0-5.0","609ac8ca9e4928ec75d40a10","665500ab8938657b03fbdba8","665792c27c36d98757dd932e","1312","stimuli/1111010.jpg","1","","prediction_trial","1","","true","","1","false","true","false","false","false","false","[1,0,2]","111","010","1","","","","","","",""
"","","","","","image-keyboard-response","31","502094","0.0-6.0","609ac8ca9e4928ec75d40a10","665500ab8938657b03fbdba8","665792c27c36d98757dd932e","93","stimuli/11110101.jpg"," ","","feedback_trial","1","","","","","","","","","","","","","","","","","","","","",""
"","","","","","image-keyboard-response","32","503077","0.0-7.0","609ac8ca9e4928ec75d40a10","665500ab8938657b03fbdba8","665792c27c36d98757dd932e","980","stimuli/2111100.jpg","2","","prediction_trial","1","","false","","2","true","true","false","false","false","false","[0,1,2]","111","100","0","","","","","","",""
"","","","","","image-keyboard-response","33","503186","0.0-8.0","609ac8ca9e4928ec75d40a10","665500ab8938657b03fbdba8","665792c27c36d98757dd932e","104","stimuli/21111001.jpg"," ","","feedback_trial","0","","","","","","","","","","","","","","","","","","","","",""
"","","","","","image-keyboard-response","34","504672","0.0-9.0","609ac8ca9e4928ec75d40a10","665500ab8938657b03fbdba8","665792c27c36d98757dd932e","1483","stimuli/0011100.jpg","0","","prediction_trial","0","","true","","0","false","true","true","true","false","true","[0]","011","100","1","","","","","","",""
"","","","","","image-keyboard-response","35","504747","0.0-10.0","609ac8ca9e4928ec75d40a10","665500ab8938657b03fbdba8","665792c27c36d98757dd932e","68","stimuli/00111000.jpg"," ","","feedback_trial","0","","","","","","","","","","","","","","","","","","","","",""
"","","","","","image-keyboard-response","36","505594","0.0-11.0","609ac8ca9e4928ec75d40a10","665500ab8938657b03fbdba8","665792c27c36d98757dd932e","844","stimuli/1110111.jpg","2","","prediction_trial","1","","false","","1","false","false","false","false","false","false","[0,1]","110","111","0","","","","","","",""
"","","","","","image-keyboard-response","37","505679","0.0-12.0","609ac8ca9e4928ec75d40a10","665500ab8938657b03fbdba8","665792c27c36d98757dd932e","82","stimuli/11101111.jpg"," ","","feedback_trial","0","","","","","","","","","","","","","","","","","","","","",""
"","","","","","image-keyboard-response","38","506765","0.0-13.0","609ac8ca9e4928ec75d40a10","665500ab8938657b03fbdba8","665792c27c36d98757dd932e","1083","stimuli/0110011.jpg","0","","prediction_trial","0","","true","","0","true","true","false","false","false","false","[0,1]","110","011","1","","","","","","",""
"","","","","","image-keyboard-response","39","506841","0.0-14.0","609ac8ca9e4928ec75d40a10","665500ab8938657b03fbdba8","665792c27c36d98757dd932e","70","stimuli/01100110.jpg"," ","","feedback_trial","0","","","","","","","","","","","","","","","","","","","","",""
"","","","","","image-keyboard-response","40","508509","0.0-15.0","609ac8ca9e4928ec75d40a10","665500ab8938657b03fbdba8","665792c27c36d98757dd932e","1665","stimuli/0111101.jpg","2","","prediction_trial","1","","false","","0","false","false","false","false","false","false","[1,0,2]","111","101","0","","","","","","",""
"","","","","","image-keyboard-response","41","508600","0.0-16.0","609ac8ca9e4928ec75d40a10","665500ab8938657b03fbdba8","665792c27c36d98757dd932e","88","stimuli/01111011.jpg"," ","","feedback_trial","1","","","","","","","","","","","","","","","","","","","","",""
"","","","","","image-keyboard-response","42","509429","0.0-17.0","609ac8ca9e4928ec75d40a10","665500ab8938657b03fbdba8","665792c27c36d98757dd932e","826","stimuli/0011101.jpg","0","","prediction_trial","0","","true","","0","false","false","true","true","false","false","[0]","011","101","1","","","","","","",""
"","","","","","image-keyboard-response","43","509525","0.0-18.0","609ac8ca9e4928ec75d40a10","665500ab8938657b03fbdba8","665792c27c36d98757dd932e","93","stimuli/00111010.jpg"," ","","feedback_trial","0","","","","","","","","","","","","","","","","","","","","",""
"","","","","","image-keyboard-response","44","510543","0.0-19.0","609ac8ca9e4928ec75d40a10","665500ab8938657b03fbdba8","665792c27c36d98757dd932e","1002","stimuli/0000010.jpg","0","","prediction_trial","0","","true","","0","true","true","true","true","true","true","[0]","000","010","1","","","","","","",""
"","","","","","image-keyboard-response","45","510622","0.0-20.0","609ac8ca9e4928ec75d40a10","665500ab8938657b03fbdba8","665792c27c36d98757dd932e","75","stimuli/00000100.jpg"," ","","feedback_trial","0","","","","","","","","","","","","","","","","","","","","",""
"","","","","","image-keyboard-response","46","511265","0.0-21.0","609ac8ca9e4928ec75d40a10","665500ab8938657b03fbdba8","665792c27c36d98757dd932e","641","stimuli/0011000.jpg","0","","prediction_trial","0","","true","","0","true","true","true","true","true","true","[0]","011","000","1","","","","","","",""
"","","","","","image-keyboard-response","47","511335","0.0-22.0","609ac8ca9e4928ec75d40a10","665500ab8938657b03fbdba8","665792c27c36d98757dd932e","65","stimuli/00110000.jpg"," ","","feedback_trial","0","","","","","","","","","","","","","","","","","","","","",""
"","","","","","image-keyboard-response","48","512252","0.0-23.0","609ac8ca9e4928ec75d40a10","665500ab8938657b03fbdba8","665792c27c36d98757dd932e","915","stimuli/1101010.jpg","1","","prediction_trial","1","","true","","1","false","true","true","true","false","true","[1]","101","010","1","","","","","","",""
"","","","","","image-keyboard-response","49","512346","0.0-24.0","609ac8ca9e4928ec75d40a10","665500ab8938657b03fbdba8","665792c27c36d98757dd932e","87","stimuli/11010101.jpg"," ","","feedback_trial","1","","","","","","","","","","","","","","","","","","","","",""
"","","","","","image-keyboard-response","50","513393","0.0-25.0","609ac8ca9e4928ec75d40a10","665500ab8938657b03fbdba8","665792c27c36d98757dd932e","1044","stimuli/0101111.jpg","1","","prediction_trial","0","","false","","0","false","false","false","false","false","false","[2,0]","101","111","0","","","","","","",""
"","","","","","image-keyboard-response","51","513449","0.0-26.0","609ac8ca9e4928ec75d40a10","665500ab8938657b03fbdba8","665792c27c36d98757dd932e","51","stimuli/01011110.jpg"," ","","feedback_trial","2","","","","","","","","","","","","","","","","","","","","",""
"","","","","","image-keyboard-response","52","515089","0.0-27.0","609ac8ca9e4928ec75d40a10","665500ab8938657b03fbdba8","665792c27c36d98757dd932e","1638","stimuli/2111111.jpg","0","","prediction_trial","1","","false","","2","false","false","false","false","false","false","[2,1,0]","111","111","0","","","","","","",""
"","","","","","image-keyboard-response","53","515202","0.0-28.0","609ac8ca9e4928ec75d40a10","665500ab8938657b03fbdba8","665792c27c36d98757dd932e","108","stimuli/21111111.jpg"," ","","feedback_trial","2","","","","","","","","","","","","","","","","","","","","",""
"","","","","","image-keyboard-response","54","515929","0.0-29.0","609ac8ca9e4928ec75d40a10","665500ab8938657b03fbdba8","665792c27c36d98757dd932e","724","stimuli/2101010.jpg","2","","prediction_trial","2","","true","","2","true","true","false","false","false","false","[2,0]","101","010","1","","","","","","",""
"","","","","","image-keyboard-response","55","515972","0.0-30.0","609ac8ca9e4928ec75d40a10","665500ab8938657b03fbdba8","665792c27c36d98757dd932e","39","stimuli/21010102.jpg"," ","","feedback_trial","2","","","","","","","","","","","","","","","","","","","","",""
"","","","","","image-keyboard-response","56","516541","0.0-31.0","609ac8ca9e4928ec75d40a10","665500ab8938657b03fbdba8","665792c27c36d98757dd932e","567","stimuli/2110110.jpg","2","","prediction_trial","2","","true","","2","true","true","true","true","true","true","[2]","110","110","1","","","","","","",""
"","","","","","image-keyboard-response","57","516642","0.0-32.0","609ac8ca9e4928ec75d40a10","665500ab8938657b03fbdba8","665792c27c36d98757dd932e","98","stimuli/21101102.jpg"," ","","feedback_trial","2","","","","","","","","","","","","","","","","","","","","",""
"","","","","","image-keyboard-response","58","517435","0.0-33.0","609ac8ca9e4928ec75d40a10","665500ab8938657b03fbdba8","665792c27c36d98757dd932e","789","stimuli/1011111.jpg","0","","prediction_trial","2","","false","","1","false","false","false","false","false","false","[2,1]","011","111","0","","","","","","",""
"","","","","","image-keyboard-response","59","517508","0.0-34.0","609ac8ca9e4928ec75d40a10","665500ab8938657b03fbdba8","665792c27c36d98757dd932e","67","stimuli/10111112.jpg"," ","","feedback_trial","2","","","","","","","","","","","","","","","","","","","","",""
"","","","","","image-keyboard-response","60","518151","0.0-35.0","609ac8ca9e4928ec75d40a10","665500ab8938657b03fbdba8","665792c27c36d98757dd932e","640","stimuli/1010000.jpg","1","","prediction_trial","1","","true","","1","true","true","false","true","false","true","[1]","010","000","1","","","","","","",""
"","","","","","image-keyboard-response","61","518214","0.0-36.0","609ac8ca9e4928ec75d40a10","665500ab8938657b03fbdba8","665792c27c36d98757dd932e","58","stimuli/10100001.jpg"," ","","feedback_trial","1","","","","","","","","","","","","","","","","","","","","",""
"","","","","","image-keyboard-response","62","518824","0.0-37.0","609ac8ca9e4928ec75d40a10","665500ab8938657b03fbdba8","665792c27c36d98757dd932e","594","stimuli/2011000.jpg","2","","prediction_trial","2","","true","","2","true","true","false","false","false","false","[1,2]","011","000","1","","","","","","",""
"","","","","","image-keyboard-response","63","518901","0.0-38.0","609ac8ca9e4928ec75d40a10","665500ab8938657b03fbdba8","665792c27c36d98757dd932e","72","stimuli/20110002.jpg"," ","","feedback_trial","1","","","","","","","","","","","","","","","","","","","","",""
"","","","","","image-keyboard-response","64","519903","0.0-39.0","609ac8ca9e4928ec75d40a10","665500ab8938657b03fbdba8","665792c27c36d98757dd932e","999","stimuli/0101101.jpg","2","","prediction_trial","0","","false","","0","false","false","false","false","false","false","[2,0]","101","101","0","","","","","","",""
"","","","","","image-keyboard-response","65","519986","0.0-40.0","609ac8ca9e4928ec75d40a10","665500ab8938657b03fbdba8","665792c27c36d98757dd932e","78","stimuli/01011010.jpg"," ","","feedback_trial","2","","","","","","","","","","","","","","","","","","","","",""
"","","","","","image-keyboard-response","66","520615","0.0-41.0","609ac8ca9e4928ec75d40a10","665500ab8938657b03fbdba8","665792c27c36d98757dd932e","625","stimuli/0000100.jpg","0","","prediction_trial","0","","true","","0","false","true","true","true","false","true","[0]","000","100","1","","","","","","",""
"","","","","","image-keyboard-response","67","520682","0.0-42.0","609ac8ca9e4928ec75d40a10","665500ab8938657b03fbdba8","665792c27c36d98757dd932e","63","stimuli/00001000.jpg"," ","","feedback_trial","0","","","","","","","","","","","","","","","","","","","","",""
"","","","","","image-keyboard-response","68","521208","0.0-43.0","609ac8ca9e4928ec75d40a10","665500ab8938657b03fbdba8","665792c27c36d98757dd932e","522","stimuli/1000111.jpg","0","","prediction_trial","1","","false","","1","false","false","true","true","false","false","[1]","000","111","0","","","","","","",""
"","","","","","image-keyboard-response","69","521296","0.0-44.0","609ac8ca9e4928ec75d40a10","665500ab8938657b03fbdba8","665792c27c36d98757dd932e","83","stimuli/10001111.jpg"," ","","feedback_trial","1","","","","","","","","","","","","","","","","","","","","",""
"","","","","","image-keyboard-response","70","522042","0.0-45.0","609ac8ca9e4928ec75d40a10","665500ab8938657b03fbdba8","665792c27c36d98757dd932e","742","stimuli/1110100.jpg","1","","prediction_trial","0","","false","","1","true","true","false","false","false","false","[1,0]","110","100","0","","","","","","",""
"","","","","","image-keyboard-response","71","522101","0.0-46.0","609ac8ca9e4928ec75d40a10","665500ab8938657b03fbdba8","665792c27c36d98757dd932e","55","stimuli/11101000.jpg"," ","","feedback_trial","1","","","","","","","","","","","","","","","","","","","","",""
"","","","","","image-keyboard-response","72","523020","0.0-47.0","609ac8ca9e4928ec75d40a10","665500ab8938657b03fbdba8","665792c27c36d98757dd932e","917","stimuli/1000110.jpg","1","","prediction_trial","1","","true","","1","false","false","true","true","false","false","[1]","000","110","1","","","","","","",""
"","","","","","image-keyboard-response","73","523086","0.0-48.0","609ac8ca9e4928ec75d40a10","665500ab8938657b03fbdba8","665792c27c36d98757dd932e","62","stimuli/10001101.jpg"," ","","feedback_trial","1","","","","","","","","","","","","","","","","","","","","",""
"","","","","","image-keyboard-response","74","523670","0.0-49.0","609ac8ca9e4928ec75d40a10","665500ab8938657b03fbdba8","665792c27c36d98757dd932e","581","stimuli/2001010.jpg","2","","prediction_trial","2","","true","","2","true","true","false","true","false","true","[2]","001","010","1","","","","","","",""
"","","","","","image-keyboard-response","75","523765","0.0-50.0","609ac8ca9e4928ec75d40a10","665500ab8938657b03fbdba8","665792c27c36d98757dd932e","90","stimuli/20010102.jpg"," ","","feedback_trial","2","","","","","","","","","","","","","","","","","","","","",""
"","","","","","image-keyboard-response","76","524418","0.0-51.0","609ac8ca9e4928ec75d40a10","665500ab8938657b03fbdba8","665792c27c36d98757dd932e","649","stimuli/0101011.jpg","0","","prediction_trial","0","","true","","0","true","true","false","false","false","false","[2,0]","101","011","1","","","","","","",""
"","","","","","image-keyboard-response","77","524482","0.0-52.0","609ac8ca9e4928ec75d40a10","665500ab8938657b03fbdba8","665792c27c36d98757dd932e","58","stimuli/01010110.jpg"," ","","feedback_trial","2","","","","","","","","","","","","","","","","","","","","",""
"","","","","","image-keyboard-response","78","541080","0.0-53.0","609ac8ca9e4928ec75d40a10","665500ab8938657b03fbdba8","665792c27c36d98757dd932e","16595","stimuli/0010110.jpg","0","","prediction_trial","0","","true","","0","false","false","true","true","false","false","[0]","010","110","1","","","","","","",""
"","","","","","image-keyboard-response","79","541280","0.0-54.0","609ac8ca9e4928ec75d40a10","665500ab8938657b03fbdba8","665792c27c36d98757dd932e","194","stimuli/00101100.jpg"," ","","feedback_trial","0","","","","","","","","","","","","","","","","","","","","",""
"","","","","","image-keyboard-response","80","542509","0.0-55.0","609ac8ca9e4928ec75d40a10","665500ab8938657b03fbdba8","665792c27c36d98757dd932e","1213","stimuli/0110110.jpg","1","","prediction_trial","0","","false","","0","false","false","false","false","false","false","[1,0]","110","110","0","","","","","","",""
"","","","","","image-keyboard-response","81","542624","0.0-56.0","609ac8ca9e4928ec75d40a10","665500ab8938657b03fbdba8","665792c27c36d98757dd932e","114","stimuli/01101100.jpg"," ","","feedback_trial","1","","","","","","","","","","","","","","","","","","","","",""
"","","","","","image-keyboard-response","82","543244","0.0-57.0","609ac8ca9e4928ec75d40a10","665500ab8938657b03fbdba8","665792c27c36d98757dd932e","617","stimuli/2011100.jpg","2","","prediction_trial","2","","true","","2","true","true","false","false","false","false","[1,2]","011","100","1","","","","","","",""
"","","","","","image-keyboard-response","83","543346","0.0-58.0","609ac8ca9e4928ec75d40a10","665500ab8938657b03fbdba8","665792c27c36d98757dd932e","96","stimuli/20111002.jpg"," ","","feedback_trial","1","","","","","","","","","","","","","","","","","","","","",""
"","","","","","image-keyboard-response","84","544040","0.0-59.0","609ac8ca9e4928ec75d40a10","665500ab8938657b03fbdba8","665792c27c36d98757dd932e","690","stimuli/2110001.jpg","2","","prediction_trial","2","","true","","2","false","true","true","true","false","true","[2]","110","001","1","","","","","","",""
"","","","","","image-keyboard-response","85","544098","0.0-60.0","609ac8ca9e4928ec75d40a10","665500ab8938657b03fbdba8","665792c27c36d98757dd932e","56","stimuli/21100012.jpg"," ","","feedback_trial","2","","","","","","","","","","","","","","","","","","","","",""
"","","","","","image-keyboard-response","86","544862","0.0-61.0","609ac8ca9e4928ec75d40a10","665500ab8938657b03fbdba8","665792c27c36d98757dd932e","761","stimuli/1010011.jpg","2","","prediction_trial","1","","false","","1","false","false","false","true","false","false","[1]","010","011","0","","","","","","",""
"","","","","","image-keyboard-response","87","544917","0.0-62.0","609ac8ca9e4928ec75d40a10","665500ab8938657b03fbdba8","665792c27c36d98757dd932e","49","stimuli/10100111.jpg"," ","","feedback_trial","1","","","","","","","","","","","","","","","","","","","","",""
"","","","","","image-keyboard-response","88","545448","0.0-63.0","609ac8ca9e4928ec75d40a10","665500ab8938657b03fbdba8","665792c27c36d98757dd932e","528","stimuli/2100100.jpg","2","","prediction_trial","2","","true","","2","true","true","true","true","true","true","[2]","100","100","1","","","","","","",""
"","","","","","image-keyboard-response","89","545511","0.0-64.0","609ac8ca9e4928ec75d40a10","665500ab8938657b03fbdba8","665792c27c36d98757dd932e","54","stimuli/21001002.jpg"," ","","feedback_trial","2","","","","","","","","","","","","","","","","","","","","",""
"","","","","","image-keyboard-response","90","546131","0.0-65.0","609ac8ca9e4928ec75d40a10","665500ab8938657b03fbdba8","665792c27c36d98757dd932e","618","stimuli/2010101.jpg","2","","prediction_trial","2","","true","","2","false","false","true","true","false","false","[2]","010","101","1","","","","","","",""
"","","","","","image-keyboard-response","91","546207","0.0-66.0","609ac8ca9e4928ec75d40a10","665500ab8938657b03fbdba8","665792c27c36d98757dd932e","72","stimuli/20101012.jpg"," ","","feedback_trial","2","","","","","","","","","","","","","","","","","","","","",""
"","","","","","image-keyboard-response","92","546710","0.0-67.0","609ac8ca9e4928ec75d40a10","665500ab8938657b03fbdba8","665792c27c36d98757dd932e","501","stimuli/2110100.jpg","2","","prediction_trial","2","","true","","2","true","true","true","true","true","true","[2]","110","100","1","","","","","","",""
"","","","","","image-keyboard-response","93","546802","0.0-68.0","609ac8ca9e4928ec75d40a10","665500ab8938657b03fbdba8","665792c27c36d98757dd932e","86","stimuli/21101002.jpg"," ","","feedback_trial","2","","","","","","","","","","","","","","","","","","","","",""
"","","","","","image-keyboard-response","94","548059","0.0-69.0","609ac8ca9e4928ec75d40a10","665500ab8938657b03fbdba8","665792c27c36d98757dd932e","1254","stimuli/1100110.jpg","1","","prediction_trial","1","","true","","1","false","false","true","true","false","false","[1]","100","110","1","","","","","","",""
"","","","","","image-keyboard-response","95","548159","0.0-70.0","609ac8ca9e4928ec75d40a10","665500ab8938657b03fbdba8","665792c27c36d98757dd932e","97","stimuli/11001101.jpg"," ","","feedback_trial","1","","","","","","","","","","","","","","","","","","","","",""
"","","","","","image-keyboard-response","96","549292","0.0-71.0","609ac8ca9e4928ec75d40a10","665500ab8938657b03fbdba8","665792c27c36d98757dd932e","1130","stimuli/1001010.jpg","1","","prediction_trial","1","","true","","1","false","true","true","true","false","true","[1]","001","010","1","","","","","","",""
"","","","","","image-keyboard-response","97","549325","0.0-72.0","609ac8ca9e4928ec75d40a10","665500ab8938657b03fbdba8","665792c27c36d98757dd932e","30","stimuli/10010101.jpg"," ","","feedback_trial","1","","","","","","","","","","","","","","","","","","","","",""
"","","","","","image-keyboard-response","98","550113","0.0-73.0","609ac8ca9e4928ec75d40a10","665500ab8938657b03fbdba8","665792c27c36d98757dd932e","773","stimuli/0010010.jpg","0","","prediction_trial","0","","true","","0","true","true","true","true","true","true","[0]","010","010","1","","","","","","",""
"","","","","","image-keyboard-response","99","550197","0.0-74.0","609ac8ca9e4928ec75d40a10","665500ab8938657b03fbdba8","665792c27c36d98757dd932e","77","stimuli/00100100.jpg"," ","","feedback_trial","0","","","","","","","","","","","","","","","","","","","","",""
"","","","","","image-keyboard-response","100","550829","0.0-75.0","609ac8ca9e4928ec75d40a10","665500ab8938657b03fbdba8","665792c27c36d98757dd932e","628","stimuli/1001101.jpg","1","","prediction_trial","1","","true","","1","true","true","true","true","true","true","[1]","001","101","1","","","","","","",""
"","","","","","image-keyboard-response","101","550917","0.0-76.0","609ac8ca9e4928ec75d40a10","665500ab8938657b03fbdba8","665792c27c36d98757dd932e","81","stimuli/10011011.jpg"," ","","feedback_trial","1","","","","","","","","","","","","","","","","","","","","",""
"","","","","","image-keyboard-response","102","551611","0.0-77.0","609ac8ca9e4928ec75d40a10","665500ab8938657b03fbdba8","665792c27c36d98757dd932e","690","stimuli/2000001.jpg","2","","prediction_trial","2","","true","","2","false","true","true","true","false","true","[2]","000","001","1","","","","","","",""
"","","","","","image-keyboard-response","103","551676","0.0-78.0","609ac8ca9e4928ec75d40a10","665500ab8938657b03fbdba8","665792c27c36d98757dd932e","62","stimuli/20000012.jpg"," ","","feedback_trial","2","","","","","","","","","","","","","","","","","","","","",""
"","","","","","image-keyboard-response","104","552528","0.0-79.0","609ac8ca9e4928ec75d40a10","665500ab8938657b03fbdba8","665792c27c36d98757dd932e","849","stimuli/1111110.jpg","0","","prediction_trial","0","","true","","1","false","false","false","false","false","false","[0,1,2]","111","110","1","","","","","","",""
"","","","","","image-keyboard-response","105","552593","0.0-80.0","609ac8ca9e4928ec75d40a10","665500ab8938657b03fbdba8","665792c27c36d98757dd932e","63","stimuli/11111100.jpg"," ","","feedback_trial","0","","","","","","","","","","","","","","","","","","","","",""
"","","","","","image-keyboard-response","106","553163","0.0-81.0","609ac8ca9e4928ec75d40a10","665500ab8938657b03fbdba8","665792c27c36d98757dd932e","568","stimuli/2010110.jpg","2","","prediction_trial","2","","true","","2","true","true","true","true","true","true","[2]","010","110","1","","","","","","",""
"","","","","","image-keyboard-response","107","553236","0.0-82.0","609ac8ca9e4928ec75d40a10","665500ab8938657b03fbdba8","665792c27c36d98757dd932e","69","stimuli/20101102.jpg"," ","","feedback_trial","2","","","","","","","","","","","","","","","","","","","","",""
"","","","","","image-keyboard-response","108","554047","0.0-83.0","609ac8ca9e4928ec75d40a10","665500ab8938657b03fbdba8","665792c27c36d98757dd932e","809","stimuli/0111110.jpg","1","","prediction_trial","1","","true","","0","false","false","false","false","false","false","[1,2,0]","111","110","1","","","","","","",""
"","","","","","image-keyboard-response","109","554122","0.0-84.0","609ac8ca9e4928ec75d40a10","665500ab8938657b03fbdba8","665792c27c36d98757dd932e","70","stimuli/01111101.jpg"," ","","feedback_trial","1","","","","","","","","","","","","","","","","","","","","",""
"","","","","","image-keyboard-response","110","554639","0.0-85.0","609ac8ca9e4928ec75d40a10","665500ab8938657b03fbdba8","665792c27c36d98757dd932e","514","stimuli/1111001.jpg","1","","prediction_trial","0","","false","","1","true","true","false","false","false","false","[1,2,0]","111","001","0","","","","","","",""
"","","","","","image-keyboard-response","111","554696","0.0-86.0","609ac8ca9e4928ec75d40a10","665500ab8938657b03fbdba8","665792c27c36d98757dd932e","53","stimuli/11110010.jpg"," ","","feedback_trial","1","","","","","","","","","","","","","","","","","","","","",""
"","","","","","image-keyboard-response","112","555292","0.0-87.0","609ac8ca9e4928ec75d40a10","665500ab8938657b03fbdba8","665792c27c36d98757dd932e","594","stimuli/0110010.jpg","0","","prediction_trial","1","","false","","0","true","true","false","false","false","false","[1,0]","110","010","0","","","","","","",""
"","","","","","image-keyboard-response","113","555370","0.0-88.0","609ac8ca9e4928ec75d40a10","665500ab8938657b03fbdba8","665792c27c36d98757dd932e","73","stimuli/01100101.jpg"," ","","feedback_trial","1","","","","","","","","","","","","","","","","","","","","",""
"","","","","","image-keyboard-response","114","556019","0.0-89.0","609ac8ca9e4928ec75d40a10","665500ab8938657b03fbdba8","665792c27c36d98757dd932e","645","stimuli/2110000.jpg","2","","prediction_trial","2","","true","","2","true","true","true","true","true","true","[2]","110","000","1","","","","","","",""
"","","","","","image-keyboard-response","115","556087","0.0-90.0","609ac8ca9e4928ec75d40a10","665500ab8938657b03fbdba8","665792c27c36d98757dd932e","65","stimuli/21100002.jpg"," ","","feedback_trial","2","","","","","","","","","","","","","","","","","","","","",""
"","","","","","image-keyboard-response","116","556839","0.0-91.0","609ac8ca9e4928ec75d40a10","665500ab8938657b03fbdba8","665792c27c36d98757dd932e","736","stimuli/2110111.jpg","2","","prediction_trial","2","","true","","2","false","false","true","true","false","false","[2]","110","111","1","","","","","","",""
"","","","","","image-keyboard-response","117","556893","0.0-92.0","609ac8ca9e4928ec75d40a10","665500ab8938657b03fbdba8","665792c27c36d98757dd932e","50","stimuli/21101112.jpg"," ","","feedback_trial","2","","","","","","","","","","","","","","","","","","","","",""
"","","","","","image-keyboard-response","118","557555","0.0-93.0","609ac8ca9e4928ec75d40a10","665500ab8938657b03fbdba8","665792c27c36d98757dd932e","658","stimuli/1100111.jpg","1","","prediction_trial","1","","true","","1","false","false","true","true","false","false","[1]","100","111","1","","","","","","",""
"","","","","","image-keyboard-response","119","557626","0.0-94.0","609ac8ca9e4928ec75d40a10","665500ab8938657b03fbdba8","665792c27c36d98757dd932e","67","stimuli/11001111.jpg"," ","","feedback_trial","1","","","","","","","","","","","","","","","","","","","","",""
"","","","","","image-keyboard-response","120","558139","0.0-95.0","609ac8ca9e4928ec75d40a10","665500ab8938657b03fbdba8","665792c27c36d98757dd932e","510","stimuli/0101000.jpg","0","","prediction_trial","0","","true","","0","true","true","false","false","false","false","[0,2]","101","000","1","","","","","","",""
"","","","","","image-keyboard-response","121","558234","0.0-96.0","609ac8ca9e4928ec75d40a10","665500ab8938657b03fbdba8","665792c27c36d98757dd932e","91","stimuli/01010000.jpg"," ","","feedback_trial","0","","","","","","","","","","","","","","","","","","","","",""
"","","","","","image-keyboard-response","122","559005","0.0-97.0","609ac8ca9e4928ec75d40a10","665500ab8938657b03fbdba8","665792c27c36d98757dd932e","766","stimuli/0000110.jpg","1","","prediction_trial","0","","false","","0","false","false","true","true","false","false","[0]","000","110","0","","","","","","",""
"","","","","","image-keyboard-response","123","559068","0.0-98.0","609ac8ca9e4928ec75d40a10","665500ab8938657b03fbdba8","665792c27c36d98757dd932e","56","stimuli/00001100.jpg"," ","","feedback_trial","0","","","","","","","","","","","","","","","","","","","","",""
"","","","","","image-keyboard-response","124","559742","0.0-99.0","609ac8ca9e4928ec75d40a10","665500ab8938657b03fbdba8","665792c27c36d98757dd932e","672","stimuli/1011010.jpg","1","","prediction_trial","2","","false","","1","false","true","false","false","false","false","[2,1]","011","010","0","","","","","","",""
"","","","","","image-keyboard-response","125","559810","0.0-100.0","609ac8ca9e4928ec75d40a10","665500ab8938657b03fbdba8","665792c27c36d98757dd932e","63","stimuli/10110102.jpg"," ","","feedback_trial","2","","","","","","","","","","","","","","","","","","","","",""
"","","","","","image-keyboard-response","126","560308","0.0-101.0","609ac8ca9e4928ec75d40a10","665500ab8938657b03fbdba8","665792c27c36d98757dd932e","496","stimuli/2100010.jpg","2","","prediction_trial","2","","true","","2","true","true","true","true","true","true","[2]","100","010","1","","","","","","",""
"","","","","","image-keyboard-response","127","560382","0.0-102.0","609ac8ca9e4928ec75d40a10","665500ab8938657b03fbdba8","665792c27c36d98757dd932e","69","stimuli/21000102.jpg"," ","","feedback_trial","2","","","","","","","","","","","","","","","","","","","","",""
"","","","","","image-keyboard-response","128","561202","0.0-103.0","609ac8ca9e4928ec75d40a10","665500ab8938657b03fbdba8","665792c27c36d98757dd932e","816","stimuli/1101011.jpg","1","","prediction_trial","1","","true","","1","false","false","true","true","false","false","[1]","101","011","1","","","","","","",""
"","","","","","image-keyboard-response","129","561278","0.0-104.0","609ac8ca9e4928ec75d40a10","665500ab8938657b03fbdba8","665792c27c36d98757dd932e","73","stimuli/11010111.jpg"," ","","feedback_trial","1","","","","","","","","","","","","","","","","","","","","",""
"","","","","","image-keyboard-response","130","562000","0.0-105.0","609ac8ca9e4928ec75d40a10","665500ab8938657b03fbdba8","665792c27c36d98757dd932e","720","stimuli/1111100.jpg","1","","prediction_trial","0","","false","","1","true","true","false","false","false","false","[2,0,1]","111","100","0","","","","","","",""
"","","","","","image-keyboard-response","131","562199","0.0-106.0","609ac8ca9e4928ec75d40a10","665500ab8938657b03fbdba8","665792c27c36d98757dd932e","194","stimuli/11111000.jpg"," ","","feedback_trial","2","","","","","","","","","","","","","","","","","","","","",""
"","","","","","image-keyboard-response","132","563474","0.0-107.0","609ac8ca9e4928ec75d40a10","665500ab8938657b03fbdba8","665792c27c36d98757dd932e","1272","stimuli/1010110.jpg","0","","prediction_trial","1","","false","","1","false","false","false","true","false","false","[1]","010","110","0","","","","","","",""
"","","","","","image-keyboard-response","133","563549","0.0-108.0","609ac8ca9e4928ec75d40a10","665500ab8938657b03fbdba8","665792c27c36d98757dd932e","69","stimuli/10101101.jpg"," ","","feedback_trial","1","","","","","","","","","","","","","","","","","","","","",""
"","","","","","image-keyboard-response","134","564202","0.0-109.0","609ac8ca9e4928ec75d40a10","665500ab8938657b03fbdba8","665792c27c36d98757dd932e","639","stimuli/0100000.jpg","0","","prediction_trial","0","","true","","0","true","true","false","true","false","true","[0]","100","000","1","","","","","","",""
"","","","","","image-keyboard-response","135","564269","0.0-110.0","609ac8ca9e4928ec75d40a10","665500ab8938657b03fbdba8","665792c27c36d98757dd932e","61","stimuli/01000000.jpg"," ","","feedback_trial","0","","","","","","","","","","","","","","","","","","","","",""
"","","","","","image-keyboard-response","136","565141","0.0-111.0","609ac8ca9e4928ec75d40a10","665500ab8938657b03fbdba8","665792c27c36d98757dd932e","869","stimuli/1001111.jpg","2","","prediction_trial","1","","false","","1","false","false","true","true","false","false","[1]","001","111","0","","","","","","",""
"","","","","","image-keyboard-response","137","565212","0.0-112.0","609ac8ca9e4928ec75d40a10","665500ab8938657b03fbdba8","665792c27c36d98757dd932e","66","stimuli/10011111.jpg"," ","","feedback_trial","1","","","","","","","","","","","","","","","","","","","","",""
"","","","","","image-keyboard-response","138","565887","0.0-113.0","609ac8ca9e4928ec75d40a10","665500ab8938657b03fbdba8","665792c27c36d98757dd932e","673","stimuli/1010111.jpg","1","","prediction_trial","1","","true","","1","false","false","false","true","false","false","[1]","010","111","1","","","","","","",""
"","","","","","image-keyboard-response","139","565917","0.0-114.0","609ac8ca9e4928ec75d40a10","665500ab8938657b03fbdba8","665792c27c36d98757dd932e","24","stimuli/10101111.jpg"," ","","feedback_trial","1","","","","","","","","","","","","","","","","","","","","",""
"","","","","","image-keyboard-response","140","566466","0.0-115.0","609ac8ca9e4928ec75d40a10","665500ab8938657b03fbdba8","665792c27c36d98757dd932e","547","stimuli/1010101.jpg","1","","prediction_trial","1","","true","","1","true","true","false","true","false","true","[1]","010","101","1","","","","","","",""
"","","","","","image-keyboard-response","141","566531","0.0-116.0","609ac8ca9e4928ec75d40a10","665500ab8938657b03fbdba8","665792c27c36d98757dd932e","59","stimuli/10101011.jpg"," ","","feedback_trial","1","","","","","","","","","","","","","","","","","","","","",""
"","","","","","image-keyboard-response","142","567160","0.0-117.0","609ac8ca9e4928ec75d40a10","665500ab8938657b03fbdba8","665792c27c36d98757dd932e","627","stimuli/1111101.jpg","1","","prediction_trial","2","","false","","1","true","true","false","false","false","false","[1,2,0]","111","101","0","","","","","","",""
"","","","","","image-keyboard-response","143","567210","0.0-118.0","609ac8ca9e4928ec75d40a10","665500ab8938657b03fbdba8","665792c27c36d98757dd932e","44","stimuli/11111012.jpg"," ","","feedback_trial","1","","","","","","","","","","","","","","","","","","","","",""
"","","","","","image-keyboard-response","144","567739","0.0-119.0","609ac8ca9e4928ec75d40a10","665500ab8938657b03fbdba8","665792c27c36d98757dd932e","528","stimuli/2000110.jpg","2","","prediction_trial","2","","true","","2","true","true","true","true","true","true","[2]","000","110","1","","","","","","",""
"","","","","","image-keyboard-response","145","567822","0.0-120.0","609ac8ca9e4928ec75d40a10","665500ab8938657b03fbdba8","665792c27c36d98757dd932e","80","stimuli/20001102.jpg"," ","","feedback_trial","2","","","","","","","","","","","","","","","","","","","","",""
"","","","","","image-keyboard-response","146","568375","0.0-121.0","609ac8ca9e4928ec75d40a10","665500ab8938657b03fbdba8","665792c27c36d98757dd932e","551","stimuli/1100100.jpg","1","","prediction_trial","1","","true","","1","true","true","true","true","true","true","[1]","100","100","1","","","","","","",""
"","","","","","image-keyboard-response","147","568420","0.0-122.0","609ac8ca9e4928ec75d40a10","665500ab8938657b03fbdba8","665792c27c36d98757dd932e","40","stimuli/11001001.jpg"," ","","feedback_trial","1","","","","","","","","","","","","","","","","","","","","",""
"","","","","","image-keyboard-response","148","568936","0.0-123.0","609ac8ca9e4928ec75d40a10","665500ab8938657b03fbdba8","665792c27c36d98757dd932e","513","stimuli/2000111.jpg","1","","prediction_trial","2","","false","","2","false","false","true","true","false","false","[2]","000","111","0","","","","","","",""
"","","","","","image-keyboard-response","149","568971","0.0-124.0","609ac8ca9e4928ec75d40a10","665500ab8938657b03fbdba8","665792c27c36d98757dd932e","29","stimuli/20001112.jpg"," ","","feedback_trial","2","","","","","","","","","","","","","","","","","","","","",""
"","","","","","image-keyboard-response","150","569546","0.0-125.0","609ac8ca9e4928ec75d40a10","665500ab8938657b03fbdba8","665792c27c36d98757dd932e","572","stimuli/0110111.jpg","2","","prediction_trial","0","","false","","0","false","false","false","false","false","false","[0,1]","110","111","0","","","","","","",""
"","","","","","image-keyboard-response","151","569646","0.0-126.0","609ac8ca9e4928ec75d40a10","665500ab8938657b03fbdba8","665792c27c36d98757dd932e","97","stimuli/01101110.jpg"," ","","feedback_trial","0","","","","","","","","","","","","","","","","","","","","",""
"","","","","","image-keyboard-response","152","570239","0.0-127.0","609ac8ca9e4928ec75d40a10","665500ab8938657b03fbdba8","665792c27c36d98757dd932e","589","stimuli/2111000.jpg","2","","prediction_trial","1","","false","","2","true","true","false","false","false","false","[1,0,2]","111","000","0","","","","","","",""
"","","","","","image-keyboard-response","153","570316","0.0-128.0","609ac8ca9e4928ec75d40a10","665500ab8938657b03fbdba8","665792c27c36d98757dd932e","72","stimuli/21110001.jpg"," ","","feedback_trial","1","","","","","","","","","","","","","","","","","","","","",""
"","","","","","image-keyboard-response","154","570888","0.0-129.0","609ac8ca9e4928ec75d40a10","665500ab8938657b03fbdba8","665792c27c36d98757dd932e","569","stimuli/1111000.jpg","1","","prediction_trial","2","","false","","1","true","true","false","false","false","false","[2,1,0]","111","000","0","","","","","","",""
"","","","","","image-keyboard-response","155","570940","0.0-130.0","609ac8ca9e4928ec75d40a10","665500ab8938657b03fbdba8","665792c27c36d98757dd932e","49","stimuli/11110002.jpg"," ","","feedback_trial","2","","","","","","","","","","","","","","","","","","","","",""
"","","","","","image-keyboard-response","156","571492","0.0-131.0","609ac8ca9e4928ec75d40a10","665500ab8938657b03fbdba8","665792c27c36d98757dd932e","550","stimuli/1101001.jpg","1","","prediction_trial","1","","true","","1","true","true","true","true","true","true","[1]","101","001","1","","","","","","",""
"","","","","","image-keyboard-response","157","571515","0.0-132.0","609ac8ca9e4928ec75d40a10","665500ab8938657b03fbdba8","665792c27c36d98757dd932e","19","stimuli/11010011.jpg"," ","","feedback_trial","1","","","","","","","","","","","","","","","","","","","","",""
"","","","","","image-keyboard-response","158","572410","0.0-133.0","609ac8ca9e4928ec75d40a10","665500ab8938657b03fbdba8","665792c27c36d98757dd932e","892","stimuli/2100001.jpg","2","","prediction_trial","2","","true","","2","false","true","true","true","false","true","[2]","100","001","1","","","","","","",""
"","","","","","image-keyboard-response","159","572506","0.0-134.0","609ac8ca9e4928ec75d40a10","665500ab8938657b03fbdba8","665792c27c36d98757dd932e","92","stimuli/21000012.jpg"," ","","feedback_trial","2","","","","","","","","","","","","","","","","","","","","",""
"","","","","","image-keyboard-response","160","573243","0.0-135.0","609ac8ca9e4928ec75d40a10","665500ab8938657b03fbdba8","665792c27c36d98757dd932e","734","stimuli/1001100.jpg","1","","prediction_trial","1","","true","","1","true","true","true","true","true","true","[1]","001","100","1","","","","","","",""
"","","","","","image-keyboard-response","161","573288","0.0-136.0","609ac8ca9e4928ec75d40a10","665500ab8938657b03fbdba8","665792c27c36d98757dd932e","35","stimuli/10011001.jpg"," ","","feedback_trial","1","","","","","","","","","","","","","","","","","","","","",""
"","","","","","image-keyboard-response","162","573907","0.0-137.0","609ac8ca9e4928ec75d40a10","665500ab8938657b03fbdba8","665792c27c36d98757dd932e","617","stimuli/1010100.jpg","1","","prediction_trial","1","","true","","1","true","true","false","true","false","true","[1]","010","100","1","","","","","","",""
"","","","","","image-keyboard-response","163","573959","0.0-138.0","609ac8ca9e4928ec75d40a10","665500ab8938657b03fbdba8","665792c27c36d98757dd932e","47","stimuli/10101001.jpg"," ","","feedback_trial","1","","","","","","","","","","","","","","","","","","","","",""
"","","","","","image-keyboard-response","164","574480","0.0-139.0","609ac8ca9e4928ec75d40a10","665500ab8938657b03fbdba8","665792c27c36d98757dd932e","518","stimuli/0010101.jpg","1","","prediction_trial","0","","false","","0","false","false","true","true","false","false","[0]","010","101","0","","","","","","",""
"","","","","","image-keyboard-response","165","576008","0.0-140.0","609ac8ca9e4928ec75d40a10","665500ab8938657b03fbdba8","665792c27c36d98757dd932e","1525","stimuli/00101010.jpg"," ","","feedback_trial","0","","","","","","","","","","","","","","","","","","","","",""
"","","","","","image-keyboard-response","166","577019","0.0-141.0","609ac8ca9e4928ec75d40a10","665500ab8938657b03fbdba8","665792c27c36d98757dd932e","1005","stimuli/1110110.jpg","0","","prediction_trial","1","","false","","1","false","false","false","false","false","false","[1,0]","110","110","0","","","","","","",""
"","","","","","image-keyboard-response","167","577154","0.0-142.0","609ac8ca9e4928ec75d40a10","665500ab8938657b03fbdba8","665792c27c36d98757dd932e","131","stimuli/11101101.jpg"," ","","feedback_trial","1","","","","","","","","","","","","","","","","","","","","",""
"","","","","","image-keyboard-response","168","577959","0.0-143.0","609ac8ca9e4928ec75d40a10","665500ab8938657b03fbdba8","665792c27c36d98757dd932e","800","stimuli/1111111.jpg","1","","prediction_trial","2","","false","","1","false","false","false","false","false","false","[2,1,0]","111","111","0","","","","","","",""
"","","","","","image-keyboard-response","169","578059","0.0-144.0","609ac8ca9e4928ec75d40a10","665500ab8938657b03fbdba8","665792c27c36d98757dd932e","97","stimuli/11111112.jpg"," ","","feedback_trial","2","","","","","","","","","","","","","","","","","","","","",""
"","","","","","image-keyboard-response","170","578582","0.0-145.0","609ac8ca9e4928ec75d40a10","665500ab8938657b03fbdba8","665792c27c36d98757dd932e","505","stimuli/2101100.jpg","2","","prediction_trial","0","","false","","2","true","true","false","false","false","false","[0,2]","101","100","0","","","","","","",""
"","","","","","image-keyboard-response","171","578672","0.0-146.0","609ac8ca9e4928ec75d40a10","665500ab8938657b03fbdba8","665792c27c36d98757dd932e","85","stimuli/21011000.jpg"," ","","feedback_trial","0","","","","","","","","","","","","","","","","","","","","",""
"","","","","","image-keyboard-response","172","579265","0.0-147.0","609ac8ca9e4928ec75d40a10","665500ab8938657b03fbdba8","665792c27c36d98757dd932e","590","stimuli/0011001.jpg","0","","prediction_trial","0","","true","","0","true","true","true","true","true","true","[0]","011","001","1","","","","","","",""
"","","","","","image-keyboard-response","173","579330","0.0-148.0","609ac8ca9e4928ec75d40a10","665500ab8938657b03fbdba8","665792c27c36d98757dd932e","58","stimuli/00110010.jpg"," ","","feedback_trial","0","","","","","","","","","","","","","","","","","","","","",""
"","","","","","image-keyboard-response","174","580192","0.0-149.0","609ac8ca9e4928ec75d40a10","665500ab8938657b03fbdba8","665792c27c36d98757dd932e","859","stimuli/0111100.jpg","0","","prediction_trial","2","","false","","0","false","true","false","false","false","false","[2,0,1]","111","100","0","","","","","","",""
"","","","","","image-keyboard-response","175","580294","0.0-150.0","609ac8ca9e4928ec75d40a10","665500ab8938657b03fbdba8","665792c27c36d98757dd932e","98","stimuli/01111002.jpg"," ","","feedback_trial","2","","","","","","","","","","","","","","","","","","","","",""
"","","","","","image-keyboard-response","176","580775","0.0-151.0","609ac8ca9e4928ec75d40a10","665500ab8938657b03fbdba8","665792c27c36d98757dd932e","477","stimuli/1001110.jpg","2","","prediction_trial","1","","false","","1","false","false","true","true","false","false","[1]","001","110","0","","","","","","",""
"","","","","","image-keyboard-response","177","580868","0.0-152.0","609ac8ca9e4928ec75d40a10","665500ab8938657b03fbdba8","665792c27c36d98757dd932e","88","stimuli/10011101.jpg"," ","","feedback_trial","1","","","","","","","","","","","","","","","","","","","","",""
"","","","","","image-keyboard-response","178","581472","0.0-153.0","609ac8ca9e4928ec75d40a10","665500ab8938657b03fbdba8","665792c27c36d98757dd932e","601","stimuli/0110001.jpg","0","","prediction_trial","0","","true","","0","true","true","false","false","false","false","[0,1]","110","001","1","","","","","","",""
"","","","","","image-keyboard-response","179","581539","0.0-154.0","609ac8ca9e4928ec75d40a10","665500ab8938657b03fbdba8","665792c27c36d98757dd932e","63","stimuli/01100010.jpg"," ","","feedback_trial","0","","","","","","","","","","","","","","","","","","","","",""
"","","","","","image-keyboard-response","180","582122","0.0-155.0","609ac8ca9e4928ec75d40a10","665500ab8938657b03fbdba8","665792c27c36d98757dd932e","580","stimuli/0101001.jpg","0","","prediction_trial","0","","true","","0","true","true","false","false","false","false","[0,2]","101","001","1","","","","","","",""
"","","","","","image-keyboard-response","181","582207","0.0-156.0","609ac8ca9e4928ec75d40a10","665500ab8938657b03fbdba8","665792c27c36d98757dd932e","81","stimuli/01010010.jpg"," ","","feedback_trial","0","","","","","","","","","","","","","","","","","","","","",""
"","","","","","image-keyboard-response","182","583020","0.0-157.0","609ac8ca9e4928ec75d40a10","665500ab8938657b03fbdba8","665792c27c36d98757dd932e","810","stimuli/2100111.jpg","0","","prediction_trial","2","","false","","2","false","false","true","true","false","false","[2]","100","111","0","","","","","","",""
"","","","","","image-keyboard-response","183","584001","0.0-158.0","609ac8ca9e4928ec75d40a10","665500ab8938657b03fbdba8","665792c27c36d98757dd932e","975","stimuli/21001112.jpg"," ","","feedback_trial","2","","","","","","","","","","","","","","","","","","","","",""
"","","","","","image-keyboard-response","184","585653","0.0-159.0","609ac8ca9e4928ec75d40a10","665500ab8938657b03fbdba8","665792c27c36d98757dd932e","1649","stimuli/2101110.jpg","2","","prediction_trial","2","","true","","2","true","true","false","false","false","false","[2,0]","101","110","1","","","","","","",""
"","","","","","image-keyboard-response","185","585752","0.0-160.0","609ac8ca9e4928ec75d40a10","665500ab8938657b03fbdba8","665792c27c36d98757dd932e","95","stimuli/21011102.jpg"," ","","feedback_trial","2","","","","","","","","","","","","","","","","","","","","",""
"","","","","","image-keyboard-response","186","586383","0.0-161.0","609ac8ca9e4928ec75d40a10","665500ab8938657b03fbdba8","665792c27c36d98757dd932e","626","stimuli/0101010.jpg","0","","prediction_trial","2","","false","","0","true","true","false","false","false","false","[0,2]","101","010","0","","","","","","",""
"","","","","","image-keyboard-response","187","586453","0.0-162.0","609ac8ca9e4928ec75d40a10","665500ab8938657b03fbdba8","665792c27c36d98757dd932e","66","stimuli/01010102.jpg"," ","","feedback_trial","0","","","","","","","","","","","","","","","","","","","","",""
"","","","","","image-keyboard-response","188","587015","0.0-163.0","609ac8ca9e4928ec75d40a10","665500ab8938657b03fbdba8","665792c27c36d98757dd932e","543","stimuli/1110000.jpg","1","","prediction_trial","0","","false","","1","true","true","false","false","false","false","[1,0]","110","000","0","","","","","","",""
"","","","","","image-keyboard-response","189","587079","0.0-164.0","609ac8ca9e4928ec75d40a10","665500ab8938657b03fbdba8","665792c27c36d98757dd932e","61","stimuli/11100000.jpg"," ","","feedback_trial","1","","","","","","","","","","","","","","","","","","","","",""
"","","","","","image-keyboard-response","190","587581","0.0-165.0","609ac8ca9e4928ec75d40a10","665500ab8938657b03fbdba8","665792c27c36d98757dd932e","499","stimuli/1011001.jpg","1","","prediction_trial","2","","false","","1","true","true","false","false","false","false","[1,2]","011","001","0","","","","","","",""
"","","","","","image-keyboard-response","191","587670","0.0-166.0","609ac8ca9e4928ec75d40a10","665500ab8938657b03fbdba8","665792c27c36d98757dd932e","84","stimuli/10110012.jpg"," ","","feedback_trial","1","","","","","","","","","","","","","","","","","","","","",""
"","","","","","image-keyboard-response","192","588261","0.0-167.0","609ac8ca9e4928ec75d40a10","665500ab8938657b03fbdba8","665792c27c36d98757dd932e","589","stimuli/0010000.jpg","0","","prediction_trial","0","","true","","0","true","true","true","true","true","true","[0]","010","000","1","","","","","","",""
"","","","","","image-keyboard-response","193","588330","0.0-168.0","609ac8ca9e4928ec75d40a10","665500ab8938657b03fbdba8","665792c27c36d98757dd932e","65","stimuli/00100000.jpg"," ","","feedback_trial","0","","","","","","","","","","","","","","","","","","","","",""
"","","","","","image-keyboard-response","194","588891","0.0-169.0","609ac8ca9e4928ec75d40a10","665500ab8938657b03fbdba8","665792c27c36d98757dd932e","557","stimuli/1001000.jpg","1","","prediction_trial","1","","true","","1","true","true","true","true","true","true","[1]","001","000","1","","","","","","",""
"","","","","","image-keyboard-response","195","588941","0.0-170.0","609ac8ca9e4928ec75d40a10","665500ab8938657b03fbdba8","665792c27c36d98757dd932e","46","stimuli/10010001.jpg"," ","","feedback_trial","1","","","","","","","","","","","","","","","","","","","","",""
"","","","","","image-keyboard-response","196","589458","0.0-171.0","609ac8ca9e4928ec75d40a10","665500ab8938657b03fbdba8","665792c27c36d98757dd932e","514","stimuli/1110101.jpg","1","","prediction_trial","1","","true","","1","true","true","false","false","false","false","[1,0]","110","101","1","","","","","","",""
"","","","","","image-keyboard-response","197","589521","0.0-172.0","609ac8ca9e4928ec75d40a10","665500ab8938657b03fbdba8","665792c27c36d98757dd932e","57","stimuli/11101011.jpg"," ","","feedback_trial","1","","","","","","","","","","","","","","","","","","","","",""
"","","","","","image-keyboard-response","198","590056","0.0-173.0","609ac8ca9e4928ec75d40a10","665500ab8938657b03fbdba8","665792c27c36d98757dd932e","533","stimuli/2010100.jpg","2","","prediction_trial","2","","true","","2","true","true","true","true","true","true","[2]","010","100","1","","","","","","",""
"","","","","","image-keyboard-response","199","590114","0.0-174.0","609ac8ca9e4928ec75d40a10","665500ab8938657b03fbdba8","665792c27c36d98757dd932e","52","stimuli/20101002.jpg"," ","","feedback_trial","2","","","","","","","","","","","","","","","","","","","","",""
"","","","","","image-keyboard-response","200","590637","0.0-175.0","609ac8ca9e4928ec75d40a10","665500ab8938657b03fbdba8","665792c27c36d98757dd932e","520","stimuli/1000000.jpg","1","","prediction_trial","1","","true","","1","true","true","true","true","true","true","[1]","000","000","1","","","","","","",""
"","","","","","image-keyboard-response","201","590726","0.0-176.0","609ac8ca9e4928ec75d40a10","665500ab8938657b03fbdba8","665792c27c36d98757dd932e","83","stimuli/10000001.jpg"," ","","feedback_trial","1","","","","","","","","","","","","","","","","","","","","",""
"","","","","","image-keyboard-response","202","591498","0.0-177.0","609ac8ca9e4928ec75d40a10","665500ab8938657b03fbdba8","665792c27c36d98757dd932e","770","stimuli/2011001.jpg","2","","prediction_trial","1","","false","","2","false","true","false","false","false","false","[1,2]","011","001","0","","","","","","",""
"","","","","","image-keyboard-response","203","591560","0.0-178.0","609ac8ca9e4928ec75d40a10","665500ab8938657b03fbdba8","665792c27c36d98757dd932e","58","stimuli/20110011.jpg"," ","","feedback_trial","1","","","","","","","","","","","","","","","","","","","","",""
"","","","","","image-keyboard-response","204","592162","0.0-179.0","609ac8ca9e4928ec75d40a10","665500ab8938657b03fbdba8","665792c27c36d98757dd932e","599","stimuli/0111010.jpg","0","","prediction_trial","0","","true","","0","true","true","false","false","false","false","[1,2,0]","111","010","1","","","","","","",""
"","","","","","image-keyboard-response","205","592232","0.0-180.0","609ac8ca9e4928ec75d40a10","665500ab8938657b03fbdba8","665792c27c36d98757dd932e","64","stimuli/01110100.jpg"," ","","feedback_trial","1","","","","","","","","","","","","","","","","","","","","",""
"","","","","","image-keyboard-response","206","592988","0.0-181.0","609ac8ca9e4928ec75d40a10","665500ab8938657b03fbdba8","665792c27c36d98757dd932e","739","stimuli/2011111.jpg","0","","prediction_trial","1","","false","","2","false","false","false","false","false","false","[1,2]","011","111","0","","","","","","",""
"","","","","","image-keyboard-response","207","593004","0.0-182.0","609ac8ca9e4928ec75d40a10","665500ab8938657b03fbdba8","665792c27c36d98757dd932e","12","stimuli/20111111.jpg"," ","","feedback_trial","1","","","","","","","","","","","","","","","","","","","","",""
"","","","","","image-keyboard-response","208","593989","0.0-183.0","609ac8ca9e4928ec75d40a10","665500ab8938657b03fbdba8","665792c27c36d98757dd932e","980","stimuli/2100011.jpg","2","","prediction_trial","2","","true","","2","false","false","true","true","false","false","[2]","100","011","1","","","","","","",""
"","","","","","image-keyboard-response","209","594036","0.0-184.0","609ac8ca9e4928ec75d40a10","665500ab8938657b03fbdba8","665792c27c36d98757dd932e","42","stimuli/21000112.jpg"," ","","feedback_trial","2","","","","","","","","","","","","","","","","","","","","",""
"","","","","","image-keyboard-response","210","594607","0.0-185.0","609ac8ca9e4928ec75d40a10","665500ab8938657b03fbdba8","665792c27c36d98757dd932e","568","stimuli/1101100.jpg","1","","prediction_trial","1","","true","","1","true","true","true","true","true","true","[1]","101","100","1","","","","","","",""
"","","","","","image-keyboard-response","211","594665","0.0-186.0","609ac8ca9e4928ec75d40a10","665500ab8938657b03fbdba8","665792c27c36d98757dd932e","54","stimuli/11011001.jpg"," ","","feedback_trial","1","","","","","","","","","","","","","","","","","","","","",""
"","","","","","image-keyboard-response","212","595187","0.0-187.0","609ac8ca9e4928ec75d40a10","665500ab8938657b03fbdba8","665792c27c36d98757dd932e","519","stimuli/1101101.jpg","1","","prediction_trial","1","","true","","1","true","true","true","true","true","true","[1]","101","101","1","","","","","","",""
"","","","","","image-keyboard-response","213","595308","0.0-188.0","609ac8ca9e4928ec75d40a10","665500ab8938657b03fbdba8","665792c27c36d98757dd932e","117","stimuli/11011011.jpg"," ","","feedback_trial","1","","","","","","","","","","","","","","","","","","","","",""
"","","","","","image-keyboard-response","214","596153","0.0-189.0","609ac8ca9e4928ec75d40a10","665500ab8938657b03fbdba8","665792c27c36d98757dd932e","841","stimuli/0100100.jpg","0","","prediction_trial","0","","true","","0","false","true","false","true","false","true","[0]","100","100","1","","","","","","",""
"","","","","","image-keyboard-response","215","596219","0.0-190.0","609ac8ca9e4928ec75d40a10","665500ab8938657b03fbdba8","665792c27c36d98757dd932e","60","stimuli/01001000.jpg"," ","","feedback_trial","0","","","","","","","","","","","","","","","","","","","","",""
"","","","","","image-keyboard-response","216","597052","0.0-191.0","609ac8ca9e4928ec75d40a10","665500ab8938657b03fbdba8","665792c27c36d98757dd932e","829","stimuli/0001000.jpg","0","","prediction_trial","0","","true","","0","true","true","true","true","true","true","[0]","001","000","1","","","","","","",""
"","","","","","image-keyboard-response","217","597140","0.0-192.0","609ac8ca9e4928ec75d40a10","665500ab8938657b03fbdba8","665792c27c36d98757dd932e","81","stimuli/00010000.jpg"," ","","feedback_trial","0","","","","","","","","","","","","","","","","","","","","",""
"","","","","","image-keyboard-response","218","597762","0.0-193.0","609ac8ca9e4928ec75d40a10","665500ab8938657b03fbdba8","665792c27c36d98757dd932e","620","stimuli/2111110.jpg","2","","prediction_trial","0","","false","","2","true","true","false","false","false","false","[2,0,1]","111","110","0","","","","","","",""
"","","","","","image-keyboard-response","219","597849","0.0-194.0","609ac8ca9e4928ec75d40a10","665500ab8938657b03fbdba8","665792c27c36d98757dd932e","85","stimuli/21111100.jpg"," ","","feedback_trial","2","","","","","","","","","","","","","","","","","","","","",""
"","","","","","image-keyboard-response","220","598929","0.0-195.0","609ac8ca9e4928ec75d40a10","665500ab8938657b03fbdba8","665792c27c36d98757dd932e","1078","stimuli/1000011.jpg","2","","prediction_trial","1","","false","","1","false","false","true","true","false","false","[1]","000","011","0","","","","","","",""
"","","","","","image-keyboard-response","221","598965","0.0-196.0","609ac8ca9e4928ec75d40a10","665500ab8938657b03fbdba8","665792c27c36d98757dd932e","30","stimuli/10000111.jpg"," ","","feedback_trial","1","","","","","","","","","","","","","","","","","","","","",""
"","","","","","image-keyboard-response","222","599988","0.0-197.0","609ac8ca9e4928ec75d40a10","665500ab8938657b03fbdba8","665792c27c36d98757dd932e","1021","stimuli/0100110.jpg","1","","prediction_trial","0","","false","","0","false","false","false","true","false","false","[0]","100","110","0","","","","","","",""
"","","","","","image-keyboard-response","223","600065","0.0-198.0","609ac8ca9e4928ec75d40a10","665500ab8938657b03fbdba8","665792c27c36d98757dd932e","71","stimuli/01001100.jpg"," ","","feedback_trial","0","","","","","","","","","","","","","","","","","","","","",""
"","","","","","image-keyboard-response","224","602420","0.0-199.0","609ac8ca9e4928ec75d40a10","665500ab8938657b03fbdba8","665792c27c36d98757dd932e","2338","stimuli/1001011.jpg","1","","prediction_trial","1","","true","","1","false","false","true","true","false","false","[1]","001","011","1","","","","","","",""
"","","","","","image-keyboard-response","225","602479","0.0-200.0","609ac8ca9e4928ec75d40a10","665500ab8938657b03fbdba8","665792c27c36d98757dd932e","55","stimuli/10010111.jpg"," ","","feedback_trial","1","","","","","","","","","","","","","","","","","","","","",""
"","","","","","image-keyboard-response","226","603012","0.0-201.0","609ac8ca9e4928ec75d40a10","665500ab8938657b03fbdba8","665792c27c36d98757dd932e","531","stimuli/1101000.jpg","1","","prediction_trial","1","","true","","1","true","true","true","true","true","true","[1]","101","000","1","","","","","","",""
"","","","","","image-keyboard-response","227","603056","0.0-202.0","609ac8ca9e4928ec75d40a10","665500ab8938657b03fbdba8","665792c27c36d98757dd932e","38","stimuli/11010001.jpg"," ","","feedback_trial","1","","","","","","","","","","","","","","","","","","","","",""
"","","","","","image-keyboard-response","228","604663","0.0-203.0","609ac8ca9e4928ec75d40a10","665500ab8938657b03fbdba8","665792c27c36d98757dd932e","1602","stimuli/2101111.jpg","1","","prediction_trial","0","","false","","2","false","false","false","false","false","false","[0,2]","101","111","0","","","","","","",""
"","","","","","image-keyboard-response","229","604704","0.0-204.0","609ac8ca9e4928ec75d40a10","665500ab8938657b03fbdba8","665792c27c36d98757dd932e","37","stimuli/21011110.jpg"," ","","feedback_trial","0","","","","","","","","","","","","","","","","","","","","",""
"","","","","","image-keyboard-response","230","605278","0.0-205.0","609ac8ca9e4928ec75d40a10","665500ab8938657b03fbdba8","665792c27c36d98757dd932e","572","stimuli/1100101.jpg","1","","prediction_trial","1","","true","","1","true","true","true","true","true","true","[1]","100","101","1","","","","","","",""
"","","","","","image-keyboard-response","231","605344","0.0-206.0","609ac8ca9e4928ec75d40a10","665500ab8938657b03fbdba8","665792c27c36d98757dd932e","60","stimuli/11001011.jpg"," ","","feedback_trial","1","","","","","","","","","","","","","","","","","","","","",""
"","","","","","image-keyboard-response","232","606288","0.0-207.0","609ac8ca9e4928ec75d40a10","665500ab8938657b03fbdba8","665792c27c36d98757dd932e","942","stimuli/2000101.jpg","2","","prediction_trial","2","","true","","2","false","false","true","true","false","false","[2]","000","101","1","","","","","","",""
"","","","","","image-keyboard-response","233","606368","0.0-208.0","609ac8ca9e4928ec75d40a10","665500ab8938657b03fbdba8","665792c27c36d98757dd932e","74","stimuli/20001012.jpg"," ","","feedback_trial","2","","","","","","","","","","","","","","","","","","","","",""
"","","","","","image-keyboard-response","234","606955","0.0-209.0","609ac8ca9e4928ec75d40a10","665500ab8938657b03fbdba8","665792c27c36d98757dd932e","585","stimuli/2101001.jpg","2","","prediction_trial","0","","false","","2","false","true","false","false","false","false","[2,0]","101","001","0","","","","","","",""
"","","","","","image-keyboard-response","235","607071","0.0-210.0","609ac8ca9e4928ec75d40a10","665500ab8938657b03fbdba8","665792c27c36d98757dd932e","113","stimuli/21010010.jpg"," ","","feedback_trial","2","","","","","","","","","","","","","","","","","","","","",""
"","","","","","image-keyboard-response","236","607901","0.0-211.0","609ac8ca9e4928ec75d40a10","665500ab8938657b03fbdba8","665792c27c36d98757dd932e","828","stimuli/2101011.jpg","2","","prediction_trial","0","","false","","2","false","false","false","false","false","false","[0,2]","101","011","0","","","","","","",""
"","","","","","image-keyboard-response","237","607977","0.0-212.0","609ac8ca9e4928ec75d40a10","665500ab8938657b03fbdba8","665792c27c36d98757dd932e","73","stimuli/21010110.jpg"," ","","feedback_trial","0","","","","","","","","","","","","","","","","","","","","",""
"","","","","","image-keyboard-response","238","608546","0.0-213.0","609ac8ca9e4928ec75d40a10","665500ab8938657b03fbdba8","665792c27c36d98757dd932e","567","stimuli/2001011.jpg","2","","prediction_trial","2","","true","","2","false","false","false","true","false","false","[2]","001","011","1","","","","","","",""
"","","","","","image-keyboard-response","239","608649","0.0-214.0","609ac8ca9e4928ec75d40a10","665500ab8938657b03fbdba8","665792c27c36d98757dd932e","100","stimuli/20010112.jpg"," ","","feedback_trial","2","","","","","","","","","","","","","","","","","","","","",""
"","","","","","image-keyboard-response","240","609354","0.0-215.0","609ac8ca9e4928ec75d40a10","665500ab8938657b03fbdba8","665792c27c36d98757dd932e","702","stimuli/2010011.jpg","1","","prediction_trial","2","","false","","2","false","false","true","true","false","false","[2]","010","011","0","","","","","","",""
"","","","","","image-keyboard-response","241","609397","0.0-216.0","609ac8ca9e4928ec75d40a10","665500ab8938657b03fbdba8","665792c27c36d98757dd932e","38","stimuli/20100112.jpg"," ","","feedback_trial","2","","","","","","","","","","","","","","","","","","","","",""
"","","","","","image-keyboard-response","242","610875","0.0-217.0","609ac8ca9e4928ec75d40a10","665500ab8938657b03fbdba8","665792c27c36d98757dd932e","1461","stimuli/0101110.jpg","1","","prediction_trial","2","","false","","0","false","false","false","false","false","false","[2,0]","101","110","0","","","","","","",""
"","","","","","image-keyboard-response","243","610932","0.0-218.0","609ac8ca9e4928ec75d40a10","665500ab8938657b03fbdba8","665792c27c36d98757dd932e","51","stimuli/01011102.jpg"," ","","feedback_trial","2","","","","","","","","","","","","","","","","","","","","",""
"","","","","","image-keyboard-response","244","612037","0.0-219.0","609ac8ca9e4928ec75d40a10","665500ab8938657b03fbdba8","665792c27c36d98757dd932e","1102","stimuli/2001111.jpg","1","","prediction_trial","2","","false","","2","false","false","false","true","false","false","[2]","001","111","0","","","","","","",""
"","","","","","image-keyboard-response","245","612080","0.0-220.0","609ac8ca9e4928ec75d40a10","665500ab8938657b03fbdba8","665792c27c36d98757dd932e","39","stimuli/20011112.jpg"," ","","feedback_trial","2","","","","","","","","","","","","","","","","","","","","",""
"","","","","","image-keyboard-response","246","612623","0.0-221.0","609ac8ca9e4928ec75d40a10","665500ab8938657b03fbdba8","665792c27c36d98757dd932e","541","stimuli/1001001.jpg","1","","prediction_trial","1","","true","","1","true","true","true","true","true","true","[1]","001","001","1","","","","","","",""
"","","","","","image-keyboard-response","247","612714","0.0-222.0","609ac8ca9e4928ec75d40a10","665500ab8938657b03fbdba8","665792c27c36d98757dd932e","88","stimuli/10010011.jpg"," ","","feedback_trial","1","","","","","","","","","","","","","","","","","","","","",""
"","","","","","image-keyboard-response","248","613251","0.0-223.0","609ac8ca9e4928ec75d40a10","665500ab8938657b03fbdba8","665792c27c36d98757dd932e","534","stimuli/2011010.jpg","2","","prediction_trial","2","","true","","2","true","true","false","false","false","false","[1,2]","011","010","1","","","","","","",""
"","","","","","image-keyboard-response","249","613323","0.0-224.0","609ac8ca9e4928ec75d40a10","665500ab8938657b03fbdba8","665792c27c36d98757dd932e","66","stimuli/20110102.jpg"," ","","feedback_trial","1","","","","","","","","","","","","","","","","","","","","",""
"","","","","","image-keyboard-response","250","613838","0.0-225.0","609ac8ca9e4928ec75d40a10","665500ab8938657b03fbdba8","665792c27c36d98757dd932e","512","stimuli/1010001.jpg","1","","prediction_trial","1","","true","","1","true","true","false","true","false","true","[1]","010","001","1","","","","","","",""
"","","","","","image-keyboard-response","251","613907","0.0-226.0","609ac8ca9e4928ec75d40a10","665500ab8938657b03fbdba8","665792c27c36d98757dd932e","64","stimuli/10100011.jpg"," ","","feedback_trial","1","","","","","","","","","","","","","","","","","","","","",""
"","","","","","image-keyboard-response","252","614561","0.0-227.0","609ac8ca9e4928ec75d40a10","665500ab8938657b03fbdba8","665792c27c36d98757dd932e","652","stimuli/0011010.jpg","0","","prediction_trial","0","","true","","0","true","true","true","true","true","true","[0]","011","010","1","","","","","","",""
"","","","","","image-keyboard-response","253","614641","0.0-228.0","609ac8ca9e4928ec75d40a10","665500ab8938657b03fbdba8","665792c27c36d98757dd932e","77","stimuli/00110100.jpg"," ","","feedback_trial","0","","","","","","","","","","","","","","","","","","","","",""
"","","","","","image-keyboard-response","254","615256","0.0-229.0","609ac8ca9e4928ec75d40a10","665500ab8938657b03fbdba8","665792c27c36d98757dd932e","611","stimuli/0100010.jpg","0","","prediction_trial","0","","true","","0","true","true","false","true","false","true","[0]","100","010","1","","","","","","",""
"","","","","","image-keyboard-response","255","615327","0.0-230.0","609ac8ca9e4928ec75d40a10","665500ab8938657b03fbdba8","665792c27c36d98757dd932e","68","stimuli/01000100.jpg"," ","","feedback_trial","0","","","","","","","","","","","","","","","","","","","","",""
"","","","","","image-keyboard-response","256","615955","0.0-231.0","609ac8ca9e4928ec75d40a10","665500ab8938657b03fbdba8","665792c27c36d98757dd932e","625","stimuli/1011000.jpg","1","","prediction_trial","2","","false","","1","true","true","false","false","false","false","[2,1]","011","000","0","","","","","","",""
"","","","","","image-keyboard-response","257","615996","0.0-232.0","609ac8ca9e4928ec75d40a10","665500ab8938657b03fbdba8","665792c27c36d98757dd932e","38","stimuli/10110002.jpg"," ","","feedback_trial","2","","","","","","","","","","","","","","","","","","","","",""
"","","","","","image-keyboard-response","258","616595","0.0-233.0","609ac8ca9e4928ec75d40a10","665500ab8938657b03fbdba8","665792c27c36d98757dd932e","596","stimuli/2010111.jpg","2","","prediction_trial","2","","true","","2","false","false","true","true","false","false","[2]","010","111","1","","","","","","",""
"","","","","","image-keyboard-response","259","616670","0.0-234.0","609ac8ca9e4928ec75d40a10","665500ab8938657b03fbdba8","665792c27c36d98757dd932e","72","stimuli/20101112.jpg"," ","","feedback_trial","2","","","","","","","","","","","","","","","","","","","","",""
"","","","","","image-keyboard-response","260","617140","0.0-235.0","609ac8ca9e4928ec75d40a10","665500ab8938657b03fbdba8","665792c27c36d98757dd932e","462","stimuli/1110001.jpg","1","","prediction_trial","1","","true","","1","true","true","false","false","false","false","[1,0]","110","001","1","","","","","","",""
"","","","","","image-keyboard-response","261","617197","0.0-236.0","609ac8ca9e4928ec75d40a10","665500ab8938657b03fbdba8","665792c27c36d98757dd932e","53","stimuli/11100011.jpg"," ","","feedback_trial","1","","","","","","","","","","","","","","","","","","","","",""
"","","","","","image-keyboard-response","262","617779","0.0-237.0","609ac8ca9e4928ec75d40a10","665500ab8938657b03fbdba8","665792c27c36d98757dd932e","572","stimuli/0001001.jpg","0","","prediction_trial","0","","true","","0","true","true","true","true","true","true","[0]","001","001","1","","","","","","",""
"","","","","","image-keyboard-response","263","617843","0.0-238.0","609ac8ca9e4928ec75d40a10","665500ab8938657b03fbdba8","665792c27c36d98757dd932e","62","stimuli/00010010.jpg"," ","","feedback_trial","0","","","","","","","","","","","","","","","","","","","","",""
"","","","","","image-keyboard-response","264","618415","0.0-239.0","609ac8ca9e4928ec75d40a10","665500ab8938657b03fbdba8","665792c27c36d98757dd932e","568","stimuli/0111001.jpg","0","","prediction_trial","1","","false","","0","true","true","false","false","false","false","[2,1,0]","111","001","0","","","","","","",""
"","","","","","image-keyboard-response","265","618445","0.0-240.0","609ac8ca9e4928ec75d40a10","665500ab8938657b03fbdba8","665792c27c36d98757dd932e","23","stimuli/01110011.jpg"," ","","feedback_trial","2","","","","","","","","","","","","","","","","","","","","",""
"","","","","","image-keyboard-response","266","619254","0.0-241.0","609ac8ca9e4928ec75d40a10","665500ab8938657b03fbdba8","665792c27c36d98757dd932e","805","stimuli/0001101.jpg","2","","prediction_trial","0","","false","","0","false","false","true","true","false","false","[0]","001","101","0","","","","","","",""
"","","","","","image-keyboard-response","267","619322","0.0-242.0","609ac8ca9e4928ec75d40a10","665500ab8938657b03fbdba8","665792c27c36d98757dd932e","62","stimuli/00011010.jpg"," ","","feedback_trial","0","","","","","","","","","","","","","","","","","","","","",""
"","","","","","image-keyboard-response","268","619877","0.0-243.0","609ac8ca9e4928ec75d40a10","665500ab8938657b03fbdba8","665792c27c36d98757dd932e","553","stimuli/0000000.jpg","0","","prediction_trial","0","","true","","0","true","true","true","true","true","true","[0]","000","000","1","","","","","","",""
"","","","","","image-keyboard-response","269","619919","0.0-244.0","609ac8ca9e4928ec75d40a10","665500ab8938657b03fbdba8","665792c27c36d98757dd932e","38","stimuli/00000000.jpg"," ","","feedback_trial","0","","","","","","","","","","","","","","","","","","","","",""
"","","","","","image-keyboard-response","270","620570","0.0-245.0","609ac8ca9e4928ec75d40a10","665500ab8938657b03fbdba8","665792c27c36d98757dd932e","648","stimuli/1011011.jpg","2","","prediction_trial","2","","true","","1","false","false","false","false","false","false","[2,1]","011","011","1","","","","","","",""
"","","","","","image-keyboard-response","271","620633","0.0-246.0","609ac8ca9e4928ec75d40a10","665500ab8938657b03fbdba8","665792c27c36d98757dd932e","58","stimuli/10110112.jpg"," ","","feedback_trial","2","","","","","","","","","","","","","","","","","","","","",""
"","","","","","image-keyboard-response","272","621287","0.0-247.0","609ac8ca9e4928ec75d40a10","665500ab8938657b03fbdba8","665792c27c36d98757dd932e","651","stimuli/0001110.jpg","1","","prediction_trial","0","","false","","0","false","false","true","true","false","false","[0]","001","110","0","","","","","","",""
"","","","","","image-keyboard-response","273","621322","0.0-248.0","609ac8ca9e4928ec75d40a10","665500ab8938657b03fbdba8","665792c27c36d98757dd932e","33","stimuli/00011100.jpg"," ","","feedback_trial","0","","","","","","","","","","","","","","","","","","","","",""
"","","","","","image-keyboard-response","274","621796","0.0-249.0","609ac8ca9e4928ec75d40a10","665500ab8938657b03fbdba8","665792c27c36d98757dd932e","470","stimuli/0100001.jpg","0","","prediction_trial","0","","true","","0","true","true","false","true","false","true","[0]","100","001","1","","","","","","",""
"","","","","","image-keyboard-response","275","621890","0.0-250.0","609ac8ca9e4928ec75d40a10","665500ab8938657b03fbdba8","665792c27c36d98757dd932e","87","stimuli/01000010.jpg"," ","","feedback_trial","0","","","","","","","","","","","","","","","","","","","","",""
"","","","","","image-keyboard-response","276","622661","0.0-251.0","609ac8ca9e4928ec75d40a10","665500ab8938657b03fbdba8","665792c27c36d98757dd932e","768","stimuli/0101100.jpg","0","","prediction_trial","0","","true","","0","false","true","false","false","false","false","[2,0]","101","100","1","","","","","","",""
"","","","","","image-keyboard-response","277","622742","0.0-252.0","609ac8ca9e4928ec75d40a10","665500ab8938657b03fbdba8","665792c27c36d98757dd932e","75","stimuli/01011000.jpg"," ","","feedback_trial","2","","","","","","","","","","","","","","","","","","","","",""
"","","","","","image-keyboard-response","278","623402","0.0-253.0","609ac8ca9e4928ec75d40a10","665500ab8938657b03fbdba8","665792c27c36d98757dd932e","644","stimuli/0010001.jpg","0","","prediction_trial","0","","true","","0","true","true","true","true","true","true","[0]","010","001","1","","","","","","",""
"","","","","","image-keyboard-response","279","623462","0.0-254.0","609ac8ca9e4928ec75d40a10","665500ab8938657b03fbdba8","665792c27c36d98757dd932e","53","stimuli/00100010.jpg"," ","","feedback_trial","0","","","","","","","","","","","","","","","","","","","","",""
"","","","","","image-keyboard-response","280","624324","0.0-255.0","609ac8ca9e4928ec75d40a10","665500ab8938657b03fbdba8","665792c27c36d98757dd932e","859","stimuli/0110100.jpg","0","","prediction_trial","0","","true","","0","false","true","false","false","false","false","[1,0]","110","100","1","","","","","","",""
"","","","","","image-keyboard-response","281","624373","0.0-256.0","609ac8ca9e4928ec75d40a10","665500ab8938657b03fbdba8","665792c27c36d98757dd932e","42","stimuli/01101000.jpg"," ","","feedback_trial","1","","","","","","","","","","","","","","","","","","","","",""
"","","","","","image-keyboard-response","282","624863","0.0-257.0","609ac8ca9e4928ec75d40a10","665500ab8938657b03fbdba8","665792c27c36d98757dd932e","488","stimuli/0100011.jpg","0","","prediction_trial","0","","true","","0","true","true","false","true","false","true","[0]","100","011","1","","","","","","",""
"","","","","","image-keyboard-response","283","624973","0.0-258.0","609ac8ca9e4928ec75d40a10","665500ab8938657b03fbdba8","665792c27c36d98757dd932e","105","stimuli/01000110.jpg"," ","","feedback_trial","0","","","","","","","","","","","","","","","","","","","","",""
"","","","","","image-keyboard-response","284","625491","0.0-259.0","609ac8ca9e4928ec75d40a10","665500ab8938657b03fbdba8","665792c27c36d98757dd932e","514","stimuli/2001100.jpg","2","","prediction_trial","2","","true","","2","true","true","false","true","false","true","[2]","001","100","1","","","","","","",""
"","","","","","image-keyboard-response","285","625579","0.0-260.0","609ac8ca9e4928ec75d40a10","665500ab8938657b03fbdba8","665792c27c36d98757dd932e","86","stimuli/20011002.jpg"," ","","feedback_trial","2","","","","","","","","","","","","","","","","","","","","",""
"","","","","","image-keyboard-response","286","626570","0.0-261.0","609ac8ca9e4928ec75d40a10","665500ab8938657b03fbdba8","665792c27c36d98757dd932e","985","stimuli/1101110.jpg","1","","prediction_trial","1","","true","","1","false","false","true","true","false","false","[1]","101","110","1","","","","","","",""
"","","","","","image-keyboard-response","287","626636","0.0-262.0","609ac8ca9e4928ec75d40a10","665500ab8938657b03fbdba8","665792c27c36d98757dd932e","62","stimuli/11011101.jpg"," ","","feedback_trial","1","","","","","","","","","","","","","","","","","","","","",""
"","","","","","image-keyboard-response","288","627435","0.0-263.0","609ac8ca9e4928ec75d40a10","665500ab8938657b03fbdba8","665792c27c36d98757dd932e","797","stimuli/0011110.jpg","0","","prediction_trial","0","","true","","0","false","false","true","true","false","false","[0]","011","110","1","","","","","","",""
"","","","","","image-keyboard-response","289","627488","0.0-264.0","609ac8ca9e4928ec75d40a10","665500ab8938657b03fbdba8","665792c27c36d98757dd932e","47","stimuli/00111100.jpg"," ","","feedback_trial","0","","","","","","","","","","","","","","","","","","","","",""
"","","","","","image-keyboard-response","290","628459","0.0-265.0","609ac8ca9e4928ec75d40a10","665500ab8938657b03fbdba8","665792c27c36d98757dd932e","969","stimuli/2101101.jpg","2","","prediction_trial","2","","true","","2","false","false","false","false","false","false","[0,2]","101","101","1","","","","","","",""
"","","","","","image-keyboard-response","291","628509","0.0-266.0","609ac8ca9e4928ec75d40a10","665500ab8938657b03fbdba8","665792c27c36d98757dd932e","45","stimuli/21011012.jpg"," ","","feedback_trial","0","","","","","","","","","","","","","","","","","","","","",""
"","","","","","image-keyboard-response","292","629094","0.0-267.0","609ac8ca9e4928ec75d40a10","665500ab8938657b03fbdba8","665792c27c36d98757dd932e","581","stimuli/1000001.jpg","1","","prediction_trial","1","","true","","1","true","true","true","true","true","true","[1]","000","001","1","","","","","","",""
"","","","","","image-keyboard-response","293","629148","0.0-268.0","609ac8ca9e4928ec75d40a10","665500ab8938657b03fbdba8","665792c27c36d98757dd932e","49","stimuli/10000011.jpg"," ","","feedback_trial","1","","","","","","","","","","","","","","","","","","","","",""
"","","","","","image-keyboard-response","294","629871","0.0-269.0","609ac8ca9e4928ec75d40a10","665500ab8938657b03fbdba8","665792c27c36d98757dd932e","721","stimuli/0000101.jpg","2","","prediction_trial","0","","false","","0","false","false","true","true","false","false","[0]","000","101","0","","","","","","",""
"","","","","","image-keyboard-response","295","629940","0.0-270.0","609ac8ca9e4928ec75d40a10","665500ab8938657b03fbdba8","665792c27c36d98757dd932e","65","stimuli/00001010.jpg"," ","","feedback_trial","0","","","","","","","","","","","","","","","","","","","","",""
"","","","","","image-keyboard-response","296","630454","0.0-271.0","609ac8ca9e4928ec75d40a10","665500ab8938657b03fbdba8","665792c27c36d98757dd932e","499","stimuli/2001110.jpg","2","","prediction_trial","2","","true","","2","true","true","false","true","false","true","[2]","001","110","1","","","","","","",""
"","","","","","image-keyboard-response","297","630514","0.0-272.0","609ac8ca9e4928ec75d40a10","665500ab8938657b03fbdba8","665792c27c36d98757dd932e","53","stimuli/20011102.jpg"," ","","feedback_trial","2","","","","","","","","","","","","","","","","","","","","",""
"","","","","","image-keyboard-response","298","631540","0.0-273.0","609ac8ca9e4928ec75d40a10","665500ab8938657b03fbdba8","665792c27c36d98757dd932e","1024","stimuli/0010100.jpg","0","","prediction_trial","0","","true","","0","false","true","true","true","false","true","[0]","010","100","1","","","","","","",""
"","","","","","image-keyboard-response","299","631607","0.0-274.0","609ac8ca9e4928ec75d40a10","665500ab8938657b03fbdba8","665792c27c36d98757dd932e","64","stimuli/00101000.jpg"," ","","feedback_trial","0","","","","","","","","","","","","","","","","","","","","",""
"","","","","","image-keyboard-response","300","632208","0.0-275.0","609ac8ca9e4928ec75d40a10","665500ab8938657b03fbdba8","665792c27c36d98757dd932e","599","stimuli/2111010.jpg","2","","prediction_trial","1","","false","","2","true","true","false","false","false","false","[0,2,1]","111","010","0","","","","","","",""
"","","","","","image-keyboard-response","301","632271","0.0-276.0","609ac8ca9e4928ec75d40a10","665500ab8938657b03fbdba8","665792c27c36d98757dd932e","59","stimuli/21110101.jpg"," ","","feedback_trial","0","","","","","","","","","","","","","","","","","","","","",""
"","","","","","image-keyboard-response","302","633419","0.0-277.0","609ac8ca9e4928ec75d40a10","665500ab8938657b03fbdba8","665792c27c36d98757dd932e","1145","stimuli/0100111.jpg","1","","prediction_trial","0","","false","","0","false","false","false","true","false","false","[0]","100","111","0","","","","","","",""
"","","","","","image-keyboard-response","303","633569","0.0-278.0","609ac8ca9e4928ec75d40a10","665500ab8938657b03fbdba8","665792c27c36d98757dd932e","147","stimuli/01001110.jpg"," ","","feedback_trial","0","","","","","","","","","","","","","","","","","","","","",""
"","","","","","image-keyboard-response","304","634080","0.0-279.0","609ac8ca9e4928ec75d40a10","665500ab8938657b03fbdba8","665792c27c36d98757dd932e","508","stimuli/0000011.jpg","0","","prediction_trial","0","","true","","0","true","true","true","true","true","true","[0]","000","011","1","","","","","","",""
"","","","","","image-keyboard-response","305","634195","0.0-280.0","609ac8ca9e4928ec75d40a10","665500ab8938657b03fbdba8","665792c27c36d98757dd932e","106","stimuli/00000110.jpg"," ","","feedback_trial","0","","","","","","","","","","","","","","","","","","","","",""
"","","","","","image-keyboard-response","306","634727","0.0-281.0","609ac8ca9e4928ec75d40a10","665500ab8938657b03fbdba8","665792c27c36d98757dd932e","529","stimuli/0010011.jpg","0","","prediction_trial","0","","true","","0","true","true","true","true","true","true","[0]","010","011","1","","","","","","",""
"","","","","","image-keyboard-response","307","634807","0.0-282.0","609ac8ca9e4928ec75d40a10","665500ab8938657b03fbdba8","665792c27c36d98757dd932e","73","stimuli/00100110.jpg"," ","","feedback_trial","0","","","","","","","","","","","","","","","","","","","","",""
"","","","","","image-keyboard-response","308","635462","0.0-283.0","609ac8ca9e4928ec75d40a10","665500ab8938657b03fbdba8","665792c27c36d98757dd932e","653","stimuli/0111011.jpg","0","","prediction_trial","1","","false","","0","true","true","false","false","false","false","[1,0,2]","111","011","0","","","","","","",""
"","","","","","image-keyboard-response","309","635520","0.0-284.0","609ac8ca9e4928ec75d40a10","665500ab8938657b03fbdba8","665792c27c36d98757dd932e","54","stimuli/01110111.jpg"," ","","feedback_trial","1","","","","","","","","","","","","","","","","","","","","",""
"","","","","","image-keyboard-response","310","636130","0.0-285.0","609ac8ca9e4928ec75d40a10","665500ab8938657b03fbdba8","665792c27c36d98757dd932e","607","stimuli/1100000.jpg","1","","prediction_trial","1","","true","","1","true","true","true","true","true","true","[1]","100","000","1","","","","","","",""
"","","","","","image-keyboard-response","311","636321","0.0-286.0","609ac8ca9e4928ec75d40a10","665500ab8938657b03fbdba8","665792c27c36d98757dd932e","186","stimuli/11000001.jpg"," ","","feedback_trial","1","","","","","","","","","","","","","","","","","","","","",""
"","","","","","image-keyboard-response","312","636760","0.0-287.0","609ac8ca9e4928ec75d40a10","665500ab8938657b03fbdba8","665792c27c36d98757dd932e","433","stimuli/1000101.jpg","1","","prediction_trial","1","","true","","1","true","true","true","true","true","true","[1]","000","101","1","","","","","","",""
"","","","","","image-keyboard-response","313","636880","0.0-288.0","609ac8ca9e4928ec75d40a10","665500ab8938657b03fbdba8","665792c27c36d98757dd932e","115","stimuli/10001011.jpg"," ","","feedback_trial","1","","","","","","","","","","","","","","","","","","","","",""
"","","","","","image-keyboard-response","314","637468","0.0-289.0","609ac8ca9e4928ec75d40a10","665500ab8938657b03fbdba8","665792c27c36d98757dd932e","574","stimuli/2101000.jpg","2","","prediction_trial","2","","true","","2","true","true","false","false","false","false","[0,2]","101","000","1","","","","","","",""
"","","","","","image-keyboard-response","315","637591","0.0-290.0","609ac8ca9e4928ec75d40a10","665500ab8938657b03fbdba8","665792c27c36d98757dd932e","120","stimuli/21010002.jpg"," ","","feedback_trial","0","","","","","","","","","","","","","","","","","","","","",""
"","","","","","image-keyboard-response","316","638034","0.0-291.0","609ac8ca9e4928ec75d40a10","665500ab8938657b03fbdba8","665792c27c36d98757dd932e","438","stimuli/2100000.jpg","2","","prediction_trial","2","","true","","2","true","true","true","true","true","true","[2]","100","000","1","","","","","","",""
"","","","","","image-keyboard-response","317","638118","0.0-292.0","609ac8ca9e4928ec75d40a10","665500ab8938657b03fbdba8","665792c27c36d98757dd932e","78","stimuli/21000002.jpg"," ","","feedback_trial","2","","","","","","","","","","","","","","","","","","","","",""
"","","","","","survey-html-form","318","648919","0.0-293.0","609ac8ca9e4928ec75d40a10","665500ab8938657b03fbdba8","665792c27c36d98757dd932e","10796","","{""feedback"":"""",""age"":""36"",""gender"":""Male"",""other_gender"":"""",""race"":""White"",""other_race"":"""",""ethnicity"":""Non-Hispanic""}","","exit_survey","","","","","","","","","","","","","","","","","36","Non-Hispanic","Male","White","0.6388888888888888","0.6388888888888888"
