"success","timeout","failed_images","failed_audio","failed_video","trial_type","trial_index","time_elapsed","internal_node_id","prolific_id","prolific_study_id","prolific_session_id","rt","stimulus","response","view_history","trial","character_choice","stimulus_dict","accuracy","correct_response","ball_pos","ego_ball_visible","ego_can_infer","alter_ball_visible","alter_can_infer","collective_ball_visible","collective_can_infer","search_locations","alter_occluders","ego_occluders","accuracy_bool","feedback","age","ethnicity","gender","race","overall_accuracy","bonus"
"true","false","[]","[]","[]","preload","0","13657","0.0-0.0","6505afbedfdaf655c3cb53fb","665500ab8938657b03fbdba8","665792a594beed4f44ddd55a","","","","","","","","","","","","","","","","","","","","","","","","","","",""
"true","","","","","fullscreen","1","20614","0.0-1.0","6505afbedfdaf655c3cb53fb","665500ab8938657b03fbdba8","665792a594beed4f44ddd55a","","","","","","","","","","","","","","","","","","","","","","","","","","",""
"","","","","","html-button-response","2","24117","0.0-2.0","6505afbedfdaf655c3cb53fb","665500ab8938657b03fbdba8","665792a594beed4f44ddd55a","3500","<p><b>Consent Form</b></p> <div style=""text-align:left;background-color:lightgrey; padding:20px; max-width:900px;""><p>Please consider this information carefully before deciding whether to participate in this research.</p> <p>The purpose of this research is to examine which factors influence social judgment and decision-making. You will be asked to make judgements about individuals and actions in social scenarios. We are simply interested in your judgement. The study will take less than 1 hour to complete, and you will receive less than $20 on Prolific. Your compensation and time commitment are specified in the study description. There are no anticipated risks associated with participating in this study. The effects of participating should be comparable to those you would ordinarily experience from viewing a computer monitor and using a mouse or keyboard for a similar amount of time. At the end of the study, we will provide an explanation of the questions that motivate this line of research and will describe the potential implications. </p><p> Your participation in this study is completely voluntary and you may refuse to participate or you may choose to withdraw at any time without penalty or loss of benefits to you which are otherwise entitled. Your participation in this study will remain confidential. No personally identifiable information will be associated with your data. Also, all analyses of the data will be averaged across all the participants, so your individual responses will never be specifically analyzed. </p><p> If you have questions or concerns about your participation or payment, or want to request a summary of research findings, please contact Dr. Jonathan Phillips at Jonathan.S.Phillips@dartmouth.edu. </p><p> Please save a copy of this form for your records. </p><p><b>Agreement: </b>The nature and purpose of this research have been sufficiently explained and I agree to participate in this study. I understand that I am free to withdraw at any time without incurring any penalty. Please consent by clicking the button below to continue. Otherwise, please exit the study at any time. </p>","0","","","","","","","","","","","","","","","","","","","","","","","",""
"","","","","","instructions","3","73337","0.0-3.0-0.0","6505afbedfdaf655c3cb53fb","665500ab8938657b03fbdba8","665792a594beed4f44ddd55a","49230","","","[{""page_index"":0,""viewing_time"":1431},{""page_index"":1,""viewing_time"":8710},{""page_index"":2,""viewing_time"":3628},{""page_index"":3,""viewing_time"":5118},{""page_index"":4,""viewing_time"":2035},{""page_index"":5,""viewing_time"":1261},{""page_index"":6,""viewing_time"":3612},{""page_index"":7,""viewing_time"":2304},{""page_index"":8,""viewing_time"":1406},{""page_index"":9,""viewing_time"":2068},{""page_index"":10,""viewing_time"":5735},{""page_index"":11,""viewing_time"":1291},{""page_index"":12,""viewing_time"":3156},{""page_index"":13,""viewing_time"":7475}]","intro","","","","","","","","","","","","","","","","","","","","","",""
"","","","","","image-keyboard-response","4","76364","0.0-3.0-1.0","6505afbedfdaf655c3cb53fb","665500ab8938657b03fbdba8","665792a594beed4f44ddd55a","2997","stimuli/0111011.jpg","0","","prediction_practice","2","{""filepath"":""stimuli/0111011.jpg"",""ball_pos"":0,""ego_ball_visible"":true,""ego_can_infer"":true,""alter_ball_visible"":false,""alter_can_infer"":false,""collective_ball_visible"":false,""collective_can_infer"":false,""search_locations"":[2,1,0],""alter_occluders"":""111"",""ego_occluders"":""011""}","false","","","","","","","","","","","","","","","","","","",""
"","","","","","image-keyboard-response","5","78532","0.0-3.0-2.0","6505afbedfdaf655c3cb53fb","665500ab8938657b03fbdba8","665792a594beed4f44ddd55a","2167","stimuli/01110112.jpg"," ","","practrice_feedback","2","","","","","","","","","","","","","","","","","","","","",""
"","","","","","image-keyboard-response","6","82196","0.0-3.0-3.0","6505afbedfdaf655c3cb53fb","665500ab8938657b03fbdba8","665792a594beed4f44ddd55a","3663","stimuli/1100000.jpg","1","","prediction_practice","1","{""filepath"":""stimuli/1100000.jpg"",""ball_pos"":1,""ego_ball_visible"":true,""ego_can_infer"":true,""alter_ball_visible"":true,""alter_can_infer"":true,""collective_ball_visible"":true,""collective_can_infer"":true,""search_locations"":[1],""alter_occluders"":""100"",""ego_occluders"":""000""}","true","","","","","","","","","","","","","","","","","","",""
"","","","","","image-keyboard-response","7","86020","0.0-3.0-4.0","6505afbedfdaf655c3cb53fb","665500ab8938657b03fbdba8","665792a594beed4f44ddd55a","3823","stimuli/11000001.jpg"," ","","practrice_feedback","1","","","","","","","","","","","","","","","","","","","","",""
"","","","","","image-keyboard-response","8","87380","0.0-3.0-5.0","6505afbedfdaf655c3cb53fb","665500ab8938657b03fbdba8","665792a594beed4f44ddd55a","1359","stimuli/2111111.jpg","2","","prediction_practice","0","{""filepath"":""stimuli/2111111.jpg"",""ball_pos"":2,""ego_ball_visible"":false,""ego_can_infer"":false,""alter_ball_visible"":false,""alter_can_infer"":false,""collective_ball_visible"":false,""collective_can_infer"":false,""search_locations"":[2,1,0],""alter_occluders"":""111"",""ego_occluders"":""111""}","false","","","","","","","","","","","","","","","","","","",""
"","","","","","image-keyboard-response","9","88760","0.0-3.0-6.0","6505afbedfdaf655c3cb53fb","665500ab8938657b03fbdba8","665792a594beed4f44ddd55a","1380","stimuli/21111110.jpg"," ","","practrice_feedback","2","","","","","","","","","","","","","","","","","","","","",""
"","","","","","image-keyboard-response","10","89446","0.0-3.0-7.0","6505afbedfdaf655c3cb53fb","665500ab8938657b03fbdba8","665792a594beed4f44ddd55a","685","stimuli/0110110.jpg","2","","prediction_practice","0","{""filepath"":""stimuli/0110110.jpg"",""ball_pos"":0,""ego_ball_visible"":false,""ego_can_infer"":false,""alter_ball_visible"":false,""alter_can_infer"":false,""collective_ball_visible"":false,""collective_can_infer"":false,""search_locations"":[1,0],""alter_occluders"":""110"",""ego_occluders"":""110""}","false","","","","","","","","","","","","","","","","","","",""
"","","","","","image-keyboard-response","11","89960","0.0-3.0-8.0","6505afbedfdaf655c3cb53fb","665500ab8938657b03fbdba8","665792a594beed4f44ddd55a","509","stimuli/01101100.jpg"," ","","practrice_feedback","1","","","","","","","","","","","","","","","","","","","","",""
"","","","","","image-keyboard-response","12","90478","0.0-3.0-9.0","6505afbedfdaf655c3cb53fb","665500ab8938657b03fbdba8","665792a594beed4f44ddd55a","515","stimuli/1010010.jpg","2","","prediction_practice","1","{""filepath"":""stimuli/1010010.jpg"",""ball_pos"":1,""ego_ball_visible"":false,""ego_can_infer"":true,""alter_ball_visible"":false,""alter_can_infer"":true,""collective_ball_visible"":false,""collective_can_infer"":true,""search_locations"":[1],""alter_occluders"":""010"",""ego_occluders"":""010""}","false","","","","","","","","","","","","","","","","","","",""
"","","","","","image-keyboard-response","13","91185","0.0-3.0-10.0","6505afbedfdaf655c3cb53fb","665500ab8938657b03fbdba8","665792a594beed4f44ddd55a","705","stimuli/10100101.jpg"," ","","practrice_feedback","1","","","","","","","","","","","","","","","","","","","","",""
"","","","","","image-keyboard-response","14","93175","0.0-3.0-11.0","6505afbedfdaf655c3cb53fb","665500ab8938657b03fbdba8","665792a594beed4f44ddd55a","1989","stimuli/0000001.jpg","0","","prediction_practice","0","{""filepath"":""stimuli/0000001.jpg"",""ball_pos"":0,""ego_ball_visible"":true,""ego_can_infer"":true,""alter_ball_visible"":true,""alter_can_infer"":true,""collective_ball_visible"":true,""collective_can_infer"":true,""search_locations"":[0],""alter_occluders"":""000"",""ego_occluders"":""001""}","true","","","","","","","","","","","","","","","","","","",""
"","","","","","image-keyboard-response","15","93499","0.0-3.0-12.0","6505afbedfdaf655c3cb53fb","665500ab8938657b03fbdba8","665792a594beed4f44ddd55a","323","stimuli/00000010.jpg"," ","","practrice_feedback","0","","","","","","","","","","","","","","","","","","","","",""
"","","","","","image-keyboard-response","16","95638","0.0-3.0-13.0","6505afbedfdaf655c3cb53fb","665500ab8938657b03fbdba8","665792a594beed4f44ddd55a","2139","stimuli/0010111.jpg","1","","prediction_practice","0","{""filepath"":""stimuli/0010111.jpg"",""ball_pos"":0,""ego_ball_visible"":false,""ego_can_infer"":false,""alter_ball_visible"":true,""alter_can_infer"":true,""collective_ball_visible"":false,""collective_can_infer"":false,""search_locations"":[0],""alter_occluders"":""010"",""ego_occluders"":""111""}","false","","","","","","","","","","","","","","","","","","",""
"","","","","","image-keyboard-response","17","96084","0.0-3.0-14.0","6505afbedfdaf655c3cb53fb","665500ab8938657b03fbdba8","665792a594beed4f44ddd55a","445","stimuli/00101110.jpg"," ","","practrice_feedback","0","","","","","","","","","","","","","","","","","","","","",""
"","","","","","image-keyboard-response","18","96755","0.0-3.0-15.0","6505afbedfdaf655c3cb53fb","665500ab8938657b03fbdba8","665792a594beed4f44ddd55a","662","stimuli/1111000.jpg","1","","prediction_practice","2","{""filepath"":""stimuli/1111000.jpg"",""ball_pos"":1,""ego_ball_visible"":true,""ego_can_infer"":true,""alter_ball_visible"":false,""alter_can_infer"":false,""collective_ball_visible"":false,""collective_can_infer"":false,""search_locations"":[1,2,0],""alter_occluders"":""111"",""ego_occluders"":""000""}","false","","","","","","","","","","","","","","","","","","",""
"","","","","","image-keyboard-response","19","98752","0.0-3.0-16.0","6505afbedfdaf655c3cb53fb","665500ab8938657b03fbdba8","665792a594beed4f44ddd55a","1996","stimuli/11110002.jpg"," ","","practrice_feedback","1","","","","","","","","","","","","","","","","","","","","",""
"","","","","","image-keyboard-response","20","99847","0.0-3.0-17.0","6505afbedfdaf655c3cb53fb","665500ab8938657b03fbdba8","665792a594beed4f44ddd55a","1093","stimuli/0011011.jpg","0","","prediction_practice","0","{""filepath"":""stimuli/0011011.jpg"",""ball_pos"":0,""ego_ball_visible"":true,""ego_can_infer"":true,""alter_ball_visible"":true,""alter_can_infer"":true,""collective_ball_visible"":true,""collective_can_infer"":true,""search_locations"":[0],""alter_occluders"":""011"",""ego_occluders"":""011""}","true","","","","","","","","","","","","","","","","","","",""
"","","","","","image-keyboard-response","21","100547","0.0-3.0-18.0","6505afbedfdaf655c3cb53fb","665500ab8938657b03fbdba8","665792a594beed4f44ddd55a","698","stimuli/00110110.jpg"," ","","practrice_feedback","0","","","","","","","","","","","","","","","","","","","","",""
"","","","","","image-keyboard-response","22","117967","0.0-3.0-19.0","6505afbedfdaf655c3cb53fb","665500ab8938657b03fbdba8","665792a594beed4f44ddd55a","17418","stimuli/1010100.jpg","1","","prediction_practice","1","{""filepath"":""stimuli/1010100.jpg"",""ball_pos"":1,""ego_ball_visible"":true,""ego_can_infer"":true,""alter_ball_visible"":false,""alter_can_infer"":true,""collective_ball_visible"":false,""collective_can_infer"":true,""search_locations"":[1],""alter_occluders"":""010"",""ego_occluders"":""100""}","true","","","","","","","","","","","","","","","","","","",""
"","","","","","image-keyboard-response","23","118665","0.0-3.0-20.0","6505afbedfdaf655c3cb53fb","665500ab8938657b03fbdba8","665792a594beed4f44ddd55a","695","stimuli/10101001.jpg"," ","","practrice_feedback","1","","","","","","","","","","","","","","","","","","","","",""
"","","","","","html-button-response","24","122782","0.0-3.0-21.0","6505afbedfdaf655c3cb53fb","665500ab8938657b03fbdba8","665792a594beed4f44ddd55a","4126","Now that you've had some practice, you'll be tested with a couple of easy trials. If you correctly predict Sam's choice, you'll move on to complete the experiment!","0","","","","","","","","","","","","","","","","","","","","","","","",""
"","","","","","image-keyboard-response","25","124357","0.0-3.0-22.0-0.0","6505afbedfdaf655c3cb53fb","665500ab8938657b03fbdba8","665792a594beed4f44ddd55a","1574","stimuli/0000011.jpg","arrowleft","","comprehension_quiz","","","true","arrowleft","","","","","","","","","","","","","","","","","",""
"","","","","","image-keyboard-response","26","125168","0.0-3.0-22.0-1.0","6505afbedfdaf655c3cb53fb","665500ab8938657b03fbdba8","665792a594beed4f44ddd55a","809","stimuli/00000110.jpg"," ","","comprehension_quiz","","","true"," ","","","","","","","","","","","","","","","","","",""
"","","","","","image-keyboard-response","27","126057","0.0-3.0-22.0-2.0","6505afbedfdaf655c3cb53fb","665500ab8938657b03fbdba8","665792a594beed4f44ddd55a","887","stimuli/1010010.jpg","arrowdown","","comprehension_quiz","","","true","arrowdown","","","","","","","","","","","","","","","","","",""
"","","","","","image-keyboard-response","28","126347","0.0-3.0-22.0-3.0","6505afbedfdaf655c3cb53fb","665500ab8938657b03fbdba8","665792a594beed4f44ddd55a","288","stimuli/10100101.jpg"," ","","comprehension_quiz","","","true"," ","","","","","","","","","","","","","","","","","",""
"","","","","","html-button-response","29","129178","0.0-4.0","6505afbedfdaf655c3cb53fb","665500ab8938657b03fbdba8","665792a594beed4f44ddd55a","2828","The experiment will now begin.","0","","","","","","","","","","","","","","","","","","","","","","","",""
"","","","","","image-keyboard-response","30","130338","0.0-5.0","6505afbedfdaf655c3cb53fb","665500ab8938657b03fbdba8","665792a594beed4f44ddd55a","1159","stimuli/1000101.jpg","1","","prediction_trial","1","","true","","1","true","true","true","true","true","true","[1]","000","101","1","","","","","","",""
"","","","","","image-keyboard-response","31","130786","0.0-6.0","6505afbedfdaf655c3cb53fb","665500ab8938657b03fbdba8","665792a594beed4f44ddd55a","445","stimuli/10001011.jpg"," ","","feedback_trial","1","","","","","","","","","","","","","","","","","","","","",""
"","","","","","image-keyboard-response","32","131682","0.0-7.0","6505afbedfdaf655c3cb53fb","665500ab8938657b03fbdba8","665792a594beed4f44ddd55a","894","stimuli/1001010.jpg","1","","prediction_trial","1","","true","","1","false","true","true","true","false","true","[1]","001","010","1","","","","","","",""
"","","","","","image-keyboard-response","33","131993","0.0-8.0","6505afbedfdaf655c3cb53fb","665500ab8938657b03fbdba8","665792a594beed4f44ddd55a","309","stimuli/10010101.jpg"," ","","feedback_trial","1","","","","","","","","","","","","","","","","","","","","",""
"","","","","","image-keyboard-response","34","132864","0.0-9.0","6505afbedfdaf655c3cb53fb","665500ab8938657b03fbdba8","665792a594beed4f44ddd55a","869","stimuli/0110101.jpg","2","","prediction_trial","1","","false","","0","false","false","false","false","false","false","[1,0]","110","101","0","","","","","","",""
"","","","","","image-keyboard-response","35","133148","0.0-10.0","6505afbedfdaf655c3cb53fb","665500ab8938657b03fbdba8","665792a594beed4f44ddd55a","283","stimuli/01101011.jpg"," ","","feedback_trial","1","","","","","","","","","","","","","","","","","","","","",""
"","","","","","image-keyboard-response","36","134105","0.0-11.0","6505afbedfdaf655c3cb53fb","665500ab8938657b03fbdba8","665792a594beed4f44ddd55a","955","stimuli/2100000.jpg","2","","prediction_trial","2","","true","","2","true","true","true","true","true","true","[2]","100","000","1","","","","","","",""
"","","","","","image-keyboard-response","37","134412","0.0-12.0","6505afbedfdaf655c3cb53fb","665500ab8938657b03fbdba8","665792a594beed4f44ddd55a","305","stimuli/21000002.jpg"," ","","feedback_trial","2","","","","","","","","","","","","","","","","","","","","",""
"","","","","","image-keyboard-response","38","135006","0.0-13.0","6505afbedfdaf655c3cb53fb","665500ab8938657b03fbdba8","665792a594beed4f44ddd55a","592","stimuli/0010011.jpg","0","","prediction_trial","0","","true","","0","true","true","true","true","true","true","[0]","010","011","1","","","","","","",""
"","","","","","image-keyboard-response","39","135293","0.0-14.0","6505afbedfdaf655c3cb53fb","665500ab8938657b03fbdba8","665792a594beed4f44ddd55a","285","stimuli/00100110.jpg"," ","","feedback_trial","0","","","","","","","","","","","","","","","","","","","","",""
"","","","","","image-keyboard-response","40","136141","0.0-15.0","6505afbedfdaf655c3cb53fb","665500ab8938657b03fbdba8","665792a594beed4f44ddd55a","847","stimuli/2110011.jpg","1","","prediction_trial","2","","false","","2","false","false","true","true","false","false","[2]","110","011","0","","","","","","",""
"","","","","","image-keyboard-response","41","136467","0.0-16.0","6505afbedfdaf655c3cb53fb","665500ab8938657b03fbdba8","665792a594beed4f44ddd55a","324","stimuli/21100112.jpg"," ","","feedback_trial","2","","","","","","","","","","","","","","","","","","","","",""
"","","","","","image-keyboard-response","42","137162","0.0-17.0","6505afbedfdaf655c3cb53fb","665500ab8938657b03fbdba8","665792a594beed4f44ddd55a","690","stimuli/0110100.jpg","0","","prediction_trial","0","","true","","0","false","true","false","false","false","false","[1,0]","110","100","1","","","","","","",""
"","","","","","image-keyboard-response","43","137463","0.0-18.0","6505afbedfdaf655c3cb53fb","665500ab8938657b03fbdba8","665792a594beed4f44ddd55a","299","stimuli/01101000.jpg"," ","","feedback_trial","1","","","","","","","","","","","","","","","","","","","","",""
"","","","","","image-keyboard-response","44","138036","0.0-19.0","6505afbedfdaf655c3cb53fb","665500ab8938657b03fbdba8","665792a594beed4f44ddd55a","572","stimuli/2101000.jpg","2","","prediction_trial","2","","true","","2","true","true","false","false","false","false","[0,2]","101","000","1","","","","","","",""
"","","","","","image-keyboard-response","45","138343","0.0-20.0","6505afbedfdaf655c3cb53fb","665500ab8938657b03fbdba8","665792a594beed4f44ddd55a","305","stimuli/21010002.jpg"," ","","feedback_trial","0","","","","","","","","","","","","","","","","","","","","",""
"","","","","","image-keyboard-response","46","139206","0.0-21.0","6505afbedfdaf655c3cb53fb","665500ab8938657b03fbdba8","665792a594beed4f44ddd55a","862","stimuli/2010001.jpg","1","","prediction_trial","2","","false","","2","false","true","true","true","false","true","[2]","010","001","0","","","","","","",""
"","","","","","image-keyboard-response","47","140017","0.0-22.0","6505afbedfdaf655c3cb53fb","665500ab8938657b03fbdba8","665792a594beed4f44ddd55a","809","stimuli/20100012.jpg"," ","","feedback_trial","2","","","","","","","","","","","","","","","","","","","","",""
"","","","","","image-keyboard-response","48","140668","0.0-23.0","6505afbedfdaf655c3cb53fb","665500ab8938657b03fbdba8","665792a594beed4f44ddd55a","649","stimuli/0000110.jpg","1","","prediction_trial","0","","false","","0","false","false","true","true","false","false","[0]","000","110","0","","","","","","",""
"","","","","","image-keyboard-response","49","141036","0.0-24.0","6505afbedfdaf655c3cb53fb","665500ab8938657b03fbdba8","665792a594beed4f44ddd55a","367","stimuli/00001100.jpg"," ","","feedback_trial","0","","","","","","","","","","","","","","","","","","","","",""
"","","","","","image-keyboard-response","50","141739","0.0-25.0","6505afbedfdaf655c3cb53fb","665500ab8938657b03fbdba8","665792a594beed4f44ddd55a","701","stimuli/1101001.jpg","1","","prediction_trial","1","","true","","1","true","true","true","true","true","true","[1]","101","001","1","","","","","","",""
"","","","","","image-keyboard-response","51","142027","0.0-26.0","6505afbedfdaf655c3cb53fb","665500ab8938657b03fbdba8","665792a594beed4f44ddd55a","287","stimuli/11010011.jpg"," ","","feedback_trial","1","","","","","","","","","","","","","","","","","","","","",""
"","","","","","image-keyboard-response","52","142845","0.0-27.0","6505afbedfdaf655c3cb53fb","665500ab8938657b03fbdba8","665792a594beed4f44ddd55a","817","stimuli/1100000.jpg","1","","prediction_trial","1","","true","","1","true","true","true","true","true","true","[1]","100","000","1","","","","","","",""
"","","","","","image-keyboard-response","53","143111","0.0-28.0","6505afbedfdaf655c3cb53fb","665500ab8938657b03fbdba8","665792a594beed4f44ddd55a","265","stimuli/11000001.jpg"," ","","feedback_trial","1","","","","","","","","","","","","","","","","","","","","",""
"","","","","","image-keyboard-response","54","144250","0.0-29.0","6505afbedfdaf655c3cb53fb","665500ab8938657b03fbdba8","665792a594beed4f44ddd55a","1138","stimuli/1011110.jpg","0","","prediction_trial","1","","false","","1","false","false","false","false","false","false","[2,1]","011","110","0","","","","","","",""
"","","","","","image-keyboard-response","55","145237","0.0-30.0","6505afbedfdaf655c3cb53fb","665500ab8938657b03fbdba8","665792a594beed4f44ddd55a","981","stimuli/10111101.jpg"," ","","feedback_trial","2","","","","","","","","","","","","","","","","","","","","",""
"","","","","","image-keyboard-response","56","145857","0.0-31.0","6505afbedfdaf655c3cb53fb","665500ab8938657b03fbdba8","665792a594beed4f44ddd55a","619","stimuli/0111001.jpg","0","","prediction_trial","1","","false","","0","true","true","false","false","false","false","[1,0,2]","111","001","0","","","","","","",""
"","","","","","image-keyboard-response","57","146809","0.0-32.0","6505afbedfdaf655c3cb53fb","665500ab8938657b03fbdba8","665792a594beed4f44ddd55a","950","stimuli/01110011.jpg"," ","","feedback_trial","1","","","","","","","","","","","","","","","","","","","","",""
"","","","","","image-keyboard-response","58","147386","0.0-33.0","6505afbedfdaf655c3cb53fb","665500ab8938657b03fbdba8","665792a594beed4f44ddd55a","576","stimuli/0010100.jpg","0","","prediction_trial","0","","true","","0","false","true","true","true","false","true","[0]","010","100","1","","","","","","",""
"","","","","","image-keyboard-response","59","147734","0.0-34.0","6505afbedfdaf655c3cb53fb","665500ab8938657b03fbdba8","665792a594beed4f44ddd55a","347","stimuli/00101000.jpg"," ","","feedback_trial","0","","","","","","","","","","","","","","","","","","","","",""
"","","","","","image-keyboard-response","60","149208","0.0-35.0","6505afbedfdaf655c3cb53fb","665500ab8938657b03fbdba8","665792a594beed4f44ddd55a","1472","stimuli/0111110.jpg","0","","prediction_trial","1","","false","","0","false","false","false","false","false","false","[2,1,0]","111","110","0","","","","","","",""
"","","","","","image-keyboard-response","61","149648","0.0-36.0","6505afbedfdaf655c3cb53fb","665500ab8938657b03fbdba8","665792a594beed4f44ddd55a","438","stimuli/01111101.jpg"," ","","feedback_trial","2","","","","","","","","","","","","","","","","","","","","",""
"","","","","","image-keyboard-response","62","150784","0.0-37.0","6505afbedfdaf655c3cb53fb","665500ab8938657b03fbdba8","665792a594beed4f44ddd55a","1134","stimuli/1010010.jpg","1","","prediction_trial","1","","true","","1","false","true","false","true","false","true","[1]","010","010","1","","","","","","",""
"","","","","","image-keyboard-response","63","151108","0.0-38.0","6505afbedfdaf655c3cb53fb","665500ab8938657b03fbdba8","665792a594beed4f44ddd55a","323","stimuli/10100101.jpg"," ","","feedback_trial","1","","","","","","","","","","","","","","","","","","","","",""
"","","","","","image-keyboard-response","64","152280","0.0-39.0","6505afbedfdaf655c3cb53fb","665500ab8938657b03fbdba8","665792a594beed4f44ddd55a","1170","stimuli/2011011.jpg","2","","prediction_trial","1","","false","","2","false","false","false","false","false","false","[2,1]","011","011","0","","","","","","",""
"","","","","","image-keyboard-response","65","152749","0.0-40.0","6505afbedfdaf655c3cb53fb","665500ab8938657b03fbdba8","665792a594beed4f44ddd55a","467","stimuli/20110111.jpg"," ","","feedback_trial","2","","","","","","","","","","","","","","","","","","","","",""
"","","","","","image-keyboard-response","66","153459","0.0-41.0","6505afbedfdaf655c3cb53fb","665500ab8938657b03fbdba8","665792a594beed4f44ddd55a","708","stimuli/1010110.jpg","1","","prediction_trial","1","","true","","1","false","false","false","true","false","false","[1]","010","110","1","","","","","","",""
"","","","","","image-keyboard-response","67","153765","0.0-42.0","6505afbedfdaf655c3cb53fb","665500ab8938657b03fbdba8","665792a594beed4f44ddd55a","303","stimuli/10101101.jpg"," ","","feedback_trial","1","","","","","","","","","","","","","","","","","","","","",""
"","","","","","image-keyboard-response","68","154515","0.0-43.0","6505afbedfdaf655c3cb53fb","665500ab8938657b03fbdba8","665792a594beed4f44ddd55a","745","stimuli/1011010.jpg","1","","prediction_trial","2","","false","","1","false","true","false","false","false","false","[2,1]","011","010","0","","","","","","",""
"","","","","","image-keyboard-response","69","155434","0.0-44.0","6505afbedfdaf655c3cb53fb","665500ab8938657b03fbdba8","665792a594beed4f44ddd55a","918","stimuli/10110102.jpg"," ","","feedback_trial","2","","","","","","","","","","","","","","","","","","","","",""
"","","","","","image-keyboard-response","70","156095","0.0-45.0","6505afbedfdaf655c3cb53fb","665500ab8938657b03fbdba8","665792a594beed4f44ddd55a","659","stimuli/2110000.jpg","1","","prediction_trial","2","","false","","2","true","true","true","true","true","true","[2]","110","000","0","","","","","","",""
"","","","","","image-keyboard-response","71","157209","0.0-46.0","6505afbedfdaf655c3cb53fb","665500ab8938657b03fbdba8","665792a594beed4f44ddd55a","1112","stimuli/21100002.jpg"," ","","feedback_trial","2","","","","","","","","","","","","","","","","","","","","",""
"","","","","","image-keyboard-response","72","158319","0.0-47.0","6505afbedfdaf655c3cb53fb","665500ab8938657b03fbdba8","665792a594beed4f44ddd55a","1109","stimuli/0001111.jpg","1","","prediction_trial","0","","false","","0","false","false","true","true","false","false","[0]","001","111","0","","","","","","",""
"","","","","","image-keyboard-response","73","158726","0.0-48.0","6505afbedfdaf655c3cb53fb","665500ab8938657b03fbdba8","665792a594beed4f44ddd55a","405","stimuli/00011110.jpg"," ","","feedback_trial","0","","","","","","","","","","","","","","","","","","","","",""
"","","","","","image-keyboard-response","74","159449","0.0-49.0","6505afbedfdaf655c3cb53fb","665500ab8938657b03fbdba8","665792a594beed4f44ddd55a","722","stimuli/2001110.jpg","2","","prediction_trial","2","","true","","2","true","true","false","true","false","true","[2]","001","110","1","","","","","","",""
"","","","","","image-keyboard-response","75","159795","0.0-50.0","6505afbedfdaf655c3cb53fb","665500ab8938657b03fbdba8","665792a594beed4f44ddd55a","344","stimuli/20011102.jpg"," ","","feedback_trial","2","","","","","","","","","","","","","","","","","","","","",""
"","","","","","image-keyboard-response","76","160905","0.0-51.0","6505afbedfdaf655c3cb53fb","665500ab8938657b03fbdba8","665792a594beed4f44ddd55a","1108","stimuli/0110110.jpg","0","","prediction_trial","1","","false","","0","false","false","false","false","false","false","[1,0]","110","110","0","","","","","","",""
"","","","","","image-keyboard-response","77","161270","0.0-52.0","6505afbedfdaf655c3cb53fb","665500ab8938657b03fbdba8","665792a594beed4f44ddd55a","363","stimuli/01101101.jpg"," ","","feedback_trial","1","","","","","","","","","","","","","","","","","","","","",""
"","","","","","image-keyboard-response","78","162134","0.0-53.0","6505afbedfdaf655c3cb53fb","665500ab8938657b03fbdba8","665792a594beed4f44ddd55a","864","stimuli/0000100.jpg","0","","prediction_trial","0","","true","","0","false","true","true","true","false","true","[0]","000","100","1","","","","","","",""
"","","","","","image-keyboard-response","79","162471","0.0-54.0","6505afbedfdaf655c3cb53fb","665500ab8938657b03fbdba8","665792a594beed4f44ddd55a","335","stimuli/00001000.jpg"," ","","feedback_trial","0","","","","","","","","","","","","","","","","","","","","",""
"","","","","","image-keyboard-response","80","163210","0.0-55.0","6505afbedfdaf655c3cb53fb","665500ab8938657b03fbdba8","665792a594beed4f44ddd55a","737","stimuli/0100011.jpg","0","","prediction_trial","0","","true","","0","true","true","false","true","false","true","[0]","100","011","1","","","","","","",""
"","","","","","image-keyboard-response","81","163584","0.0-56.0","6505afbedfdaf655c3cb53fb","665500ab8938657b03fbdba8","665792a594beed4f44ddd55a","373","stimuli/01000110.jpg"," ","","feedback_trial","0","","","","","","","","","","","","","","","","","","","","",""
"","","","","","image-keyboard-response","82","164391","0.0-57.0","6505afbedfdaf655c3cb53fb","665500ab8938657b03fbdba8","665792a594beed4f44ddd55a","805","stimuli/0010001.jpg","0","","prediction_trial","0","","true","","0","true","true","true","true","true","true","[0]","010","001","1","","","","","","",""
"","","","","","image-keyboard-response","83","164671","0.0-58.0","6505afbedfdaf655c3cb53fb","665500ab8938657b03fbdba8","665792a594beed4f44ddd55a","279","stimuli/00100010.jpg"," ","","feedback_trial","0","","","","","","","","","","","","","","","","","","","","",""
"","","","","","image-keyboard-response","84","165301","0.0-59.0","6505afbedfdaf655c3cb53fb","665500ab8938657b03fbdba8","665792a594beed4f44ddd55a","628","stimuli/2111110.jpg","2","","prediction_trial","2","","true","","2","true","true","false","false","false","false","[1,2,0]","111","110","1","","","","","","",""
"","","","","","image-keyboard-response","85","165802","0.0-60.0","6505afbedfdaf655c3cb53fb","665500ab8938657b03fbdba8","665792a594beed4f44ddd55a","499","stimuli/21111102.jpg"," ","","feedback_trial","1","","","","","","","","","","","","","","","","","","","","",""
"","","","","","image-keyboard-response","86","167014","0.0-61.0","6505afbedfdaf655c3cb53fb","665500ab8938657b03fbdba8","665792a594beed4f44ddd55a","1211","stimuli/0000101.jpg","2","","prediction_trial","0","","false","","0","false","false","true","true","false","false","[0]","000","101","0","","","","","","",""
"","","","","","image-keyboard-response","87","167809","0.0-62.0","6505afbedfdaf655c3cb53fb","665500ab8938657b03fbdba8","665792a594beed4f44ddd55a","793","stimuli/00001010.jpg"," ","","feedback_trial","0","","","","","","","","","","","","","","","","","","","","",""
"","","","","","image-keyboard-response","88","168741","0.0-63.0","6505afbedfdaf655c3cb53fb","665500ab8938657b03fbdba8","665792a594beed4f44ddd55a","931","stimuli/1100001.jpg","1","","prediction_trial","1","","true","","1","true","true","true","true","true","true","[1]","100","001","1","","","","","","",""
"","","","","","image-keyboard-response","89","169176","0.0-64.0","6505afbedfdaf655c3cb53fb","665500ab8938657b03fbdba8","665792a594beed4f44ddd55a","432","stimuli/11000011.jpg"," ","","feedback_trial","1","","","","","","","","","","","","","","","","","","","","",""
"","","","","","image-keyboard-response","90","169918","0.0-65.0","6505afbedfdaf655c3cb53fb","665500ab8938657b03fbdba8","665792a594beed4f44ddd55a","740","stimuli/2001010.jpg","2","","prediction_trial","2","","true","","2","true","true","false","true","false","true","[2]","001","010","1","","","","","","",""
"","","","","","image-keyboard-response","91","170278","0.0-66.0","6505afbedfdaf655c3cb53fb","665500ab8938657b03fbdba8","665792a594beed4f44ddd55a","358","stimuli/20010102.jpg"," ","","feedback_trial","2","","","","","","","","","","","","","","","","","","","","",""
"","","","","","image-keyboard-response","92","171222","0.0-67.0","6505afbedfdaf655c3cb53fb","665500ab8938657b03fbdba8","665792a594beed4f44ddd55a","943","stimuli/0010101.jpg","2","","prediction_trial","0","","false","","0","false","false","true","true","false","false","[0]","010","101","0","","","","","","",""
"","","","","","image-keyboard-response","93","171749","0.0-68.0","6505afbedfdaf655c3cb53fb","665500ab8938657b03fbdba8","665792a594beed4f44ddd55a","525","stimuli/00101010.jpg"," ","","feedback_trial","0","","","","","","","","","","","","","","","","","","","","",""
"","","","","","image-keyboard-response","94","172349","0.0-69.0","6505afbedfdaf655c3cb53fb","665500ab8938657b03fbdba8","665792a594beed4f44ddd55a","594","stimuli/2001111.jpg","2","","prediction_trial","2","","true","","2","false","false","false","true","false","false","[2]","001","111","1","","","","","","",""
"","","","","","image-keyboard-response","95","172808","0.0-70.0","6505afbedfdaf655c3cb53fb","665500ab8938657b03fbdba8","665792a594beed4f44ddd55a","459","stimuli/20011112.jpg"," ","","feedback_trial","2","","","","","","","","","","","","","","","","","","","","",""
"","","","","","image-keyboard-response","96","173738","0.0-71.0","6505afbedfdaf655c3cb53fb","665500ab8938657b03fbdba8","665792a594beed4f44ddd55a","928","stimuli/0001110.jpg","0","","prediction_trial","0","","true","","0","false","false","true","true","false","false","[0]","001","110","1","","","","","","",""
"","","","","","image-keyboard-response","97","174105","0.0-72.0","6505afbedfdaf655c3cb53fb","665500ab8938657b03fbdba8","665792a594beed4f44ddd55a","366","stimuli/00011100.jpg"," ","","feedback_trial","0","","","","","","","","","","","","","","","","","","","","",""
"","","","","","image-keyboard-response","98","174945","0.0-73.0","6505afbedfdaf655c3cb53fb","665500ab8938657b03fbdba8","665792a594beed4f44ddd55a","838","stimuli/1100110.jpg","1","","prediction_trial","1","","true","","1","false","false","true","true","false","false","[1]","100","110","1","","","","","","",""
"","","","","","image-keyboard-response","99","175421","0.0-74.0","6505afbedfdaf655c3cb53fb","665500ab8938657b03fbdba8","665792a594beed4f44ddd55a","474","stimuli/11001101.jpg"," ","","feedback_trial","1","","","","","","","","","","","","","","","","","","","","",""
"","","","","","image-keyboard-response","100","175982","0.0-75.0","6505afbedfdaf655c3cb53fb","665500ab8938657b03fbdba8","665792a594beed4f44ddd55a","559","stimuli/1100101.jpg","1","","prediction_trial","1","","true","","1","true","true","true","true","true","true","[1]","100","101","1","","","","","","",""
"","","","","","image-keyboard-response","101","176450","0.0-76.0","6505afbedfdaf655c3cb53fb","665500ab8938657b03fbdba8","665792a594beed4f44ddd55a","466","stimuli/11001011.jpg"," ","","feedback_trial","1","","","","","","","","","","","","","","","","","","","","",""
"","","","","","image-keyboard-response","102","176995","0.0-77.0","6505afbedfdaf655c3cb53fb","665500ab8938657b03fbdba8","665792a594beed4f44ddd55a","543","stimuli/0110000.jpg","0","","prediction_trial","0","","true","","0","true","true","false","false","false","false","[1,0]","110","000","1","","","","","","",""
"","","","","","image-keyboard-response","103","177319","0.0-78.0","6505afbedfdaf655c3cb53fb","665500ab8938657b03fbdba8","665792a594beed4f44ddd55a","322","stimuli/01100000.jpg"," ","","feedback_trial","1","","","","","","","","","","","","","","","","","","","","",""
"","","","","","image-keyboard-response","104","178188","0.0-79.0","6505afbedfdaf655c3cb53fb","665500ab8938657b03fbdba8","665792a594beed4f44ddd55a","867","stimuli/0101101.jpg","0","","prediction_trial","2","","false","","0","false","false","false","false","false","false","[2,0]","101","101","0","","","","","","",""
"","","","","","image-keyboard-response","105","178613","0.0-80.0","6505afbedfdaf655c3cb53fb","665500ab8938657b03fbdba8","665792a594beed4f44ddd55a","424","stimuli/01011012.jpg"," ","","feedback_trial","2","","","","","","","","","","","","","","","","","","","","",""
"","","","","","image-keyboard-response","106","179270","0.0-81.0","6505afbedfdaf655c3cb53fb","665500ab8938657b03fbdba8","665792a594beed4f44ddd55a","655","stimuli/0111100.jpg","0","","prediction_trial","2","","false","","0","false","true","false","false","false","false","[2,0,1]","111","100","0","","","","","","",""
"","","","","","image-keyboard-response","107","180051","0.0-82.0","6505afbedfdaf655c3cb53fb","665500ab8938657b03fbdba8","665792a594beed4f44ddd55a","796","stimuli/01111002.jpg"," ","","feedback_trial","2","","","","","","","","","","","","","","","","","","","","",""
"","","","","","image-keyboard-response","108","180664","0.0-83.0","6505afbedfdaf655c3cb53fb","665500ab8938657b03fbdba8","665792a594beed4f44ddd55a","612","stimuli/2000111.jpg","0","","prediction_trial","2","","false","","2","false","false","true","true","false","false","[2]","000","111","0","","","","","","",""
"","","","","","image-keyboard-response","109","181122","0.0-84.0","6505afbedfdaf655c3cb53fb","665500ab8938657b03fbdba8","665792a594beed4f44ddd55a","455","stimuli/20001112.jpg"," ","","feedback_trial","2","","","","","","","","","","","","","","","","","","","","",""
"","","","","","image-keyboard-response","110","181561","0.0-85.0","6505afbedfdaf655c3cb53fb","665500ab8938657b03fbdba8","665792a594beed4f44ddd55a","438","stimuli/0001011.jpg","0","","prediction_trial","0","","true","","0","true","true","true","true","true","true","[0]","001","011","1","","","","","","",""
"","","","","","image-keyboard-response","111","181888","0.0-86.0","6505afbedfdaf655c3cb53fb","665500ab8938657b03fbdba8","665792a594beed4f44ddd55a","326","stimuli/00010110.jpg"," ","","feedback_trial","0","","","","","","","","","","","","","","","","","","","","",""
"","","","","","image-keyboard-response","112","182892","0.0-87.0","6505afbedfdaf655c3cb53fb","665500ab8938657b03fbdba8","665792a594beed4f44ddd55a","1003","stimuli/1111001.jpg","1","","prediction_trial","1","","true","","1","true","true","false","false","false","false","[1,0,2]","111","001","1","","","","","","",""
"","","","","","image-keyboard-response","113","183319","0.0-88.0","6505afbedfdaf655c3cb53fb","665500ab8938657b03fbdba8","665792a594beed4f44ddd55a","427","stimuli/11110011.jpg"," ","","feedback_trial","1","","","","","","","","","","","","","","","","","","","","",""
"","","","","","image-keyboard-response","114","282103","0.0-89.0","6505afbedfdaf655c3cb53fb","665500ab8938657b03fbdba8","665792a594beed4f44ddd55a","98797","stimuli/2100101.jpg","2","","prediction_trial","2","","true","","2","false","false","true","true","false","false","[2]","100","101","1","","","","","","",""
"","","","","","image-keyboard-response","115","283168","0.0-90.0","6505afbedfdaf655c3cb53fb","665500ab8938657b03fbdba8","665792a594beed4f44ddd55a","1062","stimuli/21001012.jpg"," ","","feedback_trial","2","","","","","","","","","","","","","","","","","","","","",""
"","","","","","image-keyboard-response","116","283658","0.0-91.0","6505afbedfdaf655c3cb53fb","665500ab8938657b03fbdba8","665792a594beed4f44ddd55a","488","stimuli/1001011.jpg","1","","prediction_trial","1","","true","","1","false","false","true","true","false","false","[1]","001","011","1","","","","","","",""
"","","","","","image-keyboard-response","117","283939","0.0-92.0","6505afbedfdaf655c3cb53fb","665500ab8938657b03fbdba8","665792a594beed4f44ddd55a","279","stimuli/10010111.jpg"," ","","feedback_trial","1","","","","","","","","","","","","","","","","","","","","",""
"","","","","","image-keyboard-response","118","284373","0.0-93.0","6505afbedfdaf655c3cb53fb","665500ab8938657b03fbdba8","665792a594beed4f44ddd55a","432","stimuli/1110100.jpg","1","","prediction_trial","0","","false","","1","true","true","false","false","false","false","[1,0]","110","100","0","","","","","","",""
"","","","","","image-keyboard-response","119","284723","0.0-94.0","6505afbedfdaf655c3cb53fb","665500ab8938657b03fbdba8","665792a594beed4f44ddd55a","349","stimuli/11101000.jpg"," ","","feedback_trial","1","","","","","","","","","","","","","","","","","","","","",""
"","","","","","image-keyboard-response","120","285377","0.0-95.0","6505afbedfdaf655c3cb53fb","665500ab8938657b03fbdba8","665792a594beed4f44ddd55a","651","stimuli/0111101.jpg","2","","prediction_trial","1","","false","","0","false","false","false","false","false","false","[0,1,2]","111","101","0","","","","","","",""
"","","","","","image-keyboard-response","121","285631","0.0-96.0","6505afbedfdaf655c3cb53fb","665500ab8938657b03fbdba8","665792a594beed4f44ddd55a","252","stimuli/01111011.jpg"," ","","feedback_trial","0","","","","","","","","","","","","","","","","","","","","",""
"","","","","","image-keyboard-response","122","286106","0.0-97.0","6505afbedfdaf655c3cb53fb","665500ab8938657b03fbdba8","665792a594beed4f44ddd55a","473","stimuli/1100100.jpg","1","","prediction_trial","1","","true","","1","true","true","true","true","true","true","[1]","100","100","1","","","","","","",""
"","","","","","image-keyboard-response","123","286381","0.0-98.0","6505afbedfdaf655c3cb53fb","665500ab8938657b03fbdba8","665792a594beed4f44ddd55a","275","stimuli/11001001.jpg"," ","","feedback_trial","1","","","","","","","","","","","","","","","","","","","","",""
"","","","","","image-keyboard-response","124","286938","0.0-99.0","6505afbedfdaf655c3cb53fb","665500ab8938657b03fbdba8","665792a594beed4f44ddd55a","555","stimuli/1110101.jpg","1","","prediction_trial","1","","true","","1","true","true","false","false","false","false","[0,1]","110","101","1","","","","","","",""
"","","","","","image-keyboard-response","125","287489","0.0-100.0","6505afbedfdaf655c3cb53fb","665500ab8938657b03fbdba8","665792a594beed4f44ddd55a","549","stimuli/11101011.jpg"," ","","feedback_trial","0","","","","","","","","","","","","","","","","","","","","",""
"","","","","","image-keyboard-response","126","288178","0.0-101.0","6505afbedfdaf655c3cb53fb","665500ab8938657b03fbdba8","665792a594beed4f44ddd55a","688","stimuli/2111111.jpg","1","","prediction_trial","0","","false","","2","false","false","false","false","false","false","[2,1,0]","111","111","0","","","","","","",""
"","","","","","image-keyboard-response","127","288797","0.0-102.0","6505afbedfdaf655c3cb53fb","665500ab8938657b03fbdba8","665792a594beed4f44ddd55a","617","stimuli/21111110.jpg"," ","","feedback_trial","2","","","","","","","","","","","","","","","","","","","","",""
"","","","","","image-keyboard-response","128","289182","0.0-103.0","6505afbedfdaf655c3cb53fb","665500ab8938657b03fbdba8","665792a594beed4f44ddd55a","383","stimuli/1011101.jpg","1","","prediction_trial","2","","false","","1","true","true","false","false","false","false","[2,1]","011","101","0","","","","","","",""
"","","","","","image-keyboard-response","129","289565","0.0-104.0","6505afbedfdaf655c3cb53fb","665500ab8938657b03fbdba8","665792a594beed4f44ddd55a","381","stimuli/10111012.jpg"," ","","feedback_trial","2","","","","","","","","","","","","","","","","","","","","",""
"","","","","","image-keyboard-response","130","290074","0.0-105.0","6505afbedfdaf655c3cb53fb","665500ab8938657b03fbdba8","665792a594beed4f44ddd55a","508","stimuli/2110100.jpg","2","","prediction_trial","2","","true","","2","true","true","true","true","true","true","[2]","110","100","1","","","","","","",""
"","","","","","image-keyboard-response","131","290378","0.0-106.0","6505afbedfdaf655c3cb53fb","665500ab8938657b03fbdba8","665792a594beed4f44ddd55a","302","stimuli/21101002.jpg"," ","","feedback_trial","2","","","","","","","","","","","","","","","","","","","","",""
"","","","","","image-keyboard-response","132","291072","0.0-107.0","6505afbedfdaf655c3cb53fb","665500ab8938657b03fbdba8","665792a594beed4f44ddd55a","692","stimuli/0011110.jpg","0","","prediction_trial","0","","true","","0","false","false","true","true","false","false","[0]","011","110","1","","","","","","",""
"","","","","","image-keyboard-response","133","291543","0.0-108.0","6505afbedfdaf655c3cb53fb","665500ab8938657b03fbdba8","665792a594beed4f44ddd55a","470","stimuli/00111100.jpg"," ","","feedback_trial","0","","","","","","","","","","","","","","","","","","","","",""
"","","","","","image-keyboard-response","134","292178","0.0-109.0","6505afbedfdaf655c3cb53fb","665500ab8938657b03fbdba8","665792a594beed4f44ddd55a","634","stimuli/1000010.jpg","1","","prediction_trial","1","","true","","1","false","true","true","true","false","true","[1]","000","010","1","","","","","","",""
"","","","","","image-keyboard-response","135","292441","0.0-110.0","6505afbedfdaf655c3cb53fb","665500ab8938657b03fbdba8","665792a594beed4f44ddd55a","261","stimuli/10000101.jpg"," ","","feedback_trial","1","","","","","","","","","","","","","","","","","","","","",""
"","","","","","image-keyboard-response","136","293043","0.0-111.0","6505afbedfdaf655c3cb53fb","665500ab8938657b03fbdba8","665792a594beed4f44ddd55a","602","stimuli/2000001.jpg","2","","prediction_trial","2","","true","","2","false","true","true","true","false","true","[2]","000","001","1","","","","","","",""
"","","","","","image-keyboard-response","137","293237","0.0-112.0","6505afbedfdaf655c3cb53fb","665500ab8938657b03fbdba8","665792a594beed4f44ddd55a","193","stimuli/20000012.jpg"," ","","feedback_trial","2","","","","","","","","","","","","","","","","","","","","",""
"","","","","","image-keyboard-response","138","293956","0.0-113.0","6505afbedfdaf655c3cb53fb","665500ab8938657b03fbdba8","665792a594beed4f44ddd55a","717","stimuli/0110111.jpg","2","","prediction_trial","1","","false","","0","false","false","false","false","false","false","[1,0]","110","111","0","","","","","","",""
"","","","","","image-keyboard-response","139","294211","0.0-114.0","6505afbedfdaf655c3cb53fb","665500ab8938657b03fbdba8","665792a594beed4f44ddd55a","254","stimuli/01101111.jpg"," ","","feedback_trial","1","","","","","","","","","","","","","","","","","","","","",""
"","","","","","image-keyboard-response","140","294673","0.0-115.0","6505afbedfdaf655c3cb53fb","665500ab8938657b03fbdba8","665792a594beed4f44ddd55a","460","stimuli/2010010.jpg","2","","prediction_trial","2","","true","","2","true","true","true","true","true","true","[2]","010","010","1","","","","","","",""
"","","","","","image-keyboard-response","141","294924","0.0-116.0","6505afbedfdaf655c3cb53fb","665500ab8938657b03fbdba8","665792a594beed4f44ddd55a","250","stimuli/20100102.jpg"," ","","feedback_trial","2","","","","","","","","","","","","","","","","","","","","",""
"","","","","","image-keyboard-response","142","295465","0.0-117.0","6505afbedfdaf655c3cb53fb","665500ab8938657b03fbdba8","665792a594beed4f44ddd55a","539","stimuli/2101100.jpg","2","","prediction_trial","0","","false","","2","true","true","false","false","false","false","[0,2]","101","100","0","","","","","","",""
"","","","","","image-keyboard-response","143","295761","0.0-118.0","6505afbedfdaf655c3cb53fb","665500ab8938657b03fbdba8","665792a594beed4f44ddd55a","295","stimuli/21011000.jpg"," ","","feedback_trial","0","","","","","","","","","","","","","","","","","","","","",""
"","","","","","image-keyboard-response","144","296373","0.0-119.0","6505afbedfdaf655c3cb53fb","665500ab8938657b03fbdba8","665792a594beed4f44ddd55a","610","stimuli/2000100.jpg","2","","prediction_trial","2","","true","","2","true","true","true","true","true","true","[2]","000","100","1","","","","","","",""
"","","","","","image-keyboard-response","145","296613","0.0-120.0","6505afbedfdaf655c3cb53fb","665500ab8938657b03fbdba8","665792a594beed4f44ddd55a","238","stimuli/20001002.jpg"," ","","feedback_trial","2","","","","","","","","","","","","","","","","","","","","",""
"","","","","","image-keyboard-response","146","297442","0.0-121.0","6505afbedfdaf655c3cb53fb","665500ab8938657b03fbdba8","665792a594beed4f44ddd55a","822","stimuli/1111111.jpg","1","","prediction_trial","1","","true","","1","false","false","false","false","false","false","[0,1,2]","111","111","1","","","","","","",""
"","","","","","image-keyboard-response","147","298077","0.0-122.0","6505afbedfdaf655c3cb53fb","665500ab8938657b03fbdba8","665792a594beed4f44ddd55a","633","stimuli/11111111.jpg"," ","","feedback_trial","0","","","","","","","","","","","","","","","","","","","","",""
"","","","","","image-keyboard-response","148","298852","0.0-123.0","6505afbedfdaf655c3cb53fb","665500ab8938657b03fbdba8","665792a594beed4f44ddd55a","773","stimuli/0100101.jpg","2","","prediction_trial","0","","false","","0","false","false","false","true","false","false","[0]","100","101","0","","","","","","",""
"","","","","","image-keyboard-response","149","299316","0.0-124.0","6505afbedfdaf655c3cb53fb","665500ab8938657b03fbdba8","665792a594beed4f44ddd55a","463","stimuli/01001010.jpg"," ","","feedback_trial","0","","","","","","","","","","","","","","","","","","","","",""
"","","","","","image-keyboard-response","150","299851","0.0-125.0","6505afbedfdaf655c3cb53fb","665500ab8938657b03fbdba8","665792a594beed4f44ddd55a","534","stimuli/1011111.jpg","0","","prediction_trial","1","","false","","1","false","false","false","false","false","false","[1,2]","011","111","0","","","","","","",""
"","","","","","image-keyboard-response","151","300785","0.0-126.0","6505afbedfdaf655c3cb53fb","665500ab8938657b03fbdba8","665792a594beed4f44ddd55a","933","stimuli/10111111.jpg"," ","","feedback_trial","1","","","","","","","","","","","","","","","","","","","","",""
"","","","","","image-keyboard-response","152","301472","0.0-127.0","6505afbedfdaf655c3cb53fb","665500ab8938657b03fbdba8","665792a594beed4f44ddd55a","685","stimuli/0011111.jpg","0","","prediction_trial","0","","true","","0","false","false","true","true","false","false","[0]","011","111","1","","","","","","",""
"","","","","","image-keyboard-response","153","301722","0.0-128.0","6505afbedfdaf655c3cb53fb","665500ab8938657b03fbdba8","665792a594beed4f44ddd55a","249","stimuli/00111110.jpg"," ","","feedback_trial","0","","","","","","","","","","","","","","","","","","","","",""
"","","","","","image-keyboard-response","154","302269","0.0-129.0","6505afbedfdaf655c3cb53fb","665500ab8938657b03fbdba8","665792a594beed4f44ddd55a","545","stimuli/2100100.jpg","2","","prediction_trial","2","","true","","2","true","true","true","true","true","true","[2]","100","100","1","","","","","","",""
"","","","","","image-keyboard-response","155","302494","0.0-130.0","6505afbedfdaf655c3cb53fb","665500ab8938657b03fbdba8","665792a594beed4f44ddd55a","224","stimuli/21001002.jpg"," ","","feedback_trial","2","","","","","","","","","","","","","","","","","","","","",""
"","","","","","image-keyboard-response","156","303001","0.0-131.0","6505afbedfdaf655c3cb53fb","665500ab8938657b03fbdba8","665792a594beed4f44ddd55a","505","stimuli/2001000.jpg","2","","prediction_trial","2","","true","","2","true","true","false","true","false","true","[2]","001","000","1","","","","","","",""
"","","","","","image-keyboard-response","157","303264","0.0-132.0","6505afbedfdaf655c3cb53fb","665500ab8938657b03fbdba8","665792a594beed4f44ddd55a","261","stimuli/20010002.jpg"," ","","feedback_trial","2","","","","","","","","","","","","","","","","","","","","",""
"","","","","","image-keyboard-response","158","304189","0.0-133.0","6505afbedfdaf655c3cb53fb","665500ab8938657b03fbdba8","665792a594beed4f44ddd55a","924","stimuli/1101111.jpg","1","","prediction_trial","1","","true","","1","false","false","true","true","false","false","[1]","101","111","1","","","","","","",""
"","","","","","image-keyboard-response","159","304495","0.0-134.0","6505afbedfdaf655c3cb53fb","665500ab8938657b03fbdba8","665792a594beed4f44ddd55a","303","stimuli/11011111.jpg"," ","","feedback_trial","1","","","","","","","","","","","","","","","","","","","","",""
"","","","","","image-keyboard-response","160","305363","0.0-135.0","6505afbedfdaf655c3cb53fb","665500ab8938657b03fbdba8","665792a594beed4f44ddd55a","866","stimuli/1111011.jpg","2","","prediction_trial","0","","false","","1","false","false","false","false","false","false","[0,1,2]","111","011","0","","","","","","",""
"","","","","","image-keyboard-response","161","305698","0.0-136.0","6505afbedfdaf655c3cb53fb","665500ab8938657b03fbdba8","665792a594beed4f44ddd55a","333","stimuli/11110110.jpg"," ","","feedback_trial","0","","","","","","","","","","","","","","","","","","","","",""
"","","","","","image-keyboard-response","162","306497","0.0-137.0","6505afbedfdaf655c3cb53fb","665500ab8938657b03fbdba8","665792a594beed4f44ddd55a","797","stimuli/2000101.jpg","0","","prediction_trial","2","","false","","2","false","false","true","true","false","false","[2]","000","101","0","","","","","","",""
"","","","","","image-keyboard-response","163","306893","0.0-138.0","6505afbedfdaf655c3cb53fb","665500ab8938657b03fbdba8","665792a594beed4f44ddd55a","394","stimuli/20001012.jpg"," ","","feedback_trial","2","","","","","","","","","","","","","","","","","","","","",""
"","","","","","image-keyboard-response","164","307424","0.0-139.0","6505afbedfdaf655c3cb53fb","665500ab8938657b03fbdba8","665792a594beed4f44ddd55a","529","stimuli/2000110.jpg","2","","prediction_trial","2","","true","","2","true","true","true","true","true","true","[2]","000","110","1","","","","","","",""
"","","","","","image-keyboard-response","165","307693","0.0-140.0","6505afbedfdaf655c3cb53fb","665500ab8938657b03fbdba8","665792a594beed4f44ddd55a","268","stimuli/20001102.jpg"," ","","feedback_trial","2","","","","","","","","","","","","","","","","","","","","",""
"","","","","","image-keyboard-response","166","308724","0.0-141.0","6505afbedfdaf655c3cb53fb","665500ab8938657b03fbdba8","665792a594beed4f44ddd55a","1030","stimuli/2010000.jpg","2","","prediction_trial","2","","true","","2","true","true","true","true","true","true","[2]","010","000","1","","","","","","",""
"","","","","","image-keyboard-response","167","308908","0.0-142.0","6505afbedfdaf655c3cb53fb","665500ab8938657b03fbdba8","665792a594beed4f44ddd55a","182","stimuli/20100002.jpg"," ","","feedback_trial","2","","","","","","","","","","","","","","","","","","","","",""
"","","","","","image-keyboard-response","168","309475","0.0-143.0","6505afbedfdaf655c3cb53fb","665500ab8938657b03fbdba8","665792a594beed4f44ddd55a","566","stimuli/0001000.jpg","0","","prediction_trial","0","","true","","0","true","true","true","true","true","true","[0]","001","000","1","","","","","","",""
"","","","","","image-keyboard-response","169","309607","0.0-144.0","6505afbedfdaf655c3cb53fb","665500ab8938657b03fbdba8","665792a594beed4f44ddd55a","130","stimuli/00010000.jpg"," ","","feedback_trial","0","","","","","","","","","","","","","","","","","","","","",""
"","","","","","image-keyboard-response","170","310146","0.0-145.0","6505afbedfdaf655c3cb53fb","665500ab8938657b03fbdba8","665792a594beed4f44ddd55a","537","stimuli/1001100.jpg","1","","prediction_trial","1","","true","","1","true","true","true","true","true","true","[1]","001","100","1","","","","","","",""
"","","","","","image-keyboard-response","171","310242","0.0-146.0","6505afbedfdaf655c3cb53fb","665500ab8938657b03fbdba8","665792a594beed4f44ddd55a","95","stimuli/10011001.jpg"," ","","feedback_trial","1","","","","","","","","","","","","","","","","","","","","",""
"","","","","","image-keyboard-response","172","310753","0.0-147.0","6505afbedfdaf655c3cb53fb","665500ab8938657b03fbdba8","665792a594beed4f44ddd55a","502","stimuli/0101000.jpg","0","","prediction_trial","0","","true","","0","true","true","false","false","false","false","[2,0]","101","000","1","","","","","","",""
"","","","","","image-keyboard-response","173","310865","0.0-148.0","6505afbedfdaf655c3cb53fb","665500ab8938657b03fbdba8","665792a594beed4f44ddd55a","111","stimuli/01010000.jpg"," ","","feedback_trial","2","","","","","","","","","","","","","","","","","","","","",""
"","","","","","image-keyboard-response","174","311523","0.0-149.0","6505afbedfdaf655c3cb53fb","665500ab8938657b03fbdba8","665792a594beed4f44ddd55a","655","stimuli/0011100.jpg","0","","prediction_trial","0","","true","","0","false","true","true","true","false","true","[0]","011","100","1","","","","","","",""
"","","","","","image-keyboard-response","175","311595","0.0-150.0","6505afbedfdaf655c3cb53fb","665500ab8938657b03fbdba8","665792a594beed4f44ddd55a","72","stimuli/00111000.jpg"," ","","feedback_trial","0","","","","","","","","","","","","","","","","","","","","",""
"","","","","","image-keyboard-response","176","312121","0.0-151.0","6505afbedfdaf655c3cb53fb","665500ab8938657b03fbdba8","665792a594beed4f44ddd55a","525","stimuli/1111000.jpg","1","","prediction_trial","2","","false","","1","true","true","false","false","false","false","[1,2,0]","111","000","0","","","","","","",""
"","","","","","image-keyboard-response","177","312231","0.0-152.0","6505afbedfdaf655c3cb53fb","665500ab8938657b03fbdba8","665792a594beed4f44ddd55a","109","stimuli/11110002.jpg"," ","","feedback_trial","1","","","","","","","","","","","","","","","","","","","","",""
"","","","","","image-keyboard-response","178","312793","0.0-153.0","6505afbedfdaf655c3cb53fb","665500ab8938657b03fbdba8","665792a594beed4f44ddd55a","560","stimuli/1001111.jpg","0","","prediction_trial","1","","false","","1","false","false","true","true","false","false","[1]","001","111","0","","","","","","",""
"","","","","","image-keyboard-response","179","312884","0.0-154.0","6505afbedfdaf655c3cb53fb","665500ab8938657b03fbdba8","665792a594beed4f44ddd55a","89","stimuli/10011111.jpg"," ","","feedback_trial","1","","","","","","","","","","","","","","","","","","","","",""
"","","","","","image-keyboard-response","180","313439","0.0-155.0","6505afbedfdaf655c3cb53fb","665500ab8938657b03fbdba8","665792a594beed4f44ddd55a","555","stimuli/1101000.jpg","1","","prediction_trial","1","","true","","1","true","true","true","true","true","true","[1]","101","000","1","","","","","","",""
"","","","","","image-keyboard-response","181","313495","0.0-156.0","6505afbedfdaf655c3cb53fb","665500ab8938657b03fbdba8","665792a594beed4f44ddd55a","55","stimuli/11010001.jpg"," ","","feedback_trial","1","","","","","","","","","","","","","","","","","","","","",""
"","","","","","image-keyboard-response","182","314150","0.0-157.0","6505afbedfdaf655c3cb53fb","665500ab8938657b03fbdba8","665792a594beed4f44ddd55a","653","stimuli/2100111.jpg","1","","prediction_trial","2","","false","","2","false","false","true","true","false","false","[2]","100","111","0","","","","","","",""
"","","","","","image-keyboard-response","183","314261","0.0-158.0","6505afbedfdaf655c3cb53fb","665500ab8938657b03fbdba8","665792a594beed4f44ddd55a","110","stimuli/21001112.jpg"," ","","feedback_trial","2","","","","","","","","","","","","","","","","","","","","",""
"","","","","","image-keyboard-response","184","384253","0.0-159.0","6505afbedfdaf655c3cb53fb","665500ab8938657b03fbdba8","665792a594beed4f44ddd55a","69998","stimuli/2010110.jpg","2","","prediction_trial","2","","true","","2","true","true","true","true","true","true","[2]","010","110","1","","","","","","",""
"","","","","","image-keyboard-response","185","385261","0.0-160.0","6505afbedfdaf655c3cb53fb","665500ab8938657b03fbdba8","665792a594beed4f44ddd55a","1007","stimuli/20101102.jpg"," ","","feedback_trial","2","","","","","","","","","","","","","","","","","","","","",""
"","","","","","image-keyboard-response","186","385747","0.0-161.0","6505afbedfdaf655c3cb53fb","665500ab8938657b03fbdba8","665792a594beed4f44ddd55a","485","stimuli/2000011.jpg","0","","prediction_trial","2","","false","","2","false","false","true","true","false","false","[2]","000","011","0","","","","","","",""
"","","","","","image-keyboard-response","187","386102","0.0-162.0","6505afbedfdaf655c3cb53fb","665500ab8938657b03fbdba8","665792a594beed4f44ddd55a","355","stimuli/20000112.jpg"," ","","feedback_trial","2","","","","","","","","","","","","","","","","","","","","",""
"","","","","","image-keyboard-response","188","386676","0.0-163.0","6505afbedfdaf655c3cb53fb","665500ab8938657b03fbdba8","665792a594beed4f44ddd55a","573","stimuli/0101010.jpg","0","","prediction_trial","0","","true","","0","true","true","false","false","false","false","[2,0]","101","010","1","","","","","","",""
"","","","","","image-keyboard-response","189","386864","0.0-164.0","6505afbedfdaf655c3cb53fb","665500ab8938657b03fbdba8","665792a594beed4f44ddd55a","187","stimuli/01010100.jpg"," ","","feedback_trial","2","","","","","","","","","","","","","","","","","","","","",""
"","","","","","image-keyboard-response","190","387407","0.0-165.0","6505afbedfdaf655c3cb53fb","665500ab8938657b03fbdba8","665792a594beed4f44ddd55a","542","stimuli/0101111.jpg","1","","prediction_trial","2","","false","","0","false","false","false","false","false","false","[0,2]","101","111","0","","","","","","",""
"","","","","","image-keyboard-response","191","387716","0.0-166.0","6505afbedfdaf655c3cb53fb","665500ab8938657b03fbdba8","665792a594beed4f44ddd55a","307","stimuli/01011112.jpg"," ","","feedback_trial","0","","","","","","","","","","","","","","","","","","","","",""
"","","","","","image-keyboard-response","192","388297","0.0-167.0","6505afbedfdaf655c3cb53fb","665500ab8938657b03fbdba8","665792a594beed4f44ddd55a","579","stimuli/0100100.jpg","2","","prediction_trial","0","","false","","0","false","true","false","true","false","true","[0]","100","100","0","","","","","","",""
"","","","","","image-keyboard-response","193","388413","0.0-168.0","6505afbedfdaf655c3cb53fb","665500ab8938657b03fbdba8","665792a594beed4f44ddd55a","114","stimuli/01001000.jpg"," ","","feedback_trial","0","","","","","","","","","","","","","","","","","","","","",""
"","","","","","image-keyboard-response","194","389472","0.0-169.0","6505afbedfdaf655c3cb53fb","665500ab8938657b03fbdba8","665792a594beed4f44ddd55a","1057","stimuli/1011000.jpg","0","","prediction_trial","2","","false","","1","true","true","false","false","false","false","[1,2]","011","000","0","","","","","","",""
"","","","","","image-keyboard-response","195","389740","0.0-170.0","6505afbedfdaf655c3cb53fb","665500ab8938657b03fbdba8","665792a594beed4f44ddd55a","268","stimuli/10110002.jpg"," ","","feedback_trial","1","","","","","","","","","","","","","","","","","","","","",""
"","","","","","image-keyboard-response","196","390793","0.0-171.0","6505afbedfdaf655c3cb53fb","665500ab8938657b03fbdba8","665792a594beed4f44ddd55a","1051","stimuli/2101101.jpg","2","","prediction_trial","2","","true","","2","false","false","false","false","false","false","[0,2]","101","101","1","","","","","","",""
"","","","","","image-keyboard-response","197","391071","0.0-172.0","6505afbedfdaf655c3cb53fb","665500ab8938657b03fbdba8","665792a594beed4f44ddd55a","277","stimuli/21011012.jpg"," ","","feedback_trial","0","","","","","","","","","","","","","","","","","","","","",""
"","","","","","image-keyboard-response","198","391700","0.0-173.0","6505afbedfdaf655c3cb53fb","665500ab8938657b03fbdba8","665792a594beed4f44ddd55a","624","stimuli/1010101.jpg","1","","prediction_trial","1","","true","","1","true","true","false","true","false","true","[1]","010","101","1","","","","","","",""
"","","","","","image-keyboard-response","199","392297","0.0-174.0","6505afbedfdaf655c3cb53fb","665500ab8938657b03fbdba8","665792a594beed4f44ddd55a","596","stimuli/10101011.jpg"," ","","feedback_trial","1","","","","","","","","","","","","","","","","","","","","",""
"","","","","","image-keyboard-response","200","393076","0.0-175.0","6505afbedfdaf655c3cb53fb","665500ab8938657b03fbdba8","665792a594beed4f44ddd55a","776","stimuli/2100011.jpg","1","","prediction_trial","2","","false","","2","false","false","true","true","false","false","[2]","100","011","0","","","","","","",""
"","","","","","image-keyboard-response","201","393670","0.0-176.0","6505afbedfdaf655c3cb53fb","665500ab8938657b03fbdba8","665792a594beed4f44ddd55a","592","stimuli/21000112.jpg"," ","","feedback_trial","2","","","","","","","","","","","","","","","","","","","","",""
"","","","","","image-keyboard-response","202","394463","0.0-177.0","6505afbedfdaf655c3cb53fb","665500ab8938657b03fbdba8","665792a594beed4f44ddd55a","791","stimuli/0001100.jpg","0","","prediction_trial","0","","true","","0","false","true","true","true","false","true","[0]","001","100","1","","","","","","",""
"","","","","","image-keyboard-response","203","394947","0.0-178.0","6505afbedfdaf655c3cb53fb","665500ab8938657b03fbdba8","665792a594beed4f44ddd55a","482","stimuli/00011000.jpg"," ","","feedback_trial","0","","","","","","","","","","","","","","","","","","","","",""
"","","","","","image-keyboard-response","204","395568","0.0-179.0","6505afbedfdaf655c3cb53fb","665500ab8938657b03fbdba8","665792a594beed4f44ddd55a","618","stimuli/2010100.jpg","2","","prediction_trial","2","","true","","2","true","true","true","true","true","true","[2]","010","100","1","","","","","","",""
"","","","","","image-keyboard-response","205","396151","0.0-180.0","6505afbedfdaf655c3cb53fb","665500ab8938657b03fbdba8","665792a594beed4f44ddd55a","581","stimuli/20101002.jpg"," ","","feedback_trial","2","","","","","","","","","","","","","","","","","","","","",""
"","","","","","image-keyboard-response","206","396805","0.0-181.0","6505afbedfdaf655c3cb53fb","665500ab8938657b03fbdba8","665792a594beed4f44ddd55a","653","stimuli/2110001.jpg","2","","prediction_trial","2","","true","","2","false","true","true","true","false","true","[2]","110","001","1","","","","","","",""
"","","","","","image-keyboard-response","207","397169","0.0-182.0","6505afbedfdaf655c3cb53fb","665500ab8938657b03fbdba8","665792a594beed4f44ddd55a","362","stimuli/21100012.jpg"," ","","feedback_trial","2","","","","","","","","","","","","","","","","","","","","",""
"","","","","","image-keyboard-response","208","397990","0.0-183.0","6505afbedfdaf655c3cb53fb","665500ab8938657b03fbdba8","665792a594beed4f44ddd55a","819","stimuli/0110011.jpg","0","","prediction_trial","0","","true","","0","true","true","false","false","false","false","[0,1]","110","011","1","","","","","","",""
"","","","","","image-keyboard-response","209","398455","0.0-184.0","6505afbedfdaf655c3cb53fb","665500ab8938657b03fbdba8","665792a594beed4f44ddd55a","463","stimuli/01100110.jpg"," ","","feedback_trial","0","","","","","","","","","","","","","","","","","","","","",""
"","","","","","image-keyboard-response","210","399357","0.0-185.0","6505afbedfdaf655c3cb53fb","665500ab8938657b03fbdba8","665792a594beed4f44ddd55a","900","stimuli/2110010.jpg","2","","prediction_trial","2","","true","","2","true","true","true","true","true","true","[2]","110","010","1","","","","","","",""
"","","","","","image-keyboard-response","211","399660","0.0-186.0","6505afbedfdaf655c3cb53fb","665500ab8938657b03fbdba8","665792a594beed4f44ddd55a","300","stimuli/21100102.jpg"," ","","feedback_trial","2","","","","","","","","","","","","","","","","","","","","",""
"","","","","","image-keyboard-response","212","420637","0.0-187.0","6505afbedfdaf655c3cb53fb","665500ab8938657b03fbdba8","665792a594beed4f44ddd55a","20975","stimuli/1101100.jpg","1","","prediction_trial","1","","true","","1","true","true","true","true","true","true","[1]","101","100","1","","","","","","",""
"","","","","","image-keyboard-response","213","421005","0.0-188.0","6505afbedfdaf655c3cb53fb","665500ab8938657b03fbdba8","665792a594beed4f44ddd55a","367","stimuli/11011001.jpg"," ","","feedback_trial","1","","","","","","","","","","","","","","","","","","","","",""
"","","","","","image-keyboard-response","214","421798","0.0-189.0","6505afbedfdaf655c3cb53fb","665500ab8938657b03fbdba8","665792a594beed4f44ddd55a","792","stimuli/1001110.jpg","1","","prediction_trial","1","","true","","1","false","false","true","true","false","false","[1]","001","110","1","","","","","","",""
"","","","","","image-keyboard-response","215","422083","0.0-190.0","6505afbedfdaf655c3cb53fb","665500ab8938657b03fbdba8","665792a594beed4f44ddd55a","283","stimuli/10011101.jpg"," ","","feedback_trial","1","","","","","","","","","","","","","","","","","","","","",""
"","","","","","image-keyboard-response","216","422553","0.0-191.0","6505afbedfdaf655c3cb53fb","665500ab8938657b03fbdba8","665792a594beed4f44ddd55a","469","stimuli/0011010.jpg","0","","prediction_trial","0","","true","","0","true","true","true","true","true","true","[0]","011","010","1","","","","","","",""
"","","","","","image-keyboard-response","217","422755","0.0-192.0","6505afbedfdaf655c3cb53fb","665500ab8938657b03fbdba8","665792a594beed4f44ddd55a","201","stimuli/00110100.jpg"," ","","feedback_trial","0","","","","","","","","","","","","","","","","","","","","",""
"","","","","","image-keyboard-response","218","423212","0.0-193.0","6505afbedfdaf655c3cb53fb","665500ab8938657b03fbdba8","665792a594beed4f44ddd55a","457","stimuli/0000011.jpg","0","","prediction_trial","0","","true","","0","true","true","true","true","true","true","[0]","000","011","1","","","","","","",""
"","","","","","image-keyboard-response","219","423337","0.0-194.0","6505afbedfdaf655c3cb53fb","665500ab8938657b03fbdba8","665792a594beed4f44ddd55a","123","stimuli/00000110.jpg"," ","","feedback_trial","0","","","","","","","","","","","","","","","","","","","","",""
"","","","","","image-keyboard-response","220","423919","0.0-195.0","6505afbedfdaf655c3cb53fb","665500ab8938657b03fbdba8","665792a594beed4f44ddd55a","580","stimuli/1100011.jpg","1","","prediction_trial","1","","true","","1","false","false","true","true","false","false","[1]","100","011","1","","","","","","",""
"","","","","","image-keyboard-response","221","424096","0.0-196.0","6505afbedfdaf655c3cb53fb","665500ab8938657b03fbdba8","665792a594beed4f44ddd55a","176","stimuli/11000111.jpg"," ","","feedback_trial","1","","","","","","","","","","","","","","","","","","","","",""
"","","","","","image-keyboard-response","222","424697","0.0-197.0","6505afbedfdaf655c3cb53fb","665500ab8938657b03fbdba8","665792a594beed4f44ddd55a","599","stimuli/2001011.jpg","1","","prediction_trial","2","","false","","2","false","false","false","true","false","false","[2]","001","011","0","","","","","","",""
"","","","","","image-keyboard-response","223","424858","0.0-198.0","6505afbedfdaf655c3cb53fb","665500ab8938657b03fbdba8","665792a594beed4f44ddd55a","160","stimuli/20010112.jpg"," ","","feedback_trial","2","","","","","","","","","","","","","","","","","","","","",""
"","","","","","image-keyboard-response","224","425431","0.0-199.0","6505afbedfdaf655c3cb53fb","665500ab8938657b03fbdba8","665792a594beed4f44ddd55a","565","stimuli/0011101.jpg","0","","prediction_trial","0","","true","","0","false","false","true","true","false","false","[0]","011","101","1","","","","","","",""
"","","","","","image-keyboard-response","225","425560","0.0-200.0","6505afbedfdaf655c3cb53fb","665500ab8938657b03fbdba8","665792a594beed4f44ddd55a","129","stimuli/00111010.jpg"," ","","feedback_trial","0","","","","","","","","","","","","","","","","","","","","",""
"","","","","","image-keyboard-response","226","426079","0.0-201.0","6505afbedfdaf655c3cb53fb","665500ab8938657b03fbdba8","665792a594beed4f44ddd55a","517","stimuli/0100001.jpg","0","","prediction_trial","0","","true","","0","true","true","false","true","false","true","[0]","100","001","1","","","","","","",""
"","","","","","image-keyboard-response","227","426180","0.0-202.0","6505afbedfdaf655c3cb53fb","665500ab8938657b03fbdba8","665792a594beed4f44ddd55a","101","stimuli/01000010.jpg"," ","","feedback_trial","0","","","","","","","","","","","","","","","","","","","","",""
"","","","","","image-keyboard-response","228","426747","0.0-203.0","6505afbedfdaf655c3cb53fb","665500ab8938657b03fbdba8","665792a594beed4f44ddd55a","566","stimuli/2001100.jpg","2","","prediction_trial","2","","true","","2","true","true","false","true","false","true","[2]","001","100","1","","","","","","",""
"","","","","","image-keyboard-response","229","426946","0.0-204.0","6505afbedfdaf655c3cb53fb","665500ab8938657b03fbdba8","665792a594beed4f44ddd55a","198","stimuli/20011002.jpg"," ","","feedback_trial","2","","","","","","","","","","","","","","","","","","","","",""
"","","","","","image-keyboard-response","230","427583","0.0-205.0","6505afbedfdaf655c3cb53fb","665500ab8938657b03fbdba8","665792a594beed4f44ddd55a","636","stimuli/2011010.jpg","2","","prediction_trial","2","","true","","2","true","true","false","false","false","false","[2,1]","011","010","1","","","","","","",""
"","","","","","image-keyboard-response","231","427705","0.0-206.0","6505afbedfdaf655c3cb53fb","665500ab8938657b03fbdba8","665792a594beed4f44ddd55a","121","stimuli/20110102.jpg"," ","","feedback_trial","2","","","","","","","","","","","","","","","","","","","","",""
"","","","","","image-keyboard-response","232","428327","0.0-207.0","6505afbedfdaf655c3cb53fb","665500ab8938657b03fbdba8","665792a594beed4f44ddd55a","621","stimuli/2011001.jpg","0","","prediction_trial","2","","false","","2","false","true","false","false","false","false","[1,2]","011","001","0","","","","","","",""
"","","","","","image-keyboard-response","233","428901","0.0-208.0","6505afbedfdaf655c3cb53fb","665500ab8938657b03fbdba8","665792a594beed4f44ddd55a","572","stimuli/20110012.jpg"," ","","feedback_trial","1","","","","","","","","","","","","","","","","","","","","",""
"","","","","","image-keyboard-response","234","429443","0.0-209.0","6505afbedfdaf655c3cb53fb","665500ab8938657b03fbdba8","665792a594beed4f44ddd55a","541","stimuli/1010001.jpg","1","","prediction_trial","1","","true","","1","true","true","false","true","false","true","[1]","010","001","1","","","","","","",""
"","","","","","image-keyboard-response","235","429619","0.0-210.0","6505afbedfdaf655c3cb53fb","665500ab8938657b03fbdba8","665792a594beed4f44ddd55a","174","stimuli/10100011.jpg"," ","","feedback_trial","1","","","","","","","","","","","","","","","","","","","","",""
"","","","","","image-keyboard-response","236","430380","0.0-211.0","6505afbedfdaf655c3cb53fb","665500ab8938657b03fbdba8","665792a594beed4f44ddd55a","760","stimuli/2010111.jpg","2","","prediction_trial","2","","true","","2","false","false","true","true","false","false","[2]","010","111","1","","","","","","",""
"","","","","","image-keyboard-response","237","430555","0.0-212.0","6505afbedfdaf655c3cb53fb","665500ab8938657b03fbdba8","665792a594beed4f44ddd55a","173","stimuli/20101112.jpg"," ","","feedback_trial","2","","","","","","","","","","","","","","","","","","","","",""
"","","","","","image-keyboard-response","238","431074","0.0-213.0","6505afbedfdaf655c3cb53fb","665500ab8938657b03fbdba8","665792a594beed4f44ddd55a","517","stimuli/2110110.jpg","2","","prediction_trial","2","","true","","2","true","true","true","true","true","true","[2]","110","110","1","","","","","","",""
"","","","","","image-keyboard-response","239","431181","0.0-214.0","6505afbedfdaf655c3cb53fb","665500ab8938657b03fbdba8","665792a594beed4f44ddd55a","106","stimuli/21101102.jpg"," ","","feedback_trial","2","","","","","","","","","","","","","","","","","","","","",""
"","","","","","image-keyboard-response","240","431701","0.0-215.0","6505afbedfdaf655c3cb53fb","665500ab8938657b03fbdba8","665792a594beed4f44ddd55a","518","stimuli/0011001.jpg","0","","prediction_trial","0","","true","","0","true","true","true","true","true","true","[0]","011","001","1","","","","","","",""
"","","","","","image-keyboard-response","241","431826","0.0-216.0","6505afbedfdaf655c3cb53fb","665500ab8938657b03fbdba8","665792a594beed4f44ddd55a","123","stimuli/00110010.jpg"," ","","feedback_trial","0","","","","","","","","","","","","","","","","","","","","",""
"","","","","","image-keyboard-response","242","432657","0.0-217.0","6505afbedfdaf655c3cb53fb","665500ab8938657b03fbdba8","665792a594beed4f44ddd55a","830","stimuli/0001101.jpg","0","","prediction_trial","0","","true","","0","false","false","true","true","false","false","[0]","001","101","1","","","","","","",""
"","","","","","image-keyboard-response","243","432783","0.0-218.0","6505afbedfdaf655c3cb53fb","665500ab8938657b03fbdba8","665792a594beed4f44ddd55a","124","stimuli/00011010.jpg"," ","","feedback_trial","0","","","","","","","","","","","","","","","","","","","","",""
"","","","","","image-keyboard-response","244","433371","0.0-219.0","6505afbedfdaf655c3cb53fb","665500ab8938657b03fbdba8","665792a594beed4f44ddd55a","587","stimuli/2101110.jpg","2","","prediction_trial","2","","true","","2","true","true","false","false","false","false","[0,2]","101","110","1","","","","","","",""
"","","","","","image-keyboard-response","245","433510","0.0-220.0","6505afbedfdaf655c3cb53fb","665500ab8938657b03fbdba8","665792a594beed4f44ddd55a","138","stimuli/21011102.jpg"," ","","feedback_trial","0","","","","","","","","","","","","","","","","","","","","",""
"","","","","","image-keyboard-response","246","434181","0.0-221.0","6505afbedfdaf655c3cb53fb","665500ab8938657b03fbdba8","665792a594beed4f44ddd55a","668","stimuli/1110110.jpg","1","","prediction_trial","0","","false","","1","false","false","false","false","false","false","[0,1]","110","110","0","","","","","","",""
"","","","","","image-keyboard-response","247","434345","0.0-222.0","6505afbedfdaf655c3cb53fb","665500ab8938657b03fbdba8","665792a594beed4f44ddd55a","162","stimuli/11101100.jpg"," ","","feedback_trial","0","","","","","","","","","","","","","","","","","","","","",""
"","","","","","image-keyboard-response","248","438282","0.0-223.0","6505afbedfdaf655c3cb53fb","665500ab8938657b03fbdba8","665792a594beed4f44ddd55a","3935","stimuli/2011100.jpg","2","","prediction_trial","2","","true","","2","true","true","false","false","false","false","[2,1]","011","100","1","","","","","","",""
"","","","","","image-keyboard-response","249","438718","0.0-224.0","6505afbedfdaf655c3cb53fb","665500ab8938657b03fbdba8","665792a594beed4f44ddd55a","434","stimuli/20111002.jpg"," ","","feedback_trial","2","","","","","","","","","","","","","","","","","","","","",""
"","","","","","image-keyboard-response","250","439394","0.0-225.0","6505afbedfdaf655c3cb53fb","665500ab8938657b03fbdba8","665792a594beed4f44ddd55a","669","stimuli/1010100.jpg","1","","prediction_trial","1","","true","","1","true","true","false","true","false","true","[1]","010","100","1","","","","","","",""
"","","","","","image-keyboard-response","251","439573","0.0-226.0","6505afbedfdaf655c3cb53fb","665500ab8938657b03fbdba8","665792a594beed4f44ddd55a","177","stimuli/10101001.jpg"," ","","feedback_trial","1","","","","","","","","","","","","","","","","","","","","",""
"","","","","","image-keyboard-response","252","440269","0.0-227.0","6505afbedfdaf655c3cb53fb","665500ab8938657b03fbdba8","665792a594beed4f44ddd55a","695","stimuli/1100010.jpg","1","","prediction_trial","1","","true","","1","false","true","true","true","false","true","[1]","100","010","1","","","","","","",""
"","","","","","image-keyboard-response","253","440425","0.0-228.0","6505afbedfdaf655c3cb53fb","665500ab8938657b03fbdba8","665792a594beed4f44ddd55a","154","stimuli/11000101.jpg"," ","","feedback_trial","1","","","","","","","","","","","","","","","","","","","","",""
"","","","","","image-keyboard-response","254","441154","0.0-229.0","6505afbedfdaf655c3cb53fb","665500ab8938657b03fbdba8","665792a594beed4f44ddd55a","727","stimuli/2111001.jpg","1","","prediction_trial","1","","true","","2","false","true","false","false","false","false","[0,1,2]","111","001","1","","","","","","",""
"","","","","","image-keyboard-response","255","441267","0.0-230.0","6505afbedfdaf655c3cb53fb","665500ab8938657b03fbdba8","665792a594beed4f44ddd55a","112","stimuli/21110011.jpg"," ","","feedback_trial","0","","","","","","","","","","","","","","","","","","","","",""
"","","","","","image-keyboard-response","256","449447","0.0-231.0","6505afbedfdaf655c3cb53fb","665500ab8938657b03fbdba8","665792a594beed4f44ddd55a","8188","stimuli/0010000.jpg","0","","prediction_trial","0","","true","","0","true","true","true","true","true","true","[0]","010","000","1","","","","","","",""
"","","","","","image-keyboard-response","257","449944","0.0-232.0","6505afbedfdaf655c3cb53fb","665500ab8938657b03fbdba8","665792a594beed4f44ddd55a","497","stimuli/00100000.jpg"," ","","feedback_trial","0","","","","","","","","","","","","","","","","","","","","",""
"","","","","","image-keyboard-response","258","450706","0.0-233.0","6505afbedfdaf655c3cb53fb","665500ab8938657b03fbdba8","665792a594beed4f44ddd55a","760","stimuli/2011110.jpg","0","","prediction_trial","1","","false","","2","true","true","false","false","false","false","[1,2]","011","110","0","","","","","","",""
"","","","","","image-keyboard-response","259","450854","0.0-234.0","6505afbedfdaf655c3cb53fb","665500ab8938657b03fbdba8","665792a594beed4f44ddd55a","147","stimuli/20111101.jpg"," ","","feedback_trial","1","","","","","","","","","","","","","","","","","","","","",""
"","","","","","image-keyboard-response","260","451613","0.0-235.0","6505afbedfdaf655c3cb53fb","665500ab8938657b03fbdba8","665792a594beed4f44ddd55a","757","stimuli/0110010.jpg","0","","prediction_trial","0","","true","","0","true","true","false","false","false","false","[1,0]","110","010","1","","","","","","",""
"","","","","","image-keyboard-response","261","452029","0.0-236.0","6505afbedfdaf655c3cb53fb","665500ab8938657b03fbdba8","665792a594beed4f44ddd55a","415","stimuli/01100100.jpg"," ","","feedback_trial","1","","","","","","","","","","","","","","","","","","","","",""
"","","","","","image-keyboard-response","262","452596","0.0-237.0","6505afbedfdaf655c3cb53fb","665500ab8938657b03fbdba8","665792a594beed4f44ddd55a","566","stimuli/0100000.jpg","0","","prediction_trial","0","","true","","0","true","true","false","true","false","true","[0]","100","000","1","","","","","","",""
"","","","","","image-keyboard-response","263","452703","0.0-238.0","6505afbedfdaf655c3cb53fb","665500ab8938657b03fbdba8","665792a594beed4f44ddd55a","107","stimuli/01000000.jpg"," ","","feedback_trial","0","","","","","","","","","","","","","","","","","","","","",""
"","","","","","image-keyboard-response","264","473522","0.0-239.0","6505afbedfdaf655c3cb53fb","665500ab8938657b03fbdba8","665792a594beed4f44ddd55a","20818","stimuli/2000010.jpg","2","","prediction_trial","2","","true","","2","true","true","true","true","true","true","[2]","000","010","1","","","","","","",""
"","","","","","image-keyboard-response","265","473691","0.0-240.0","6505afbedfdaf655c3cb53fb","665500ab8938657b03fbdba8","665792a594beed4f44ddd55a","168","stimuli/20000102.jpg"," ","","feedback_trial","2","","","","","","","","","","","","","","","","","","","","",""
"","","","","","image-keyboard-response","266","474447","0.0-241.0","6505afbedfdaf655c3cb53fb","665500ab8938657b03fbdba8","665792a594beed4f44ddd55a","755","stimuli/2010011.jpg","2","","prediction_trial","2","","true","","2","false","false","true","true","false","false","[2]","010","011","1","","","","","","",""
"","","","","","image-keyboard-response","267","474555","0.0-242.0","6505afbedfdaf655c3cb53fb","665500ab8938657b03fbdba8","665792a594beed4f44ddd55a","108","stimuli/20100112.jpg"," ","","feedback_trial","2","","","","","","","","","","","","","","","","","","","","",""
"","","","","","image-keyboard-response","268","475071","0.0-243.0","6505afbedfdaf655c3cb53fb","665500ab8938657b03fbdba8","665792a594beed4f44ddd55a","515","stimuli/1110001.jpg","1","","prediction_trial","0","","false","","1","true","true","false","false","false","false","[1,0]","110","001","0","","","","","","",""
"","","","","","image-keyboard-response","269","475179","0.0-244.0","6505afbedfdaf655c3cb53fb","665500ab8938657b03fbdba8","665792a594beed4f44ddd55a","106","stimuli/11100010.jpg"," ","","feedback_trial","1","","","","","","","","","","","","","","","","","","","","",""
"","","","","","image-keyboard-response","270","475719","0.0-245.0","6505afbedfdaf655c3cb53fb","665500ab8938657b03fbdba8","665792a594beed4f44ddd55a","539","stimuli/2100001.jpg","1","","prediction_trial","2","","false","","2","false","true","true","true","false","true","[2]","100","001","0","","","","","","",""
"","","","","","image-keyboard-response","271","475841","0.0-246.0","6505afbedfdaf655c3cb53fb","665500ab8938657b03fbdba8","665792a594beed4f44ddd55a","122","stimuli/21000012.jpg"," ","","feedback_trial","2","","","","","","","","","","","","","","","","","","","","",""
"","","","","","image-keyboard-response","272","476259","0.0-247.0","6505afbedfdaf655c3cb53fb","665500ab8938657b03fbdba8","665792a594beed4f44ddd55a","417","stimuli/1000100.jpg","1","","prediction_trial","1","","true","","1","true","true","true","true","true","true","[1]","000","100","1","","","","","","",""
"","","","","","image-keyboard-response","273","476351","0.0-248.0","6505afbedfdaf655c3cb53fb","665500ab8938657b03fbdba8","665792a594beed4f44ddd55a","91","stimuli/10001001.jpg"," ","","feedback_trial","1","","","","","","","","","","","","","","","","","","","","",""
"","","","","","image-keyboard-response","274","476585","0.0-249.0","6505afbedfdaf655c3cb53fb","665500ab8938657b03fbdba8","665792a594beed4f44ddd55a","234","stimuli/0001001.jpg","1","","prediction_trial","0","","false","","0","true","true","true","true","true","true","[0]","001","001","0","","","","","","",""
"","","","","","image-keyboard-response","275","476662","0.0-250.0","6505afbedfdaf655c3cb53fb","665500ab8938657b03fbdba8","665792a594beed4f44ddd55a","77","stimuli/00010010.jpg"," ","","feedback_trial","0","","","","","","","","","","","","","","","","","","","","",""
"","","","","","image-keyboard-response","276","476900","0.0-251.0","6505afbedfdaf655c3cb53fb","665500ab8938657b03fbdba8","665792a594beed4f44ddd55a","238","stimuli/1010011.jpg","1","","prediction_trial","1","","true","","1","false","false","false","true","false","false","[1]","010","011","1","","","","","","",""
"","","","","","image-keyboard-response","277","476966","0.0-252.0","6505afbedfdaf655c3cb53fb","665500ab8938657b03fbdba8","665792a594beed4f44ddd55a","65","stimuli/10100111.jpg"," ","","feedback_trial","1","","","","","","","","","","","","","","","","","","","","",""
"","","","","","image-keyboard-response","278","477183","0.0-253.0","6505afbedfdaf655c3cb53fb","665500ab8938657b03fbdba8","665792a594beed4f44ddd55a","217","stimuli/1010111.jpg","1","","prediction_trial","1","","true","","1","false","false","false","true","false","false","[1]","010","111","1","","","","","","",""
"","","","","","image-keyboard-response","279","477238","0.0-254.0","6505afbedfdaf655c3cb53fb","665500ab8938657b03fbdba8","665792a594beed4f44ddd55a","53","stimuli/10101111.jpg"," ","","feedback_trial","1","","","","","","","","","","","","","","","","","","","","",""
"","","","","","image-keyboard-response","280","477440","0.0-255.0","6505afbedfdaf655c3cb53fb","665500ab8938657b03fbdba8","665792a594beed4f44ddd55a","202","stimuli/1001101.jpg","1","","prediction_trial","1","","true","","1","true","true","true","true","true","true","[1]","001","101","1","","","","","","",""
"","","","","","image-keyboard-response","281","477495","0.0-256.0","6505afbedfdaf655c3cb53fb","665500ab8938657b03fbdba8","665792a594beed4f44ddd55a","54","stimuli/10011011.jpg"," ","","feedback_trial","1","","","","","","","","","","","","","","","","","","","","",""
"","","","","","image-keyboard-response","282","477687","0.0-257.0","6505afbedfdaf655c3cb53fb","665500ab8938657b03fbdba8","665792a594beed4f44ddd55a","191","stimuli/2111100.jpg","1","","prediction_trial","0","","false","","2","true","true","false","false","false","false","[2,0,1]","111","100","0","","","","","","",""
"","","","","","image-keyboard-response","283","477726","0.0-258.0","6505afbedfdaf655c3cb53fb","665500ab8938657b03fbdba8","665792a594beed4f44ddd55a","38","stimuli/21111000.jpg"," ","","feedback_trial","2","","","","","","","","","","","","","","","","","","","","",""
"","","","","","image-keyboard-response","284","477881","0.0-259.0","6505afbedfdaf655c3cb53fb","665500ab8938657b03fbdba8","665792a594beed4f44ddd55a","154","stimuli/2111011.jpg","1","","prediction_trial","2","","false","","2","false","false","false","false","false","false","[2,1,0]","111","011","0","","","","","","",""
"","","","","","image-keyboard-response","285","477929","0.0-260.0","6505afbedfdaf655c3cb53fb","665500ab8938657b03fbdba8","665792a594beed4f44ddd55a","46","stimuli/21110112.jpg"," ","","feedback_trial","2","","","","","","","","","","","","","","","","","","","","",""
"","","","","","image-keyboard-response","286","478052","0.0-261.0","6505afbedfdaf655c3cb53fb","665500ab8938657b03fbdba8","665792a594beed4f44ddd55a","123","stimuli/0100110.jpg","1","","prediction_trial","0","","false","","0","false","false","false","true","false","false","[0]","100","110","0","","","","","","",""
"","","","","","image-keyboard-response","287","478120","0.0-262.0","6505afbedfdaf655c3cb53fb","665500ab8938657b03fbdba8","665792a594beed4f44ddd55a","67","stimuli/01001100.jpg"," ","","feedback_trial","0","","","","","","","","","","","","","","","","","","","","",""
"","","","","","image-keyboard-response","288","478222","0.0-263.0","6505afbedfdaf655c3cb53fb","665500ab8938657b03fbdba8","665792a594beed4f44ddd55a","101","stimuli/0011011.jpg","1","","prediction_trial","0","","false","","0","true","true","true","true","true","true","[0]","011","011","0","","","","","","",""
"","","","","","image-keyboard-response","289","478275","0.0-264.0","6505afbedfdaf655c3cb53fb","665500ab8938657b03fbdba8","665792a594beed4f44ddd55a","51","stimuli/00110110.jpg"," ","","feedback_trial","0","","","","","","","","","","","","","","","","","","","","",""
"","","","","","image-keyboard-response","290","478399","0.0-265.0","6505afbedfdaf655c3cb53fb","665500ab8938657b03fbdba8","665792a594beed4f44ddd55a","124","stimuli/0111010.jpg","1","","prediction_trial","0","","false","","0","true","true","false","false","false","false","[2,0,1]","111","010","0","","","","","","",""
"","","","","","image-keyboard-response","291","478408","0.0-266.0","6505afbedfdaf655c3cb53fb","665500ab8938657b03fbdba8","665792a594beed4f44ddd55a","8","stimuli/01110100.jpg"," ","","feedback_trial","2","","","","","","","","","","","","","","","","","","","","",""
"","","","","","image-keyboard-response","292","478547","0.0-267.0","6505afbedfdaf655c3cb53fb","665500ab8938657b03fbdba8","665792a594beed4f44ddd55a","138","stimuli/0100010.jpg","1","","prediction_trial","0","","false","","0","true","true","false","true","false","true","[0]","100","010","0","","","","","","",""
"","","","","","image-keyboard-response","293","478559","0.0-268.0","6505afbedfdaf655c3cb53fb","665500ab8938657b03fbdba8","665792a594beed4f44ddd55a","11","stimuli/01000100.jpg"," ","","feedback_trial","0","","","","","","","","","","","","","","","","","","","","",""
"","","","","","image-keyboard-response","294","479124","0.0-269.0","6505afbedfdaf655c3cb53fb","665500ab8938657b03fbdba8","665792a594beed4f44ddd55a","565","stimuli/1100111.jpg","2","","prediction_trial","1","","false","","1","false","false","true","true","false","false","[1]","100","111","0","","","","","","",""
"","","","","","image-keyboard-response","295","479244","0.0-270.0","6505afbedfdaf655c3cb53fb","665500ab8938657b03fbdba8","665792a594beed4f44ddd55a","118","stimuli/11001111.jpg"," ","","feedback_trial","1","","","","","","","","","","","","","","","","","","","","",""
"","","","","","image-keyboard-response","296","479653","0.0-271.0","6505afbedfdaf655c3cb53fb","665500ab8938657b03fbdba8","665792a594beed4f44ddd55a","408","stimuli/0000111.jpg","2","","prediction_trial","0","","false","","0","false","false","true","true","false","false","[0]","000","111","0","","","","","","",""
"","","","","","image-keyboard-response","297","479734","0.0-272.0","6505afbedfdaf655c3cb53fb","665500ab8938657b03fbdba8","665792a594beed4f44ddd55a","80","stimuli/00001110.jpg"," ","","feedback_trial","0","","","","","","","","","","","","","","","","","","","","",""
"","","","","","image-keyboard-response","298","480339","0.0-273.0","6505afbedfdaf655c3cb53fb","665500ab8938657b03fbdba8","665792a594beed4f44ddd55a","604","stimuli/1011100.jpg","0","","prediction_trial","1","","false","","1","true","true","false","false","false","false","[1,2]","011","100","0","","","","","","",""
"","","","","","image-keyboard-response","299","480412","0.0-274.0","6505afbedfdaf655c3cb53fb","665500ab8938657b03fbdba8","665792a594beed4f44ddd55a","73","stimuli/10111001.jpg"," ","","feedback_trial","1","","","","","","","","","","","","","","","","","","","","",""
"","","","","","image-keyboard-response","300","480838","0.0-275.0","6505afbedfdaf655c3cb53fb","665500ab8938657b03fbdba8","665792a594beed4f44ddd55a","426","stimuli/0110001.jpg","1","","prediction_trial","1","","true","","0","true","true","false","false","false","false","[1,0]","110","001","1","","","","","","",""
"","","","","","image-keyboard-response","301","480952","0.0-276.0","6505afbedfdaf655c3cb53fb","665500ab8938657b03fbdba8","665792a594beed4f44ddd55a","113","stimuli/01100011.jpg"," ","","feedback_trial","1","","","","","","","","","","","","","","","","","","","","",""
"","","","","","image-keyboard-response","302","481313","0.0-277.0","6505afbedfdaf655c3cb53fb","665500ab8938657b03fbdba8","665792a594beed4f44ddd55a","360","stimuli/2000000.jpg","0","","prediction_trial","2","","false","","2","true","true","true","true","true","true","[2]","000","000","0","","","","","","",""
"","","","","","image-keyboard-response","303","481405","0.0-278.0","6505afbedfdaf655c3cb53fb","665500ab8938657b03fbdba8","665792a594beed4f44ddd55a","92","stimuli/20000002.jpg"," ","","feedback_trial","2","","","","","","","","","","","","","","","","","","","","",""
"","","","","","image-keyboard-response","304","481667","0.0-279.0","6505afbedfdaf655c3cb53fb","665500ab8938657b03fbdba8","665792a594beed4f44ddd55a","261","stimuli/2011111.jpg","2","","prediction_trial","2","","true","","2","false","false","false","false","false","false","[2,1]","011","111","1","","","","","","",""
"","","","","","image-keyboard-response","305","481741","0.0-280.0","6505afbedfdaf655c3cb53fb","665500ab8938657b03fbdba8","665792a594beed4f44ddd55a","74","stimuli/20111112.jpg"," ","","feedback_trial","2","","","","","","","","","","","","","","","","","","","","",""
"","","","","","image-keyboard-response","306","481957","0.0-281.0","6505afbedfdaf655c3cb53fb","665500ab8938657b03fbdba8","665792a594beed4f44ddd55a","215","stimuli/0000001.jpg","0","","prediction_trial","0","","true","","0","true","true","true","true","true","true","[0]","000","001","1","","","","","","",""
"","","","","","image-keyboard-response","307","482032","0.0-282.0","6505afbedfdaf655c3cb53fb","665500ab8938657b03fbdba8","665792a594beed4f44ddd55a","75","stimuli/00000010.jpg"," ","","feedback_trial","0","","","","","","","","","","","","","","","","","","","","",""
"","","","","","image-keyboard-response","308","482254","0.0-283.0","6505afbedfdaf655c3cb53fb","665500ab8938657b03fbdba8","665792a594beed4f44ddd55a","221","stimuli/0101100.jpg","2","","prediction_trial","0","","false","","0","false","true","false","false","false","false","[2,0]","101","100","0","","","","","","",""
"","","","","","image-keyboard-response","309","482339","0.0-284.0","6505afbedfdaf655c3cb53fb","665500ab8938657b03fbdba8","665792a594beed4f44ddd55a","84","stimuli/01011000.jpg"," ","","feedback_trial","2","","","","","","","","","","","","","","","","","","","","",""
"","","","","","image-keyboard-response","310","482588","0.0-285.0","6505afbedfdaf655c3cb53fb","665500ab8938657b03fbdba8","665792a594beed4f44ddd55a","249","stimuli/2101111.jpg","0","","prediction_trial","0","","true","","2","false","false","false","false","false","false","[0,2]","101","111","1","","","","","","",""
"","","","","","image-keyboard-response","311","482666","0.0-286.0","6505afbedfdaf655c3cb53fb","665500ab8938657b03fbdba8","665792a594beed4f44ddd55a","78","stimuli/21011110.jpg"," ","","feedback_trial","0","","","","","","","","","","","","","","","","","","","","",""
"","","","","","image-keyboard-response","312","482872","0.0-287.0","6505afbedfdaf655c3cb53fb","665500ab8938657b03fbdba8","665792a594beed4f44ddd55a","205","stimuli/0100111.jpg","1","","prediction_trial","0","","false","","0","false","false","false","true","false","false","[0]","100","111","0","","","","","","",""
"","","","","","image-keyboard-response","313","482947","0.0-288.0","6505afbedfdaf655c3cb53fb","665500ab8938657b03fbdba8","665792a594beed4f44ddd55a","74","stimuli/01001110.jpg"," ","","feedback_trial","0","","","","","","","","","","","","","","","","","","","","",""
"","","","","","image-keyboard-response","314","483191","0.0-289.0","6505afbedfdaf655c3cb53fb","665500ab8938657b03fbdba8","665792a594beed4f44ddd55a","243","stimuli/2101001.jpg","0","","prediction_trial","2","","false","","2","false","true","false","false","false","false","[0,2]","101","001","0","","","","","","",""
"","","","","","image-keyboard-response","315","483232","0.0-290.0","6505afbedfdaf655c3cb53fb","665500ab8938657b03fbdba8","665792a594beed4f44ddd55a","40","stimuli/21010012.jpg"," ","","feedback_trial","0","","","","","","","","","","","","","","","","","","","","",""
"","","","","","image-keyboard-response","316","483463","0.0-291.0","6505afbedfdaf655c3cb53fb","665500ab8938657b03fbdba8","665792a594beed4f44ddd55a","231","stimuli/2101011.jpg","1","","prediction_trial","0","","false","","2","false","false","false","false","false","false","[0,2]","101","011","0","","","","","","",""
"","","","","","image-keyboard-response","317","483535","0.0-292.0","6505afbedfdaf655c3cb53fb","665500ab8938657b03fbdba8","665792a594beed4f44ddd55a","71","stimuli/21010110.jpg"," ","","feedback_trial","0","","","","","","","","","","","","","","","","","","","","",""
"","","","","","survey-html-form","318","507712","0.0-293.0","6505afbedfdaf655c3cb53fb","665500ab8938657b03fbdba8","665792a594beed4f44ddd55a","24181","","{""feedback"":""I tried to choose based on what he could see."",""age"":""24"",""gender"":""Male"",""other_gender"":"""",""race"":""White"",""other_race"":"""",""ethnicity"":""Non-Hispanic""}","","exit_survey","","","","","","","","","","","","","","","","I tried to choose based on what he could see.","24","Non-Hispanic","Male","White","0.6111111111111112","0.6111111111111112"
