"success","timeout","failed_images","failed_audio","failed_video","trial_type","trial_index","time_elapsed","internal_node_id","prolific_id","prolific_study_id","prolific_session_id","rt","stimulus","response","view_history","trial","character_choice","stimulus_dict","accuracy","correct_response","ball_pos","ego_ball_visible","ego_can_infer","alter_ball_visible","alter_can_infer","collective_ball_visible","collective_can_infer","search_locations","alter_occluders","ego_occluders","accuracy_bool","feedback","age","ethnicity","gender","race","overall_accuracy","bonus"
"true","false","[]","[]","[]","preload","0","38438","0.0-0.0","5dec01e809c107301c5e307f","665500ab8938657b03fbdba8","6657926289971b4f6cbee2d5","","","","","","","","","","","","","","","","","","","","","","","","","","",""
"true","","","","","fullscreen","1","244247","0.0-1.0","5dec01e809c107301c5e307f","665500ab8938657b03fbdba8","6657926289971b4f6cbee2d5","","","","","","","","","","","","","","","","","","","","","","","","","","",""
"","","","","","html-button-response","2","289727","0.0-2.0","5dec01e809c107301c5e307f","665500ab8938657b03fbdba8","6657926289971b4f6cbee2d5","45478","<p><b>Consent Form</b></p> <div style=""text-align:left;background-color:lightgrey; padding:20px; max-width:900px;""><p>Please consider this information carefully before deciding whether to participate in this research.</p> <p>The purpose of this research is to examine which factors influence social judgment and decision-making. You will be asked to make judgements about individuals and actions in social scenarios. We are simply interested in your judgement. The study will take less than 1 hour to complete, and you will receive less than $20 on Prolific. Your compensation and time commitment are specified in the study description. There are no anticipated risks associated with participating in this study. The effects of participating should be comparable to those you would ordinarily experience from viewing a computer monitor and using a mouse or keyboard for a similar amount of time. At the end of the study, we will provide an explanation of the questions that motivate this line of research and will describe the potential implications. </p><p> Your participation in this study is completely voluntary and you may refuse to participate or you may choose to withdraw at any time without penalty or loss of benefits to you which are otherwise entitled. Your participation in this study will remain confidential. No personally identifiable information will be associated with your data. Also, all analyses of the data will be averaged across all the participants, so your individual responses will never be specifically analyzed. </p><p> If you have questions or concerns about your participation or payment, or want to request a summary of research findings, please contact Dr. Jonathan Phillips at Jonathan.S.Phillips@dartmouth.edu. </p><p> Please save a copy of this form for your records. </p><p><b>Agreement: </b>The nature and purpose of this research have been sufficiently explained and I agree to participate in this study. I understand that I am free to withdraw at any time without incurring any penalty. Please consent by clicking the button below to continue. Otherwise, please exit the study at any time. </p>","0","","","","","","","","","","","","","","","","","","","","","","","",""
"","","","","","instructions","3","380778","0.0-3.0-0.0","5dec01e809c107301c5e307f","665500ab8938657b03fbdba8","6657926289971b4f6cbee2d5","91049","","","[{""page_index"":0,""viewing_time"":1818},{""page_index"":1,""viewing_time"":2159},{""page_index"":2,""viewing_time"":1667},{""page_index"":3,""viewing_time"":4557},{""page_index"":4,""viewing_time"":2802},{""page_index"":5,""viewing_time"":3654},{""page_index"":6,""viewing_time"":3896},{""page_index"":7,""viewing_time"":6626},{""page_index"":8,""viewing_time"":3344},{""page_index"":9,""viewing_time"":5377},{""page_index"":10,""viewing_time"":13816},{""page_index"":11,""viewing_time"":5937},{""page_index"":10,""viewing_time"":17657},{""page_index"":11,""viewing_time"":9164},{""page_index"":12,""viewing_time"":7158},{""page_index"":13,""viewing_time"":1416}]","intro","","","","","","","","","","","","","","","","","","","","","",""
"","","","","","image-keyboard-response","4","383994","0.0-3.0-1.0","5dec01e809c107301c5e307f","665500ab8938657b03fbdba8","6657926289971b4f6cbee2d5","3213","stimuli/1111011.jpg","1","","prediction_practice","1","{""filepath"":""stimuli/1111011.jpg"",""ball_pos"":1,""ego_ball_visible"":false,""ego_can_infer"":false,""alter_ball_visible"":false,""alter_can_infer"":false,""collective_ball_visible"":false,""collective_can_infer"":false,""search_locations"":[2,0,1],""alter_occluders"":""111"",""ego_occluders"":""011""}","true","","","","","","","","","","","","","","","","","","",""
"","","","","","image-keyboard-response","5","386934","0.0-3.0-2.0","5dec01e809c107301c5e307f","665500ab8938657b03fbdba8","6657926289971b4f6cbee2d5","2938","stimuli/11110111.jpg"," ","","practrice_feedback","2","","","","","","","","","","","","","","","","","","","","",""
"","","","","","image-keyboard-response","6","389843","0.0-3.0-3.0","5dec01e809c107301c5e307f","665500ab8938657b03fbdba8","6657926289971b4f6cbee2d5","2908","stimuli/0111011.jpg","0","","prediction_practice","0","{""filepath"":""stimuli/0111011.jpg"",""ball_pos"":0,""ego_ball_visible"":true,""ego_can_infer"":true,""alter_ball_visible"":false,""alter_can_infer"":false,""collective_ball_visible"":false,""collective_can_infer"":false,""search_locations"":[2,0,1],""alter_occluders"":""111"",""ego_occluders"":""011""}","true","","","","","","","","","","","","","","","","","","",""
"","","","","","image-keyboard-response","7","390985","0.0-3.0-4.0","5dec01e809c107301c5e307f","665500ab8938657b03fbdba8","6657926289971b4f6cbee2d5","1142","stimuli/01110110.jpg"," ","","practrice_feedback","2","","","","","","","","","","","","","","","","","","","","",""
"","","","","","image-keyboard-response","8","392991","0.0-3.0-5.0","5dec01e809c107301c5e307f","665500ab8938657b03fbdba8","6657926289971b4f6cbee2d5","2005","stimuli/0000101.jpg","2","","prediction_practice","0","{""filepath"":""stimuli/0000101.jpg"",""ball_pos"":0,""ego_ball_visible"":false,""ego_can_infer"":false,""alter_ball_visible"":true,""alter_can_infer"":true,""collective_ball_visible"":false,""collective_can_infer"":false,""search_locations"":[0],""alter_occluders"":""000"",""ego_occluders"":""101""}","false","","","","","","","","","","","","","","","","","","",""
"","","","","","image-keyboard-response","9","394509","0.0-3.0-6.0","5dec01e809c107301c5e307f","665500ab8938657b03fbdba8","6657926289971b4f6cbee2d5","1517","stimuli/00001010.jpg"," ","","practrice_feedback","0","","","","","","","","","","","","","","","","","","","","",""
"","","","","","image-keyboard-response","10","399811","0.0-3.0-7.0","5dec01e809c107301c5e307f","665500ab8938657b03fbdba8","6657926289971b4f6cbee2d5","5302","stimuli/0110100.jpg","1","","prediction_practice","1","{""filepath"":""stimuli/0110100.jpg"",""ball_pos"":0,""ego_ball_visible"":false,""ego_can_infer"":true,""alter_ball_visible"":false,""alter_can_infer"":false,""collective_ball_visible"":false,""collective_can_infer"":false,""search_locations"":[1,0],""alter_occluders"":""110"",""ego_occluders"":""100""}","true","","","","","","","","","","","","","","","","","","",""
"","","","","","image-keyboard-response","11","401072","0.0-3.0-8.0","5dec01e809c107301c5e307f","665500ab8938657b03fbdba8","6657926289971b4f6cbee2d5","1260","stimuli/01101001.jpg"," ","","practrice_feedback","1","","","","","","","","","","","","","","","","","","","","",""
"","","","","","image-keyboard-response","12","402713","0.0-3.0-9.0","5dec01e809c107301c5e307f","665500ab8938657b03fbdba8","6657926289971b4f6cbee2d5","1640","stimuli/0000010.jpg","0","","prediction_practice","0","{""filepath"":""stimuli/0000010.jpg"",""ball_pos"":0,""ego_ball_visible"":true,""ego_can_infer"":true,""alter_ball_visible"":true,""alter_can_infer"":true,""collective_ball_visible"":true,""collective_can_infer"":true,""search_locations"":[0],""alter_occluders"":""000"",""ego_occluders"":""010""}","true","","","","","","","","","","","","","","","","","","",""
"","","","","","image-keyboard-response","13","403681","0.0-3.0-10.0","5dec01e809c107301c5e307f","665500ab8938657b03fbdba8","6657926289971b4f6cbee2d5","967","stimuli/00000100.jpg"," ","","practrice_feedback","0","","","","","","","","","","","","","","","","","","","","",""
"","","","","","image-keyboard-response","14","406737","0.0-3.0-11.0","5dec01e809c107301c5e307f","665500ab8938657b03fbdba8","6657926289971b4f6cbee2d5","3055","stimuli/0111100.jpg","2","","prediction_practice","1","{""filepath"":""stimuli/0111100.jpg"",""ball_pos"":0,""ego_ball_visible"":false,""ego_can_infer"":true,""alter_ball_visible"":false,""alter_can_infer"":false,""collective_ball_visible"":false,""collective_can_infer"":false,""search_locations"":[0,1,2],""alter_occluders"":""111"",""ego_occluders"":""100""}","false","","","","","","","","","","","","","","","","","","",""
"","","","","","image-keyboard-response","15","408089","0.0-3.0-12.0","5dec01e809c107301c5e307f","665500ab8938657b03fbdba8","6657926289971b4f6cbee2d5","1351","stimuli/01111001.jpg"," ","","practrice_feedback","0","","","","","","","","","","","","","","","","","","","","",""
"","","","","","image-keyboard-response","16","412371","0.0-3.0-13.0","5dec01e809c107301c5e307f","665500ab8938657b03fbdba8","6657926289971b4f6cbee2d5","4281","stimuli/0001001.jpg","0","","prediction_practice","0","{""filepath"":""stimuli/0001001.jpg"",""ball_pos"":0,""ego_ball_visible"":true,""ego_can_infer"":true,""alter_ball_visible"":true,""alter_can_infer"":true,""collective_ball_visible"":true,""collective_can_infer"":true,""search_locations"":[0],""alter_occluders"":""001"",""ego_occluders"":""001""}","true","","","","","","","","","","","","","","","","","","",""
"","","","","","image-keyboard-response","17","413387","0.0-3.0-14.0","5dec01e809c107301c5e307f","665500ab8938657b03fbdba8","6657926289971b4f6cbee2d5","1015","stimuli/00010010.jpg"," ","","practrice_feedback","0","","","","","","","","","","","","","","","","","","","","",""
"","","","","","image-keyboard-response","18","415020","0.0-3.0-15.0","5dec01e809c107301c5e307f","665500ab8938657b03fbdba8","6657926289971b4f6cbee2d5","1632","stimuli/1110110.jpg","1","","prediction_practice","1","{""filepath"":""stimuli/1110110.jpg"",""ball_pos"":1,""ego_ball_visible"":false,""ego_can_infer"":false,""alter_ball_visible"":false,""alter_can_infer"":false,""collective_ball_visible"":false,""collective_can_infer"":false,""search_locations"":[0,1],""alter_occluders"":""110"",""ego_occluders"":""110""}","true","","","","","","","","","","","","","","","","","","",""
"","","","","","image-keyboard-response","19","416181","0.0-3.0-16.0","5dec01e809c107301c5e307f","665500ab8938657b03fbdba8","6657926289971b4f6cbee2d5","1160","stimuli/11101101.jpg"," ","","practrice_feedback","0","","","","","","","","","","","","","","","","","","","","",""
"","","","","","image-keyboard-response","20","418676","0.0-3.0-17.0","5dec01e809c107301c5e307f","665500ab8938657b03fbdba8","6657926289971b4f6cbee2d5","2494","stimuli/0101111.jpg","0","","prediction_practice","2","{""filepath"":""stimuli/0101111.jpg"",""ball_pos"":0,""ego_ball_visible"":false,""ego_can_infer"":false,""alter_ball_visible"":false,""alter_can_infer"":false,""collective_ball_visible"":false,""collective_can_infer"":false,""search_locations"":[2,0],""alter_occluders"":""101"",""ego_occluders"":""111""}","false","","","","","","","","","","","","","","","","","","",""
"","","","","","image-keyboard-response","21","419880","0.0-3.0-18.0","5dec01e809c107301c5e307f","665500ab8938657b03fbdba8","6657926289971b4f6cbee2d5","1203","stimuli/01011112.jpg"," ","","practrice_feedback","2","","","","","","","","","","","","","","","","","","","","",""
"","","","","","image-keyboard-response","22","423035","0.0-3.0-19.0","5dec01e809c107301c5e307f","665500ab8938657b03fbdba8","6657926289971b4f6cbee2d5","3154","stimuli/1011101.jpg","1","","prediction_practice","1","{""filepath"":""stimuli/1011101.jpg"",""ball_pos"":1,""ego_ball_visible"":true,""ego_can_infer"":true,""alter_ball_visible"":false,""alter_can_infer"":false,""collective_ball_visible"":false,""collective_can_infer"":false,""search_locations"":[2,1],""alter_occluders"":""011"",""ego_occluders"":""101""}","true","","","","","","","","","","","","","","","","","","",""
"","","","","","image-keyboard-response","23","423933","0.0-3.0-20.0","5dec01e809c107301c5e307f","665500ab8938657b03fbdba8","6657926289971b4f6cbee2d5","897","stimuli/10111011.jpg"," ","","practrice_feedback","2","","","","","","","","","","","","","","","","","","","","",""
"","","","","","html-button-response","24","432045","0.0-3.0-21.0","5dec01e809c107301c5e307f","665500ab8938657b03fbdba8","6657926289971b4f6cbee2d5","8111","Now that you've had some practice, you'll be tested with a couple of easy trials. If you correctly predict Sam's choice, you'll move on to complete the experiment!","0","","","","","","","","","","","","","","","","","","","","","","","",""
"","","","","","image-keyboard-response","25","433654","0.0-3.0-22.0-0.0","5dec01e809c107301c5e307f","665500ab8938657b03fbdba8","6657926289971b4f6cbee2d5","1608","stimuli/0000011.jpg","arrowleft","","comprehension_quiz","","","true","arrowleft","","","","","","","","","","","","","","","","","",""
"","","","","","image-keyboard-response","26","436095","0.0-3.0-22.0-1.0","5dec01e809c107301c5e307f","665500ab8938657b03fbdba8","6657926289971b4f6cbee2d5","2439","stimuli/00000110.jpg"," ","","comprehension_quiz","","","true"," ","","","","","","","","","","","","","","","","","",""
"","","","","","image-keyboard-response","27","438566","0.0-3.0-22.0-2.0","5dec01e809c107301c5e307f","665500ab8938657b03fbdba8","6657926289971b4f6cbee2d5","2470","stimuli/1010010.jpg","arrowdown","","comprehension_quiz","","","true","arrowdown","","","","","","","","","","","","","","","","","",""
"","","","","","image-keyboard-response","28","439472","0.0-3.0-22.0-3.0","5dec01e809c107301c5e307f","665500ab8938657b03fbdba8","6657926289971b4f6cbee2d5","906","stimuli/10100101.jpg"," ","","comprehension_quiz","","","true"," ","","","","","","","","","","","","","","","","","",""
"","","","","","html-button-response","29","444024","0.0-4.0","5dec01e809c107301c5e307f","665500ab8938657b03fbdba8","6657926289971b4f6cbee2d5","4550","The experiment will now begin.","0","","","","","","","","","","","","","","","","","","","","","","","",""
"","","","","","image-keyboard-response","30","449751","0.0-5.0","5dec01e809c107301c5e307f","665500ab8938657b03fbdba8","6657926289971b4f6cbee2d5","5726","stimuli/0110101.jpg","2","","prediction_trial","1","","false","","0","false","false","false","false","false","false","[1,0]","110","101","0","","","","","","",""
"","","","","","image-keyboard-response","31","451860","0.0-6.0","5dec01e809c107301c5e307f","665500ab8938657b03fbdba8","6657926289971b4f6cbee2d5","2107","stimuli/01101011.jpg"," ","","feedback_trial","1","","","","","","","","","","","","","","","","","","","","",""
"","","","","","image-keyboard-response","32","454409","0.0-7.0","5dec01e809c107301c5e307f","665500ab8938657b03fbdba8","6657926289971b4f6cbee2d5","2549","stimuli/2111001.jpg","1","","prediction_trial","1","","true","","2","false","true","false","false","false","false","[0,1,2]","111","001","1","","","","","","",""
"","","","","","image-keyboard-response","33","455353","0.0-8.0","5dec01e809c107301c5e307f","665500ab8938657b03fbdba8","6657926289971b4f6cbee2d5","943","stimuli/21110011.jpg"," ","","feedback_trial","0","","","","","","","","","","","","","","","","","","","","",""
"","","","","","image-keyboard-response","34","456664","0.0-9.0","5dec01e809c107301c5e307f","665500ab8938657b03fbdba8","6657926289971b4f6cbee2d5","1310","stimuli/0111110.jpg","0","","prediction_trial","0","","true","","0","false","false","false","false","false","false","[1,0,2]","111","110","1","","","","","","",""
"","","","","","image-keyboard-response","35","457640","0.0-10.0","5dec01e809c107301c5e307f","665500ab8938657b03fbdba8","6657926289971b4f6cbee2d5","975","stimuli/01111100.jpg"," ","","feedback_trial","1","","","","","","","","","","","","","","","","","","","","",""
"","","","","","image-keyboard-response","36","459180","0.0-11.0","5dec01e809c107301c5e307f","665500ab8938657b03fbdba8","6657926289971b4f6cbee2d5","1539","stimuli/2011100.jpg","2","","prediction_trial","2","","true","","2","true","true","false","false","false","false","[2,1]","011","100","1","","","","","","",""
"","","","","","image-keyboard-response","37","460068","0.0-12.0","5dec01e809c107301c5e307f","665500ab8938657b03fbdba8","6657926289971b4f6cbee2d5","887","stimuli/20111002.jpg"," ","","feedback_trial","2","","","","","","","","","","","","","","","","","","","","",""
"","","","","","image-keyboard-response","38","461495","0.0-13.0","5dec01e809c107301c5e307f","665500ab8938657b03fbdba8","6657926289971b4f6cbee2d5","1426","stimuli/1010000.jpg","1","","prediction_trial","1","","true","","1","true","true","false","true","false","true","[1]","010","000","1","","","","","","",""
"","","","","","image-keyboard-response","39","462107","0.0-14.0","5dec01e809c107301c5e307f","665500ab8938657b03fbdba8","6657926289971b4f6cbee2d5","611","stimuli/10100001.jpg"," ","","feedback_trial","1","","","","","","","","","","","","","","","","","","","","",""
"","","","","","image-keyboard-response","40","467888","0.0-15.0","5dec01e809c107301c5e307f","665500ab8938657b03fbdba8","6657926289971b4f6cbee2d5","5780","stimuli/1100011.jpg","1","","prediction_trial","1","","true","","1","false","false","true","true","false","false","[1]","100","011","1","","","","","","",""
"","","","","","image-keyboard-response","41","468844","0.0-16.0","5dec01e809c107301c5e307f","665500ab8938657b03fbdba8","6657926289971b4f6cbee2d5","956","stimuli/11000111.jpg"," ","","feedback_trial","1","","","","","","","","","","","","","","","","","","","","",""
"","","","","","image-keyboard-response","42","473535","0.0-17.0","5dec01e809c107301c5e307f","665500ab8938657b03fbdba8","6657926289971b4f6cbee2d5","4690","stimuli/2010111.jpg","2","","prediction_trial","2","","true","","2","false","false","true","true","false","false","[2]","010","111","1","","","","","","",""
"","","","","","image-keyboard-response","43","474381","0.0-18.0","5dec01e809c107301c5e307f","665500ab8938657b03fbdba8","6657926289971b4f6cbee2d5","846","stimuli/20101112.jpg"," ","","feedback_trial","2","","","","","","","","","","","","","","","","","","","","",""
"","","","","","image-keyboard-response","44","480155","0.0-19.0","5dec01e809c107301c5e307f","665500ab8938657b03fbdba8","6657926289971b4f6cbee2d5","5773","stimuli/2011010.jpg","1","","prediction_trial","2","","false","","2","true","true","false","false","false","false","[1,2]","011","010","0","","","","","","",""
"","","","","","image-keyboard-response","45","481185","0.0-20.0","5dec01e809c107301c5e307f","665500ab8938657b03fbdba8","6657926289971b4f6cbee2d5","1029","stimuli/20110102.jpg"," ","","feedback_trial","1","","","","","","","","","","","","","","","","","","","","",""
"","","","","","image-keyboard-response","46","485452","0.0-21.0","5dec01e809c107301c5e307f","665500ab8938657b03fbdba8","6657926289971b4f6cbee2d5","4273","stimuli/1010111.jpg","2","","prediction_trial","1","","false","","1","false","false","false","true","false","false","[1]","010","111","0","","","","","","",""
"","","","","","image-keyboard-response","47","486534","0.0-22.0","5dec01e809c107301c5e307f","665500ab8938657b03fbdba8","6657926289971b4f6cbee2d5","1081","stimuli/10101111.jpg"," ","","feedback_trial","1","","","","","","","","","","","","","","","","","","","","",""
"","","","","","image-keyboard-response","48","490053","0.0-23.0","5dec01e809c107301c5e307f","665500ab8938657b03fbdba8","6657926289971b4f6cbee2d5","3518","stimuli/2100011.jpg","1","","prediction_trial","2","","false","","2","false","false","true","true","false","false","[2]","100","011","0","","","","","","",""
"","","","","","image-keyboard-response","49","491234","0.0-24.0","5dec01e809c107301c5e307f","665500ab8938657b03fbdba8","6657926289971b4f6cbee2d5","1181","stimuli/21000112.jpg"," ","","feedback_trial","2","","","","","","","","","","","","","","","","","","","","",""
"","","","","","image-keyboard-response","50","495670","0.0-25.0","5dec01e809c107301c5e307f","665500ab8938657b03fbdba8","6657926289971b4f6cbee2d5","4435","stimuli/1001011.jpg","1","","prediction_trial","1","","true","","1","false","false","true","true","false","false","[1]","001","011","1","","","","","","",""
"","","","","","image-keyboard-response","51","496394","0.0-26.0","5dec01e809c107301c5e307f","665500ab8938657b03fbdba8","6657926289971b4f6cbee2d5","724","stimuli/10010111.jpg"," ","","feedback_trial","1","","","","","","","","","","","","","","","","","","","","",""
"","","","","","image-keyboard-response","52","499439","0.0-27.0","5dec01e809c107301c5e307f","665500ab8938657b03fbdba8","6657926289971b4f6cbee2d5","3044","stimuli/2101011.jpg","2","","prediction_trial","0","","false","","2","false","false","false","false","false","false","[0,2]","101","011","0","","","","","","",""
"","","","","","image-keyboard-response","53","500676","0.0-28.0","5dec01e809c107301c5e307f","665500ab8938657b03fbdba8","6657926289971b4f6cbee2d5","1236","stimuli/21010110.jpg"," ","","feedback_trial","0","","","","","","","","","","","","","","","","","","","","",""
"","","","","","image-keyboard-response","54","504021","0.0-29.0","5dec01e809c107301c5e307f","665500ab8938657b03fbdba8","6657926289971b4f6cbee2d5","3344","stimuli/0011110.jpg","1","","prediction_trial","0","","false","","0","false","false","true","true","false","false","[0]","011","110","0","","","","","","",""
"","","","","","image-keyboard-response","55","505014","0.0-30.0","5dec01e809c107301c5e307f","665500ab8938657b03fbdba8","6657926289971b4f6cbee2d5","992","stimuli/00111100.jpg"," ","","feedback_trial","0","","","","","","","","","","","","","","","","","","","","",""
"","","","","","image-keyboard-response","56","507042","0.0-31.0","5dec01e809c107301c5e307f","665500ab8938657b03fbdba8","6657926289971b4f6cbee2d5","2028","stimuli/2111111.jpg","1","","prediction_trial","1","","true","","2","false","false","false","false","false","false","[0,1,2]","111","111","1","","","","","","",""
"","","","","","image-keyboard-response","57","507859","0.0-32.0","5dec01e809c107301c5e307f","665500ab8938657b03fbdba8","6657926289971b4f6cbee2d5","816","stimuli/21111111.jpg"," ","","feedback_trial","0","","","","","","","","","","","","","","","","","","","","",""
"","","","","","image-keyboard-response","58","509758","0.0-33.0","5dec01e809c107301c5e307f","665500ab8938657b03fbdba8","6657926289971b4f6cbee2d5","1898","stimuli/0100110.jpg","0","","prediction_trial","0","","true","","0","false","false","false","true","false","false","[0]","100","110","1","","","","","","",""
"","","","","","image-keyboard-response","59","510665","0.0-34.0","5dec01e809c107301c5e307f","665500ab8938657b03fbdba8","6657926289971b4f6cbee2d5","907","stimuli/01001100.jpg"," ","","feedback_trial","0","","","","","","","","","","","","","","","","","","","","",""
"","","","","","image-keyboard-response","60","514281","0.0-35.0","5dec01e809c107301c5e307f","665500ab8938657b03fbdba8","6657926289971b4f6cbee2d5","3615","stimuli/1001110.jpg","1","","prediction_trial","1","","true","","1","false","false","true","true","false","false","[1]","001","110","1","","","","","","",""
"","","","","","image-keyboard-response","61","515024","0.0-36.0","5dec01e809c107301c5e307f","665500ab8938657b03fbdba8","6657926289971b4f6cbee2d5","742","stimuli/10011101.jpg"," ","","feedback_trial","1","","","","","","","","","","","","","","","","","","","","",""
"","","","","","image-keyboard-response","62","516411","0.0-37.0","5dec01e809c107301c5e307f","665500ab8938657b03fbdba8","6657926289971b4f6cbee2d5","1386","stimuli/1100100.jpg","1","","prediction_trial","1","","true","","1","true","true","true","true","true","true","[1]","100","100","1","","","","","","",""
"","","","","","image-keyboard-response","63","516943","0.0-38.0","5dec01e809c107301c5e307f","665500ab8938657b03fbdba8","6657926289971b4f6cbee2d5","531","stimuli/11001001.jpg"," ","","feedback_trial","1","","","","","","","","","","","","","","","","","","","","",""
"","","","","","image-keyboard-response","64","519469","0.0-39.0","5dec01e809c107301c5e307f","665500ab8938657b03fbdba8","6657926289971b4f6cbee2d5","2525","stimuli/0111100.jpg","0","","prediction_trial","1","","false","","0","false","true","false","false","false","false","[0,1,2]","111","100","0","","","","","","",""
"","","","","","image-keyboard-response","65","520482","0.0-40.0","5dec01e809c107301c5e307f","665500ab8938657b03fbdba8","6657926289971b4f6cbee2d5","1012","stimuli/01111001.jpg"," ","","feedback_trial","0","","","","","","","","","","","","","","","","","","","","",""
"","","","","","image-keyboard-response","66","522255","0.0-41.0","5dec01e809c107301c5e307f","665500ab8938657b03fbdba8","6657926289971b4f6cbee2d5","1773","stimuli/2101111.jpg","1","","prediction_trial","0","","false","","2","false","false","false","false","false","false","[0,2]","101","111","0","","","","","","",""
"","","","","","image-keyboard-response","67","523160","0.0-42.0","5dec01e809c107301c5e307f","665500ab8938657b03fbdba8","6657926289971b4f6cbee2d5","904","stimuli/21011110.jpg"," ","","feedback_trial","0","","","","","","","","","","","","","","","","","","","","",""
"","","","","","image-keyboard-response","68","525886","0.0-43.0","5dec01e809c107301c5e307f","665500ab8938657b03fbdba8","6657926289971b4f6cbee2d5","2725","stimuli/0000101.jpg","2","","prediction_trial","0","","false","","0","false","false","true","true","false","false","[0]","000","101","0","","","","","","",""
"","","","","","image-keyboard-response","69","526877","0.0-44.0","5dec01e809c107301c5e307f","665500ab8938657b03fbdba8","6657926289971b4f6cbee2d5","991","stimuli/00001010.jpg"," ","","feedback_trial","0","","","","","","","","","","","","","","","","","","","","",""
"","","","","","image-keyboard-response","70","528799","0.0-45.0","5dec01e809c107301c5e307f","665500ab8938657b03fbdba8","6657926289971b4f6cbee2d5","1921","stimuli/2000101.jpg","2","","prediction_trial","2","","true","","2","false","false","true","true","false","false","[2]","000","101","1","","","","","","",""
"","","","","","image-keyboard-response","71","529844","0.0-46.0","5dec01e809c107301c5e307f","665500ab8938657b03fbdba8","6657926289971b4f6cbee2d5","1045","stimuli/20001012.jpg"," ","","feedback_trial","2","","","","","","","","","","","","","","","","","","","","",""
"","","","","","image-keyboard-response","72","532688","0.0-47.0","5dec01e809c107301c5e307f","665500ab8938657b03fbdba8","6657926289971b4f6cbee2d5","2843","stimuli/1110000.jpg","1","","prediction_trial","0","","false","","1","true","true","false","false","false","false","[1,0]","110","000","0","","","","","","",""
"","","","","","image-keyboard-response","73","533757","0.0-48.0","5dec01e809c107301c5e307f","665500ab8938657b03fbdba8","6657926289971b4f6cbee2d5","1069","stimuli/11100000.jpg"," ","","feedback_trial","1","","","","","","","","","","","","","","","","","","","","",""
"","","","","","image-keyboard-response","74","537235","0.0-49.0","5dec01e809c107301c5e307f","665500ab8938657b03fbdba8","6657926289971b4f6cbee2d5","3477","stimuli/2001011.jpg","1","","prediction_trial","2","","false","","2","false","false","false","true","false","false","[2]","001","011","0","","","","","","",""
"","","","","","image-keyboard-response","75","538343","0.0-50.0","5dec01e809c107301c5e307f","665500ab8938657b03fbdba8","6657926289971b4f6cbee2d5","1107","stimuli/20010112.jpg"," ","","feedback_trial","2","","","","","","","","","","","","","","","","","","","","",""
"","","","","","image-keyboard-response","76","541677","0.0-51.0","5dec01e809c107301c5e307f","665500ab8938657b03fbdba8","6657926289971b4f6cbee2d5","3333","stimuli/2011001.jpg","2","","prediction_trial","2","","true","","2","false","true","false","false","false","false","[1,2]","011","001","1","","","","","","",""
"","","","","","image-keyboard-response","77","542560","0.0-52.0","5dec01e809c107301c5e307f","665500ab8938657b03fbdba8","6657926289971b4f6cbee2d5","882","stimuli/20110012.jpg"," ","","feedback_trial","1","","","","","","","","","","","","","","","","","","","","",""
"","","","","","image-keyboard-response","78","543456","0.0-53.0","5dec01e809c107301c5e307f","665500ab8938657b03fbdba8","6657926289971b4f6cbee2d5","895","stimuli/0000010.jpg","0","","prediction_trial","0","","true","","0","true","true","true","true","true","true","[0]","000","010","1","","","","","","",""
"","","","","","image-keyboard-response","79","543898","0.0-54.0","5dec01e809c107301c5e307f","665500ab8938657b03fbdba8","6657926289971b4f6cbee2d5","442","stimuli/00000100.jpg"," ","","feedback_trial","0","","","","","","","","","","","","","","","","","","","","",""
"","","","","","image-keyboard-response","80","546829","0.0-55.0","5dec01e809c107301c5e307f","665500ab8938657b03fbdba8","6657926289971b4f6cbee2d5","2937","stimuli/1000111.jpg","1","","prediction_trial","1","","true","","1","false","false","true","true","false","false","[1]","000","111","1","","","","","","",""
"","","","","","image-keyboard-response","81","547606","0.0-56.0","5dec01e809c107301c5e307f","665500ab8938657b03fbdba8","6657926289971b4f6cbee2d5","776","stimuli/10001111.jpg"," ","","feedback_trial","1","","","","","","","","","","","","","","","","","","","","",""
"","","","","","image-keyboard-response","82","548472","0.0-57.0","5dec01e809c107301c5e307f","665500ab8938657b03fbdba8","6657926289971b4f6cbee2d5","865","stimuli/2100110.jpg","2","","prediction_trial","2","","true","","2","true","true","true","true","true","true","[2]","100","110","1","","","","","","",""
"","","","","","image-keyboard-response","83","549017","0.0-58.0","5dec01e809c107301c5e307f","665500ab8938657b03fbdba8","6657926289971b4f6cbee2d5","544","stimuli/21001102.jpg"," ","","feedback_trial","2","","","","","","","","","","","","","","","","","","","","",""
"","","","","","image-keyboard-response","84","554062","0.0-59.0","5dec01e809c107301c5e307f","665500ab8938657b03fbdba8","6657926289971b4f6cbee2d5","5044","stimuli/0110111.jpg","0","","prediction_trial","1","","false","","0","false","false","false","false","false","false","[0,1]","110","111","0","","","","","","",""
"","","","","","image-keyboard-response","85","554843","0.0-60.0","5dec01e809c107301c5e307f","665500ab8938657b03fbdba8","6657926289971b4f6cbee2d5","780","stimuli/01101111.jpg"," ","","feedback_trial","0","","","","","","","","","","","","","","","","","","","","",""
"","","","","","image-keyboard-response","86","558514","0.0-61.0","5dec01e809c107301c5e307f","665500ab8938657b03fbdba8","6657926289971b4f6cbee2d5","3671","stimuli/2011111.jpg","0","","prediction_trial","2","","false","","2","false","false","false","false","false","false","[2,1]","011","111","0","","","","","","",""
"","","","","","image-keyboard-response","87","559427","0.0-62.0","5dec01e809c107301c5e307f","665500ab8938657b03fbdba8","6657926289971b4f6cbee2d5","912","stimuli/20111112.jpg"," ","","feedback_trial","2","","","","","","","","","","","","","","","","","","","","",""
"","","","","","image-keyboard-response","88","560498","0.0-63.0","5dec01e809c107301c5e307f","665500ab8938657b03fbdba8","6657926289971b4f6cbee2d5","1070","stimuli/1101101.jpg","1","","prediction_trial","1","","true","","1","true","true","true","true","true","true","[1]","101","101","1","","","","","","",""
"","","","","","image-keyboard-response","89","561027","0.0-64.0","5dec01e809c107301c5e307f","665500ab8938657b03fbdba8","6657926289971b4f6cbee2d5","528","stimuli/11011011.jpg"," ","","feedback_trial","1","","","","","","","","","","","","","","","","","","","","",""
"","","","","","image-keyboard-response","90","561784","0.0-65.0","5dec01e809c107301c5e307f","665500ab8938657b03fbdba8","6657926289971b4f6cbee2d5","756","stimuli/2000000.jpg","2","","prediction_trial","2","","true","","2","true","true","true","true","true","true","[2]","000","000","1","","","","","","",""
"","","","","","image-keyboard-response","91","562387","0.0-66.0","5dec01e809c107301c5e307f","665500ab8938657b03fbdba8","6657926289971b4f6cbee2d5","602","stimuli/20000002.jpg"," ","","feedback_trial","2","","","","","","","","","","","","","","","","","","","","",""
"","","","","","image-keyboard-response","92","564020","0.0-67.0","5dec01e809c107301c5e307f","665500ab8938657b03fbdba8","6657926289971b4f6cbee2d5","1632","stimuli/1001101.jpg","1","","prediction_trial","1","","true","","1","true","true","true","true","true","true","[1]","001","101","1","","","","","","",""
"","","","","","image-keyboard-response","93","564485","0.0-68.0","5dec01e809c107301c5e307f","665500ab8938657b03fbdba8","6657926289971b4f6cbee2d5","465","stimuli/10011011.jpg"," ","","feedback_trial","1","","","","","","","","","","","","","","","","","","","","",""
"","","","","","image-keyboard-response","94","566064","0.0-69.0","5dec01e809c107301c5e307f","665500ab8938657b03fbdba8","6657926289971b4f6cbee2d5","1578","stimuli/0010100.jpg","0","","prediction_trial","0","","true","","0","false","true","true","true","false","true","[0]","010","100","1","","","","","","",""
"","","","","","image-keyboard-response","95","567166","0.0-70.0","5dec01e809c107301c5e307f","665500ab8938657b03fbdba8","6657926289971b4f6cbee2d5","1101","stimuli/00101000.jpg"," ","","feedback_trial","0","","","","","","","","","","","","","","","","","","","","",""
"","","","","","image-keyboard-response","96","568013","0.0-71.0","5dec01e809c107301c5e307f","665500ab8938657b03fbdba8","6657926289971b4f6cbee2d5","847","stimuli/1001010.jpg","1","","prediction_trial","1","","true","","1","false","true","true","true","false","true","[1]","001","010","1","","","","","","",""
"","","","","","image-keyboard-response","97","568897","0.0-72.0","5dec01e809c107301c5e307f","665500ab8938657b03fbdba8","6657926289971b4f6cbee2d5","883","stimuli/10010101.jpg"," ","","feedback_trial","1","","","","","","","","","","","","","","","","","","","","",""
"","","","","","image-keyboard-response","98","573769","0.0-73.0","5dec01e809c107301c5e307f","665500ab8938657b03fbdba8","6657926289971b4f6cbee2d5","4872","stimuli/1010100.jpg","1","","prediction_trial","1","","true","","1","true","true","false","true","false","true","[1]","010","100","1","","","","","","",""
"","","","","","image-keyboard-response","99","575099","0.0-74.0","5dec01e809c107301c5e307f","665500ab8938657b03fbdba8","6657926289971b4f6cbee2d5","1329","stimuli/10101001.jpg"," ","","feedback_trial","1","","","","","","","","","","","","","","","","","","","","",""
"","","","","","image-keyboard-response","100","578358","0.0-75.0","5dec01e809c107301c5e307f","665500ab8938657b03fbdba8","6657926289971b4f6cbee2d5","3258","stimuli/1111110.jpg","0","","prediction_trial","0","","true","","1","false","false","false","false","false","false","[0,1,2]","111","110","1","","","","","","",""
"","","","","","image-keyboard-response","101","579371","0.0-76.0","5dec01e809c107301c5e307f","665500ab8938657b03fbdba8","6657926289971b4f6cbee2d5","1011","stimuli/11111100.jpg"," ","","feedback_trial","0","","","","","","","","","","","","","","","","","","","","",""
"","","","","","image-keyboard-response","102","580430","0.0-77.0","5dec01e809c107301c5e307f","665500ab8938657b03fbdba8","6657926289971b4f6cbee2d5","1059","stimuli/2101001.jpg","2","","prediction_trial","2","","true","","2","false","true","false","false","false","false","[2,0]","101","001","1","","","","","","",""
"","","","","","image-keyboard-response","103","581178","0.0-78.0","5dec01e809c107301c5e307f","665500ab8938657b03fbdba8","6657926289971b4f6cbee2d5","747","stimuli/21010012.jpg"," ","","feedback_trial","2","","","","","","","","","","","","","","","","","","","","",""
"","","","","","image-keyboard-response","104","583001","0.0-79.0","5dec01e809c107301c5e307f","665500ab8938657b03fbdba8","6657926289971b4f6cbee2d5","1823","stimuli/1010001.jpg","1","","prediction_trial","1","","true","","1","true","true","false","true","false","true","[1]","010","001","1","","","","","","",""
"","","","","","image-keyboard-response","105","583599","0.0-80.0","5dec01e809c107301c5e307f","665500ab8938657b03fbdba8","6657926289971b4f6cbee2d5","597","stimuli/10100011.jpg"," ","","feedback_trial","1","","","","","","","","","","","","","","","","","","","","",""
"","","","","","image-keyboard-response","106","586304","0.0-81.0","5dec01e809c107301c5e307f","665500ab8938657b03fbdba8","6657926289971b4f6cbee2d5","2705","stimuli/2100101.jpg","0","","prediction_trial","2","","false","","2","false","false","true","true","false","false","[2]","100","101","0","","","","","","",""
"","","","","","image-keyboard-response","107","588257","0.0-82.0","5dec01e809c107301c5e307f","665500ab8938657b03fbdba8","6657926289971b4f6cbee2d5","1952","stimuli/21001012.jpg"," ","","feedback_trial","2","","","","","","","","","","","","","","","","","","","","",""
"","","","","","image-keyboard-response","108","590302","0.0-83.0","5dec01e809c107301c5e307f","665500ab8938657b03fbdba8","6657926289971b4f6cbee2d5","2044","stimuli/2001000.jpg","2","","prediction_trial","2","","true","","2","true","true","false","true","false","true","[2]","001","000","1","","","","","","",""
"","","","","","image-keyboard-response","109","590892","0.0-84.0","5dec01e809c107301c5e307f","665500ab8938657b03fbdba8","6657926289971b4f6cbee2d5","589","stimuli/20010002.jpg"," ","","feedback_trial","2","","","","","","","","","","","","","","","","","","","","",""
"","","","","","image-keyboard-response","110","591705","0.0-85.0","5dec01e809c107301c5e307f","665500ab8938657b03fbdba8","6657926289971b4f6cbee2d5","812","stimuli/1000001.jpg","1","","prediction_trial","1","","true","","1","true","true","true","true","true","true","[1]","000","001","1","","","","","","",""
"","","","","","image-keyboard-response","111","592162","0.0-86.0","5dec01e809c107301c5e307f","665500ab8938657b03fbdba8","6657926289971b4f6cbee2d5","456","stimuli/10000011.jpg"," ","","feedback_trial","1","","","","","","","","","","","","","","","","","","","","",""
"","","","","","image-keyboard-response","112","593824","0.0-87.0","5dec01e809c107301c5e307f","665500ab8938657b03fbdba8","6657926289971b4f6cbee2d5","1661","stimuli/0100011.jpg","0","","prediction_trial","0","","true","","0","true","true","false","true","false","true","[0]","100","011","1","","","","","","",""
"","","","","","image-keyboard-response","113","594821","0.0-88.0","5dec01e809c107301c5e307f","665500ab8938657b03fbdba8","6657926289971b4f6cbee2d5","997","stimuli/01000110.jpg"," ","","feedback_trial","0","","","","","","","","","","","","","","","","","","","","",""
"","","","","","image-keyboard-response","114","597733","0.0-89.0","5dec01e809c107301c5e307f","665500ab8938657b03fbdba8","6657926289971b4f6cbee2d5","2911","stimuli/0000110.jpg","1","","prediction_trial","0","","false","","0","false","false","true","true","false","false","[0]","000","110","0","","","","","","",""
"","","","","","image-keyboard-response","115","598859","0.0-90.0","5dec01e809c107301c5e307f","665500ab8938657b03fbdba8","6657926289971b4f6cbee2d5","1126","stimuli/00001100.jpg"," ","","feedback_trial","0","","","","","","","","","","","","","","","","","","","","",""
"","","","","","image-keyboard-response","116","601858","0.0-91.0","5dec01e809c107301c5e307f","665500ab8938657b03fbdba8","6657926289971b4f6cbee2d5","2998","stimuli/1110011.jpg","1","","prediction_trial","1","","true","","1","false","false","false","false","false","false","[1,0]","110","011","1","","","","","","",""
"","","","","","image-keyboard-response","117","602593","0.0-92.0","5dec01e809c107301c5e307f","665500ab8938657b03fbdba8","6657926289971b4f6cbee2d5","734","stimuli/11100111.jpg"," ","","feedback_trial","1","","","","","","","","","","","","","","","","","","","","",""
"","","","","","image-keyboard-response","118","604504","0.0-93.0","5dec01e809c107301c5e307f","665500ab8938657b03fbdba8","6657926289971b4f6cbee2d5","1910","stimuli/1010110.jpg","0","","prediction_trial","1","","false","","1","false","false","false","true","false","false","[1]","010","110","0","","","","","","",""
"","","","","","image-keyboard-response","119","605441","0.0-94.0","5dec01e809c107301c5e307f","665500ab8938657b03fbdba8","6657926289971b4f6cbee2d5","936","stimuli/10101101.jpg"," ","","feedback_trial","1","","","","","","","","","","","","","","","","","","","","",""
"","","","","","image-keyboard-response","120","606762","0.0-95.0","5dec01e809c107301c5e307f","665500ab8938657b03fbdba8","6657926289971b4f6cbee2d5","1320","stimuli/0111101.jpg","2","","prediction_trial","2","","true","","0","false","false","false","false","false","false","[1,0,2]","111","101","1","","","","","","",""
"","","","","","image-keyboard-response","121","607745","0.0-96.0","5dec01e809c107301c5e307f","665500ab8938657b03fbdba8","6657926289971b4f6cbee2d5","968","stimuli/01111012.jpg"," ","","feedback_trial","1","","","","","","","","","","","","","","","","","","","","",""
"","","","","","image-keyboard-response","122","608618","0.0-97.0","5dec01e809c107301c5e307f","665500ab8938657b03fbdba8","6657926289971b4f6cbee2d5","872","stimuli/2110100.jpg","2","","prediction_trial","2","","true","","2","true","true","true","true","true","true","[2]","110","100","1","","","","","","",""
"","","","","","image-keyboard-response","123","609056","0.0-98.0","5dec01e809c107301c5e307f","665500ab8938657b03fbdba8","6657926289971b4f6cbee2d5","437","stimuli/21101002.jpg"," ","","feedback_trial","2","","","","","","","","","","","","","","","","","","","","",""
"","","","","","image-keyboard-response","124","609855","0.0-99.0","5dec01e809c107301c5e307f","665500ab8938657b03fbdba8","6657926289971b4f6cbee2d5","797","stimuli/0001010.jpg","0","","prediction_trial","0","","true","","0","true","true","true","true","true","true","[0]","001","010","1","","","","","","",""
"","","","","","image-keyboard-response","125","610256","0.0-100.0","5dec01e809c107301c5e307f","665500ab8938657b03fbdba8","6657926289971b4f6cbee2d5","401","stimuli/00010100.jpg"," ","","feedback_trial","0","","","","","","","","","","","","","","","","","","","","",""
"","","","","","image-keyboard-response","126","612543","0.0-101.0","5dec01e809c107301c5e307f","665500ab8938657b03fbdba8","6657926289971b4f6cbee2d5","2286","stimuli/1110010.jpg","1","","prediction_trial","1","","true","","1","false","true","false","false","false","false","[0,1]","110","010","1","","","","","","",""
"","","","","","image-keyboard-response","127","613308","0.0-102.0","5dec01e809c107301c5e307f","665500ab8938657b03fbdba8","6657926289971b4f6cbee2d5","764","stimuli/11100101.jpg"," ","","feedback_trial","0","","","","","","","","","","","","","","","","","","","","",""
"","","","","","image-keyboard-response","128","614580","0.0-103.0","5dec01e809c107301c5e307f","665500ab8938657b03fbdba8","6657926289971b4f6cbee2d5","1271","stimuli/1100111.jpg","2","","prediction_trial","1","","false","","1","false","false","true","true","false","false","[1]","100","111","0","","","","","","",""
"","","","","","image-keyboard-response","129","616117","0.0-104.0","5dec01e809c107301c5e307f","665500ab8938657b03fbdba8","6657926289971b4f6cbee2d5","1536","stimuli/11001111.jpg"," ","","feedback_trial","1","","","","","","","","","","","","","","","","","","","","",""
"","","","","","image-keyboard-response","130","617324","0.0-105.0","5dec01e809c107301c5e307f","665500ab8938657b03fbdba8","6657926289971b4f6cbee2d5","1207","stimuli/1001111.jpg","0","","prediction_trial","1","","false","","1","false","false","true","true","false","false","[1]","001","111","0","","","","","","",""
"","","","","","image-keyboard-response","131","619241","0.0-106.0","5dec01e809c107301c5e307f","665500ab8938657b03fbdba8","6657926289971b4f6cbee2d5","1916","stimuli/10011111.jpg"," ","","feedback_trial","1","","","","","","","","","","","","","","","","","","","","",""
"","","","","","image-keyboard-response","132","620363","0.0-107.0","5dec01e809c107301c5e307f","665500ab8938657b03fbdba8","6657926289971b4f6cbee2d5","1121","stimuli/1010101.jpg","1","","prediction_trial","1","","true","","1","true","true","false","true","false","true","[1]","010","101","1","","","","","","",""
"","","","","","image-keyboard-response","133","620949","0.0-108.0","5dec01e809c107301c5e307f","665500ab8938657b03fbdba8","6657926289971b4f6cbee2d5","584","stimuli/10101011.jpg"," ","","feedback_trial","1","","","","","","","","","","","","","","","","","","","","",""
"","","","","","image-keyboard-response","134","623050","0.0-109.0","5dec01e809c107301c5e307f","665500ab8938657b03fbdba8","6657926289971b4f6cbee2d5","2101","stimuli/0111011.jpg","0","","prediction_trial","0","","true","","0","true","true","false","false","false","false","[2,0,1]","111","011","1","","","","","","",""
"","","","","","image-keyboard-response","135","623897","0.0-110.0","5dec01e809c107301c5e307f","665500ab8938657b03fbdba8","6657926289971b4f6cbee2d5","846","stimuli/01110110.jpg"," ","","feedback_trial","2","","","","","","","","","","","","","","","","","","","","",""
"","","","","","image-keyboard-response","136","626635","0.0-111.0","5dec01e809c107301c5e307f","665500ab8938657b03fbdba8","6657926289971b4f6cbee2d5","2737","stimuli/0111010.jpg","0","","prediction_trial","0","","true","","0","true","true","false","false","false","false","[2,1,0]","111","010","1","","","","","","",""
"","","","","","image-keyboard-response","137","627444","0.0-112.0","5dec01e809c107301c5e307f","665500ab8938657b03fbdba8","6657926289971b4f6cbee2d5","809","stimuli/01110100.jpg"," ","","feedback_trial","2","","","","","","","","","","","","","","","","","","","","",""
"","","","","","image-keyboard-response","138","628349","0.0-113.0","5dec01e809c107301c5e307f","665500ab8938657b03fbdba8","6657926289971b4f6cbee2d5","904","stimuli/2110010.jpg","2","","prediction_trial","2","","true","","2","true","true","true","true","true","true","[2]","110","010","1","","","","","","",""
"","","","","","image-keyboard-response","139","628948","0.0-114.0","5dec01e809c107301c5e307f","665500ab8938657b03fbdba8","6657926289971b4f6cbee2d5","598","stimuli/21100102.jpg"," ","","feedback_trial","2","","","","","","","","","","","","","","","","","","","","",""
"","","","","","image-keyboard-response","140","629901","0.0-115.0","5dec01e809c107301c5e307f","665500ab8938657b03fbdba8","6657926289971b4f6cbee2d5","952","stimuli/1111100.jpg","1","","prediction_trial","0","","false","","1","true","true","false","false","false","false","[2,1,0]","111","100","0","","","","","","",""
"","","","","","image-keyboard-response","141","631143","0.0-116.0","5dec01e809c107301c5e307f","665500ab8938657b03fbdba8","6657926289971b4f6cbee2d5","1242","stimuli/11111000.jpg"," ","","feedback_trial","2","","","","","","","","","","","","","","","","","","","","",""
"","","","","","image-keyboard-response","142","632102","0.0-117.0","5dec01e809c107301c5e307f","665500ab8938657b03fbdba8","6657926289971b4f6cbee2d5","958","stimuli/0001000.jpg","0","","prediction_trial","0","","true","","0","true","true","true","true","true","true","[0]","001","000","1","","","","","","",""
"","","","","","image-keyboard-response","143","632675","0.0-118.0","5dec01e809c107301c5e307f","665500ab8938657b03fbdba8","6657926289971b4f6cbee2d5","573","stimuli/00010000.jpg"," ","","feedback_trial","0","","","","","","","","","","","","","","","","","","","","",""
"","","","","","image-keyboard-response","144","633676","0.0-119.0","5dec01e809c107301c5e307f","665500ab8938657b03fbdba8","6657926289971b4f6cbee2d5","1000","stimuli/1111111.jpg","1","","prediction_trial","2","","false","","1","false","false","false","false","false","false","[2,0,1]","111","111","0","","","","","","",""
"","","","","","image-keyboard-response","145","634707","0.0-120.0","5dec01e809c107301c5e307f","665500ab8938657b03fbdba8","6657926289971b4f6cbee2d5","1030","stimuli/11111112.jpg"," ","","feedback_trial","2","","","","","","","","","","","","","","","","","","","","",""
"","","","","","image-keyboard-response","146","635548","0.0-121.0","5dec01e809c107301c5e307f","665500ab8938657b03fbdba8","6657926289971b4f6cbee2d5","840","stimuli/0000000.jpg","0","","prediction_trial","0","","true","","0","true","true","true","true","true","true","[0]","000","000","1","","","","","","",""
"","","","","","image-keyboard-response","147","636111","0.0-122.0","5dec01e809c107301c5e307f","665500ab8938657b03fbdba8","6657926289971b4f6cbee2d5","563","stimuli/00000000.jpg"," ","","feedback_trial","0","","","","","","","","","","","","","","","","","","","","",""
"","","","","","image-keyboard-response","148","637020","0.0-123.0","5dec01e809c107301c5e307f","665500ab8938657b03fbdba8","6657926289971b4f6cbee2d5","908","stimuli/2110001.jpg","2","","prediction_trial","2","","true","","2","false","true","true","true","false","true","[2]","110","001","1","","","","","","",""
"","","","","","image-keyboard-response","149","638894","0.0-124.0","5dec01e809c107301c5e307f","665500ab8938657b03fbdba8","6657926289971b4f6cbee2d5","1873","stimuli/21100012.jpg"," ","","feedback_trial","2","","","","","","","","","","","","","","","","","","","","",""
"","","","","","image-keyboard-response","150","640681","0.0-125.0","5dec01e809c107301c5e307f","665500ab8938657b03fbdba8","6657926289971b4f6cbee2d5","1787","stimuli/0101010.jpg","0","","prediction_trial","2","","false","","0","true","true","false","false","false","false","[2,0]","101","010","0","","","","","","",""
"","","","","","image-keyboard-response","151","641921","0.0-126.0","5dec01e809c107301c5e307f","665500ab8938657b03fbdba8","6657926289971b4f6cbee2d5","1239","stimuli/01010102.jpg"," ","","feedback_trial","2","","","","","","","","","","","","","","","","","","","","",""
"","","","","","image-keyboard-response","152","642965","0.0-127.0","5dec01e809c107301c5e307f","665500ab8938657b03fbdba8","6657926289971b4f6cbee2d5","1043","stimuli/1011111.jpg","1","","prediction_trial","1","","true","","1","false","false","false","false","false","false","[1,2]","011","111","1","","","","","","",""
"","","","","","image-keyboard-response","153","643776","0.0-128.0","5dec01e809c107301c5e307f","665500ab8938657b03fbdba8","6657926289971b4f6cbee2d5","810","stimuli/10111111.jpg"," ","","feedback_trial","1","","","","","","","","","","","","","","","","","","","","",""
"","","","","","image-keyboard-response","154","644822","0.0-129.0","5dec01e809c107301c5e307f","665500ab8938657b03fbdba8","6657926289971b4f6cbee2d5","1046","stimuli/0000011.jpg","0","","prediction_trial","0","","true","","0","true","true","true","true","true","true","[0]","000","011","1","","","","","","",""
"","","","","","image-keyboard-response","155","645731","0.0-130.0","5dec01e809c107301c5e307f","665500ab8938657b03fbdba8","6657926289971b4f6cbee2d5","908","stimuli/00000110.jpg"," ","","feedback_trial","0","","","","","","","","","","","","","","","","","","","","",""
"","","","","","image-keyboard-response","156","646605","0.0-131.0","5dec01e809c107301c5e307f","665500ab8938657b03fbdba8","6657926289971b4f6cbee2d5","873","stimuli/1110111.jpg","2","","prediction_trial","1","","false","","1","false","false","false","false","false","false","[1,0]","110","111","0","","","","","","",""
"","","","","","image-keyboard-response","157","649202","0.0-132.0","5dec01e809c107301c5e307f","665500ab8938657b03fbdba8","6657926289971b4f6cbee2d5","2596","stimuli/11101111.jpg"," ","","feedback_trial","1","","","","","","","","","","","","","","","","","","","","",""
"","","","","","image-keyboard-response","158","650976","0.0-133.0","5dec01e809c107301c5e307f","665500ab8938657b03fbdba8","6657926289971b4f6cbee2d5","1774","stimuli/2110101.jpg","2","","prediction_trial","2","","true","","2","false","false","true","true","false","false","[2]","110","101","1","","","","","","",""
"","","","","","image-keyboard-response","159","652077","0.0-134.0","5dec01e809c107301c5e307f","665500ab8938657b03fbdba8","6657926289971b4f6cbee2d5","1100","stimuli/21101012.jpg"," ","","feedback_trial","2","","","","","","","","","","","","","","","","","","","","",""
"","","","","","image-keyboard-response","160","653002","0.0-135.0","5dec01e809c107301c5e307f","665500ab8938657b03fbdba8","6657926289971b4f6cbee2d5","925","stimuli/1000101.jpg","1","","prediction_trial","1","","true","","1","true","true","true","true","true","true","[1]","000","101","1","","","","","","",""
"","","","","","image-keyboard-response","161","653588","0.0-136.0","5dec01e809c107301c5e307f","665500ab8938657b03fbdba8","6657926289971b4f6cbee2d5","585","stimuli/10001011.jpg"," ","","feedback_trial","1","","","","","","","","","","","","","","","","","","","","",""
"","","","","","image-keyboard-response","162","654848","0.0-137.0","5dec01e809c107301c5e307f","665500ab8938657b03fbdba8","6657926289971b4f6cbee2d5","1259","stimuli/1001100.jpg","1","","prediction_trial","1","","true","","1","true","true","true","true","true","true","[1]","001","100","1","","","","","","",""
"","","","","","image-keyboard-response","163","655328","0.0-138.0","5dec01e809c107301c5e307f","665500ab8938657b03fbdba8","6657926289971b4f6cbee2d5","478","stimuli/10011001.jpg"," ","","feedback_trial","1","","","","","","","","","","","","","","","","","","","","",""
"","","","","","image-keyboard-response","164","657685","0.0-139.0","5dec01e809c107301c5e307f","665500ab8938657b03fbdba8","6657926289971b4f6cbee2d5","2357","stimuli/1101011.jpg","1","","prediction_trial","1","","true","","1","false","false","true","true","false","false","[1]","101","011","1","","","","","","",""
"","","","","","image-keyboard-response","165","658517","0.0-140.0","5dec01e809c107301c5e307f","665500ab8938657b03fbdba8","6657926289971b4f6cbee2d5","831","stimuli/11010111.jpg"," ","","feedback_trial","1","","","","","","","","","","","","","","","","","","","","",""
"","","","","","image-keyboard-response","166","659307","0.0-141.0","5dec01e809c107301c5e307f","665500ab8938657b03fbdba8","6657926289971b4f6cbee2d5","790","stimuli/2010110.jpg","2","","prediction_trial","2","","true","","2","true","true","true","true","true","true","[2]","010","110","1","","","","","","",""
"","","","","","image-keyboard-response","167","659905","0.0-142.0","5dec01e809c107301c5e307f","665500ab8938657b03fbdba8","6657926289971b4f6cbee2d5","598","stimuli/20101102.jpg"," ","","feedback_trial","2","","","","","","","","","","","","","","","","","","","","",""
"","","","","","image-keyboard-response","168","662718","0.0-143.0","5dec01e809c107301c5e307f","665500ab8938657b03fbdba8","6657926289971b4f6cbee2d5","2812","stimuli/1110110.jpg","0","","prediction_trial","0","","true","","1","false","false","false","false","false","false","[0,1]","110","110","1","","","","","","",""
"","","","","","image-keyboard-response","169","663707","0.0-144.0","5dec01e809c107301c5e307f","665500ab8938657b03fbdba8","6657926289971b4f6cbee2d5","988","stimuli/11101100.jpg"," ","","feedback_trial","0","","","","","","","","","","","","","","","","","","","","",""
"","","","","","image-keyboard-response","170","664488","0.0-145.0","5dec01e809c107301c5e307f","665500ab8938657b03fbdba8","6657926289971b4f6cbee2d5","780","stimuli/1100001.jpg","1","","prediction_trial","1","","true","","1","true","true","true","true","true","true","[1]","100","001","1","","","","","","",""
"","","","","","image-keyboard-response","171","665763","0.0-146.0","5dec01e809c107301c5e307f","665500ab8938657b03fbdba8","6657926289971b4f6cbee2d5","1274","stimuli/11000011.jpg"," ","","feedback_trial","1","","","","","","","","","","","","","","","","","","","","",""
"","","","","","image-keyboard-response","172","671314","0.0-147.0","5dec01e809c107301c5e307f","665500ab8938657b03fbdba8","6657926289971b4f6cbee2d5","5556","stimuli/1011100.jpg","0","","prediction_trial","2","","false","","1","true","true","false","false","false","false","[2,1]","011","100","0","","","","","","",""
"","","","","","image-keyboard-response","173","673431","0.0-148.0","5dec01e809c107301c5e307f","665500ab8938657b03fbdba8","6657926289971b4f6cbee2d5","2117","stimuli/10111002.jpg"," ","","feedback_trial","2","","","","","","","","","","","","","","","","","","","","",""
"","","","","","image-keyboard-response","174","677323","0.0-149.0","5dec01e809c107301c5e307f","665500ab8938657b03fbdba8","6657926289971b4f6cbee2d5","3891","stimuli/2101100.jpg","0","","prediction_trial","0","","true","","2","true","true","false","false","false","false","[2,0]","101","100","1","","","","","","",""
"","","","","","image-keyboard-response","175","678500","0.0-150.0","5dec01e809c107301c5e307f","665500ab8938657b03fbdba8","6657926289971b4f6cbee2d5","1177","stimuli/21011000.jpg"," ","","feedback_trial","2","","","","","","","","","","","","","","","","","","","","",""
"","","","","","image-keyboard-response","176","679726","0.0-151.0","5dec01e809c107301c5e307f","665500ab8938657b03fbdba8","6657926289971b4f6cbee2d5","1224","stimuli/1101110.jpg","1","","prediction_trial","1","","true","","1","false","false","true","true","false","false","[1]","101","110","1","","","","","","",""
"","","","","","image-keyboard-response","177","680489","0.0-152.0","5dec01e809c107301c5e307f","665500ab8938657b03fbdba8","6657926289971b4f6cbee2d5","762","stimuli/11011101.jpg"," ","","feedback_trial","1","","","","","","","","","","","","","","","","","","","","",""
"","","","","","image-keyboard-response","178","683033","0.0-153.0","5dec01e809c107301c5e307f","665500ab8938657b03fbdba8","6657926289971b4f6cbee2d5","2543","stimuli/2001110.jpg","0","","prediction_trial","2","","false","","2","true","true","false","true","false","true","[2]","001","110","0","","","","","","",""
"","","","","","image-keyboard-response","179","683800","0.0-154.0","5dec01e809c107301c5e307f","665500ab8938657b03fbdba8","6657926289971b4f6cbee2d5","767","stimuli/20011102.jpg"," ","","feedback_trial","2","","","","","","","","","","","","","","","","","","","","",""
"","","","","","image-keyboard-response","180","685710","0.0-155.0","5dec01e809c107301c5e307f","665500ab8938657b03fbdba8","6657926289971b4f6cbee2d5","1909","stimuli/2000111.jpg","2","","prediction_trial","2","","true","","2","false","false","true","true","false","false","[2]","000","111","1","","","","","","",""
"","","","","","image-keyboard-response","181","686885","0.0-156.0","5dec01e809c107301c5e307f","665500ab8938657b03fbdba8","6657926289971b4f6cbee2d5","1174","stimuli/20001112.jpg"," ","","feedback_trial","2","","","","","","","","","","","","","","","","","","","","",""
"","","","","","image-keyboard-response","182","688316","0.0-157.0","5dec01e809c107301c5e307f","665500ab8938657b03fbdba8","6657926289971b4f6cbee2d5","1430","stimuli/0110011.jpg","0","","prediction_trial","0","","true","","0","true","true","false","false","false","false","[0,1]","110","011","1","","","","","","",""
"","","","","","image-keyboard-response","183","689174","0.0-158.0","5dec01e809c107301c5e307f","665500ab8938657b03fbdba8","6657926289971b4f6cbee2d5","857","stimuli/01100110.jpg"," ","","feedback_trial","0","","","","","","","","","","","","","","","","","","","","",""
"","","","","","image-keyboard-response","184","691586","0.0-159.0","5dec01e809c107301c5e307f","665500ab8938657b03fbdba8","6657926289971b4f6cbee2d5","2411","stimuli/2011101.jpg","2","","prediction_trial","2","","true","","2","false","false","false","false","false","false","[2,1]","011","101","1","","","","","","",""
"","","","","","image-keyboard-response","185","692563","0.0-160.0","5dec01e809c107301c5e307f","665500ab8938657b03fbdba8","6657926289971b4f6cbee2d5","977","stimuli/20111012.jpg"," ","","feedback_trial","2","","","","","","","","","","","","","","","","","","","","",""
"","","","","","image-keyboard-response","186","695032","0.0-161.0","5dec01e809c107301c5e307f","665500ab8938657b03fbdba8","6657926289971b4f6cbee2d5","2468","stimuli/1010011.jpg","1","","prediction_trial","1","","true","","1","false","false","false","true","false","false","[1]","010","011","1","","","","","","",""
"","","","","","image-keyboard-response","187","695882","0.0-162.0","5dec01e809c107301c5e307f","665500ab8938657b03fbdba8","6657926289971b4f6cbee2d5","849","stimuli/10100111.jpg"," ","","feedback_trial","1","","","","","","","","","","","","","","","","","","","","",""
"","","","","","image-keyboard-response","188","698398","0.0-163.0","5dec01e809c107301c5e307f","665500ab8938657b03fbdba8","6657926289971b4f6cbee2d5","2515","stimuli/0010101.jpg","2","","prediction_trial","0","","false","","0","false","false","true","true","false","false","[0]","010","101","0","","","","","","",""
"","","","","","image-keyboard-response","189","699249","0.0-164.0","5dec01e809c107301c5e307f","665500ab8938657b03fbdba8","6657926289971b4f6cbee2d5","850","stimuli/00101010.jpg"," ","","feedback_trial","0","","","","","","","","","","","","","","","","","","","","",""
"","","","","","image-keyboard-response","190","701033","0.0-165.0","5dec01e809c107301c5e307f","665500ab8938657b03fbdba8","6657926289971b4f6cbee2d5","1784","stimuli/0000111.jpg","0","","prediction_trial","0","","true","","0","false","false","true","true","false","false","[0]","000","111","1","","","","","","",""
"","","","","","image-keyboard-response","191","701888","0.0-166.0","5dec01e809c107301c5e307f","665500ab8938657b03fbdba8","6657926289971b4f6cbee2d5","854","stimuli/00001110.jpg"," ","","feedback_trial","0","","","","","","","","","","","","","","","","","","","","",""
"","","","","","image-keyboard-response","192","704591","0.0-167.0","5dec01e809c107301c5e307f","665500ab8938657b03fbdba8","6657926289971b4f6cbee2d5","2702","stimuli/2001100.jpg","2","","prediction_trial","2","","true","","2","true","true","false","true","false","true","[2]","001","100","1","","","","","","",""
"","","","","","image-keyboard-response","193","705733","0.0-168.0","5dec01e809c107301c5e307f","665500ab8938657b03fbdba8","6657926289971b4f6cbee2d5","1142","stimuli/20011002.jpg"," ","","feedback_trial","2","","","","","","","","","","","","","","","","","","","","",""
"","","","","","image-keyboard-response","194","710116","0.0-169.0","5dec01e809c107301c5e307f","665500ab8938657b03fbdba8","6657926289971b4f6cbee2d5","4382","stimuli/2101110.jpg","2","","prediction_trial","0","","false","","2","true","true","false","false","false","false","[0,2]","101","110","0","","","","","","",""
"","","","","","image-keyboard-response","195","712139","0.0-170.0","5dec01e809c107301c5e307f","665500ab8938657b03fbdba8","6657926289971b4f6cbee2d5","2022","stimuli/21011100.jpg"," ","","feedback_trial","0","","","","","","","","","","","","","","","","","","","","",""
"","","","","","image-keyboard-response","196","713529","0.0-171.0","5dec01e809c107301c5e307f","665500ab8938657b03fbdba8","6657926289971b4f6cbee2d5","1389","stimuli/1100000.jpg","1","","prediction_trial","1","","true","","1","true","true","true","true","true","true","[1]","100","000","1","","","","","","",""
"","","","","","image-keyboard-response","197","714168","0.0-172.0","5dec01e809c107301c5e307f","665500ab8938657b03fbdba8","6657926289971b4f6cbee2d5","638","stimuli/11000001.jpg"," ","","feedback_trial","1","","","","","","","","","","","","","","","","","","","","",""
"","","","","","image-keyboard-response","198","715571","0.0-173.0","5dec01e809c107301c5e307f","665500ab8938657b03fbdba8","6657926289971b4f6cbee2d5","1402","stimuli/2101010.jpg","0","","prediction_trial","2","","false","","2","true","true","false","false","false","false","[2,0]","101","010","0","","","","","","",""
"","","","","","image-keyboard-response","199","716410","0.0-174.0","5dec01e809c107301c5e307f","665500ab8938657b03fbdba8","6657926289971b4f6cbee2d5","838","stimuli/21010102.jpg"," ","","feedback_trial","2","","","","","","","","","","","","","","","","","","","","",""
"","","","","","image-keyboard-response","200","718152","0.0-175.0","5dec01e809c107301c5e307f","665500ab8938657b03fbdba8","6657926289971b4f6cbee2d5","1742","stimuli/0011000.jpg","0","","prediction_trial","0","","true","","0","true","true","true","true","true","true","[0]","011","000","1","","","","","","",""
"","","","","","image-keyboard-response","201","718808","0.0-176.0","5dec01e809c107301c5e307f","665500ab8938657b03fbdba8","6657926289971b4f6cbee2d5","654","stimuli/00110000.jpg"," ","","feedback_trial","0","","","","","","","","","","","","","","","","","","","","",""
"","","","","","image-keyboard-response","202","721294","0.0-177.0","5dec01e809c107301c5e307f","665500ab8938657b03fbdba8","6657926289971b4f6cbee2d5","2486","stimuli/2001001.jpg","2","","prediction_trial","2","","true","","2","false","true","false","true","false","true","[2]","001","001","1","","","","","","",""
"","","","","","image-keyboard-response","203","722053","0.0-178.0","5dec01e809c107301c5e307f","665500ab8938657b03fbdba8","6657926289971b4f6cbee2d5","757","stimuli/20010012.jpg"," ","","feedback_trial","2","","","","","","","","","","","","","","","","","","","","",""
"","","","","","image-keyboard-response","204","723399","0.0-179.0","5dec01e809c107301c5e307f","665500ab8938657b03fbdba8","6657926289971b4f6cbee2d5","1346","stimuli/1011001.jpg","1","","prediction_trial","1","","true","","1","true","true","false","false","false","false","[2,1]","011","001","1","","","","","","",""
"","","","","","image-keyboard-response","205","724156","0.0-180.0","5dec01e809c107301c5e307f","665500ab8938657b03fbdba8","6657926289971b4f6cbee2d5","756","stimuli/10110011.jpg"," ","","feedback_trial","2","","","","","","","","","","","","","","","","","","","","",""
"","","","","","image-keyboard-response","206","725007","0.0-181.0","5dec01e809c107301c5e307f","665500ab8938657b03fbdba8","6657926289971b4f6cbee2d5","851","stimuli/2010000.jpg","2","","prediction_trial","2","","true","","2","true","true","true","true","true","true","[2]","010","000","1","","","","","","",""
"","","","","","image-keyboard-response","207","725559","0.0-182.0","5dec01e809c107301c5e307f","665500ab8938657b03fbdba8","6657926289971b4f6cbee2d5","551","stimuli/20100002.jpg"," ","","feedback_trial","2","","","","","","","","","","","","","","","","","","","","",""
"","","","","","image-keyboard-response","208","726953","0.0-183.0","5dec01e809c107301c5e307f","665500ab8938657b03fbdba8","6657926289971b4f6cbee2d5","1393","stimuli/2111000.jpg","2","","prediction_trial","1","","false","","2","true","true","false","false","false","false","[2,1,0]","111","000","0","","","","","","",""
"","","","","","image-keyboard-response","209","728454","0.0-184.0","5dec01e809c107301c5e307f","665500ab8938657b03fbdba8","6657926289971b4f6cbee2d5","1500","stimuli/21110001.jpg"," ","","feedback_trial","2","","","","","","","","","","","","","","","","","","","","",""
"","","","","","image-keyboard-response","210","731702","0.0-185.0","5dec01e809c107301c5e307f","665500ab8938657b03fbdba8","6657926289971b4f6cbee2d5","3242","stimuli/1000110.jpg","1","","prediction_trial","1","","true","","1","false","false","true","true","false","false","[1]","000","110","1","","","","","","",""
"","","","","","image-keyboard-response","211","732584","0.0-186.0","5dec01e809c107301c5e307f","665500ab8938657b03fbdba8","6657926289971b4f6cbee2d5","881","stimuli/10001101.jpg"," ","","feedback_trial","1","","","","","","","","","","","","","","","","","","","","",""
"","","","","","image-keyboard-response","212","734066","0.0-187.0","5dec01e809c107301c5e307f","665500ab8938657b03fbdba8","6657926289971b4f6cbee2d5","1482","stimuli/1011101.jpg","1","","prediction_trial","1","","true","","1","true","true","false","false","false","false","[2,1]","011","101","1","","","","","","",""
"","","","","","image-keyboard-response","213","734872","0.0-188.0","5dec01e809c107301c5e307f","665500ab8938657b03fbdba8","6657926289971b4f6cbee2d5","806","stimuli/10111011.jpg"," ","","feedback_trial","2","","","","","","","","","","","","","","","","","","","","",""
"","","","","","image-keyboard-response","214","735601","0.0-189.0","5dec01e809c107301c5e307f","665500ab8938657b03fbdba8","6657926289971b4f6cbee2d5","728","stimuli/0010001.jpg","0","","prediction_trial","0","","true","","0","true","true","true","true","true","true","[0]","010","001","1","","","","","","",""
"","","","","","image-keyboard-response","215","736084","0.0-190.0","5dec01e809c107301c5e307f","665500ab8938657b03fbdba8","6657926289971b4f6cbee2d5","482","stimuli/00100010.jpg"," ","","feedback_trial","0","","","","","","","","","","","","","","","","","","","","",""
"","","","","","image-keyboard-response","216","737666","0.0-191.0","5dec01e809c107301c5e307f","665500ab8938657b03fbdba8","6657926289971b4f6cbee2d5","1581","stimuli/2010001.jpg","2","","prediction_trial","2","","true","","2","false","true","true","true","false","true","[2]","010","001","1","","","","","","",""
"","","","","","image-keyboard-response","217","738820","0.0-192.0","5dec01e809c107301c5e307f","665500ab8938657b03fbdba8","6657926289971b4f6cbee2d5","1153","stimuli/20100012.jpg"," ","","feedback_trial","2","","","","","","","","","","","","","","","","","","","","",""
"","","","","","image-keyboard-response","218","739720","0.0-193.0","5dec01e809c107301c5e307f","665500ab8938657b03fbdba8","6657926289971b4f6cbee2d5","899","stimuli/0010011.jpg","0","","prediction_trial","0","","true","","0","true","true","true","true","true","true","[0]","010","011","1","","","","","","",""
"","","","","","image-keyboard-response","219","740213","0.0-194.0","5dec01e809c107301c5e307f","665500ab8938657b03fbdba8","6657926289971b4f6cbee2d5","493","stimuli/00100110.jpg"," ","","feedback_trial","0","","","","","","","","","","","","","","","","","","","","",""
"","","","","","image-keyboard-response","220","743608","0.0-195.0","5dec01e809c107301c5e307f","665500ab8938657b03fbdba8","6657926289971b4f6cbee2d5","3394","stimuli/0001101.jpg","0","","prediction_trial","0","","true","","0","false","false","true","true","false","false","[0]","001","101","1","","","","","","",""
"","","","","","image-keyboard-response","221","744606","0.0-196.0","5dec01e809c107301c5e307f","665500ab8938657b03fbdba8","6657926289971b4f6cbee2d5","997","stimuli/00011010.jpg"," ","","feedback_trial","0","","","","","","","","","","","","","","","","","","","","",""
"","","","","","image-keyboard-response","222","745407","0.0-197.0","5dec01e809c107301c5e307f","665500ab8938657b03fbdba8","6657926289971b4f6cbee2d5","800","stimuli/2100000.jpg","2","","prediction_trial","2","","true","","2","true","true","true","true","true","true","[2]","100","000","1","","","","","","",""
"","","","","","image-keyboard-response","223","746007","0.0-198.0","5dec01e809c107301c5e307f","665500ab8938657b03fbdba8","6657926289971b4f6cbee2d5","599","stimuli/21000002.jpg"," ","","feedback_trial","2","","","","","","","","","","","","","","","","","","","","",""
"","","","","","image-keyboard-response","224","746800","0.0-199.0","5dec01e809c107301c5e307f","665500ab8938657b03fbdba8","6657926289971b4f6cbee2d5","792","stimuli/1101001.jpg","1","","prediction_trial","1","","true","","1","true","true","true","true","true","true","[1]","101","001","1","","","","","","",""
"","","","","","image-keyboard-response","225","747305","0.0-200.0","5dec01e809c107301c5e307f","665500ab8938657b03fbdba8","6657926289971b4f6cbee2d5","504","stimuli/11010011.jpg"," ","","feedback_trial","1","","","","","","","","","","","","","","","","","","","","",""
"","","","","","image-keyboard-response","226","747986","0.0-201.0","5dec01e809c107301c5e307f","665500ab8938657b03fbdba8","6657926289971b4f6cbee2d5","680","stimuli/2100100.jpg","2","","prediction_trial","2","","true","","2","true","true","true","true","true","true","[2]","100","100","1","","","","","","",""
"","","","","","image-keyboard-response","227","748591","0.0-202.0","5dec01e809c107301c5e307f","665500ab8938657b03fbdba8","6657926289971b4f6cbee2d5","605","stimuli/21001002.jpg"," ","","feedback_trial","2","","","","","","","","","","","","","","","","","","","","",""
"","","","","","image-keyboard-response","228","751019","0.0-203.0","5dec01e809c107301c5e307f","665500ab8938657b03fbdba8","6657926289971b4f6cbee2d5","2426","stimuli/0010111.jpg","1","","prediction_trial","0","","false","","0","false","false","true","true","false","false","[0]","010","111","0","","","","","","",""
"","","","","","image-keyboard-response","229","752384","0.0-204.0","5dec01e809c107301c5e307f","665500ab8938657b03fbdba8","6657926289971b4f6cbee2d5","1364","stimuli/00101110.jpg"," ","","feedback_trial","0","","","","","","","","","","","","","","","","","","","","",""
"","","","","","image-keyboard-response","230","753128","0.0-205.0","5dec01e809c107301c5e307f","665500ab8938657b03fbdba8","6657926289971b4f6cbee2d5","744","stimuli/2010010.jpg","2","","prediction_trial","2","","true","","2","true","true","true","true","true","true","[2]","010","010","1","","","","","","",""
"","","","","","image-keyboard-response","231","753701","0.0-206.0","5dec01e809c107301c5e307f","665500ab8938657b03fbdba8","6657926289971b4f6cbee2d5","572","stimuli/20100102.jpg"," ","","feedback_trial","2","","","","","","","","","","","","","","","","","","","","",""
"","","","","","image-keyboard-response","232","754826","0.0-207.0","5dec01e809c107301c5e307f","665500ab8938657b03fbdba8","6657926289971b4f6cbee2d5","1124","stimuli/2000100.jpg","2","","prediction_trial","2","","true","","2","true","true","true","true","true","true","[2]","000","100","1","","","","","","",""
"","","","","","image-keyboard-response","233","755349","0.0-208.0","5dec01e809c107301c5e307f","665500ab8938657b03fbdba8","6657926289971b4f6cbee2d5","523","stimuli/20001002.jpg"," ","","feedback_trial","2","","","","","","","","","","","","","","","","","","","","",""
"","","","","","image-keyboard-response","234","758959","0.0-209.0","5dec01e809c107301c5e307f","665500ab8938657b03fbdba8","6657926289971b4f6cbee2d5","3608","stimuli/2111011.jpg","1","","prediction_trial","1","","true","","2","false","false","false","false","false","false","[1,2,0]","111","011","1","","","","","","",""
"","","","","","image-keyboard-response","235","760392","0.0-210.0","5dec01e809c107301c5e307f","665500ab8938657b03fbdba8","6657926289971b4f6cbee2d5","1433","stimuli/21110111.jpg"," ","","feedback_trial","1","","","","","","","","","","","","","","","","","","","","",""
"","","","","","image-keyboard-response","236","761903","0.0-211.0","5dec01e809c107301c5e307f","665500ab8938657b03fbdba8","6657926289971b4f6cbee2d5","1510","stimuli/0101100.jpg","0","","prediction_trial","2","","false","","0","false","true","false","false","false","false","[2,0]","101","100","0","","","","","","",""
"","","","","","image-keyboard-response","237","764190","0.0-212.0","5dec01e809c107301c5e307f","665500ab8938657b03fbdba8","6657926289971b4f6cbee2d5","2287","stimuli/01011002.jpg"," ","","feedback_trial","2","","","","","","","","","","","","","","","","","","","","",""
"","","","","","image-keyboard-response","238","766645","0.0-213.0","5dec01e809c107301c5e307f","665500ab8938657b03fbdba8","6657926289971b4f6cbee2d5","2454","stimuli/0100111.jpg","1","","prediction_trial","0","","false","","0","false","false","false","true","false","false","[0]","100","111","0","","","","","","",""
"","","","","","image-keyboard-response","239","767751","0.0-214.0","5dec01e809c107301c5e307f","665500ab8938657b03fbdba8","6657926289971b4f6cbee2d5","1105","stimuli/01001110.jpg"," ","","feedback_trial","0","","","","","","","","","","","","","","","","","","","","",""
"","","","","","image-keyboard-response","240","768734","0.0-215.0","5dec01e809c107301c5e307f","665500ab8938657b03fbdba8","6657926289971b4f6cbee2d5","982","stimuli/2001101.jpg","2","","prediction_trial","2","","true","","2","false","false","false","true","false","false","[2]","001","101","1","","","","","","",""
"","","","","","image-keyboard-response","241","771571","0.0-216.0","5dec01e809c107301c5e307f","665500ab8938657b03fbdba8","6657926289971b4f6cbee2d5","2836","stimuli/20011012.jpg"," ","","feedback_trial","2","","","","","","","","","","","","","","","","","","","","",""
"","","","","","image-keyboard-response","242","772612","0.0-217.0","5dec01e809c107301c5e307f","665500ab8938657b03fbdba8","6657926289971b4f6cbee2d5","1041","stimuli/0111001.jpg","0","","prediction_trial","0","","true","","0","true","true","false","false","false","false","[0,1,2]","111","001","1","","","","","","",""
"","","","","","image-keyboard-response","243","773815","0.0-218.0","5dec01e809c107301c5e307f","665500ab8938657b03fbdba8","6657926289971b4f6cbee2d5","1202","stimuli/01110010.jpg"," ","","feedback_trial","0","","","","","","","","","","","","","","","","","","","","",""
"","","","","","image-keyboard-response","244","774928","0.0-219.0","5dec01e809c107301c5e307f","665500ab8938657b03fbdba8","6657926289971b4f6cbee2d5","1113","stimuli/1010010.jpg","1","","prediction_trial","1","","true","","1","false","true","false","true","false","true","[1]","010","010","1","","","","","","",""
"","","","","","image-keyboard-response","245","775643","0.0-220.0","5dec01e809c107301c5e307f","665500ab8938657b03fbdba8","6657926289971b4f6cbee2d5","714","stimuli/10100101.jpg"," ","","feedback_trial","1","","","","","","","","","","","","","","","","","","","","",""
"","","","","","image-keyboard-response","246","778158","0.0-221.0","5dec01e809c107301c5e307f","665500ab8938657b03fbdba8","6657926289971b4f6cbee2d5","2515","stimuli/2100001.jpg","2","","prediction_trial","2","","true","","2","false","true","true","true","false","true","[2]","100","001","1","","","","","","",""
"","","","","","image-keyboard-response","247","778970","0.0-222.0","5dec01e809c107301c5e307f","665500ab8938657b03fbdba8","6657926289971b4f6cbee2d5","811","stimuli/21000012.jpg"," ","","feedback_trial","2","","","","","","","","","","","","","","","","","","","","",""
"","","","","","image-keyboard-response","248","779693","0.0-223.0","5dec01e809c107301c5e307f","665500ab8938657b03fbdba8","6657926289971b4f6cbee2d5","722","stimuli/2000010.jpg","2","","prediction_trial","2","","true","","2","true","true","true","true","true","true","[2]","000","010","1","","","","","","",""
"","","","","","image-keyboard-response","249","780226","0.0-224.0","5dec01e809c107301c5e307f","665500ab8938657b03fbdba8","6657926289971b4f6cbee2d5","532","stimuli/20000102.jpg"," ","","feedback_trial","2","","","","","","","","","","","","","","","","","","","","",""
"","","","","","image-keyboard-response","250","784699","0.0-225.0","5dec01e809c107301c5e307f","665500ab8938657b03fbdba8","6657926289971b4f6cbee2d5","4472","stimuli/0110100.jpg","0","","prediction_trial","0","","true","","0","false","true","false","false","false","false","[1,0]","110","100","1","","","","","","",""
"","","","","","image-keyboard-response","251","785404","0.0-226.0","5dec01e809c107301c5e307f","665500ab8938657b03fbdba8","6657926289971b4f6cbee2d5","705","stimuli/01101000.jpg"," ","","feedback_trial","1","","","","","","","","","","","","","","","","","","","","",""
"","","","","","image-keyboard-response","252","788883","0.0-227.0","5dec01e809c107301c5e307f","665500ab8938657b03fbdba8","6657926289971b4f6cbee2d5","3478","stimuli/2001111.jpg","1","","prediction_trial","2","","false","","2","false","false","false","true","false","false","[2]","001","111","0","","","","","","",""
"","","","","","image-keyboard-response","253","789909","0.0-228.0","5dec01e809c107301c5e307f","665500ab8938657b03fbdba8","6657926289971b4f6cbee2d5","1025","stimuli/20011112.jpg"," ","","feedback_trial","2","","","","","","","","","","","","","","","","","","","","",""
"","","","","","image-keyboard-response","254","790876","0.0-229.0","5dec01e809c107301c5e307f","665500ab8938657b03fbdba8","6657926289971b4f6cbee2d5","966","stimuli/2000110.jpg","2","","prediction_trial","2","","true","","2","true","true","true","true","true","true","[2]","000","110","1","","","","","","",""
"","","","","","image-keyboard-response","255","791393","0.0-230.0","5dec01e809c107301c5e307f","665500ab8938657b03fbdba8","6657926289971b4f6cbee2d5","516","stimuli/20001102.jpg"," ","","feedback_trial","2","","","","","","","","","","","","","","","","","","","","",""
"","","","","","image-keyboard-response","256","793278","0.0-231.0","5dec01e809c107301c5e307f","665500ab8938657b03fbdba8","6657926289971b4f6cbee2d5","1898","stimuli/2000001.jpg","2","","prediction_trial","2","","true","","2","false","true","true","true","false","true","[2]","000","001","1","","","","","","",""
"","","","","","image-keyboard-response","257","793749","0.0-232.0","5dec01e809c107301c5e307f","665500ab8938657b03fbdba8","6657926289971b4f6cbee2d5","470","stimuli/20000012.jpg"," ","","feedback_trial","2","","","","","","","","","","","","","","","","","","","","",""
"","","","","","image-keyboard-response","258","797948","0.0-233.0","5dec01e809c107301c5e307f","665500ab8938657b03fbdba8","6657926289971b4f6cbee2d5","4198","stimuli/0001111.jpg","1","","prediction_trial","0","","false","","0","false","false","true","true","false","false","[0]","001","111","0","","","","","","",""
"","","","","","image-keyboard-response","259","798885","0.0-234.0","5dec01e809c107301c5e307f","665500ab8938657b03fbdba8","6657926289971b4f6cbee2d5","936","stimuli/00011110.jpg"," ","","feedback_trial","0","","","","","","","","","","","","","","","","","","","","",""
"","","","","","image-keyboard-response","260","799641","0.0-235.0","5dec01e809c107301c5e307f","665500ab8938657b03fbdba8","6657926289971b4f6cbee2d5","755","stimuli/2100010.jpg","2","","prediction_trial","2","","true","","2","true","true","true","true","true","true","[2]","100","010","1","","","","","","",""
"","","","","","image-keyboard-response","261","800191","0.0-236.0","5dec01e809c107301c5e307f","665500ab8938657b03fbdba8","6657926289971b4f6cbee2d5","549","stimuli/21000102.jpg"," ","","feedback_trial","2","","","","","","","","","","","","","","","","","","","","",""
"","","","","","image-keyboard-response","262","801245","0.0-237.0","5dec01e809c107301c5e307f","665500ab8938657b03fbdba8","6657926289971b4f6cbee2d5","1054","stimuli/0101111.jpg","0","","prediction_trial","2","","false","","0","false","false","false","false","false","false","[2,0]","101","111","0","","","","","","",""
"","","","","","image-keyboard-response","263","802244","0.0-238.0","5dec01e809c107301c5e307f","665500ab8938657b03fbdba8","6657926289971b4f6cbee2d5","998","stimuli/01011112.jpg"," ","","feedback_trial","2","","","","","","","","","","","","","","","","","","","","",""
"","","","","","image-keyboard-response","264","803139","0.0-239.0","5dec01e809c107301c5e307f","665500ab8938657b03fbdba8","6657926289971b4f6cbee2d5","894","stimuli/0011001.jpg","0","","prediction_trial","0","","true","","0","true","true","true","true","true","true","[0]","011","001","1","","","","","","",""
"","","","","","image-keyboard-response","265","803670","0.0-240.0","5dec01e809c107301c5e307f","665500ab8938657b03fbdba8","6657926289971b4f6cbee2d5","530","stimuli/00110010.jpg"," ","","feedback_trial","0","","","","","","","","","","","","","","","","","","","","",""
"","","","","","image-keyboard-response","266","804605","0.0-241.0","5dec01e809c107301c5e307f","665500ab8938657b03fbdba8","6657926289971b4f6cbee2d5","934","stimuli/1100101.jpg","1","","prediction_trial","1","","true","","1","true","true","true","true","true","true","[1]","100","101","1","","","","","","",""
"","","","","","image-keyboard-response","267","805154","0.0-242.0","5dec01e809c107301c5e307f","665500ab8938657b03fbdba8","6657926289971b4f6cbee2d5","548","stimuli/11001011.jpg"," ","","feedback_trial","1","","","","","","","","","","","","","","","","","","","","",""
"","","","","","image-keyboard-response","268","805800","0.0-243.0","5dec01e809c107301c5e307f","665500ab8938657b03fbdba8","6657926289971b4f6cbee2d5","645","stimuli/2111010.jpg","2","","prediction_trial","2","","true","","2","true","true","false","false","false","false","[0,2,1]","111","010","1","","","","","","",""
"","","","","","image-keyboard-response","269","806493","0.0-244.0","5dec01e809c107301c5e307f","665500ab8938657b03fbdba8","6657926289971b4f6cbee2d5","692","stimuli/21110102.jpg"," ","","feedback_trial","0","","","","","","","","","","","","","","","","","","","","",""
"","","","","","image-keyboard-response","270","807733","0.0-245.0","5dec01e809c107301c5e307f","665500ab8938657b03fbdba8","6657926289971b4f6cbee2d5","1240","stimuli/1000100.jpg","1","","prediction_trial","1","","true","","1","true","true","true","true","true","true","[1]","000","100","1","","","","","","",""
"","","","","","image-keyboard-response","271","808510","0.0-246.0","5dec01e809c107301c5e307f","665500ab8938657b03fbdba8","6657926289971b4f6cbee2d5","776","stimuli/10001001.jpg"," ","","feedback_trial","1","","","","","","","","","","","","","","","","","","","","",""
"","","","","","image-keyboard-response","272","809558","0.0-247.0","5dec01e809c107301c5e307f","665500ab8938657b03fbdba8","6657926289971b4f6cbee2d5","1048","stimuli/1111000.jpg","1","","prediction_trial","2","","false","","1","true","true","false","false","false","false","[1,0,2]","111","000","0","","","","","","",""
"","","","","","image-keyboard-response","273","810743","0.0-248.0","5dec01e809c107301c5e307f","665500ab8938657b03fbdba8","6657926289971b4f6cbee2d5","1184","stimuli/11110002.jpg"," ","","feedback_trial","1","","","","","","","","","","","","","","","","","","","","",""
"","","","","","image-keyboard-response","274","811502","0.0-249.0","5dec01e809c107301c5e307f","665500ab8938657b03fbdba8","6657926289971b4f6cbee2d5","758","stimuli/2011000.jpg","2","","prediction_trial","2","","true","","2","true","true","false","false","false","false","[1,2]","011","000","1","","","","","","",""
"","","","","","image-keyboard-response","275","812644","0.0-250.0","5dec01e809c107301c5e307f","665500ab8938657b03fbdba8","6657926289971b4f6cbee2d5","1142","stimuli/20110002.jpg"," ","","feedback_trial","1","","","","","","","","","","","","","","","","","","","","",""
"","","","","","image-keyboard-response","276","813462","0.0-251.0","5dec01e809c107301c5e307f","665500ab8938657b03fbdba8","6657926289971b4f6cbee2d5","817","stimuli/0011011.jpg","0","","prediction_trial","0","","true","","0","true","true","true","true","true","true","[0]","011","011","1","","","","","","",""
"","","","","","image-keyboard-response","277","813997","0.0-252.0","5dec01e809c107301c5e307f","665500ab8938657b03fbdba8","6657926289971b4f6cbee2d5","534","stimuli/00110110.jpg"," ","","feedback_trial","0","","","","","","","","","","","","","","","","","","","","",""
"","","","","","image-keyboard-response","278","815595","0.0-253.0","5dec01e809c107301c5e307f","665500ab8938657b03fbdba8","6657926289971b4f6cbee2d5","1597","stimuli/2001010.jpg","2","","prediction_trial","2","","true","","2","true","true","false","true","false","true","[2]","001","010","1","","","","","","",""
"","","","","","image-keyboard-response","279","816804","0.0-254.0","5dec01e809c107301c5e307f","665500ab8938657b03fbdba8","6657926289971b4f6cbee2d5","1208","stimuli/20010102.jpg"," ","","feedback_trial","2","","","","","","","","","","","","","","","","","","","","",""
"","","","","","image-keyboard-response","280","819582","0.0-255.0","5dec01e809c107301c5e307f","665500ab8938657b03fbdba8","6657926289971b4f6cbee2d5","2778","stimuli/1000011.jpg","1","","prediction_trial","1","","true","","1","false","false","true","true","false","false","[1]","000","011","1","","","","","","",""
"","","","","","image-keyboard-response","281","820532","0.0-256.0","5dec01e809c107301c5e307f","665500ab8938657b03fbdba8","6657926289971b4f6cbee2d5","949","stimuli/10000111.jpg"," ","","feedback_trial","1","","","","","","","","","","","","","","","","","","","","",""
"","","","","","image-keyboard-response","282","821263","0.0-257.0","5dec01e809c107301c5e307f","665500ab8938657b03fbdba8","6657926289971b4f6cbee2d5","730","stimuli/0001011.jpg","0","","prediction_trial","0","","true","","0","true","true","true","true","true","true","[0]","001","011","1","","","","","","",""
"","","","","","image-keyboard-response","283","821801","0.0-258.0","5dec01e809c107301c5e307f","665500ab8938657b03fbdba8","6657926289971b4f6cbee2d5","538","stimuli/00010110.jpg"," ","","feedback_trial","0","","","","","","","","","","","","","","","","","","","","",""
"","","","","","image-keyboard-response","284","822488","0.0-259.0","5dec01e809c107301c5e307f","665500ab8938657b03fbdba8","6657926289971b4f6cbee2d5","686","stimuli/2110110.jpg","2","","prediction_trial","2","","true","","2","true","true","true","true","true","true","[2]","110","110","1","","","","","","",""
"","","","","","image-keyboard-response","285","823135","0.0-260.0","5dec01e809c107301c5e307f","665500ab8938657b03fbdba8","6657926289971b4f6cbee2d5","646","stimuli/21101102.jpg"," ","","feedback_trial","2","","","","","","","","","","","","","","","","","","","","",""
"","","","","","image-keyboard-response","286","824987","0.0-261.0","5dec01e809c107301c5e307f","665500ab8938657b03fbdba8","6657926289971b4f6cbee2d5","1851","stimuli/0010110.jpg","1","","prediction_trial","0","","false","","0","false","false","true","true","false","false","[0]","010","110","0","","","","","","",""
"","","","","","image-keyboard-response","287","826435","0.0-262.0","5dec01e809c107301c5e307f","665500ab8938657b03fbdba8","6657926289971b4f6cbee2d5","1447","stimuli/00101100.jpg"," ","","feedback_trial","0","","","","","","","","","","","","","","","","","","","","",""
"","","","","","image-keyboard-response","288","827481","0.0-263.0","5dec01e809c107301c5e307f","665500ab8938657b03fbdba8","6657926289971b4f6cbee2d5","1046","stimuli/1111101.jpg","1","","prediction_trial","2","","false","","1","true","true","false","false","false","false","[2,0,1]","111","101","0","","","","","","",""
"","","","","","image-keyboard-response","289","828527","0.0-264.0","5dec01e809c107301c5e307f","665500ab8938657b03fbdba8","6657926289971b4f6cbee2d5","1045","stimuli/11111012.jpg"," ","","feedback_trial","2","","","","","","","","","","","","","","","","","","","","",""
"","","","","","image-keyboard-response","290","829482","0.0-265.0","5dec01e809c107301c5e307f","665500ab8938657b03fbdba8","6657926289971b4f6cbee2d5","954","stimuli/1101000.jpg","1","","prediction_trial","1","","true","","1","true","true","true","true","true","true","[1]","101","000","1","","","","","","",""
"","","","","","image-keyboard-response","291","829901","0.0-266.0","5dec01e809c107301c5e307f","665500ab8938657b03fbdba8","6657926289971b4f6cbee2d5","418","stimuli/11010001.jpg"," ","","feedback_trial","1","","","","","","","","","","","","","","","","","","","","",""
"","","","","","image-keyboard-response","292","832474","0.0-267.0","5dec01e809c107301c5e307f","665500ab8938657b03fbdba8","6657926289971b4f6cbee2d5","2572","stimuli/1111011.jpg","1","","prediction_trial","2","","false","","1","false","false","false","false","false","false","[2,0,1]","111","011","0","","","","","","",""
"","","","","","image-keyboard-response","293","834523","0.0-268.0","5dec01e809c107301c5e307f","665500ab8938657b03fbdba8","6657926289971b4f6cbee2d5","2048","stimuli/11110112.jpg"," ","","feedback_trial","2","","","","","","","","","","","","","","","","","","","","",""
"","","","","","image-keyboard-response","294","835514","0.0-269.0","5dec01e809c107301c5e307f","665500ab8938657b03fbdba8","6657926289971b4f6cbee2d5","991","stimuli/0110010.jpg","0","","prediction_trial","1","","false","","0","true","true","false","false","false","false","[0,1]","110","010","0","","","","","","",""
"","","","","","image-keyboard-response","295","837532","0.0-270.0","5dec01e809c107301c5e307f","665500ab8938657b03fbdba8","6657926289971b4f6cbee2d5","2017","stimuli/01100101.jpg"," ","","feedback_trial","0","","","","","","","","","","","","","","","","","","","","",""
"","","","","","image-keyboard-response","296","839825","0.0-271.0","5dec01e809c107301c5e307f","665500ab8938657b03fbdba8","6657926289971b4f6cbee2d5","2292","stimuli/0001001.jpg","0","","prediction_trial","0","","true","","0","true","true","true","true","true","true","[0]","001","001","1","","","","","","",""
"","","","","","image-keyboard-response","297","840432","0.0-272.0","5dec01e809c107301c5e307f","665500ab8938657b03fbdba8","6657926289971b4f6cbee2d5","606","stimuli/00010010.jpg"," ","","feedback_trial","0","","","","","","","","","","","","","","","","","","","","",""
"","","","","","image-keyboard-response","298","844667","0.0-273.0","5dec01e809c107301c5e307f","665500ab8938657b03fbdba8","6657926289971b4f6cbee2d5","4235","stimuli/0110001.jpg","0","","prediction_trial","0","","true","","0","true","true","false","false","false","false","[0,1]","110","001","1","","","","","","",""
"","","","","","image-keyboard-response","299","845348","0.0-274.0","5dec01e809c107301c5e307f","665500ab8938657b03fbdba8","6657926289971b4f6cbee2d5","679","stimuli/01100010.jpg"," ","","feedback_trial","0","","","","","","","","","","","","","","","","","","","","",""
"","","","","","image-keyboard-response","300","846160","0.0-275.0","5dec01e809c107301c5e307f","665500ab8938657b03fbdba8","6657926289971b4f6cbee2d5","811","stimuli/1001000.jpg","1","","prediction_trial","1","","true","","1","true","true","true","true","true","true","[1]","001","000","1","","","","","","",""
"","","","","","image-keyboard-response","301","847543","0.0-276.0","5dec01e809c107301c5e307f","665500ab8938657b03fbdba8","6657926289971b4f6cbee2d5","1383","stimuli/10010001.jpg"," ","","feedback_trial","1","","","","","","","","","","","","","","","","","","","","",""
"","","","","","image-keyboard-response","302","850830","0.0-277.0","5dec01e809c107301c5e307f","665500ab8938657b03fbdba8","6657926289971b4f6cbee2d5","3286","stimuli/0110000.jpg","0","","prediction_trial","0","","true","","0","true","true","false","false","false","false","[1,0]","110","000","1","","","","","","",""
"","","","","","image-keyboard-response","303","851599","0.0-278.0","5dec01e809c107301c5e307f","665500ab8938657b03fbdba8","6657926289971b4f6cbee2d5","769","stimuli/01100000.jpg"," ","","feedback_trial","1","","","","","","","","","","","","","","","","","","","","",""
"","","","","","image-keyboard-response","304","853090","0.0-279.0","5dec01e809c107301c5e307f","665500ab8938657b03fbdba8","6657926289971b4f6cbee2d5","1490","stimuli/0110110.jpg","1","","prediction_trial","0","","false","","0","false","false","false","false","false","false","[0,1]","110","110","0","","","","","","",""
"","","","","","image-keyboard-response","305","854311","0.0-280.0","5dec01e809c107301c5e307f","665500ab8938657b03fbdba8","6657926289971b4f6cbee2d5","1209","stimuli/01101100.jpg"," ","","feedback_trial","0","","","","","","","","","","","","","","","","","","","","",""
"","","","","","image-keyboard-response","306","855204","0.0-281.0","5dec01e809c107301c5e307f","665500ab8938657b03fbdba8","6657926289971b4f6cbee2d5","892","stimuli/1011011.jpg","2","","prediction_trial","1","","false","","1","false","false","false","false","false","false","[2,1]","011","011","0","","","","","","",""
"","","","","","image-keyboard-response","307","856133","0.0-282.0","5dec01e809c107301c5e307f","665500ab8938657b03fbdba8","6657926289971b4f6cbee2d5","928","stimuli/10110111.jpg"," ","","feedback_trial","2","","","","","","","","","","","","","","","","","","","","",""
"","","","","","image-keyboard-response","308","856877","0.0-283.0","5dec01e809c107301c5e307f","665500ab8938657b03fbdba8","6657926289971b4f6cbee2d5","744","stimuli/2111100.jpg","2","","prediction_trial","1","","false","","2","true","true","false","false","false","false","[1,0,2]","111","100","0","","","","","","",""
"","","","","","image-keyboard-response","309","857921","0.0-284.0","5dec01e809c107301c5e307f","665500ab8938657b03fbdba8","6657926289971b4f6cbee2d5","1043","stimuli/21111001.jpg"," ","","feedback_trial","1","","","","","","","","","","","","","","","","","","","","",""
"","","","","","image-keyboard-response","310","859397","0.0-285.0","5dec01e809c107301c5e307f","665500ab8938657b03fbdba8","6657926289971b4f6cbee2d5","1475","stimuli/1011110.jpg","1","","prediction_trial","1","","true","","1","false","false","false","false","false","false","[2,1]","011","110","1","","","","","","",""
"","","","","","image-keyboard-response","311","860317","0.0-286.0","5dec01e809c107301c5e307f","665500ab8938657b03fbdba8","6657926289971b4f6cbee2d5","919","stimuli/10111101.jpg"," ","","feedback_trial","2","","","","","","","","","","","","","","","","","","","","",""
"","","","","","image-keyboard-response","312","862136","0.0-287.0","5dec01e809c107301c5e307f","665500ab8938657b03fbdba8","6657926289971b4f6cbee2d5","1818","stimuli/2100111.jpg","1","","prediction_trial","2","","false","","2","false","false","true","true","false","false","[2]","100","111","0","","","","","","",""
"","","","","","image-keyboard-response","313","863062","0.0-288.0","5dec01e809c107301c5e307f","665500ab8938657b03fbdba8","6657926289971b4f6cbee2d5","925","stimuli/21001112.jpg"," ","","feedback_trial","2","","","","","","","","","","","","","","","","","","","","",""
"","","","","","image-keyboard-response","314","864247","0.0-289.0","5dec01e809c107301c5e307f","665500ab8938657b03fbdba8","6657926289971b4f6cbee2d5","1185","stimuli/1001001.jpg","1","","prediction_trial","1","","true","","1","true","true","true","true","true","true","[1]","001","001","1","","","","","","",""
"","","","","","image-keyboard-response","315","864827","0.0-290.0","5dec01e809c107301c5e307f","665500ab8938657b03fbdba8","6657926289971b4f6cbee2d5","579","stimuli/10010011.jpg"," ","","feedback_trial","1","","","","","","","","","","","","","","","","","","","","",""
"","","","","","image-keyboard-response","316","866451","0.0-291.0","5dec01e809c107301c5e307f","665500ab8938657b03fbdba8","6657926289971b4f6cbee2d5","1622","stimuli/2000011.jpg","2","","prediction_trial","2","","true","","2","false","false","true","true","false","false","[2]","000","011","1","","","","","","",""
"","","","","","image-keyboard-response","317","867330","0.0-292.0","5dec01e809c107301c5e307f","665500ab8938657b03fbdba8","6657926289971b4f6cbee2d5","879","stimuli/20000112.jpg"," ","","feedback_trial","2","","","","","","","","","","","","","","","","","","","","",""
"","","","","","survey-html-form","318","892482","0.0-293.0","5dec01e809c107301c5e307f","665500ab8938657b03fbdba8","6657926289971b4f6cbee2d5","25149","","{""feedback"":""I saw patterns at times"",""age"":""60"",""gender"":""Female"",""other_gender"":"""",""race"":""White"",""other_race"":"""",""ethnicity"":""Non-Hispanic""}","","exit_survey","","","","","","","","","","","","","","","","I saw patterns at times","60","Non-Hispanic","Female","White","0.7013888888888888","0.7013888888888888"
