"success","timeout","failed_images","failed_audio","failed_video","trial_type","trial_index","time_elapsed","internal_node_id","prolific_id","prolific_study_id","prolific_session_id","rt","stimulus","response","view_history","trial","character_choice","stimulus_dict","accuracy","correct_response","ball_pos","ego_ball_visible","ego_can_infer","alter_ball_visible","alter_can_infer","collective_ball_visible","collective_can_infer","search_locations","alter_occluders","ego_occluders","accuracy_bool","feedback","age","ethnicity","gender","race","overall_accuracy","bonus"
"true","false","[]","[]","[]","preload","0","32415","0.0-0.0","6102c81e911700cf7ba5f6bd","665500ab8938657b03fbdba8","66577eccd176949d79ff07a2","","","","","","","","","","","","","","","","","","","","","","","","","","",""
"true","","","","","fullscreen","1","36526","0.0-1.0","6102c81e911700cf7ba5f6bd","665500ab8938657b03fbdba8","66577eccd176949d79ff07a2","","","","","","","","","","","","","","","","","","","","","","","","","","",""
"","","","","","html-button-response","2","37758","0.0-2.0","6102c81e911700cf7ba5f6bd","665500ab8938657b03fbdba8","66577eccd176949d79ff07a2","1231","<p><b>Consent Form</b></p> <div style=""text-align:left;background-color:lightgrey; padding:20px; max-width:900px;""><p>Please consider this information carefully before deciding whether to participate in this research.</p> <p>The purpose of this research is to examine which factors influence social judgment and decision-making. You will be asked to make judgements about individuals and actions in social scenarios. We are simply interested in your judgement. The study will take less than 1 hour to complete, and you will receive less than $20 on Prolific. Your compensation and time commitment are specified in the study description. There are no anticipated risks associated with participating in this study. The effects of participating should be comparable to those you would ordinarily experience from viewing a computer monitor and using a mouse or keyboard for a similar amount of time. At the end of the study, we will provide an explanation of the questions that motivate this line of research and will describe the potential implications. </p><p> Your participation in this study is completely voluntary and you may refuse to participate or you may choose to withdraw at any time without penalty or loss of benefits to you which are otherwise entitled. Your participation in this study will remain confidential. No personally identifiable information will be associated with your data. Also, all analyses of the data will be averaged across all the participants, so your individual responses will never be specifically analyzed. </p><p> If you have questions or concerns about your participation or payment, or want to request a summary of research findings, please contact Dr. Jonathan Phillips at Jonathan.S.Phillips@dartmouth.edu. </p><p> Please save a copy of this form for your records. </p><p><b>Agreement: </b>The nature and purpose of this research have been sufficiently explained and I agree to participate in this study. I understand that I am free to withdraw at any time without incurring any penalty. Please consent by clicking the button below to continue. Otherwise, please exit the study at any time. </p>","0","","","","","","","","","","","","","","","","","","","","","","","",""
"","","","","","instructions","3","64310","0.0-3.0-0.0","6102c81e911700cf7ba5f6bd","665500ab8938657b03fbdba8","66577eccd176949d79ff07a2","26548","","","[{""page_index"":0,""viewing_time"":1788},{""page_index"":1,""viewing_time"":2832},{""page_index"":2,""viewing_time"":1184},{""page_index"":3,""viewing_time"":1232},{""page_index"":4,""viewing_time"":984},{""page_index"":5,""viewing_time"":4056},{""page_index"":6,""viewing_time"":1048},{""page_index"":7,""viewing_time"":1984},{""page_index"":8,""viewing_time"":1969},{""page_index"":9,""viewing_time"":1239},{""page_index"":10,""viewing_time"":1672},{""page_index"":11,""viewing_time"":1639},{""page_index"":12,""viewing_time"":1305},{""page_index"":13,""viewing_time"":3616}]","intro","","","","","","","","","","","","","","","","","","","","","",""
"","","","","","image-keyboard-response","4","66049","0.0-3.0-1.0","6102c81e911700cf7ba5f6bd","665500ab8938657b03fbdba8","66577eccd176949d79ff07a2","1732","stimuli/0101000.jpg","0","","prediction_practice","0","{""filepath"":""stimuli/0101000.jpg"",""ball_pos"":0,""ego_ball_visible"":true,""ego_can_infer"":true,""alter_ball_visible"":false,""alter_can_infer"":false,""collective_ball_visible"":false,""collective_can_infer"":false,""search_locations"":[2,0],""alter_occluders"":""101"",""ego_occluders"":""000""}","true","","","","","","","","","","","","","","","","","","",""
"","","","","","image-keyboard-response","5","67558","0.0-3.0-2.0","6102c81e911700cf7ba5f6bd","665500ab8938657b03fbdba8","66577eccd176949d79ff07a2","1495","stimuli/01010000.jpg"," ","","practrice_feedback","2","","","","","","","","","","","","","","","","","","","","",""
"","","","","","image-keyboard-response","6","68308","0.0-3.0-3.0","6102c81e911700cf7ba5f6bd","665500ab8938657b03fbdba8","66577eccd176949d79ff07a2","745","stimuli/0010000.jpg","0","","prediction_practice","0","{""filepath"":""stimuli/0010000.jpg"",""ball_pos"":0,""ego_ball_visible"":true,""ego_can_infer"":true,""alter_ball_visible"":true,""alter_can_infer"":true,""collective_ball_visible"":true,""collective_can_infer"":true,""search_locations"":[0],""alter_occluders"":""010"",""ego_occluders"":""000""}","true","","","","","","","","","","","","","","","","","","",""
"","","","","","image-keyboard-response","7","68648","0.0-3.0-4.0","6102c81e911700cf7ba5f6bd","665500ab8938657b03fbdba8","66577eccd176949d79ff07a2","333","stimuli/00100000.jpg"," ","","practrice_feedback","0","","","","","","","","","","","","","","","","","","","","",""
"","","","","","image-keyboard-response","8","69326","0.0-3.0-5.0","6102c81e911700cf7ba5f6bd","665500ab8938657b03fbdba8","66577eccd176949d79ff07a2","673","stimuli/0010111.jpg","1","","prediction_practice","0","{""filepath"":""stimuli/0010111.jpg"",""ball_pos"":0,""ego_ball_visible"":false,""ego_can_infer"":false,""alter_ball_visible"":true,""alter_can_infer"":true,""collective_ball_visible"":false,""collective_can_infer"":false,""search_locations"":[0],""alter_occluders"":""010"",""ego_occluders"":""111""}","false","","","","","","","","","","","","","","","","","","",""
"","","","","","image-keyboard-response","9","70038","0.0-3.0-6.0","6102c81e911700cf7ba5f6bd","665500ab8938657b03fbdba8","66577eccd176949d79ff07a2","708","stimuli/00101110.jpg"," ","","practrice_feedback","0","","","","","","","","","","","","","","","","","","","","",""
"","","","","","image-keyboard-response","10","70974","0.0-3.0-7.0","6102c81e911700cf7ba5f6bd","665500ab8938657b03fbdba8","66577eccd176949d79ff07a2","931","stimuli/0110110.jpg","0","","prediction_practice","1","{""filepath"":""stimuli/0110110.jpg"",""ball_pos"":0,""ego_ball_visible"":false,""ego_can_infer"":false,""alter_ball_visible"":false,""alter_can_infer"":false,""collective_ball_visible"":false,""collective_can_infer"":false,""search_locations"":[1,0],""alter_occluders"":""110"",""ego_occluders"":""110""}","false","","","","","","","","","","","","","","","","","","",""
"","","","","","image-keyboard-response","11","71262","0.0-3.0-8.0","6102c81e911700cf7ba5f6bd","665500ab8938657b03fbdba8","66577eccd176949d79ff07a2","283","stimuli/01101101.jpg"," ","","practrice_feedback","1","","","","","","","","","","","","","","","","","","","","",""
"","","","","","image-keyboard-response","12","71958","0.0-3.0-9.0","6102c81e911700cf7ba5f6bd","665500ab8938657b03fbdba8","66577eccd176949d79ff07a2","691","stimuli/2110001.jpg","2","","prediction_practice","2","{""filepath"":""stimuli/2110001.jpg"",""ball_pos"":2,""ego_ball_visible"":false,""ego_can_infer"":true,""alter_ball_visible"":true,""alter_can_infer"":true,""collective_ball_visible"":false,""collective_can_infer"":true,""search_locations"":[2],""alter_occluders"":""110"",""ego_occluders"":""001""}","true","","","","","","","","","","","","","","","","","","",""
"","","","","","image-keyboard-response","13","72254","0.0-3.0-10.0","6102c81e911700cf7ba5f6bd","665500ab8938657b03fbdba8","66577eccd176949d79ff07a2","290","stimuli/21100012.jpg"," ","","practrice_feedback","2","","","","","","","","","","","","","","","","","","","","",""
"","","","","","image-keyboard-response","14","74302","0.0-3.0-11.0","6102c81e911700cf7ba5f6bd","665500ab8938657b03fbdba8","66577eccd176949d79ff07a2","2044","stimuli/2011110.jpg","2","","prediction_practice","1","{""filepath"":""stimuli/2011110.jpg"",""ball_pos"":2,""ego_ball_visible"":true,""ego_can_infer"":true,""alter_ball_visible"":false,""alter_can_infer"":false,""collective_ball_visible"":false,""collective_can_infer"":false,""search_locations"":[1,2],""alter_occluders"":""011"",""ego_occluders"":""110""}","false","","","","","","","","","","","","","","","","","","",""
"","","","","","image-keyboard-response","15","74583","0.0-3.0-12.0","6102c81e911700cf7ba5f6bd","665500ab8938657b03fbdba8","66577eccd176949d79ff07a2","277","stimuli/20111101.jpg"," ","","practrice_feedback","1","","","","","","","","","","","","","","","","","","","","",""
"","","","","","image-keyboard-response","16","75910","0.0-3.0-13.0","6102c81e911700cf7ba5f6bd","665500ab8938657b03fbdba8","66577eccd176949d79ff07a2","1324","stimuli/2101010.jpg","2","","prediction_practice","2","{""filepath"":""stimuli/2101010.jpg"",""ball_pos"":2,""ego_ball_visible"":true,""ego_can_infer"":true,""alter_ball_visible"":false,""alter_can_infer"":false,""collective_ball_visible"":false,""collective_can_infer"":false,""search_locations"":[0,2],""alter_occluders"":""101"",""ego_occluders"":""010""}","true","","","","","","","","","","","","","","","","","","",""
"","","","","","image-keyboard-response","17","76215","0.0-3.0-14.0","6102c81e911700cf7ba5f6bd","665500ab8938657b03fbdba8","66577eccd176949d79ff07a2","300","stimuli/21010102.jpg"," ","","practrice_feedback","0","","","","","","","","","","","","","","","","","","","","",""
"","","","","","image-keyboard-response","18","77062","0.0-3.0-15.0","6102c81e911700cf7ba5f6bd","665500ab8938657b03fbdba8","66577eccd176949d79ff07a2","842","stimuli/0100101.jpg","0","","prediction_practice","0","{""filepath"":""stimuli/0100101.jpg"",""ball_pos"":0,""ego_ball_visible"":false,""ego_can_infer"":false,""alter_ball_visible"":false,""alter_can_infer"":true,""collective_ball_visible"":false,""collective_can_infer"":false,""search_locations"":[0],""alter_occluders"":""100"",""ego_occluders"":""101""}","true","","","","","","","","","","","","","","","","","","",""
"","","","","","image-keyboard-response","19","77327","0.0-3.0-16.0","6102c81e911700cf7ba5f6bd","665500ab8938657b03fbdba8","66577eccd176949d79ff07a2","258","stimuli/01001010.jpg"," ","","practrice_feedback","0","","","","","","","","","","","","","","","","","","","","",""
"","","","","","image-keyboard-response","20","78086","0.0-3.0-17.0","6102c81e911700cf7ba5f6bd","665500ab8938657b03fbdba8","66577eccd176949d79ff07a2","756","stimuli/0001101.jpg","2","","prediction_practice","0","{""filepath"":""stimuli/0001101.jpg"",""ball_pos"":0,""ego_ball_visible"":false,""ego_can_infer"":false,""alter_ball_visible"":true,""alter_can_infer"":true,""collective_ball_visible"":false,""collective_can_infer"":false,""search_locations"":[0],""alter_occluders"":""001"",""ego_occluders"":""101""}","false","","","","","","","","","","","","","","","","","","",""
"","","","","","image-keyboard-response","21","78537","0.0-3.0-18.0","6102c81e911700cf7ba5f6bd","665500ab8938657b03fbdba8","66577eccd176949d79ff07a2","449","stimuli/00011010.jpg"," ","","practrice_feedback","0","","","","","","","","","","","","","","","","","","","","",""
"","","","","","image-keyboard-response","22","79655","0.0-3.0-19.0","6102c81e911700cf7ba5f6bd","665500ab8938657b03fbdba8","66577eccd176949d79ff07a2","1113","stimuli/0010100.jpg","0","","prediction_practice","0","{""filepath"":""stimuli/0010100.jpg"",""ball_pos"":0,""ego_ball_visible"":false,""ego_can_infer"":true,""alter_ball_visible"":true,""alter_can_infer"":true,""collective_ball_visible"":false,""collective_can_infer"":true,""search_locations"":[0],""alter_occluders"":""010"",""ego_occluders"":""100""}","true","","","","","","","","","","","","","","","","","","",""
"","","","","","image-keyboard-response","23","80002","0.0-3.0-20.0","6102c81e911700cf7ba5f6bd","665500ab8938657b03fbdba8","66577eccd176949d79ff07a2","341","stimuli/00101000.jpg"," ","","practrice_feedback","0","","","","","","","","","","","","","","","","","","","","",""
"","","","","","html-button-response","24","82271","0.0-3.0-21.0","6102c81e911700cf7ba5f6bd","665500ab8938657b03fbdba8","66577eccd176949d79ff07a2","2268","Now that you've had some practice, you'll be tested with a couple of easy trials. If you correctly predict Sam's choice, you'll move on to complete the experiment!","0","","","","","","","","","","","","","","","","","","","","","","","",""
"","","","","","image-keyboard-response","25","84062","0.0-3.0-22.0-0.0","6102c81e911700cf7ba5f6bd","665500ab8938657b03fbdba8","66577eccd176949d79ff07a2","1785","stimuli/0000011.jpg","arrowleft","","comprehension_quiz","","","true","arrowleft","","","","","","","","","","","","","","","","","",""
"","","","","","image-keyboard-response","26","84512","0.0-3.0-22.0-1.0","6102c81e911700cf7ba5f6bd","665500ab8938657b03fbdba8","66577eccd176949d79ff07a2","445","stimuli/00000110.jpg"," ","","comprehension_quiz","","","true"," ","","","","","","","","","","","","","","","","","",""
"","","","","","image-keyboard-response","27","85664","0.0-3.0-22.0-2.0","6102c81e911700cf7ba5f6bd","665500ab8938657b03fbdba8","66577eccd176949d79ff07a2","1144","stimuli/1010010.jpg","arrowdown","","comprehension_quiz","","","true","arrowdown","","","","","","","","","","","","","","","","","",""
"","","","","","image-keyboard-response","28","85938","0.0-3.0-22.0-3.0","6102c81e911700cf7ba5f6bd","665500ab8938657b03fbdba8","66577eccd176949d79ff07a2","257","stimuli/10100101.jpg"," ","","comprehension_quiz","","","true"," ","","","","","","","","","","","","","","","","","",""
"","","","","","html-button-response","29","88815","0.0-4.0","6102c81e911700cf7ba5f6bd","665500ab8938657b03fbdba8","66577eccd176949d79ff07a2","2875","The experiment will now begin.","0","","","","","","","","","","","","","","","","","","","","","","","",""
"","","","","","image-keyboard-response","30","90574","0.0-5.0","6102c81e911700cf7ba5f6bd","665500ab8938657b03fbdba8","66577eccd176949d79ff07a2","1754","stimuli/2011001.jpg","2","","prediction_trial","1","","false","","2","false","true","false","false","false","false","[2,1]","011","001","0","","","","","","",""
"","","","","","image-keyboard-response","31","91366","0.0-6.0","6102c81e911700cf7ba5f6bd","665500ab8938657b03fbdba8","66577eccd176949d79ff07a2","788","stimuli/20110011.jpg"," ","","feedback_trial","2","","","","","","","","","","","","","","","","","","","","",""
"","","","","","image-keyboard-response","32","92030","0.0-7.0","6102c81e911700cf7ba5f6bd","665500ab8938657b03fbdba8","66577eccd176949d79ff07a2","661","stimuli/2000110.jpg","2","","prediction_trial","2","","true","","2","true","true","true","true","true","true","[2]","000","110","1","","","","","","",""
"","","","","","image-keyboard-response","33","92327","0.0-8.0","6102c81e911700cf7ba5f6bd","665500ab8938657b03fbdba8","66577eccd176949d79ff07a2","292","stimuli/20001102.jpg"," ","","feedback_trial","2","","","","","","","","","","","","","","","","","","","","",""
"","","","","","image-keyboard-response","34","94582","0.0-9.0","6102c81e911700cf7ba5f6bd","665500ab8938657b03fbdba8","66577eccd176949d79ff07a2","2250","stimuli/1110110.jpg","0","","prediction_trial","1","","false","","1","false","false","false","false","false","false","[0,1]","110","110","0","","","","","","",""
"","","","","","image-keyboard-response","35","94909","0.0-10.0","6102c81e911700cf7ba5f6bd","665500ab8938657b03fbdba8","66577eccd176949d79ff07a2","324","stimuli/11101101.jpg"," ","","feedback_trial","0","","","","","","","","","","","","","","","","","","","","",""
"","","","","","image-keyboard-response","36","96278","0.0-11.0","6102c81e911700cf7ba5f6bd","665500ab8938657b03fbdba8","66577eccd176949d79ff07a2","1364","stimuli/2110010.jpg","2","","prediction_trial","2","","true","","2","true","true","true","true","true","true","[2]","110","010","1","","","","","","",""
"","","","","","image-keyboard-response","37","96607","0.0-12.0","6102c81e911700cf7ba5f6bd","665500ab8938657b03fbdba8","66577eccd176949d79ff07a2","325","stimuli/21100102.jpg"," ","","feedback_trial","2","","","","","","","","","","","","","","","","","","","","",""
"","","","","","image-keyboard-response","38","98758","0.0-13.0","6102c81e911700cf7ba5f6bd","665500ab8938657b03fbdba8","66577eccd176949d79ff07a2","2148","stimuli/0101100.jpg","0","","prediction_trial","2","","false","","0","false","true","false","false","false","false","[2,0]","101","100","0","","","","","","",""
"","","","","","image-keyboard-response","39","99070","0.0-14.0","6102c81e911700cf7ba5f6bd","665500ab8938657b03fbdba8","66577eccd176949d79ff07a2","308","stimuli/01011002.jpg"," ","","feedback_trial","2","","","","","","","","","","","","","","","","","","","","",""
"","","","","","image-keyboard-response","40","100439","0.0-15.0","6102c81e911700cf7ba5f6bd","665500ab8938657b03fbdba8","66577eccd176949d79ff07a2","1364","stimuli/0111000.jpg","0","","prediction_trial","2","","false","","0","true","true","false","false","false","false","[2,1,0]","111","000","0","","","","","","",""
"","","","","","image-keyboard-response","41","101086","0.0-16.0","6102c81e911700cf7ba5f6bd","665500ab8938657b03fbdba8","66577eccd176949d79ff07a2","644","stimuli/01110002.jpg"," ","","feedback_trial","2","","","","","","","","","","","","","","","","","","","","",""
"","","","","","image-keyboard-response","42","104614","0.0-17.0","6102c81e911700cf7ba5f6bd","665500ab8938657b03fbdba8","66577eccd176949d79ff07a2","3524","stimuli/0000101.jpg","2","","prediction_trial","0","","false","","0","false","false","true","true","false","false","[0]","000","101","0","","","","","","",""
"","","","","","image-keyboard-response","43","105190","0.0-18.0","6102c81e911700cf7ba5f6bd","665500ab8938657b03fbdba8","66577eccd176949d79ff07a2","573","stimuli/00001010.jpg"," ","","feedback_trial","0","","","","","","","","","","","","","","","","","","","","",""
"","","","","","image-keyboard-response","44","106062","0.0-19.0","6102c81e911700cf7ba5f6bd","665500ab8938657b03fbdba8","66577eccd176949d79ff07a2","867","stimuli/0110110.jpg","0","","prediction_trial","0","","true","","0","false","false","false","false","false","false","[1,0]","110","110","1","","","","","","",""
"","","","","","image-keyboard-response","45","106390","0.0-20.0","6102c81e911700cf7ba5f6bd","665500ab8938657b03fbdba8","66577eccd176949d79ff07a2","324","stimuli/01101100.jpg"," ","","feedback_trial","1","","","","","","","","","","","","","","","","","","","","",""
"","","","","","image-keyboard-response","46","107102","0.0-21.0","6102c81e911700cf7ba5f6bd","665500ab8938657b03fbdba8","66577eccd176949d79ff07a2","706","stimuli/2011111.jpg","2","","prediction_trial","1","","false","","2","false","false","false","false","false","false","[1,2]","011","111","0","","","","","","",""
"","","","","","image-keyboard-response","47","107470","0.0-22.0","6102c81e911700cf7ba5f6bd","665500ab8938657b03fbdba8","66577eccd176949d79ff07a2","365","stimuli/20111111.jpg"," ","","feedback_trial","1","","","","","","","","","","","","","","","","","","","","",""
"","","","","","image-keyboard-response","48","108006","0.0-23.0","6102c81e911700cf7ba5f6bd","665500ab8938657b03fbdba8","66577eccd176949d79ff07a2","531","stimuli/1100110.jpg","0","","prediction_trial","1","","false","","1","false","false","true","true","false","false","[1]","100","110","0","","","","","","",""
"","","","","","image-keyboard-response","49","108366","0.0-24.0","6102c81e911700cf7ba5f6bd","665500ab8938657b03fbdba8","66577eccd176949d79ff07a2","357","stimuli/11001101.jpg"," ","","feedback_trial","1","","","","","","","","","","","","","","","","","","","","",""
"","","","","","image-keyboard-response","50","108902","0.0-25.0","6102c81e911700cf7ba5f6bd","665500ab8938657b03fbdba8","66577eccd176949d79ff07a2","532","stimuli/1001011.jpg","2","","prediction_trial","1","","false","","1","false","false","true","true","false","false","[1]","001","011","0","","","","","","",""
"","","","","","image-keyboard-response","51","109678","0.0-26.0","6102c81e911700cf7ba5f6bd","665500ab8938657b03fbdba8","66577eccd176949d79ff07a2","772","stimuli/10010111.jpg"," ","","feedback_trial","1","","","","","","","","","","","","","","","","","","","","",""
"","","","","","image-keyboard-response","52","110686","0.0-27.0","6102c81e911700cf7ba5f6bd","665500ab8938657b03fbdba8","66577eccd176949d79ff07a2","1002","stimuli/2110101.jpg","1","","prediction_trial","2","","false","","2","false","false","true","true","false","false","[2]","110","101","0","","","","","","",""
"","","","","","image-keyboard-response","53","111335","0.0-28.0","6102c81e911700cf7ba5f6bd","665500ab8938657b03fbdba8","66577eccd176949d79ff07a2","644","stimuli/21101012.jpg"," ","","feedback_trial","2","","","","","","","","","","","","","","","","","","","","",""
"","","","","","image-keyboard-response","54","112454","0.0-29.0","6102c81e911700cf7ba5f6bd","665500ab8938657b03fbdba8","66577eccd176949d79ff07a2","1113","stimuli/2110100.jpg","2","","prediction_trial","2","","true","","2","true","true","true","true","true","true","[2]","110","100","1","","","","","","",""
"","","","","","image-keyboard-response","55","112862","0.0-30.0","6102c81e911700cf7ba5f6bd","665500ab8938657b03fbdba8","66577eccd176949d79ff07a2","403","stimuli/21101002.jpg"," ","","feedback_trial","2","","","","","","","","","","","","","","","","","","","","",""
"","","","","","image-keyboard-response","56","113413","0.0-31.0","6102c81e911700cf7ba5f6bd","665500ab8938657b03fbdba8","66577eccd176949d79ff07a2","548","stimuli/2110110.jpg","2","","prediction_trial","2","","true","","2","true","true","true","true","true","true","[2]","110","110","1","","","","","","",""
"","","","","","image-keyboard-response","57","113758","0.0-32.0","6102c81e911700cf7ba5f6bd","665500ab8938657b03fbdba8","66577eccd176949d79ff07a2","340","stimuli/21101102.jpg"," ","","feedback_trial","2","","","","","","","","","","","","","","","","","","","","",""
"","","","","","image-keyboard-response","58","114726","0.0-33.0","6102c81e911700cf7ba5f6bd","665500ab8938657b03fbdba8","66577eccd176949d79ff07a2","962","stimuli/1101000.jpg","1","","prediction_trial","1","","true","","1","true","true","true","true","true","true","[1]","101","000","1","","","","","","",""
"","","","","","image-keyboard-response","59","115031","0.0-34.0","6102c81e911700cf7ba5f6bd","665500ab8938657b03fbdba8","66577eccd176949d79ff07a2","299","stimuli/11010001.jpg"," ","","feedback_trial","1","","","","","","","","","","","","","","","","","","","","",""
"","","","","","image-keyboard-response","60","116902","0.0-35.0","6102c81e911700cf7ba5f6bd","665500ab8938657b03fbdba8","66577eccd176949d79ff07a2","1868","stimuli/0011101.jpg","2","","prediction_trial","0","","false","","0","false","false","true","true","false","false","[0]","011","101","0","","","","","","",""
"","","","","","image-keyboard-response","61","119134","0.0-36.0","6102c81e911700cf7ba5f6bd","665500ab8938657b03fbdba8","66577eccd176949d79ff07a2","2228","stimuli/00111010.jpg"," ","","feedback_trial","0","","","","","","","","","","","","","","","","","","","","",""
"","","","","","image-keyboard-response","62","120942","0.0-37.0","6102c81e911700cf7ba5f6bd","665500ab8938657b03fbdba8","66577eccd176949d79ff07a2","1804","stimuli/0010110.jpg","1","","prediction_trial","0","","false","","0","false","false","true","true","false","false","[0]","010","110","0","","","","","","",""
"","","","","","image-keyboard-response","63","121383","0.0-38.0","6102c81e911700cf7ba5f6bd","665500ab8938657b03fbdba8","66577eccd176949d79ff07a2","436","stimuli/00101100.jpg"," ","","feedback_trial","0","","","","","","","","","","","","","","","","","","","","",""
"","","","","","image-keyboard-response","64","121999","0.0-39.0","6102c81e911700cf7ba5f6bd","665500ab8938657b03fbdba8","66577eccd176949d79ff07a2","608","stimuli/0011011.jpg","0","","prediction_trial","0","","true","","0","true","true","true","true","true","true","[0]","011","011","1","","","","","","",""
"","","","","","image-keyboard-response","65","122302","0.0-40.0","6102c81e911700cf7ba5f6bd","665500ab8938657b03fbdba8","66577eccd176949d79ff07a2","299","stimuli/00110110.jpg"," ","","feedback_trial","0","","","","","","","","","","","","","","","","","","","","",""
"","","","","","image-keyboard-response","66","123006","0.0-41.0","6102c81e911700cf7ba5f6bd","665500ab8938657b03fbdba8","66577eccd176949d79ff07a2","698","stimuli/0001001.jpg","0","","prediction_trial","0","","true","","0","true","true","true","true","true","true","[0]","001","001","1","","","","","","",""
"","","","","","image-keyboard-response","67","123295","0.0-42.0","6102c81e911700cf7ba5f6bd","665500ab8938657b03fbdba8","66577eccd176949d79ff07a2","282","stimuli/00010010.jpg"," ","","feedback_trial","0","","","","","","","","","","","","","","","","","","","","",""
"","","","","","image-keyboard-response","68","124654","0.0-43.0","6102c81e911700cf7ba5f6bd","665500ab8938657b03fbdba8","66577eccd176949d79ff07a2","1354","stimuli/0011111.jpg","2","","prediction_trial","0","","false","","0","false","false","true","true","false","false","[0]","011","111","0","","","","","","",""
"","","","","","image-keyboard-response","69","125007","0.0-44.0","6102c81e911700cf7ba5f6bd","665500ab8938657b03fbdba8","66577eccd176949d79ff07a2","347","stimuli/00111110.jpg"," ","","feedback_trial","0","","","","","","","","","","","","","","","","","","","","",""
"","","","","","image-keyboard-response","70","126145","0.0-45.0","6102c81e911700cf7ba5f6bd","665500ab8938657b03fbdba8","66577eccd176949d79ff07a2","1133","stimuli/2101001.jpg","2","","prediction_trial","0","","false","","2","false","true","false","false","false","false","[2,0]","101","001","0","","","","","","",""
"","","","","","image-keyboard-response","71","126470","0.0-46.0","6102c81e911700cf7ba5f6bd","665500ab8938657b03fbdba8","66577eccd176949d79ff07a2","310","stimuli/21010010.jpg"," ","","feedback_trial","2","","","","","","","","","","","","","","","","","","","","",""
"","","","","","image-keyboard-response","72","127310","0.0-47.0","6102c81e911700cf7ba5f6bd","665500ab8938657b03fbdba8","66577eccd176949d79ff07a2","836","stimuli/2011000.jpg","2","","prediction_trial","2","","true","","2","true","true","false","false","false","false","[2,1]","011","000","1","","","","","","",""
"","","","","","image-keyboard-response","73","127647","0.0-48.0","6102c81e911700cf7ba5f6bd","665500ab8938657b03fbdba8","66577eccd176949d79ff07a2","334","stimuli/20110002.jpg"," ","","feedback_trial","2","","","","","","","","","","","","","","","","","","","","",""
"","","","","","image-keyboard-response","74","128414","0.0-49.0","6102c81e911700cf7ba5f6bd","665500ab8938657b03fbdba8","66577eccd176949d79ff07a2","761","stimuli/1101001.jpg","1","","prediction_trial","1","","true","","1","true","true","true","true","true","true","[1]","101","001","1","","","","","","",""
"","","","","","image-keyboard-response","75","128678","0.0-50.0","6102c81e911700cf7ba5f6bd","665500ab8938657b03fbdba8","66577eccd176949d79ff07a2","256","stimuli/11010011.jpg"," ","","feedback_trial","1","","","","","","","","","","","","","","","","","","","","",""
"","","","","","image-keyboard-response","76","129385","0.0-51.0","6102c81e911700cf7ba5f6bd","665500ab8938657b03fbdba8","66577eccd176949d79ff07a2","702","stimuli/0100111.jpg","0","","prediction_trial","0","","true","","0","false","false","false","true","false","false","[0]","100","111","1","","","","","","",""
"","","","","","image-keyboard-response","77","129689","0.0-52.0","6102c81e911700cf7ba5f6bd","665500ab8938657b03fbdba8","66577eccd176949d79ff07a2","283","stimuli/01001110.jpg"," ","","feedback_trial","0","","","","","","","","","","","","","","","","","","","","",""
"","","","","","image-keyboard-response","78","130191","0.0-53.0","6102c81e911700cf7ba5f6bd","665500ab8938657b03fbdba8","66577eccd176949d79ff07a2","494","stimuli/2100100.jpg","2","","prediction_trial","2","","true","","2","true","true","true","true","true","true","[2]","100","100","1","","","","","","",""
"","","","","","image-keyboard-response","79","130504","0.0-54.0","6102c81e911700cf7ba5f6bd","665500ab8938657b03fbdba8","66577eccd176949d79ff07a2","303","stimuli/21001002.jpg"," ","","feedback_trial","2","","","","","","","","","","","","","","","","","","","","",""
"","","","","","image-keyboard-response","80","131190","0.0-55.0","6102c81e911700cf7ba5f6bd","665500ab8938657b03fbdba8","66577eccd176949d79ff07a2","679","stimuli/2100110.jpg","2","","prediction_trial","2","","true","","2","true","true","true","true","true","true","[2]","100","110","1","","","","","","",""
"","","","","","image-keyboard-response","81","131433","0.0-56.0","6102c81e911700cf7ba5f6bd","665500ab8938657b03fbdba8","66577eccd176949d79ff07a2","239","stimuli/21001102.jpg"," ","","feedback_trial","2","","","","","","","","","","","","","","","","","","","","",""
"","","","","","image-keyboard-response","82","132007","0.0-57.0","6102c81e911700cf7ba5f6bd","665500ab8938657b03fbdba8","66577eccd176949d79ff07a2","560","stimuli/1111100.jpg","1","","prediction_trial","2","","false","","1","true","true","false","false","false","false","[0,2,1]","111","100","0","","","","","","",""
"","","","","","image-keyboard-response","83","132281","0.0-58.0","6102c81e911700cf7ba5f6bd","665500ab8938657b03fbdba8","66577eccd176949d79ff07a2","263","stimuli/11111002.jpg"," ","","feedback_trial","0","","","","","","","","","","","","","","","","","","","","",""
"","","","","","image-keyboard-response","84","132881","0.0-59.0","6102c81e911700cf7ba5f6bd","665500ab8938657b03fbdba8","66577eccd176949d79ff07a2","585","stimuli/0111010.jpg","0","","prediction_trial","1","","false","","0","true","true","false","false","false","false","[2,1,0]","111","010","0","","","","","","",""
"","","","","","image-keyboard-response","85","133169","0.0-60.0","6102c81e911700cf7ba5f6bd","665500ab8938657b03fbdba8","66577eccd176949d79ff07a2","272","stimuli/01110101.jpg"," ","","feedback_trial","2","","","","","","","","","","","","","","","","","","","","",""
"","","","","","image-keyboard-response","86","133912","0.0-61.0","6102c81e911700cf7ba5f6bd","665500ab8938657b03fbdba8","66577eccd176949d79ff07a2","734","stimuli/0110100.jpg","0","","prediction_trial","0","","true","","0","false","true","false","false","false","false","[1,0]","110","100","1","","","","","","",""
"","","","","","image-keyboard-response","87","134249","0.0-62.0","6102c81e911700cf7ba5f6bd","665500ab8938657b03fbdba8","66577eccd176949d79ff07a2","324","stimuli/01101000.jpg"," ","","feedback_trial","1","","","","","","","","","","","","","","","","","","","","",""
"","","","","","image-keyboard-response","88","134873","0.0-63.0","6102c81e911700cf7ba5f6bd","665500ab8938657b03fbdba8","66577eccd176949d79ff07a2","609","stimuli/1011011.jpg","2","","prediction_trial","1","","false","","1","false","false","false","false","false","false","[1,2]","011","011","0","","","","","","",""
"","","","","","image-keyboard-response","89","135152","0.0-64.0","6102c81e911700cf7ba5f6bd","665500ab8938657b03fbdba8","66577eccd176949d79ff07a2","266","stimuli/10110111.jpg"," ","","feedback_trial","1","","","","","","","","","","","","","","","","","","","","",""
"","","","","","image-keyboard-response","90","135714","0.0-65.0","6102c81e911700cf7ba5f6bd","665500ab8938657b03fbdba8","66577eccd176949d79ff07a2","560","stimuli/0001101.jpg","2","","prediction_trial","0","","false","","0","false","false","true","true","false","false","[0]","001","101","0","","","","","","",""
"","","","","","image-keyboard-response","91","136066","0.0-66.0","6102c81e911700cf7ba5f6bd","665500ab8938657b03fbdba8","66577eccd176949d79ff07a2","346","stimuli/00011010.jpg"," ","","feedback_trial","0","","","","","","","","","","","","","","","","","","","","",""
"","","","","","image-keyboard-response","92","136703","0.0-67.0","6102c81e911700cf7ba5f6bd","665500ab8938657b03fbdba8","66577eccd176949d79ff07a2","634","stimuli/0010111.jpg","1","","prediction_trial","0","","false","","0","false","false","true","true","false","false","[0]","010","111","0","","","","","","",""
"","","","","","image-keyboard-response","93","137001","0.0-68.0","6102c81e911700cf7ba5f6bd","665500ab8938657b03fbdba8","66577eccd176949d79ff07a2","297","stimuli/00101110.jpg"," ","","feedback_trial","0","","","","","","","","","","","","","","","","","","","","",""
"","","","","","image-keyboard-response","94","137704","0.0-69.0","6102c81e911700cf7ba5f6bd","665500ab8938657b03fbdba8","66577eccd176949d79ff07a2","685","stimuli/1001000.jpg","1","","prediction_trial","1","","true","","1","true","true","true","true","true","true","[1]","001","000","1","","","","","","",""
"","","","","","image-keyboard-response","95","137977","0.0-70.0","6102c81e911700cf7ba5f6bd","665500ab8938657b03fbdba8","66577eccd176949d79ff07a2","259","stimuli/10010001.jpg"," ","","feedback_trial","1","","","","","","","","","","","","","","","","","","","","",""
"","","","","","image-keyboard-response","96","138648","0.0-71.0","6102c81e911700cf7ba5f6bd","665500ab8938657b03fbdba8","66577eccd176949d79ff07a2","657","stimuli/2011011.jpg","2","","prediction_trial","2","","true","","2","false","false","false","false","false","false","[2,1]","011","011","1","","","","","","",""
"","","","","","image-keyboard-response","97","138898","0.0-72.0","6102c81e911700cf7ba5f6bd","665500ab8938657b03fbdba8","66577eccd176949d79ff07a2","237","stimuli/20110112.jpg"," ","","feedback_trial","2","","","","","","","","","","","","","","","","","","","","",""
"","","","","","image-keyboard-response","98","139678","0.0-73.0","6102c81e911700cf7ba5f6bd","665500ab8938657b03fbdba8","66577eccd176949d79ff07a2","767","stimuli/2001100.jpg","2","","prediction_trial","2","","true","","2","true","true","false","true","false","true","[2]","001","100","1","","","","","","",""
"","","","","","image-keyboard-response","99","139982","0.0-74.0","6102c81e911700cf7ba5f6bd","665500ab8938657b03fbdba8","66577eccd176949d79ff07a2","297","stimuli/20011002.jpg"," ","","feedback_trial","2","","","","","","","","","","","","","","","","","","","","",""
"","","","","","image-keyboard-response","100","140662","0.0-75.0","6102c81e911700cf7ba5f6bd","665500ab8938657b03fbdba8","66577eccd176949d79ff07a2","676","stimuli/2100111.jpg","0","","prediction_trial","2","","false","","2","false","false","true","true","false","false","[2]","100","111","0","","","","","","",""
"","","","","","image-keyboard-response","101","140983","0.0-76.0","6102c81e911700cf7ba5f6bd","665500ab8938657b03fbdba8","66577eccd176949d79ff07a2","315","stimuli/21001112.jpg"," ","","feedback_trial","2","","","","","","","","","","","","","","","","","","","","",""
"","","","","","image-keyboard-response","102","141726","0.0-77.0","6102c81e911700cf7ba5f6bd","665500ab8938657b03fbdba8","66577eccd176949d79ff07a2","741","stimuli/1011001.jpg","1","","prediction_trial","2","","false","","1","true","true","false","false","false","false","[2,1]","011","001","0","","","","","","",""
"","","","","","image-keyboard-response","103","142049","0.0-78.0","6102c81e911700cf7ba5f6bd","665500ab8938657b03fbdba8","66577eccd176949d79ff07a2","318","stimuli/10110012.jpg"," ","","feedback_trial","2","","","","","","","","","","","","","","","","","","","","",""
"","","","","","image-keyboard-response","104","142784","0.0-79.0","6102c81e911700cf7ba5f6bd","665500ab8938657b03fbdba8","66577eccd176949d79ff07a2","717","stimuli/0000100.jpg","0","","prediction_trial","0","","true","","0","false","true","true","true","false","true","[0]","000","100","1","","","","","","",""
"","","","","","image-keyboard-response","105","143089","0.0-80.0","6102c81e911700cf7ba5f6bd","665500ab8938657b03fbdba8","66577eccd176949d79ff07a2","288","stimuli/00001000.jpg"," ","","feedback_trial","0","","","","","","","","","","","","","","","","","","","","",""
"","","","","","image-keyboard-response","106","143632","0.0-81.0","6102c81e911700cf7ba5f6bd","665500ab8938657b03fbdba8","66577eccd176949d79ff07a2","529","stimuli/2100010.jpg","2","","prediction_trial","2","","true","","2","true","true","true","true","true","true","[2]","100","010","1","","","","","","",""
"","","","","","image-keyboard-response","107","143937","0.0-82.0","6102c81e911700cf7ba5f6bd","665500ab8938657b03fbdba8","66577eccd176949d79ff07a2","295","stimuli/21000102.jpg"," ","","feedback_trial","2","","","","","","","","","","","","","","","","","","","","",""
"","","","","","image-keyboard-response","108","144833","0.0-83.0","6102c81e911700cf7ba5f6bd","665500ab8938657b03fbdba8","66577eccd176949d79ff07a2","876","stimuli/1001100.jpg","1","","prediction_trial","1","","true","","1","true","true","true","true","true","true","[1]","001","100","1","","","","","","",""
"","","","","","image-keyboard-response","109","145151","0.0-84.0","6102c81e911700cf7ba5f6bd","665500ab8938657b03fbdba8","66577eccd176949d79ff07a2","305","stimuli/10011001.jpg"," ","","feedback_trial","1","","","","","","","","","","","","","","","","","","","","",""
"","","","","","image-keyboard-response","110","146153","0.0-85.0","6102c81e911700cf7ba5f6bd","665500ab8938657b03fbdba8","66577eccd176949d79ff07a2","994","stimuli/1111010.jpg","1","","prediction_trial","2","","false","","1","false","true","false","false","false","false","[2,0,1]","111","010","0","","","","","","",""
"","","","","","image-keyboard-response","111","146401","0.0-86.0","6102c81e911700cf7ba5f6bd","665500ab8938657b03fbdba8","66577eccd176949d79ff07a2","236","stimuli/11110102.jpg"," ","","feedback_trial","2","","","","","","","","","","","","","","","","","","","","",""
"","","","","","image-keyboard-response","112","147646","0.0-87.0","6102c81e911700cf7ba5f6bd","665500ab8938657b03fbdba8","66577eccd176949d79ff07a2","1232","stimuli/1001010.jpg","1","","prediction_trial","1","","true","","1","false","true","true","true","false","true","[1]","001","010","1","","","","","","",""
"","","","","","image-keyboard-response","113","148086","0.0-88.0","6102c81e911700cf7ba5f6bd","665500ab8938657b03fbdba8","66577eccd176949d79ff07a2","429","stimuli/10010101.jpg"," ","","feedback_trial","1","","","","","","","","","","","","","","","","","","","","",""
"","","","","","image-keyboard-response","114","148759","0.0-89.0","6102c81e911700cf7ba5f6bd","665500ab8938657b03fbdba8","66577eccd176949d79ff07a2","666","stimuli/2111100.jpg","2","","prediction_trial","0","","false","","2","true","true","false","false","false","false","[0,2,1]","111","100","0","","","","","","",""
"","","","","","image-keyboard-response","115","149506","0.0-90.0","6102c81e911700cf7ba5f6bd","665500ab8938657b03fbdba8","66577eccd176949d79ff07a2","734","stimuli/21111000.jpg"," ","","feedback_trial","0","","","","","","","","","","","","","","","","","","","","",""
"","","","","","image-keyboard-response","116","150392","0.0-91.0","6102c81e911700cf7ba5f6bd","665500ab8938657b03fbdba8","66577eccd176949d79ff07a2","870","stimuli/1010110.jpg","1","","prediction_trial","1","","true","","1","false","false","false","true","false","false","[1]","010","110","1","","","","","","",""
"","","","","","image-keyboard-response","117","150696","0.0-92.0","6102c81e911700cf7ba5f6bd","665500ab8938657b03fbdba8","66577eccd176949d79ff07a2","290","stimuli/10101101.jpg"," ","","feedback_trial","1","","","","","","","","","","","","","","","","","","","","",""
"","","","","","image-keyboard-response","118","151584","0.0-93.0","6102c81e911700cf7ba5f6bd","665500ab8938657b03fbdba8","66577eccd176949d79ff07a2","877","stimuli/1011111.jpg","1","","prediction_trial","2","","false","","1","false","false","false","false","false","false","[2,1]","011","111","0","","","","","","",""
"","","","","","image-keyboard-response","119","151798","0.0-94.0","6102c81e911700cf7ba5f6bd","665500ab8938657b03fbdba8","66577eccd176949d79ff07a2","194","stimuli/10111112.jpg"," ","","feedback_trial","2","","","","","","","","","","","","","","","","","","","","",""
"","","","","","image-keyboard-response","120","152518","0.0-95.0","6102c81e911700cf7ba5f6bd","665500ab8938657b03fbdba8","66577eccd176949d79ff07a2","715","stimuli/1000111.jpg","0","","prediction_trial","1","","false","","1","false","false","true","true","false","false","[1]","000","111","0","","","","","","",""
"","","","","","image-keyboard-response","121","152753","0.0-96.0","6102c81e911700cf7ba5f6bd","665500ab8938657b03fbdba8","66577eccd176949d79ff07a2","230","stimuli/10001111.jpg"," ","","feedback_trial","1","","","","","","","","","","","","","","","","","","","","",""
"","","","","","image-keyboard-response","122","153344","0.0-97.0","6102c81e911700cf7ba5f6bd","665500ab8938657b03fbdba8","66577eccd176949d79ff07a2","574","stimuli/1101011.jpg","2","","prediction_trial","1","","false","","1","false","false","true","true","false","false","[1]","101","011","0","","","","","","",""
"","","","","","image-keyboard-response","123","153625","0.0-98.0","6102c81e911700cf7ba5f6bd","665500ab8938657b03fbdba8","66577eccd176949d79ff07a2","268","stimuli/11010111.jpg"," ","","feedback_trial","1","","","","","","","","","","","","","","","","","","","","",""
"","","","","","image-keyboard-response","124","154296","0.0-99.0","6102c81e911700cf7ba5f6bd","665500ab8938657b03fbdba8","66577eccd176949d79ff07a2","659","stimuli/2001110.jpg","2","","prediction_trial","2","","true","","2","true","true","false","true","false","true","[2]","001","110","1","","","","","","",""
"","","","","","image-keyboard-response","125","154553","0.0-100.0","6102c81e911700cf7ba5f6bd","665500ab8938657b03fbdba8","66577eccd176949d79ff07a2","240","stimuli/20011102.jpg"," ","","feedback_trial","2","","","","","","","","","","","","","","","","","","","","",""
"","","","","","image-keyboard-response","126","155208","0.0-101.0","6102c81e911700cf7ba5f6bd","665500ab8938657b03fbdba8","66577eccd176949d79ff07a2","635","stimuli/0101010.jpg","0","","prediction_trial","0","","true","","0","true","true","false","false","false","false","[2,0]","101","010","1","","","","","","",""
"","","","","","image-keyboard-response","127","155537","0.0-102.0","6102c81e911700cf7ba5f6bd","665500ab8938657b03fbdba8","66577eccd176949d79ff07a2","316","stimuli/01010100.jpg"," ","","feedback_trial","2","","","","","","","","","","","","","","","","","","","","",""
"","","","","","image-keyboard-response","128","156166","0.0-103.0","6102c81e911700cf7ba5f6bd","665500ab8938657b03fbdba8","66577eccd176949d79ff07a2","617","stimuli/2001011.jpg","2","","prediction_trial","2","","true","","2","false","false","false","true","false","false","[2]","001","011","1","","","","","","",""
"","","","","","image-keyboard-response","129","156481","0.0-104.0","6102c81e911700cf7ba5f6bd","665500ab8938657b03fbdba8","66577eccd176949d79ff07a2","308","stimuli/20010112.jpg"," ","","feedback_trial","2","","","","","","","","","","","","","","","","","","","","",""
"","","","","","image-keyboard-response","130","157008","0.0-105.0","6102c81e911700cf7ba5f6bd","665500ab8938657b03fbdba8","66577eccd176949d79ff07a2","512","stimuli/2100011.jpg","0","","prediction_trial","2","","false","","2","false","false","true","true","false","false","[2]","100","011","0","","","","","","",""
"","","","","","image-keyboard-response","131","157762","0.0-106.0","6102c81e911700cf7ba5f6bd","665500ab8938657b03fbdba8","66577eccd176949d79ff07a2","739","stimuli/21000112.jpg"," ","","feedback_trial","2","","","","","","","","","","","","","","","","","","","","",""
"","","","","","image-keyboard-response","132","158432","0.0-107.0","6102c81e911700cf7ba5f6bd","665500ab8938657b03fbdba8","66577eccd176949d79ff07a2","661","stimuli/0111110.jpg","0","","prediction_trial","1","","false","","0","false","false","false","false","false","false","[1,0,2]","111","110","0","","","","","","",""
"","","","","","image-keyboard-response","133","158721","0.0-108.0","6102c81e911700cf7ba5f6bd","665500ab8938657b03fbdba8","66577eccd176949d79ff07a2","279","stimuli/01111101.jpg"," ","","feedback_trial","1","","","","","","","","","","","","","","","","","","","","",""
"","","","","","image-keyboard-response","134","159454","0.0-109.0","6102c81e911700cf7ba5f6bd","665500ab8938657b03fbdba8","66577eccd176949d79ff07a2","720","stimuli/0100010.jpg","0","","prediction_trial","0","","true","","0","true","true","false","true","false","true","[0]","100","010","1","","","","","","",""
"","","","","","image-keyboard-response","135","159774","0.0-110.0","6102c81e911700cf7ba5f6bd","665500ab8938657b03fbdba8","66577eccd176949d79ff07a2","317","stimuli/01000100.jpg"," ","","feedback_trial","0","","","","","","","","","","","","","","","","","","","","",""
"","","","","","image-keyboard-response","136","160494","0.0-111.0","6102c81e911700cf7ba5f6bd","665500ab8938657b03fbdba8","66577eccd176949d79ff07a2","716","stimuli/1000101.jpg","2","","prediction_trial","1","","false","","1","true","true","true","true","true","true","[1]","000","101","0","","","","","","",""
"","","","","","image-keyboard-response","137","161022","0.0-112.0","6102c81e911700cf7ba5f6bd","665500ab8938657b03fbdba8","66577eccd176949d79ff07a2","523","stimuli/10001011.jpg"," ","","feedback_trial","1","","","","","","","","","","","","","","","","","","","","",""
"","","","","","image-keyboard-response","138","163350","0.0-113.0","6102c81e911700cf7ba5f6bd","665500ab8938657b03fbdba8","66577eccd176949d79ff07a2","2324","stimuli/2001111.jpg","1","","prediction_trial","2","","false","","2","false","false","false","true","false","false","[2]","001","111","0","","","","","","",""
"","","","","","image-keyboard-response","139","163598","0.0-114.0","6102c81e911700cf7ba5f6bd","665500ab8938657b03fbdba8","66577eccd176949d79ff07a2","243","stimuli/20011112.jpg"," ","","feedback_trial","2","","","","","","","","","","","","","","","","","","","","",""
"","","","","","image-keyboard-response","140","164254","0.0-115.0","6102c81e911700cf7ba5f6bd","665500ab8938657b03fbdba8","66577eccd176949d79ff07a2","652","stimuli/0111011.jpg","0","","prediction_trial","0","","true","","0","true","true","false","false","false","false","[0,2,1]","111","011","1","","","","","","",""
"","","","","","image-keyboard-response","141","164430","0.0-116.0","6102c81e911700cf7ba5f6bd","665500ab8938657b03fbdba8","66577eccd176949d79ff07a2","173","stimuli/01110110.jpg"," ","","feedback_trial","0","","","","","","","","","","","","","","","","","","","","",""
"","","","","","image-keyboard-response","142","165063","0.0-117.0","6102c81e911700cf7ba5f6bd","665500ab8938657b03fbdba8","66577eccd176949d79ff07a2","630","stimuli/1000010.jpg","1","","prediction_trial","1","","true","","1","false","true","true","true","false","true","[1]","000","010","1","","","","","","",""
"","","","","","image-keyboard-response","143","165350","0.0-118.0","6102c81e911700cf7ba5f6bd","665500ab8938657b03fbdba8","66577eccd176949d79ff07a2","284","stimuli/10000101.jpg"," ","","feedback_trial","1","","","","","","","","","","","","","","","","","","","","",""
"","","","","","image-keyboard-response","144","165998","0.0-119.0","6102c81e911700cf7ba5f6bd","665500ab8938657b03fbdba8","66577eccd176949d79ff07a2","644","stimuli/2010001.jpg","2","","prediction_trial","2","","true","","2","false","true","true","true","false","true","[2]","010","001","1","","","","","","",""
"","","","","","image-keyboard-response","145","166326","0.0-120.0","6102c81e911700cf7ba5f6bd","665500ab8938657b03fbdba8","66577eccd176949d79ff07a2","324","stimuli/20100012.jpg"," ","","feedback_trial","2","","","","","","","","","","","","","","","","","","","","",""
"","","","","","image-keyboard-response","146","167274","0.0-121.0","6102c81e911700cf7ba5f6bd","665500ab8938657b03fbdba8","66577eccd176949d79ff07a2","945","stimuli/1110010.jpg","1","","prediction_trial","0","","false","","1","false","true","false","false","false","false","[1,0]","110","010","0","","","","","","",""
"","","","","","image-keyboard-response","147","167555","0.0-122.0","6102c81e911700cf7ba5f6bd","665500ab8938657b03fbdba8","66577eccd176949d79ff07a2","264","stimuli/11100100.jpg"," ","","feedback_trial","1","","","","","","","","","","","","","","","","","","","","",""
"","","","","","image-keyboard-response","148","168407","0.0-123.0","6102c81e911700cf7ba5f6bd","665500ab8938657b03fbdba8","66577eccd176949d79ff07a2","838","stimuli/1001001.jpg","2","","prediction_trial","1","","false","","1","true","true","true","true","true","true","[1]","001","001","0","","","","","","",""
"","","","","","image-keyboard-response","149","168774","0.0-124.0","6102c81e911700cf7ba5f6bd","665500ab8938657b03fbdba8","66577eccd176949d79ff07a2","359","stimuli/10010011.jpg"," ","","feedback_trial","1","","","","","","","","","","","","","","","","","","","","",""
"","","","","","image-keyboard-response","150","169438","0.0-125.0","6102c81e911700cf7ba5f6bd","665500ab8938657b03fbdba8","66577eccd176949d79ff07a2","661","stimuli/2101110.jpg","0","","prediction_trial","0","","true","","2","true","true","false","false","false","false","[2,0]","101","110","1","","","","","","",""
"","","","","","image-keyboard-response","151","169686","0.0-126.0","6102c81e911700cf7ba5f6bd","665500ab8938657b03fbdba8","66577eccd176949d79ff07a2","244","stimuli/21011100.jpg"," ","","feedback_trial","2","","","","","","","","","","","","","","","","","","","","",""
"","","","","","image-keyboard-response","152","170302","0.0-127.0","6102c81e911700cf7ba5f6bd","665500ab8938657b03fbdba8","66577eccd176949d79ff07a2","612","stimuli/0101110.jpg","0","","prediction_trial","0","","true","","0","false","false","false","false","false","false","[0,2]","101","110","1","","","","","","",""
"","","","","","image-keyboard-response","153","170591","0.0-128.0","6102c81e911700cf7ba5f6bd","665500ab8938657b03fbdba8","66577eccd176949d79ff07a2","285","stimuli/01011100.jpg"," ","","feedback_trial","0","","","","","","","","","","","","","","","","","","","","",""
"","","","","","image-keyboard-response","154","171382","0.0-129.0","6102c81e911700cf7ba5f6bd","665500ab8938657b03fbdba8","66577eccd176949d79ff07a2","788","stimuli/1000000.jpg","1","","prediction_trial","1","","true","","1","true","true","true","true","true","true","[1]","000","000","1","","","","","","",""
"","","","","","image-keyboard-response","155","171918","0.0-130.0","6102c81e911700cf7ba5f6bd","665500ab8938657b03fbdba8","66577eccd176949d79ff07a2","533","stimuli/10000001.jpg"," ","","feedback_trial","1","","","","","","","","","","","","","","","","","","","","",""
"","","","","","image-keyboard-response","156","172582","0.0-131.0","6102c81e911700cf7ba5f6bd","665500ab8938657b03fbdba8","66577eccd176949d79ff07a2","650","stimuli/0000000.jpg","0","","prediction_trial","0","","true","","0","true","true","true","true","true","true","[0]","000","000","1","","","","","","",""
"","","","","","image-keyboard-response","157","172846","0.0-132.0","6102c81e911700cf7ba5f6bd","665500ab8938657b03fbdba8","66577eccd176949d79ff07a2","261","stimuli/00000000.jpg"," ","","feedback_trial","0","","","","","","","","","","","","","","","","","","","","",""
"","","","","","image-keyboard-response","158","173478","0.0-133.0","6102c81e911700cf7ba5f6bd","665500ab8938657b03fbdba8","66577eccd176949d79ff07a2","627","stimuli/1111011.jpg","1","","prediction_trial","1","","true","","1","false","false","false","false","false","false","[0,2,1]","111","011","1","","","","","","",""
"","","","","","image-keyboard-response","159","173870","0.0-134.0","6102c81e911700cf7ba5f6bd","665500ab8938657b03fbdba8","66577eccd176949d79ff07a2","388","stimuli/11110111.jpg"," ","","feedback_trial","0","","","","","","","","","","","","","","","","","","","","",""
"","","","","","image-keyboard-response","160","174409","0.0-135.0","6102c81e911700cf7ba5f6bd","665500ab8938657b03fbdba8","66577eccd176949d79ff07a2","534","stimuli/0000011.jpg","0","","prediction_trial","0","","true","","0","true","true","true","true","true","true","[0]","000","011","1","","","","","","",""
"","","","","","image-keyboard-response","161","174919","0.0-136.0","6102c81e911700cf7ba5f6bd","665500ab8938657b03fbdba8","66577eccd176949d79ff07a2","500","stimuli/00000110.jpg"," ","","feedback_trial","0","","","","","","","","","","","","","","","","","","","","",""
"","","","","","image-keyboard-response","162","175552","0.0-137.0","6102c81e911700cf7ba5f6bd","665500ab8938657b03fbdba8","66577eccd176949d79ff07a2","629","stimuli/1001101.jpg","2","","prediction_trial","1","","false","","1","true","true","true","true","true","true","[1]","001","101","0","","","","","","",""
"","","","","","image-keyboard-response","163","175822","0.0-138.0","6102c81e911700cf7ba5f6bd","665500ab8938657b03fbdba8","66577eccd176949d79ff07a2","256","stimuli/10011011.jpg"," ","","feedback_trial","1","","","","","","","","","","","","","","","","","","","","",""
"","","","","","image-keyboard-response","164","176710","0.0-139.0","6102c81e911700cf7ba5f6bd","665500ab8938657b03fbdba8","66577eccd176949d79ff07a2","882","stimuli/0100101.jpg","2","","prediction_trial","0","","false","","0","false","false","false","true","false","false","[0]","100","101","0","","","","","","",""
"","","","","","image-keyboard-response","165","177014","0.0-140.0","6102c81e911700cf7ba5f6bd","665500ab8938657b03fbdba8","66577eccd176949d79ff07a2","298","stimuli/01001010.jpg"," ","","feedback_trial","0","","","","","","","","","","","","","","","","","","","","",""
"","","","","","image-keyboard-response","166","177510","0.0-141.0","6102c81e911700cf7ba5f6bd","665500ab8938657b03fbdba8","66577eccd176949d79ff07a2","492","stimuli/0010001.jpg","0","","prediction_trial","0","","true","","0","true","true","true","true","true","true","[0]","010","001","1","","","","","","",""
"","","","","","image-keyboard-response","167","177786","0.0-142.0","6102c81e911700cf7ba5f6bd","665500ab8938657b03fbdba8","66577eccd176949d79ff07a2","271","stimuli/00100010.jpg"," ","","feedback_trial","0","","","","","","","","","","","","","","","","","","","","",""
"","","","","","image-keyboard-response","168","178506","0.0-143.0","6102c81e911700cf7ba5f6bd","665500ab8938657b03fbdba8","66577eccd176949d79ff07a2","707","stimuli/0011110.jpg","2","","prediction_trial","0","","false","","0","false","false","true","true","false","false","[0]","011","110","0","","","","","","",""
"","","","","","image-keyboard-response","169","178849","0.0-144.0","6102c81e911700cf7ba5f6bd","665500ab8938657b03fbdba8","66577eccd176949d79ff07a2","325","stimuli/00111100.jpg"," ","","feedback_trial","0","","","","","","","","","","","","","","","","","","","","",""
"","","","","","image-keyboard-response","170","179358","0.0-145.0","6102c81e911700cf7ba5f6bd","665500ab8938657b03fbdba8","66577eccd176949d79ff07a2","495","stimuli/2101100.jpg","2","","prediction_trial","2","","true","","2","true","true","false","false","false","false","[2,0]","101","100","1","","","","","","",""
"","","","","","image-keyboard-response","171","179775","0.0-146.0","6102c81e911700cf7ba5f6bd","665500ab8938657b03fbdba8","66577eccd176949d79ff07a2","411","stimuli/21011002.jpg"," ","","feedback_trial","2","","","","","","","","","","","","","","","","","","","","",""
"","","","","","image-keyboard-response","172","180446","0.0-147.0","6102c81e911700cf7ba5f6bd","665500ab8938657b03fbdba8","66577eccd176949d79ff07a2","667","stimuli/2111011.jpg","2","","prediction_trial","1","","false","","2","false","false","false","false","false","false","[2,1,0]","111","011","0","","","","","","",""
"","","","","","image-keyboard-response","173","180742","0.0-148.0","6102c81e911700cf7ba5f6bd","665500ab8938657b03fbdba8","66577eccd176949d79ff07a2","293","stimuli/21110111.jpg"," ","","feedback_trial","2","","","","","","","","","","","","","","","","","","","","",""
"","","","","","image-keyboard-response","174","181287","0.0-149.0","6102c81e911700cf7ba5f6bd","665500ab8938657b03fbdba8","66577eccd176949d79ff07a2","540","stimuli/1011110.jpg","0","","prediction_trial","2","","false","","1","false","false","false","false","false","false","[2,1]","011","110","0","","","","","","",""
"","","","","","image-keyboard-response","175","181574","0.0-150.0","6102c81e911700cf7ba5f6bd","665500ab8938657b03fbdba8","66577eccd176949d79ff07a2","283","stimuli/10111102.jpg"," ","","feedback_trial","2","","","","","","","","","","","","","","","","","","","","",""
"","","","","","image-keyboard-response","176","182095","0.0-151.0","6102c81e911700cf7ba5f6bd","665500ab8938657b03fbdba8","66577eccd176949d79ff07a2","517","stimuli/2101010.jpg","2","","prediction_trial","2","","true","","2","true","true","false","false","false","false","[0,2]","101","010","1","","","","","","",""
"","","","","","image-keyboard-response","177","182441","0.0-152.0","6102c81e911700cf7ba5f6bd","665500ab8938657b03fbdba8","66577eccd176949d79ff07a2","335","stimuli/21010102.jpg"," ","","feedback_trial","0","","","","","","","","","","","","","","","","","","","","",""
"","","","","","image-keyboard-response","178","183080","0.0-153.0","6102c81e911700cf7ba5f6bd","665500ab8938657b03fbdba8","66577eccd176949d79ff07a2","627","stimuli/2010011.jpg","2","","prediction_trial","2","","true","","2","false","false","true","true","false","false","[2]","010","011","1","","","","","","",""
"","","","","","image-keyboard-response","179","183390","0.0-154.0","6102c81e911700cf7ba5f6bd","665500ab8938657b03fbdba8","66577eccd176949d79ff07a2","295","stimuli/20100112.jpg"," ","","feedback_trial","2","","","","","","","","","","","","","","","","","","","","",""
"","","","","","image-keyboard-response","180","183942","0.0-155.0","6102c81e911700cf7ba5f6bd","665500ab8938657b03fbdba8","66577eccd176949d79ff07a2","548","stimuli/1010100.jpg","0","","prediction_trial","1","","false","","1","true","true","false","true","false","true","[1]","010","100","0","","","","","","",""
"","","","","","image-keyboard-response","181","184526","0.0-156.0","6102c81e911700cf7ba5f6bd","665500ab8938657b03fbdba8","66577eccd176949d79ff07a2","581","stimuli/10101001.jpg"," ","","feedback_trial","1","","","","","","","","","","","","","","","","","","","","",""
"","","","","","image-keyboard-response","182","185156","0.0-157.0","6102c81e911700cf7ba5f6bd","665500ab8938657b03fbdba8","66577eccd176949d79ff07a2","623","stimuli/1010010.jpg","1","","prediction_trial","1","","true","","1","false","true","false","true","false","true","[1]","010","010","1","","","","","","",""
"","","","","","image-keyboard-response","183","185414","0.0-158.0","6102c81e911700cf7ba5f6bd","665500ab8938657b03fbdba8","66577eccd176949d79ff07a2","238","stimuli/10100101.jpg"," ","","feedback_trial","1","","","","","","","","","","","","","","","","","","","","",""
"","","","","","image-keyboard-response","184","186086","0.0-159.0","6102c81e911700cf7ba5f6bd","665500ab8938657b03fbdba8","66577eccd176949d79ff07a2","667","stimuli/1101110.jpg","0","","prediction_trial","1","","false","","1","false","false","true","true","false","false","[1]","101","110","0","","","","","","",""
"","","","","","image-keyboard-response","185","186305","0.0-160.0","6102c81e911700cf7ba5f6bd","665500ab8938657b03fbdba8","66577eccd176949d79ff07a2","214","stimuli/11011101.jpg"," ","","feedback_trial","1","","","","","","","","","","","","","","","","","","","","",""
"","","","","","image-keyboard-response","186","186878","0.0-161.0","6102c81e911700cf7ba5f6bd","665500ab8938657b03fbdba8","66577eccd176949d79ff07a2","563","stimuli/1111110.jpg","0","","prediction_trial","0","","true","","1","false","false","false","false","false","false","[1,2,0]","111","110","1","","","","","","",""
"","","","","","image-keyboard-response","187","187214","0.0-162.0","6102c81e911700cf7ba5f6bd","665500ab8938657b03fbdba8","66577eccd176949d79ff07a2","329","stimuli/11111100.jpg"," ","","feedback_trial","1","","","","","","","","","","","","","","","","","","","","",""
"","","","","","image-keyboard-response","188","188088","0.0-163.0","6102c81e911700cf7ba5f6bd","665500ab8938657b03fbdba8","66577eccd176949d79ff07a2","868","stimuli/0010000.jpg","0","","prediction_trial","0","","true","","0","true","true","true","true","true","true","[0]","010","000","1","","","","","","",""
"","","","","","image-keyboard-response","189","188357","0.0-164.0","6102c81e911700cf7ba5f6bd","665500ab8938657b03fbdba8","66577eccd176949d79ff07a2","258","stimuli/00100000.jpg"," ","","feedback_trial","0","","","","","","","","","","","","","","","","","","","","",""
"","","","","","image-keyboard-response","190","189295","0.0-165.0","6102c81e911700cf7ba5f6bd","665500ab8938657b03fbdba8","66577eccd176949d79ff07a2","932","stimuli/0101001.jpg","0","","prediction_trial","0","","true","","0","true","true","false","false","false","false","[2,0]","101","001","1","","","","","","",""
"","","","","","image-keyboard-response","191","189631","0.0-166.0","6102c81e911700cf7ba5f6bd","665500ab8938657b03fbdba8","66577eccd176949d79ff07a2","327","stimuli/01010010.jpg"," ","","feedback_trial","2","","","","","","","","","","","","","","","","","","","","",""
"","","","","","image-keyboard-response","192","190767","0.0-167.0","6102c81e911700cf7ba5f6bd","665500ab8938657b03fbdba8","66577eccd176949d79ff07a2","1124","stimuli/2010101.jpg","1","","prediction_trial","2","","false","","2","false","false","true","true","false","false","[2]","010","101","0","","","","","","",""
"","","","","","image-keyboard-response","193","191147","0.0-168.0","6102c81e911700cf7ba5f6bd","665500ab8938657b03fbdba8","66577eccd176949d79ff07a2","371","stimuli/20101012.jpg"," ","","feedback_trial","2","","","","","","","","","","","","","","","","","","","","",""
"","","","","","image-keyboard-response","194","192133","0.0-169.0","6102c81e911700cf7ba5f6bd","665500ab8938657b03fbdba8","66577eccd176949d79ff07a2","967","stimuli/1101111.jpg","0","","prediction_trial","1","","false","","1","false","false","true","true","false","false","[1]","101","111","0","","","","","","",""
"","","","","","image-keyboard-response","195","192445","0.0-170.0","6102c81e911700cf7ba5f6bd","665500ab8938657b03fbdba8","66577eccd176949d79ff07a2","309","stimuli/11011111.jpg"," ","","feedback_trial","1","","","","","","","","","","","","","","","","","","","","",""
"","","","","","image-keyboard-response","196","193014","0.0-171.0","6102c81e911700cf7ba5f6bd","665500ab8938657b03fbdba8","66577eccd176949d79ff07a2","565","stimuli/1100111.jpg","2","","prediction_trial","1","","false","","1","false","false","true","true","false","false","[1]","100","111","0","","","","","","",""
"","","","","","image-keyboard-response","197","193254","0.0-172.0","6102c81e911700cf7ba5f6bd","665500ab8938657b03fbdba8","66577eccd176949d79ff07a2","236","stimuli/11001111.jpg"," ","","feedback_trial","1","","","","","","","","","","","","","","","","","","","","",""
"","","","","","image-keyboard-response","198","194320","0.0-173.0","6102c81e911700cf7ba5f6bd","665500ab8938657b03fbdba8","66577eccd176949d79ff07a2","1062","stimuli/0010101.jpg","2","","prediction_trial","0","","false","","0","false","false","true","true","false","false","[0]","010","101","0","","","","","","",""
"","","","","","image-keyboard-response","199","194605","0.0-174.0","6102c81e911700cf7ba5f6bd","665500ab8938657b03fbdba8","66577eccd176949d79ff07a2","275","stimuli/00101010.jpg"," ","","feedback_trial","0","","","","","","","","","","","","","","","","","","","","",""
"","","","","","image-keyboard-response","200","195204","0.0-175.0","6102c81e911700cf7ba5f6bd","665500ab8938657b03fbdba8","66577eccd176949d79ff07a2","591","stimuli/0000110.jpg","0","","prediction_trial","0","","true","","0","false","false","true","true","false","false","[0]","000","110","1","","","","","","",""
"","","","","","image-keyboard-response","201","195526","0.0-176.0","6102c81e911700cf7ba5f6bd","665500ab8938657b03fbdba8","66577eccd176949d79ff07a2","315","stimuli/00001100.jpg"," ","","feedback_trial","0","","","","","","","","","","","","","","","","","","","","",""
"","","","","","image-keyboard-response","202","196029","0.0-177.0","6102c81e911700cf7ba5f6bd","665500ab8938657b03fbdba8","66577eccd176949d79ff07a2","487","stimuli/2001010.jpg","2","","prediction_trial","2","","true","","2","true","true","false","true","false","true","[2]","001","010","1","","","","","","",""
"","","","","","image-keyboard-response","203","196694","0.0-178.0","6102c81e911700cf7ba5f6bd","665500ab8938657b03fbdba8","66577eccd176949d79ff07a2","657","stimuli/20010102.jpg"," ","","feedback_trial","2","","","","","","","","","","","","","","","","","","","","",""
"","","","","","image-keyboard-response","204","197446","0.0-179.0","6102c81e911700cf7ba5f6bd","665500ab8938657b03fbdba8","66577eccd176949d79ff07a2","747","stimuli/0100100.jpg","0","","prediction_trial","0","","true","","0","false","true","false","true","false","true","[0]","100","100","1","","","","","","",""
"","","","","","image-keyboard-response","205","197838","0.0-180.0","6102c81e911700cf7ba5f6bd","665500ab8938657b03fbdba8","66577eccd176949d79ff07a2","389","stimuli/01001000.jpg"," ","","feedback_trial","0","","","","","","","","","","","","","","","","","","","","",""
"","","","","","image-keyboard-response","206","198358","0.0-181.0","6102c81e911700cf7ba5f6bd","665500ab8938657b03fbdba8","66577eccd176949d79ff07a2","516","stimuli/1010111.jpg","2","","prediction_trial","1","","false","","1","false","false","false","true","false","false","[1]","010","111","0","","","","","","",""
"","","","","","image-keyboard-response","207","198671","0.0-182.0","6102c81e911700cf7ba5f6bd","665500ab8938657b03fbdba8","66577eccd176949d79ff07a2","309","stimuli/10101111.jpg"," ","","feedback_trial","1","","","","","","","","","","","","","","","","","","","","",""
"","","","","","image-keyboard-response","208","199166","0.0-183.0","6102c81e911700cf7ba5f6bd","665500ab8938657b03fbdba8","66577eccd176949d79ff07a2","491","stimuli/2011010.jpg","2","","prediction_trial","2","","true","","2","true","true","false","false","false","false","[2,1]","011","010","1","","","","","","",""
"","","","","","image-keyboard-response","209","199479","0.0-184.0","6102c81e911700cf7ba5f6bd","665500ab8938657b03fbdba8","66577eccd176949d79ff07a2","300","stimuli/20110102.jpg"," ","","feedback_trial","2","","","","","","","","","","","","","","","","","","","","",""
"","","","","","image-keyboard-response","210","200118","0.0-185.0","6102c81e911700cf7ba5f6bd","665500ab8938657b03fbdba8","66577eccd176949d79ff07a2","635","stimuli/0001111.jpg","0","","prediction_trial","0","","true","","0","false","false","true","true","false","false","[0]","001","111","1","","","","","","",""
"","","","","","image-keyboard-response","211","200414","0.0-186.0","6102c81e911700cf7ba5f6bd","665500ab8938657b03fbdba8","66577eccd176949d79ff07a2","292","stimuli/00011110.jpg"," ","","feedback_trial","0","","","","","","","","","","","","","","","","","","","","",""
"","","","","","image-keyboard-response","212","200990","0.0-187.0","6102c81e911700cf7ba5f6bd","665500ab8938657b03fbdba8","66577eccd176949d79ff07a2","572","stimuli/0010011.jpg","0","","prediction_trial","0","","true","","0","true","true","true","true","true","true","[0]","010","011","1","","","","","","",""
"","","","","","image-keyboard-response","213","201277","0.0-188.0","6102c81e911700cf7ba5f6bd","665500ab8938657b03fbdba8","66577eccd176949d79ff07a2","283","stimuli/00100110.jpg"," ","","feedback_trial","0","","","","","","","","","","","","","","","","","","","","",""
"","","","","","image-keyboard-response","214","202033","0.0-189.0","6102c81e911700cf7ba5f6bd","665500ab8938657b03fbdba8","66577eccd176949d79ff07a2","751","stimuli/0001100.jpg","0","","prediction_trial","0","","true","","0","false","true","true","true","false","true","[0]","001","100","1","","","","","","",""
"","","","","","image-keyboard-response","215","202302","0.0-190.0","6102c81e911700cf7ba5f6bd","665500ab8938657b03fbdba8","66577eccd176949d79ff07a2","260","stimuli/00011000.jpg"," ","","feedback_trial","0","","","","","","","","","","","","","","","","","","","","",""
"","","","","","image-keyboard-response","216","202829","0.0-191.0","6102c81e911700cf7ba5f6bd","665500ab8938657b03fbdba8","66577eccd176949d79ff07a2","523","stimuli/2010110.jpg","2","","prediction_trial","2","","true","","2","true","true","true","true","true","true","[2]","010","110","1","","","","","","",""
"","","","","","image-keyboard-response","217","203174","0.0-192.0","6102c81e911700cf7ba5f6bd","665500ab8938657b03fbdba8","66577eccd176949d79ff07a2","341","stimuli/20101102.jpg"," ","","feedback_trial","2","","","","","","","","","","","","","","","","","","","","",""
"","","","","","image-keyboard-response","218","203974","0.0-193.0","6102c81e911700cf7ba5f6bd","665500ab8938657b03fbdba8","66577eccd176949d79ff07a2","797","stimuli/2100001.jpg","2","","prediction_trial","2","","true","","2","false","true","true","true","false","true","[2]","100","001","1","","","","","","",""
"","","","","","image-keyboard-response","219","204294","0.0-194.0","6102c81e911700cf7ba5f6bd","665500ab8938657b03fbdba8","66577eccd176949d79ff07a2","317","stimuli/21000012.jpg"," ","","feedback_trial","2","","","","","","","","","","","","","","","","","","","","",""
"","","","","","image-keyboard-response","220","204870","0.0-195.0","6102c81e911700cf7ba5f6bd","665500ab8938657b03fbdba8","66577eccd176949d79ff07a2","572","stimuli/2010100.jpg","0","","prediction_trial","2","","false","","2","true","true","true","true","true","true","[2]","010","100","0","","","","","","",""
"","","","","","image-keyboard-response","221","205318","0.0-196.0","6102c81e911700cf7ba5f6bd","665500ab8938657b03fbdba8","66577eccd176949d79ff07a2","440","stimuli/20101002.jpg"," ","","feedback_trial","2","","","","","","","","","","","","","","","","","","","","",""
"","","","","","image-keyboard-response","222","205805","0.0-197.0","6102c81e911700cf7ba5f6bd","665500ab8938657b03fbdba8","66577eccd176949d79ff07a2","479","stimuli/0010010.jpg","0","","prediction_trial","0","","true","","0","true","true","true","true","true","true","[0]","010","010","1","","","","","","",""
"","","","","","image-keyboard-response","223","206158","0.0-198.0","6102c81e911700cf7ba5f6bd","665500ab8938657b03fbdba8","66577eccd176949d79ff07a2","345","stimuli/00100100.jpg"," ","","feedback_trial","0","","","","","","","","","","","","","","","","","","","","",""
"","","","","","image-keyboard-response","224","206837","0.0-199.0","6102c81e911700cf7ba5f6bd","665500ab8938657b03fbdba8","66577eccd176949d79ff07a2","676","stimuli/1110100.jpg","0","","prediction_trial","0","","true","","1","true","true","false","false","false","false","[1,0]","110","100","1","","","","","","",""
"","","","","","image-keyboard-response","225","207710","0.0-200.0","6102c81e911700cf7ba5f6bd","665500ab8938657b03fbdba8","66577eccd176949d79ff07a2","869","stimuli/11101000.jpg"," ","","feedback_trial","1","","","","","","","","","","","","","","","","","","","","",""
"","","","","","image-keyboard-response","226","208358","0.0-201.0","6102c81e911700cf7ba5f6bd","665500ab8938657b03fbdba8","66577eccd176949d79ff07a2","643","stimuli/0000010.jpg","0","","prediction_trial","0","","true","","0","true","true","true","true","true","true","[0]","000","010","1","","","","","","",""
"","","","","","image-keyboard-response","227","208638","0.0-202.0","6102c81e911700cf7ba5f6bd","665500ab8938657b03fbdba8","66577eccd176949d79ff07a2","276","stimuli/00000100.jpg"," ","","feedback_trial","0","","","","","","","","","","","","","","","","","","","","",""
"","","","","","image-keyboard-response","228","209986","0.0-203.0","6102c81e911700cf7ba5f6bd","665500ab8938657b03fbdba8","66577eccd176949d79ff07a2","1343","stimuli/2000111.jpg","1","","prediction_trial","2","","false","","2","false","false","true","true","false","false","[2]","000","111","0","","","","","","",""
"","","","","","image-keyboard-response","229","210273","0.0-204.0","6102c81e911700cf7ba5f6bd","665500ab8938657b03fbdba8","66577eccd176949d79ff07a2","270","stimuli/20001112.jpg"," ","","feedback_trial","2","","","","","","","","","","","","","","","","","","","","",""
"","","","","","image-keyboard-response","230","212382","0.0-205.0","6102c81e911700cf7ba5f6bd","665500ab8938657b03fbdba8","66577eccd176949d79ff07a2","2096","stimuli/2101101.jpg","0","","prediction_trial","2","","false","","2","false","false","false","false","false","false","[0,2]","101","101","0","","","","","","",""
"","","","","","image-keyboard-response","231","212783","0.0-206.0","6102c81e911700cf7ba5f6bd","665500ab8938657b03fbdba8","66577eccd176949d79ff07a2","395","stimuli/21011012.jpg"," ","","feedback_trial","0","","","","","","","","","","","","","","","","","","","","",""
"","","","","","image-keyboard-response","232","213327","0.0-207.0","6102c81e911700cf7ba5f6bd","665500ab8938657b03fbdba8","66577eccd176949d79ff07a2","537","stimuli/2010111.jpg","0","","prediction_trial","2","","false","","2","false","false","true","true","false","false","[2]","010","111","0","","","","","","",""
"","","","","","image-keyboard-response","233","213608","0.0-208.0","6102c81e911700cf7ba5f6bd","665500ab8938657b03fbdba8","66577eccd176949d79ff07a2","271","stimuli/20101112.jpg"," ","","feedback_trial","2","","","","","","","","","","","","","","","","","","","","",""
"","","","","","image-keyboard-response","234","214192","0.0-209.0","6102c81e911700cf7ba5f6bd","665500ab8938657b03fbdba8","66577eccd176949d79ff07a2","568","stimuli/2111010.jpg","2","","prediction_trial","1","","false","","2","true","true","false","false","false","false","[0,2,1]","111","010","0","","","","","","",""
"","","","","","image-keyboard-response","235","214433","0.0-210.0","6102c81e911700cf7ba5f6bd","665500ab8938657b03fbdba8","66577eccd176949d79ff07a2","228","stimuli/21110101.jpg"," ","","feedback_trial","0","","","","","","","","","","","","","","","","","","","","",""
"","","","","","image-keyboard-response","236","215103","0.0-211.0","6102c81e911700cf7ba5f6bd","665500ab8938657b03fbdba8","66577eccd176949d79ff07a2","659","stimuli/1110101.jpg","1","","prediction_trial","0","","false","","1","true","true","false","false","false","false","[1,0]","110","101","0","","","","","","",""
"","","","","","image-keyboard-response","237","215346","0.0-212.0","6102c81e911700cf7ba5f6bd","665500ab8938657b03fbdba8","66577eccd176949d79ff07a2","235","stimuli/11101010.jpg"," ","","feedback_trial","1","","","","","","","","","","","","","","","","","","","","",""
"","","","","","image-keyboard-response","238","216446","0.0-213.0","6102c81e911700cf7ba5f6bd","665500ab8938657b03fbdba8","66577eccd176949d79ff07a2","1088","stimuli/1100101.jpg","1","","prediction_trial","1","","true","","1","true","true","true","true","true","true","[1]","100","101","1","","","","","","",""
"","","","","","image-keyboard-response","239","216680","0.0-214.0","6102c81e911700cf7ba5f6bd","665500ab8938657b03fbdba8","66577eccd176949d79ff07a2","229","stimuli/11001011.jpg"," ","","feedback_trial","1","","","","","","","","","","","","","","","","","","","","",""
"","","","","","image-keyboard-response","240","217822","0.0-215.0","6102c81e911700cf7ba5f6bd","665500ab8938657b03fbdba8","66577eccd176949d79ff07a2","1139","stimuli/1110000.jpg","2","","prediction_trial","1","","false","","1","true","true","false","false","false","false","[1,0]","110","000","0","","","","","","",""
"","","","","","image-keyboard-response","241","218038","0.0-216.0","6102c81e911700cf7ba5f6bd","665500ab8938657b03fbdba8","66577eccd176949d79ff07a2","212","stimuli/11100001.jpg"," ","","feedback_trial","1","","","","","","","","","","","","","","","","","","","","",""
"","","","","","image-keyboard-response","242","218670","0.0-217.0","6102c81e911700cf7ba5f6bd","665500ab8938657b03fbdba8","66577eccd176949d79ff07a2","629","stimuli/2001101.jpg","1","","prediction_trial","2","","false","","2","false","false","false","true","false","false","[2]","001","101","0","","","","","","",""
"","","","","","image-keyboard-response","243","219009","0.0-218.0","6102c81e911700cf7ba5f6bd","665500ab8938657b03fbdba8","66577eccd176949d79ff07a2","333","stimuli/20011012.jpg"," ","","feedback_trial","2","","","","","","","","","","","","","","","","","","","","",""
"","","","","","image-keyboard-response","244","219680","0.0-219.0","6102c81e911700cf7ba5f6bd","665500ab8938657b03fbdba8","66577eccd176949d79ff07a2","660","stimuli/2101011.jpg","2","","prediction_trial","2","","true","","2","false","false","false","false","false","false","[0,2]","101","011","1","","","","","","",""
"","","","","","image-keyboard-response","245","220024","0.0-220.0","6102c81e911700cf7ba5f6bd","665500ab8938657b03fbdba8","66577eccd176949d79ff07a2","331","stimuli/21010112.jpg"," ","","feedback_trial","0","","","","","","","","","","","","","","","","","","","","",""
"","","","","","image-keyboard-response","246","220696","0.0-221.0","6102c81e911700cf7ba5f6bd","665500ab8938657b03fbdba8","66577eccd176949d79ff07a2","665","stimuli/0000111.jpg","1","","prediction_trial","0","","false","","0","false","false","true","true","false","false","[0]","000","111","0","","","","","","",""
"","","","","","image-keyboard-response","247","220976","0.0-222.0","6102c81e911700cf7ba5f6bd","665500ab8938657b03fbdba8","66577eccd176949d79ff07a2","262","stimuli/00001110.jpg"," ","","feedback_trial","0","","","","","","","","","","","","","","","","","","","","",""
"","","","","","image-keyboard-response","248","221624","0.0-223.0","6102c81e911700cf7ba5f6bd","665500ab8938657b03fbdba8","66577eccd176949d79ff07a2","635","stimuli/2110111.jpg","2","","prediction_trial","2","","true","","2","false","false","true","true","false","false","[2]","110","111","1","","","","","","",""
"","","","","","image-keyboard-response","249","221913","0.0-224.0","6102c81e911700cf7ba5f6bd","665500ab8938657b03fbdba8","66577eccd176949d79ff07a2","276","stimuli/21101112.jpg"," ","","feedback_trial","2","","","","","","","","","","","","","","","","","","","","",""
"","","","","","image-keyboard-response","250","222504","0.0-225.0","6102c81e911700cf7ba5f6bd","665500ab8938657b03fbdba8","66577eccd176949d79ff07a2","577","stimuli/2111000.jpg","2","","prediction_trial","1","","false","","2","true","true","false","false","false","false","[2,0,1]","111","000","0","","","","","","",""
"","","","","","image-keyboard-response","251","222777","0.0-226.0","6102c81e911700cf7ba5f6bd","665500ab8938657b03fbdba8","66577eccd176949d79ff07a2","259","stimuli/21110001.jpg"," ","","feedback_trial","2","","","","","","","","","","","","","","","","","","","","",""
"","","","","","image-keyboard-response","252","223248","0.0-227.0","6102c81e911700cf7ba5f6bd","665500ab8938657b03fbdba8","66577eccd176949d79ff07a2","458","stimuli/2111110.jpg","2","","prediction_trial","0","","false","","2","true","true","false","false","false","false","[2,1,0]","111","110","0","","","","","","",""
"","","","","","image-keyboard-response","253","223553","0.0-228.0","6102c81e911700cf7ba5f6bd","665500ab8938657b03fbdba8","66577eccd176949d79ff07a2","292","stimuli/21111100.jpg"," ","","feedback_trial","2","","","","","","","","","","","","","","","","","","","","",""
"","","","","","image-keyboard-response","254","224536","0.0-229.0","6102c81e911700cf7ba5f6bd","665500ab8938657b03fbdba8","66577eccd176949d79ff07a2","970","stimuli/1101010.jpg","1","","prediction_trial","1","","true","","1","false","true","true","true","false","true","[1]","101","010","1","","","","","","",""
"","","","","","image-keyboard-response","255","224799","0.0-230.0","6102c81e911700cf7ba5f6bd","665500ab8938657b03fbdba8","66577eccd176949d79ff07a2","246","stimuli/11010101.jpg"," ","","feedback_trial","1","","","","","","","","","","","","","","","","","","","","",""
"","","","","","image-keyboard-response","256","225360","0.0-231.0","6102c81e911700cf7ba5f6bd","665500ab8938657b03fbdba8","66577eccd176949d79ff07a2","555","stimuli/1111111.jpg","1","","prediction_trial","0","","false","","1","false","false","false","false","false","false","[0,2,1]","111","111","0","","","","","","",""
"","","","","","image-keyboard-response","257","225609","0.0-232.0","6102c81e911700cf7ba5f6bd","665500ab8938657b03fbdba8","66577eccd176949d79ff07a2","236","stimuli/11111110.jpg"," ","","feedback_trial","0","","","","","","","","","","","","","","","","","","","","",""
"","","","","","image-keyboard-response","258","226241","0.0-233.0","6102c81e911700cf7ba5f6bd","665500ab8938657b03fbdba8","66577eccd176949d79ff07a2","619","stimuli/1001110.jpg","1","","prediction_trial","1","","true","","1","false","false","true","true","false","false","[1]","001","110","1","","","","","","",""
"","","","","","image-keyboard-response","259","226553","0.0-234.0","6102c81e911700cf7ba5f6bd","665500ab8938657b03fbdba8","66577eccd176949d79ff07a2","300","stimuli/10011101.jpg"," ","","feedback_trial","1","","","","","","","","","","","","","","","","","","","","",""
"","","","","","image-keyboard-response","260","227158","0.0-235.0","6102c81e911700cf7ba5f6bd","665500ab8938657b03fbdba8","66577eccd176949d79ff07a2","593","stimuli/0011000.jpg","0","","prediction_trial","0","","true","","0","true","true","true","true","true","true","[0]","011","000","1","","","","","","",""
"","","","","","image-keyboard-response","261","227393","0.0-236.0","6102c81e911700cf7ba5f6bd","665500ab8938657b03fbdba8","66577eccd176949d79ff07a2","228","stimuli/00110000.jpg"," ","","feedback_trial","0","","","","","","","","","","","","","","","","","","","","",""
"","","","","","image-keyboard-response","262","228230","0.0-237.0","6102c81e911700cf7ba5f6bd","665500ab8938657b03fbdba8","66577eccd176949d79ff07a2","826","stimuli/2111101.jpg","0","","prediction_trial","0","","true","","2","false","false","false","false","false","false","[2,0,1]","111","101","1","","","","","","",""
"","","","","","image-keyboard-response","263","228513","0.0-238.0","6102c81e911700cf7ba5f6bd","665500ab8938657b03fbdba8","66577eccd176949d79ff07a2","275","stimuli/21111010.jpg"," ","","feedback_trial","2","","","","","","","","","","","","","","","","","","","","",""
"","","","","","image-keyboard-response","264","229001","0.0-239.0","6102c81e911700cf7ba5f6bd","665500ab8938657b03fbdba8","66577eccd176949d79ff07a2","474","stimuli/2011100.jpg","2","","prediction_trial","2","","true","","2","true","true","false","false","false","false","[1,2]","011","100","1","","","","","","",""
"","","","","","image-keyboard-response","265","229313","0.0-240.0","6102c81e911700cf7ba5f6bd","665500ab8938657b03fbdba8","66577eccd176949d79ff07a2","300","stimuli/20111002.jpg"," ","","feedback_trial","1","","","","","","","","","","","","","","","","","","","","",""
"","","","","","image-keyboard-response","266","230067","0.0-241.0","6102c81e911700cf7ba5f6bd","665500ab8938657b03fbdba8","66577eccd176949d79ff07a2","741","stimuli/1000001.jpg","1","","prediction_trial","1","","true","","1","true","true","true","true","true","true","[1]","000","001","1","","","","","","",""
"","","","","","image-keyboard-response","267","230296","0.0-242.0","6102c81e911700cf7ba5f6bd","665500ab8938657b03fbdba8","66577eccd176949d79ff07a2","221","stimuli/10000011.jpg"," ","","feedback_trial","1","","","","","","","","","","","","","","","","","","","","",""
"","","","","","image-keyboard-response","268","230912","0.0-243.0","6102c81e911700cf7ba5f6bd","665500ab8938657b03fbdba8","66577eccd176949d79ff07a2","602","stimuli/1010000.jpg","1","","prediction_trial","1","","true","","1","true","true","false","true","false","true","[1]","010","000","1","","","","","","",""
"","","","","","image-keyboard-response","269","231153","0.0-244.0","6102c81e911700cf7ba5f6bd","665500ab8938657b03fbdba8","66577eccd176949d79ff07a2","227","stimuli/10100001.jpg"," ","","feedback_trial","1","","","","","","","","","","","","","","","","","","","","",""
"","","","","","image-keyboard-response","270","231729","0.0-245.0","6102c81e911700cf7ba5f6bd","665500ab8938657b03fbdba8","66577eccd176949d79ff07a2","562","stimuli/0011100.jpg","0","","prediction_trial","0","","true","","0","false","true","true","true","false","true","[0]","011","100","1","","","","","","",""
"","","","","","image-keyboard-response","271","232047","0.0-246.0","6102c81e911700cf7ba5f6bd","665500ab8938657b03fbdba8","66577eccd176949d79ff07a2","302","stimuli/00111000.jpg"," ","","feedback_trial","0","","","","","","","","","","","","","","","","","","","","",""
"","","","","","image-keyboard-response","272","232656","0.0-247.0","6102c81e911700cf7ba5f6bd","665500ab8938657b03fbdba8","66577eccd176949d79ff07a2","603","stimuli/1101101.jpg","2","","prediction_trial","1","","false","","1","true","true","true","true","true","true","[1]","101","101","0","","","","","","",""
"","","","","","image-keyboard-response","273","233113","0.0-248.0","6102c81e911700cf7ba5f6bd","665500ab8938657b03fbdba8","66577eccd176949d79ff07a2","440","stimuli/11011011.jpg"," ","","feedback_trial","1","","","","","","","","","","","","","","","","","","","","",""
"","","","","","image-keyboard-response","274","233608","0.0-249.0","6102c81e911700cf7ba5f6bd","665500ab8938657b03fbdba8","66577eccd176949d79ff07a2","477","stimuli/1010001.jpg","1","","prediction_trial","1","","true","","1","true","true","false","true","false","true","[1]","010","001","1","","","","","","",""
"","","","","","image-keyboard-response","275","234058","0.0-250.0","6102c81e911700cf7ba5f6bd","665500ab8938657b03fbdba8","66577eccd176949d79ff07a2","437","stimuli/10100011.jpg"," ","","feedback_trial","1","","","","","","","","","","","","","","","","","","","","",""
"","","","","","image-keyboard-response","276","235432","0.0-251.0","6102c81e911700cf7ba5f6bd","665500ab8938657b03fbdba8","66577eccd176949d79ff07a2","1364","stimuli/2000100.jpg","2","","prediction_trial","2","","true","","2","true","true","true","true","true","true","[2]","000","100","1","","","","","","",""
"","","","","","image-keyboard-response","277","235752","0.0-252.0","6102c81e911700cf7ba5f6bd","665500ab8938657b03fbdba8","66577eccd176949d79ff07a2","307","stimuli/20001002.jpg"," ","","feedback_trial","2","","","","","","","","","","","","","","","","","","","","",""
"","","","","","image-keyboard-response","278","236576","0.0-253.0","6102c81e911700cf7ba5f6bd","665500ab8938657b03fbdba8","66577eccd176949d79ff07a2","811","stimuli/2000101.jpg","0","","prediction_trial","2","","false","","2","false","false","true","true","false","false","[2]","000","101","0","","","","","","",""
"","","","","","image-keyboard-response","279","236875","0.0-254.0","6102c81e911700cf7ba5f6bd","665500ab8938657b03fbdba8","66577eccd176949d79ff07a2","285","stimuli/20001012.jpg"," ","","feedback_trial","2","","","","","","","","","","","","","","","","","","","","",""
"","","","","","image-keyboard-response","280","237392","0.0-255.0","6102c81e911700cf7ba5f6bd","665500ab8938657b03fbdba8","66577eccd176949d79ff07a2","496","stimuli/0001000.jpg","0","","prediction_trial","0","","true","","0","true","true","true","true","true","true","[0]","001","000","1","","","","","","",""
"","","","","","image-keyboard-response","281","237673","0.0-256.0","6102c81e911700cf7ba5f6bd","665500ab8938657b03fbdba8","66577eccd176949d79ff07a2","266","stimuli/00010000.jpg"," ","","feedback_trial","0","","","","","","","","","","","","","","","","","","","","",""
"","","","","","image-keyboard-response","282","238135","0.0-257.0","6102c81e911700cf7ba5f6bd","665500ab8938657b03fbdba8","66577eccd176949d79ff07a2","449","stimuli/0110010.jpg","0","","prediction_trial","0","","true","","0","true","true","false","false","false","false","[0,1]","110","010","1","","","","","","",""
"","","","","","image-keyboard-response","283","238481","0.0-258.0","6102c81e911700cf7ba5f6bd","665500ab8938657b03fbdba8","66577eccd176949d79ff07a2","339","stimuli/01100100.jpg"," ","","feedback_trial","0","","","","","","","","","","","","","","","","","","","","",""
"","","","","","image-keyboard-response","284","239008","0.0-259.0","6102c81e911700cf7ba5f6bd","665500ab8938657b03fbdba8","66577eccd176949d79ff07a2","513","stimuli/1111001.jpg","2","","prediction_trial","2","","true","","1","true","true","false","false","false","false","[2,1,0]","111","001","1","","","","","","",""
"","","","","","image-keyboard-response","285","239863","0.0-260.0","6102c81e911700cf7ba5f6bd","665500ab8938657b03fbdba8","66577eccd176949d79ff07a2","842","stimuli/11110012.jpg"," ","","feedback_trial","2","","","","","","","","","","","","","","","","","","","","",""
"","","","","","image-keyboard-response","286","240342","0.0-261.0","6102c81e911700cf7ba5f6bd","665500ab8938657b03fbdba8","66577eccd176949d79ff07a2","476","stimuli/2011101.jpg","1","","prediction_trial","1","","true","","2","false","false","false","false","false","false","[1,2]","011","101","1","","","","","","",""
"","","","","","image-keyboard-response","287","240606","0.0-262.0","6102c81e911700cf7ba5f6bd","665500ab8938657b03fbdba8","66577eccd176949d79ff07a2","261","stimuli/20111011.jpg"," ","","feedback_trial","1","","","","","","","","","","","","","","","","","","","","",""
"","","","","","image-keyboard-response","288","241295","0.0-263.0","6102c81e911700cf7ba5f6bd","665500ab8938657b03fbdba8","66577eccd176949d79ff07a2","683","stimuli/2111001.jpg","2","","prediction_trial","2","","true","","2","false","true","false","false","false","false","[0,2,1]","111","001","1","","","","","","",""
"","","","","","image-keyboard-response","289","241510","0.0-264.0","6102c81e911700cf7ba5f6bd","665500ab8938657b03fbdba8","66577eccd176949d79ff07a2","211","stimuli/21110012.jpg"," ","","feedback_trial","0","","","","","","","","","","","","","","","","","","","","",""
"","","","","","image-keyboard-response","290","241982","0.0-265.0","6102c81e911700cf7ba5f6bd","665500ab8938657b03fbdba8","66577eccd176949d79ff07a2","468","stimuli/0100011.jpg","0","","prediction_trial","0","","true","","0","true","true","false","true","false","true","[0]","100","011","1","","","","","","",""
"","","","","","image-keyboard-response","291","242189","0.0-266.0","6102c81e911700cf7ba5f6bd","665500ab8938657b03fbdba8","66577eccd176949d79ff07a2","205","stimuli/01000110.jpg"," ","","feedback_trial","0","","","","","","","","","","","","","","","","","","","","",""
"","","","","","image-keyboard-response","292","242752","0.0-267.0","6102c81e911700cf7ba5f6bd","665500ab8938657b03fbdba8","66577eccd176949d79ff07a2","559","stimuli/1011010.jpg","1","","prediction_trial","2","","false","","1","false","true","false","false","false","false","[2,1]","011","010","0","","","","","","",""
"","","","","","image-keyboard-response","293","242950","0.0-268.0","6102c81e911700cf7ba5f6bd","665500ab8938657b03fbdba8","66577eccd176949d79ff07a2","193","stimuli/10110102.jpg"," ","","feedback_trial","2","","","","","","","","","","","","","","","","","","","","",""
"","","","","","image-keyboard-response","294","243397","0.0-269.0","6102c81e911700cf7ba5f6bd","665500ab8938657b03fbdba8","66577eccd176949d79ff07a2","445","stimuli/0001010.jpg","0","","prediction_trial","0","","true","","0","true","true","true","true","true","true","[0]","001","010","1","","","","","","",""
"","","","","","image-keyboard-response","295","243638","0.0-270.0","6102c81e911700cf7ba5f6bd","665500ab8938657b03fbdba8","66577eccd176949d79ff07a2","237","stimuli/00010100.jpg"," ","","feedback_trial","0","","","","","","","","","","","","","","","","","","","","",""
"","","","","","image-keyboard-response","296","244352","0.0-271.0","6102c81e911700cf7ba5f6bd","665500ab8938657b03fbdba8","66577eccd176949d79ff07a2","709","stimuli/1100100.jpg","2","","prediction_trial","1","","false","","1","true","true","true","true","true","true","[1]","100","100","0","","","","","","",""
"","","","","","image-keyboard-response","297","244878","0.0-272.0","6102c81e911700cf7ba5f6bd","665500ab8938657b03fbdba8","66577eccd176949d79ff07a2","514","stimuli/11001001.jpg"," ","","feedback_trial","1","","","","","","","","","","","","","","","","","","","","",""
"","","","","","image-keyboard-response","298","245352","0.0-273.0","6102c81e911700cf7ba5f6bd","665500ab8938657b03fbdba8","66577eccd176949d79ff07a2","468","stimuli/0000001.jpg","0","","prediction_trial","0","","true","","0","true","true","true","true","true","true","[0]","000","001","1","","","","","","",""
"","","","","","image-keyboard-response","299","245593","0.0-274.0","6102c81e911700cf7ba5f6bd","665500ab8938657b03fbdba8","66577eccd176949d79ff07a2","228","stimuli/00000010.jpg"," ","","feedback_trial","0","","","","","","","","","","","","","","","","","","","","",""
"","","","","","image-keyboard-response","300","246056","0.0-275.0","6102c81e911700cf7ba5f6bd","665500ab8938657b03fbdba8","66577eccd176949d79ff07a2","451","stimuli/1110001.jpg","1","","prediction_trial","1","","true","","1","true","true","false","false","false","false","[0,1]","110","001","1","","","","","","",""
"","","","","","image-keyboard-response","301","246306","0.0-276.0","6102c81e911700cf7ba5f6bd","665500ab8938657b03fbdba8","66577eccd176949d79ff07a2","234","stimuli/11100011.jpg"," ","","feedback_trial","0","","","","","","","","","","","","","","","","","","","","",""
"","","","","","image-keyboard-response","302","246935","0.0-277.0","6102c81e911700cf7ba5f6bd","665500ab8938657b03fbdba8","66577eccd176949d79ff07a2","607","stimuli/1111000.jpg","1","","prediction_trial","2","","false","","1","true","true","false","false","false","false","[2,0,1]","111","000","0","","","","","","",""
"","","","","","image-keyboard-response","303","247118","0.0-278.0","6102c81e911700cf7ba5f6bd","665500ab8938657b03fbdba8","66577eccd176949d79ff07a2","178","stimuli/11110002.jpg"," ","","feedback_trial","2","","","","","","","","","","","","","","","","","","","","",""
"","","","","","image-keyboard-response","304","247679","0.0-279.0","6102c81e911700cf7ba5f6bd","665500ab8938657b03fbdba8","66577eccd176949d79ff07a2","558","stimuli/0110000.jpg","0","","prediction_trial","0","","true","","0","true","true","false","false","false","false","[1,0]","110","000","1","","","","","","",""
"","","","","","image-keyboard-response","305","247854","0.0-280.0","6102c81e911700cf7ba5f6bd","665500ab8938657b03fbdba8","66577eccd176949d79ff07a2","167","stimuli/01100000.jpg"," ","","feedback_trial","1","","","","","","","","","","","","","","","","","","","","",""
"","","","","","image-keyboard-response","306","248608","0.0-281.0","6102c81e911700cf7ba5f6bd","665500ab8938657b03fbdba8","66577eccd176949d79ff07a2","750","stimuli/0111101.jpg","2","","prediction_trial","0","","false","","0","false","false","false","false","false","false","[0,2,1]","111","101","0","","","","","","",""
"","","","","","image-keyboard-response","307","248774","0.0-282.0","6102c81e911700cf7ba5f6bd","665500ab8938657b03fbdba8","66577eccd176949d79ff07a2","158","stimuli/01111010.jpg"," ","","feedback_trial","0","","","","","","","","","","","","","","","","","","","","",""
"","","","","","image-keyboard-response","308","249278","0.0-283.0","6102c81e911700cf7ba5f6bd","665500ab8938657b03fbdba8","66577eccd176949d79ff07a2","501","stimuli/1000110.jpg","0","","prediction_trial","1","","false","","1","false","false","true","true","false","false","[1]","000","110","0","","","","","","",""
"","","","","","image-keyboard-response","309","249534","0.0-284.0","6102c81e911700cf7ba5f6bd","665500ab8938657b03fbdba8","66577eccd176949d79ff07a2","252","stimuli/10001101.jpg"," ","","feedback_trial","1","","","","","","","","","","","","","","","","","","","","",""
"","","","","","image-keyboard-response","310","250174","0.0-285.0","6102c81e911700cf7ba5f6bd","665500ab8938657b03fbdba8","66577eccd176949d79ff07a2","637","stimuli/1000100.jpg","1","","prediction_trial","1","","true","","1","true","true","true","true","true","true","[1]","000","100","1","","","","","","",""
"","","","","","image-keyboard-response","311","250366","0.0-286.0","6102c81e911700cf7ba5f6bd","665500ab8938657b03fbdba8","66577eccd176949d79ff07a2","188","stimuli/10001001.jpg"," ","","feedback_trial","1","","","","","","","","","","","","","","","","","","","","",""
"","","","","","image-keyboard-response","312","251030","0.0-287.0","6102c81e911700cf7ba5f6bd","665500ab8938657b03fbdba8","66577eccd176949d79ff07a2","660","stimuli/0100110.jpg","1","","prediction_trial","0","","false","","0","false","false","false","true","false","false","[0]","100","110","0","","","","","","",""
"","","","","","image-keyboard-response","313","251399","0.0-288.0","6102c81e911700cf7ba5f6bd","665500ab8938657b03fbdba8","66577eccd176949d79ff07a2","364","stimuli/01001100.jpg"," ","","feedback_trial","0","","","","","","","","","","","","","","","","","","","","",""
"","","","","","image-keyboard-response","314","252062","0.0-289.0","6102c81e911700cf7ba5f6bd","665500ab8938657b03fbdba8","66577eccd176949d79ff07a2","660","stimuli/0111001.jpg","0","","prediction_trial","0","","true","","0","true","true","false","false","false","false","[1,2,0]","111","001","1","","","","","","",""
"","","","","","image-keyboard-response","315","252302","0.0-290.0","6102c81e911700cf7ba5f6bd","665500ab8938657b03fbdba8","66577eccd176949d79ff07a2","236","stimuli/01110010.jpg"," ","","feedback_trial","1","","","","","","","","","","","","","","","","","","","","",""
"","","","","","image-keyboard-response","316","252862","0.0-291.0","6102c81e911700cf7ba5f6bd","665500ab8938657b03fbdba8","66577eccd176949d79ff07a2","556","stimuli/2000011.jpg","1","","prediction_trial","2","","false","","2","false","false","true","true","false","false","[2]","000","011","0","","","","","","",""
"","","","","","image-keyboard-response","317","253121","0.0-292.0","6102c81e911700cf7ba5f6bd","665500ab8938657b03fbdba8","66577eccd176949d79ff07a2","253","stimuli/20000112.jpg"," ","","feedback_trial","2","","","","","","","","","","","","","","","","","","","","",""
"","","","","","survey-html-form","318","268939","0.0-293.0","6102c81e911700cf7ba5f6bd","665500ab8938657b03fbdba8","66577eccd176949d79ff07a2","15813","","{""feedback"":"""",""age"":""35"",""gender"":""Male"",""other_gender"":"""",""race"":""White"",""other_race"":"""",""ethnicity"":""Non-Hispanic""}","","exit_survey","","","","","","","","","","","","","","","","","35","Non-Hispanic","Male","White","0.5555555555555556","0.5555555555555556"
