"success","timeout","failed_images","failed_audio","failed_video","trial_type","trial_index","time_elapsed","internal_node_id","prolific_id","prolific_study_id","prolific_session_id","rt","stimulus","response","view_history","trial","character_choice","stimulus_dict","accuracy","correct_response","ball_pos","ego_ball_visible","ego_can_infer","alter_ball_visible","alter_can_infer","collective_ball_visible","collective_can_infer","search_locations","alter_occluders","ego_occluders","accuracy_bool","feedback","age","ethnicity","gender","race","overall_accuracy","bonus"
"true","false","[]","[]","[]","preload","0","33250","0.0-0.0","640e4ddaf9f67c6c8ea4936b","665500ab8938657b03fbdba8","665792b645671cf5a377c950","","","","","","","","","","","","","","","","","","","","","","","","","","",""
"true","","","","","fullscreen","1","107900","0.0-1.0","640e4ddaf9f67c6c8ea4936b","665500ab8938657b03fbdba8","665792b645671cf5a377c950","","","","","","","","","","","","","","","","","","","","","","","","","","",""
"","","","","","html-button-response","2","342740","0.0-2.0","640e4ddaf9f67c6c8ea4936b","665500ab8938657b03fbdba8","665792b645671cf5a377c950","234834","<p><b>Consent Form</b></p> <div style=""text-align:left;background-color:lightgrey; padding:20px; max-width:900px;""><p>Please consider this information carefully before deciding whether to participate in this research.</p> <p>The purpose of this research is to examine which factors influence social judgment and decision-making. You will be asked to make judgements about individuals and actions in social scenarios. We are simply interested in your judgement. The study will take less than 1 hour to complete, and you will receive less than $20 on Prolific. Your compensation and time commitment are specified in the study description. There are no anticipated risks associated with participating in this study. The effects of participating should be comparable to those you would ordinarily experience from viewing a computer monitor and using a mouse or keyboard for a similar amount of time. At the end of the study, we will provide an explanation of the questions that motivate this line of research and will describe the potential implications. </p><p> Your participation in this study is completely voluntary and you may refuse to participate or you may choose to withdraw at any time without penalty or loss of benefits to you which are otherwise entitled. Your participation in this study will remain confidential. No personally identifiable information will be associated with your data. Also, all analyses of the data will be averaged across all the participants, so your individual responses will never be specifically analyzed. </p><p> If you have questions or concerns about your participation or payment, or want to request a summary of research findings, please contact Dr. Jonathan Phillips at Jonathan.S.Phillips@dartmouth.edu. </p><p> Please save a copy of this form for your records. </p><p><b>Agreement: </b>The nature and purpose of this research have been sufficiently explained and I agree to participate in this study. I understand that I am free to withdraw at any time without incurring any penalty. Please consent by clicking the button below to continue. Otherwise, please exit the study at any time. </p>","0","","","","","","","","","","","","","","","","","","","","","","","",""
"","","","","","instructions","3","463072","0.0-3.0-0.0","640e4ddaf9f67c6c8ea4936b","665500ab8938657b03fbdba8","665792b645671cf5a377c950","120330","","","[{""page_index"":0,""viewing_time"":3922},{""page_index"":1,""viewing_time"":6046},{""page_index"":2,""viewing_time"":3444},{""page_index"":3,""viewing_time"":8954},{""page_index"":4,""viewing_time"":5330},{""page_index"":5,""viewing_time"":7298},{""page_index"":6,""viewing_time"":6750},{""page_index"":7,""viewing_time"":6794},{""page_index"":8,""viewing_time"":5172},{""page_index"":9,""viewing_time"":3130},{""page_index"":10,""viewing_time"":42866},{""page_index"":11,""viewing_time"":9961},{""page_index"":12,""viewing_time"":8326},{""page_index"":13,""viewing_time"":2335}]","intro","","","","","","","","","","","","","","","","","","","","","",""
"","","","","","image-keyboard-response","4","469606","0.0-3.0-1.0","640e4ddaf9f67c6c8ea4936b","665500ab8938657b03fbdba8","665792b645671cf5a377c950","6515","stimuli/1101001.jpg","1","","prediction_practice","1","{""filepath"":""stimuli/1101001.jpg"",""ball_pos"":1,""ego_ball_visible"":true,""ego_can_infer"":true,""alter_ball_visible"":true,""alter_can_infer"":true,""collective_ball_visible"":true,""collective_can_infer"":true,""search_locations"":[1],""alter_occluders"":""101"",""ego_occluders"":""001""}","true","","","","","","","","","","","","","","","","","","",""
"","","","","","image-keyboard-response","5","471562","0.0-3.0-2.0","640e4ddaf9f67c6c8ea4936b","665500ab8938657b03fbdba8","665792b645671cf5a377c950","1953","stimuli/11010011.jpg"," ","","practrice_feedback","1","","","","","","","","","","","","","","","","","","","","",""
"","","","","","image-keyboard-response","6","474446","0.0-3.0-3.0","640e4ddaf9f67c6c8ea4936b","665500ab8938657b03fbdba8","665792b645671cf5a377c950","2882","stimuli/0100010.jpg","0","","prediction_practice","0","{""filepath"":""stimuli/0100010.jpg"",""ball_pos"":0,""ego_ball_visible"":true,""ego_can_infer"":true,""alter_ball_visible"":false,""alter_can_infer"":true,""collective_ball_visible"":false,""collective_can_infer"":true,""search_locations"":[0],""alter_occluders"":""100"",""ego_occluders"":""010""}","true","","","","","","","","","","","","","","","","","","",""
"","","","","","image-keyboard-response","7","475444","0.0-3.0-4.0","640e4ddaf9f67c6c8ea4936b","665500ab8938657b03fbdba8","665792b645671cf5a377c950","995","stimuli/01000100.jpg"," ","","practrice_feedback","0","","","","","","","","","","","","","","","","","","","","",""
"","","","","","image-keyboard-response","8","478942","0.0-3.0-5.0","640e4ddaf9f67c6c8ea4936b","665500ab8938657b03fbdba8","665792b645671cf5a377c950","3495","stimuli/1010100.jpg","1","","prediction_practice","1","{""filepath"":""stimuli/1010100.jpg"",""ball_pos"":1,""ego_ball_visible"":true,""ego_can_infer"":true,""alter_ball_visible"":false,""alter_can_infer"":true,""collective_ball_visible"":false,""collective_can_infer"":true,""search_locations"":[1],""alter_occluders"":""010"",""ego_occluders"":""100""}","true","","","","","","","","","","","","","","","","","","",""
"","","","","","image-keyboard-response","9","480135","0.0-3.0-6.0","640e4ddaf9f67c6c8ea4936b","665500ab8938657b03fbdba8","665792b645671cf5a377c950","1191","stimuli/10101001.jpg"," ","","practrice_feedback","1","","","","","","","","","","","","","","","","","","","","",""
"","","","","","image-keyboard-response","10","482190","0.0-3.0-7.0","640e4ddaf9f67c6c8ea4936b","665500ab8938657b03fbdba8","665792b645671cf5a377c950","2053","stimuli/2011010.jpg","2","","prediction_practice","1","{""filepath"":""stimuli/2011010.jpg"",""ball_pos"":2,""ego_ball_visible"":true,""ego_can_infer"":true,""alter_ball_visible"":false,""alter_can_infer"":false,""collective_ball_visible"":false,""collective_can_infer"":false,""search_locations"":[2,1],""alter_occluders"":""011"",""ego_occluders"":""010""}","false","","","","","","","","","","","","","","","","","","",""
"","","","","","image-keyboard-response","11","495769","0.0-3.0-8.0","640e4ddaf9f67c6c8ea4936b","665500ab8938657b03fbdba8","665792b645671cf5a377c950","13577","stimuli/20110101.jpg"," ","","practrice_feedback","2","","","","","","","","","","","","","","","","","","","","",""
"","","","","","image-keyboard-response","12","502565","0.0-3.0-9.0","640e4ddaf9f67c6c8ea4936b","665500ab8938657b03fbdba8","665792b645671cf5a377c950","6794","stimuli/1011011.jpg","2","","prediction_practice","2","{""filepath"":""stimuli/1011011.jpg"",""ball_pos"":1,""ego_ball_visible"":false,""ego_can_infer"":false,""alter_ball_visible"":false,""alter_can_infer"":false,""collective_ball_visible"":false,""collective_can_infer"":false,""search_locations"":[1,2],""alter_occluders"":""011"",""ego_occluders"":""011""}","true","","","","","","","","","","","","","","","","","","",""
"","","","","","image-keyboard-response","13","504123","0.0-3.0-10.0","640e4ddaf9f67c6c8ea4936b","665500ab8938657b03fbdba8","665792b645671cf5a377c950","1556","stimuli/10110112.jpg"," ","","practrice_feedback","1","","","","","","","","","","","","","","","","","","","","",""
"","","","","","image-keyboard-response","14","506910","0.0-3.0-11.0","640e4ddaf9f67c6c8ea4936b","665500ab8938657b03fbdba8","665792b645671cf5a377c950","2784","stimuli/2100110.jpg","2","","prediction_practice","2","{""filepath"":""stimuli/2100110.jpg"",""ball_pos"":2,""ego_ball_visible"":true,""ego_can_infer"":true,""alter_ball_visible"":true,""alter_can_infer"":true,""collective_ball_visible"":true,""collective_can_infer"":true,""search_locations"":[2],""alter_occluders"":""100"",""ego_occluders"":""110""}","true","","","","","","","","","","","","","","","","","","",""
"","","","","","image-keyboard-response","15","508211","0.0-3.0-12.0","640e4ddaf9f67c6c8ea4936b","665500ab8938657b03fbdba8","665792b645671cf5a377c950","1309","stimuli/21001102.jpg"," ","","practrice_feedback","2","","","","","","","","","","","","","","","","","","","","",""
"","","","","","image-keyboard-response","16","510623","0.0-3.0-13.0","640e4ddaf9f67c6c8ea4936b","665500ab8938657b03fbdba8","665792b645671cf5a377c950","2410","stimuli/2001110.jpg","2","","prediction_practice","2","{""filepath"":""stimuli/2001110.jpg"",""ball_pos"":2,""ego_ball_visible"":true,""ego_can_infer"":true,""alter_ball_visible"":false,""alter_can_infer"":true,""collective_ball_visible"":false,""collective_can_infer"":true,""search_locations"":[2],""alter_occluders"":""001"",""ego_occluders"":""110""}","true","","","","","","","","","","","","","","","","","","",""
"","","","","","image-keyboard-response","17","511941","0.0-3.0-14.0","640e4ddaf9f67c6c8ea4936b","665500ab8938657b03fbdba8","665792b645671cf5a377c950","1315","stimuli/20011102.jpg"," ","","practrice_feedback","2","","","","","","","","","","","","","","","","","","","","",""
"","","","","","image-keyboard-response","18","515635","0.0-3.0-15.0","640e4ddaf9f67c6c8ea4936b","665500ab8938657b03fbdba8","665792b645671cf5a377c950","3692","stimuli/2101001.jpg","2","","prediction_practice","2","{""filepath"":""stimuli/2101001.jpg"",""ball_pos"":2,""ego_ball_visible"":false,""ego_can_infer"":true,""alter_ball_visible"":false,""alter_can_infer"":false,""collective_ball_visible"":false,""collective_can_infer"":false,""search_locations"":[2,0],""alter_occluders"":""101"",""ego_occluders"":""001""}","true","","","","","","","","","","","","","","","","","","",""
"","","","","","image-keyboard-response","19","516949","0.0-3.0-16.0","640e4ddaf9f67c6c8ea4936b","665500ab8938657b03fbdba8","665792b645671cf5a377c950","1312","stimuli/21010012.jpg"," ","","practrice_feedback","2","","","","","","","","","","","","","","","","","","","","",""
"","","","","","image-keyboard-response","20","519047","0.0-3.0-17.0","640e4ddaf9f67c6c8ea4936b","665500ab8938657b03fbdba8","665792b645671cf5a377c950","2096","stimuli/0100001.jpg","0","","prediction_practice","0","{""filepath"":""stimuli/0100001.jpg"",""ball_pos"":0,""ego_ball_visible"":true,""ego_can_infer"":true,""alter_ball_visible"":false,""alter_can_infer"":true,""collective_ball_visible"":false,""collective_can_infer"":true,""search_locations"":[0],""alter_occluders"":""100"",""ego_occluders"":""001""}","true","","","","","","","","","","","","","","","","","","",""
"","","","","","image-keyboard-response","21","519843","0.0-3.0-18.0","640e4ddaf9f67c6c8ea4936b","665500ab8938657b03fbdba8","665792b645671cf5a377c950","793","stimuli/01000010.jpg"," ","","practrice_feedback","0","","","","","","","","","","","","","","","","","","","","",""
"","","","","","image-keyboard-response","22","521862","0.0-3.0-19.0","640e4ddaf9f67c6c8ea4936b","665500ab8938657b03fbdba8","665792b645671cf5a377c950","2017","stimuli/2100010.jpg","2","","prediction_practice","2","{""filepath"":""stimuli/2100010.jpg"",""ball_pos"":2,""ego_ball_visible"":true,""ego_can_infer"":true,""alter_ball_visible"":true,""alter_can_infer"":true,""collective_ball_visible"":true,""collective_can_infer"":true,""search_locations"":[2],""alter_occluders"":""100"",""ego_occluders"":""010""}","true","","","","","","","","","","","","","","","","","","",""
"","","","","","image-keyboard-response","23","522894","0.0-3.0-20.0","640e4ddaf9f67c6c8ea4936b","665500ab8938657b03fbdba8","665792b645671cf5a377c950","1029","stimuli/21000102.jpg"," ","","practrice_feedback","2","","","","","","","","","","","","","","","","","","","","",""
"","","","","","html-button-response","24","530660","0.0-3.0-21.0","640e4ddaf9f67c6c8ea4936b","665500ab8938657b03fbdba8","665792b645671cf5a377c950","7764","Now that you've had some practice, you'll be tested with a couple of easy trials. If you correctly predict Sam's choice, you'll move on to complete the experiment!","0","","","","","","","","","","","","","","","","","","","","","","","",""
"","","","","","image-keyboard-response","25","533157","0.0-3.0-22.0-0.0","640e4ddaf9f67c6c8ea4936b","665500ab8938657b03fbdba8","665792b645671cf5a377c950","2494","stimuli/0000011.jpg","arrowleft","","comprehension_quiz","","","true","arrowleft","","","","","","","","","","","","","","","","","",""
"","","","","","image-keyboard-response","26","534325","0.0-3.0-22.0-1.0","640e4ddaf9f67c6c8ea4936b","665500ab8938657b03fbdba8","665792b645671cf5a377c950","1165","stimuli/00000110.jpg"," ","","comprehension_quiz","","","true"," ","","","","","","","","","","","","","","","","","",""
"","","","","","image-keyboard-response","27","538047","0.0-3.0-22.0-2.0","640e4ddaf9f67c6c8ea4936b","665500ab8938657b03fbdba8","665792b645671cf5a377c950","3720","stimuli/1010010.jpg","arrowdown","","comprehension_quiz","","","true","arrowdown","","","","","","","","","","","","","","","","","",""
"","","","","","image-keyboard-response","28","539026","0.0-3.0-22.0-3.0","640e4ddaf9f67c6c8ea4936b","665500ab8938657b03fbdba8","665792b645671cf5a377c950","976","stimuli/10100101.jpg"," ","","comprehension_quiz","","","true"," ","","","","","","","","","","","","","","","","","",""
"","","","","","html-button-response","29","541820","0.0-4.0","640e4ddaf9f67c6c8ea4936b","665500ab8938657b03fbdba8","665792b645671cf5a377c950","2790","The experiment will now begin.","0","","","","","","","","","","","","","","","","","","","","","","","",""
"","","","","","image-keyboard-response","30","545005","0.0-5.0","640e4ddaf9f67c6c8ea4936b","665500ab8938657b03fbdba8","665792b645671cf5a377c950","3183","stimuli/2110001.jpg","2","","prediction_trial","2","","true","","2","false","true","true","true","false","true","[2]","110","001","1","","","","","","",""
"","","","","","image-keyboard-response","31","546151","0.0-6.0","640e4ddaf9f67c6c8ea4936b","665500ab8938657b03fbdba8","665792b645671cf5a377c950","1143","stimuli/21100012.jpg"," ","","feedback_trial","2","","","","","","","","","","","","","","","","","","","","",""
"","","","","","image-keyboard-response","32","548231","0.0-7.0","640e4ddaf9f67c6c8ea4936b","665500ab8938657b03fbdba8","665792b645671cf5a377c950","2078","stimuli/0001011.jpg","0","","prediction_trial","0","","true","","0","true","true","true","true","true","true","[0]","001","011","1","","","","","","",""
"","","","","","image-keyboard-response","33","549752","0.0-8.0","640e4ddaf9f67c6c8ea4936b","665500ab8938657b03fbdba8","665792b645671cf5a377c950","1519","stimuli/00010110.jpg"," ","","feedback_trial","0","","","","","","","","","","","","","","","","","","","","",""
"","","","","","image-keyboard-response","34","554143","0.0-9.0","640e4ddaf9f67c6c8ea4936b","665500ab8938657b03fbdba8","665792b645671cf5a377c950","4389","stimuli/1000111.jpg","1","","prediction_trial","1","","true","","1","false","false","true","true","false","false","[1]","000","111","1","","","","","","",""
"","","","","","image-keyboard-response","35","555412","0.0-10.0","640e4ddaf9f67c6c8ea4936b","665500ab8938657b03fbdba8","665792b645671cf5a377c950","1267","stimuli/10001111.jpg"," ","","feedback_trial","1","","","","","","","","","","","","","","","","","","","","",""
"","","","","","image-keyboard-response","36","556766","0.0-11.0","640e4ddaf9f67c6c8ea4936b","665500ab8938657b03fbdba8","665792b645671cf5a377c950","1352","stimuli/0001001.jpg","0","","prediction_trial","0","","true","","0","true","true","true","true","true","true","[0]","001","001","1","","","","","","",""
"","","","","","image-keyboard-response","37","557578","0.0-12.0","640e4ddaf9f67c6c8ea4936b","665500ab8938657b03fbdba8","665792b645671cf5a377c950","809","stimuli/00010010.jpg"," ","","feedback_trial","0","","","","","","","","","","","","","","","","","","","","",""
"","","","","","image-keyboard-response","38","559125","0.0-13.0","640e4ddaf9f67c6c8ea4936b","665500ab8938657b03fbdba8","665792b645671cf5a377c950","1544","stimuli/0000011.jpg","0","","prediction_trial","0","","true","","0","true","true","true","true","true","true","[0]","000","011","1","","","","","","",""
"","","","","","image-keyboard-response","39","559836","0.0-14.0","640e4ddaf9f67c6c8ea4936b","665500ab8938657b03fbdba8","665792b645671cf5a377c950","710","stimuli/00000110.jpg"," ","","feedback_trial","0","","","","","","","","","","","","","","","","","","","","",""
"","","","","","image-keyboard-response","40","564435","0.0-15.0","640e4ddaf9f67c6c8ea4936b","665500ab8938657b03fbdba8","665792b645671cf5a377c950","4596","stimuli/2011011.jpg","2","","prediction_trial","2","","true","","2","false","false","false","false","false","false","[2,1]","011","011","1","","","","","","",""
"","","","","","image-keyboard-response","41","565464","0.0-16.0","640e4ddaf9f67c6c8ea4936b","665500ab8938657b03fbdba8","665792b645671cf5a377c950","1028","stimuli/20110112.jpg"," ","","feedback_trial","2","","","","","","","","","","","","","","","","","","","","",""
"","","","","","image-keyboard-response","42","567334","0.0-17.0","640e4ddaf9f67c6c8ea4936b","665500ab8938657b03fbdba8","665792b645671cf5a377c950","1867","stimuli/2000110.jpg","2","","prediction_trial","2","","true","","2","true","true","true","true","true","true","[2]","000","110","1","","","","","","",""
"","","","","","image-keyboard-response","43","568477","0.0-18.0","640e4ddaf9f67c6c8ea4936b","665500ab8938657b03fbdba8","665792b645671cf5a377c950","1138","stimuli/20001102.jpg"," ","","feedback_trial","2","","","","","","","","","","","","","","","","","","","","",""
"","","","","","image-keyboard-response","44","570303","0.0-19.0","640e4ddaf9f67c6c8ea4936b","665500ab8938657b03fbdba8","665792b645671cf5a377c950","1824","stimuli/2000010.jpg","2","","prediction_trial","2","","true","","2","true","true","true","true","true","true","[2]","000","010","1","","","","","","",""
"","","","","","image-keyboard-response","45","571162","0.0-20.0","640e4ddaf9f67c6c8ea4936b","665500ab8938657b03fbdba8","665792b645671cf5a377c950","856","stimuli/20000102.jpg"," ","","feedback_trial","2","","","","","","","","","","","","","","","","","","","","",""
"","","","","","image-keyboard-response","46","573782","0.0-21.0","640e4ddaf9f67c6c8ea4936b","665500ab8938657b03fbdba8","665792b645671cf5a377c950","2618","stimuli/0100100.jpg","0","","prediction_trial","0","","true","","0","false","true","false","true","false","true","[0]","100","100","1","","","","","","",""
"","","","","","image-keyboard-response","47","574754","0.0-22.0","640e4ddaf9f67c6c8ea4936b","665500ab8938657b03fbdba8","665792b645671cf5a377c950","970","stimuli/01001000.jpg"," ","","feedback_trial","0","","","","","","","","","","","","","","","","","","","","",""
"","","","","","image-keyboard-response","48","578182","0.0-23.0","640e4ddaf9f67c6c8ea4936b","665500ab8938657b03fbdba8","665792b645671cf5a377c950","3425","stimuli/0011111.jpg","1","","prediction_trial","0","","false","","0","false","false","true","true","false","false","[0]","011","111","0","","","","","","",""
"","","","","","image-keyboard-response","49","579453","0.0-24.0","640e4ddaf9f67c6c8ea4936b","665500ab8938657b03fbdba8","665792b645671cf5a377c950","1269","stimuli/00111110.jpg"," ","","feedback_trial","0","","","","","","","","","","","","","","","","","","","","",""
"","","","","","image-keyboard-response","50","582786","0.0-25.0","640e4ddaf9f67c6c8ea4936b","665500ab8938657b03fbdba8","665792b645671cf5a377c950","3332","stimuli/2110111.jpg","2","","prediction_trial","2","","true","","2","false","false","true","true","false","false","[2]","110","111","1","","","","","","",""
"","","","","","image-keyboard-response","51","583592","0.0-26.0","640e4ddaf9f67c6c8ea4936b","665500ab8938657b03fbdba8","665792b645671cf5a377c950","804","stimuli/21101112.jpg"," ","","feedback_trial","2","","","","","","","","","","","","","","","","","","","","",""
"","","","","","image-keyboard-response","52","585030","0.0-27.0","640e4ddaf9f67c6c8ea4936b","665500ab8938657b03fbdba8","665792b645671cf5a377c950","1436","stimuli/2101010.jpg","2","","prediction_trial","0","","false","","2","true","true","false","false","false","false","[0,2]","101","010","0","","","","","","",""
"","","","","","image-keyboard-response","53","588605","0.0-28.0","640e4ddaf9f67c6c8ea4936b","665500ab8938657b03fbdba8","665792b645671cf5a377c950","3572","stimuli/21010100.jpg"," ","","feedback_trial","0","","","","","","","","","","","","","","","","","","","","",""
"","","","","","image-keyboard-response","54","592068","0.0-29.0","640e4ddaf9f67c6c8ea4936b","665500ab8938657b03fbdba8","665792b645671cf5a377c950","3461","stimuli/2001001.jpg","2","","prediction_trial","2","","true","","2","false","true","false","true","false","true","[2]","001","001","1","","","","","","",""
"","","","","","image-keyboard-response","55","592930","0.0-30.0","640e4ddaf9f67c6c8ea4936b","665500ab8938657b03fbdba8","665792b645671cf5a377c950","859","stimuli/20010012.jpg"," ","","feedback_trial","2","","","","","","","","","","","","","","","","","","","","",""
"","","","","","image-keyboard-response","56","598985","0.0-31.0","640e4ddaf9f67c6c8ea4936b","665500ab8938657b03fbdba8","665792b645671cf5a377c950","6054","stimuli/2011101.jpg","1","","prediction_trial","1","","true","","2","false","false","false","false","false","false","[2,1]","011","101","1","","","","","","",""
"","","","","","image-keyboard-response","57","600534","0.0-32.0","640e4ddaf9f67c6c8ea4936b","665500ab8938657b03fbdba8","665792b645671cf5a377c950","1546","stimuli/20111011.jpg"," ","","feedback_trial","2","","","","","","","","","","","","","","","","","","","","",""
"","","","","","image-keyboard-response","58","602676","0.0-33.0","640e4ddaf9f67c6c8ea4936b","665500ab8938657b03fbdba8","665792b645671cf5a377c950","2140","stimuli/2001010.jpg","2","","prediction_trial","2","","true","","2","true","true","false","true","false","true","[2]","001","010","1","","","","","","",""
"","","","","","image-keyboard-response","59","603620","0.0-34.0","640e4ddaf9f67c6c8ea4936b","665500ab8938657b03fbdba8","665792b645671cf5a377c950","941","stimuli/20010102.jpg"," ","","feedback_trial","2","","","","","","","","","","","","","","","","","","","","",""
"","","","","","image-keyboard-response","60","605179","0.0-35.0","640e4ddaf9f67c6c8ea4936b","665500ab8938657b03fbdba8","665792b645671cf5a377c950","1557","stimuli/1010101.jpg","1","","prediction_trial","1","","true","","1","true","true","false","true","false","true","[1]","010","101","1","","","","","","",""
"","","","","","image-keyboard-response","61","606136","0.0-36.0","640e4ddaf9f67c6c8ea4936b","665500ab8938657b03fbdba8","665792b645671cf5a377c950","955","stimuli/10101011.jpg"," ","","feedback_trial","1","","","","","","","","","","","","","","","","","","","","",""
"","","","","","image-keyboard-response","62","613863","0.0-37.0","640e4ddaf9f67c6c8ea4936b","665500ab8938657b03fbdba8","665792b645671cf5a377c950","7725","stimuli/2001101.jpg","1","","prediction_trial","2","","false","","2","false","false","false","true","false","false","[2]","001","101","0","","","","","","",""
"","","","","","image-keyboard-response","63","615219","0.0-38.0","640e4ddaf9f67c6c8ea4936b","665500ab8938657b03fbdba8","665792b645671cf5a377c950","1354","stimuli/20011012.jpg"," ","","feedback_trial","2","","","","","","","","","","","","","","","","","","","","",""
"","","","","","image-keyboard-response","64","616554","0.0-39.0","640e4ddaf9f67c6c8ea4936b","665500ab8938657b03fbdba8","665792b645671cf5a377c950","1333","stimuli/2011000.jpg","2","","prediction_trial","2","","true","","2","true","true","false","false","false","false","[1,2]","011","000","1","","","","","","",""
"","","","","","image-keyboard-response","65","617287","0.0-40.0","640e4ddaf9f67c6c8ea4936b","665500ab8938657b03fbdba8","665792b645671cf5a377c950","730","stimuli/20110002.jpg"," ","","feedback_trial","1","","","","","","","","","","","","","","","","","","","","",""
"","","","","","image-keyboard-response","66","620959","0.0-41.0","640e4ddaf9f67c6c8ea4936b","665500ab8938657b03fbdba8","665792b645671cf5a377c950","3670","stimuli/0011110.jpg","0","","prediction_trial","0","","true","","0","false","false","true","true","false","false","[0]","011","110","1","","","","","","",""
"","","","","","image-keyboard-response","67","621698","0.0-42.0","640e4ddaf9f67c6c8ea4936b","665500ab8938657b03fbdba8","665792b645671cf5a377c950","737","stimuli/00111100.jpg"," ","","feedback_trial","0","","","","","","","","","","","","","","","","","","","","",""
"","","","","","image-keyboard-response","68","623350","0.0-43.0","640e4ddaf9f67c6c8ea4936b","665500ab8938657b03fbdba8","665792b645671cf5a377c950","1650","stimuli/1101000.jpg","1","","prediction_trial","1","","true","","1","true","true","true","true","true","true","[1]","101","000","1","","","","","","",""
"","","","","","image-keyboard-response","69","624099","0.0-44.0","640e4ddaf9f67c6c8ea4936b","665500ab8938657b03fbdba8","665792b645671cf5a377c950","747","stimuli/11010001.jpg"," ","","feedback_trial","1","","","","","","","","","","","","","","","","","","","","",""
"","","","","","image-keyboard-response","70","625778","0.0-45.0","640e4ddaf9f67c6c8ea4936b","665500ab8938657b03fbdba8","665792b645671cf5a377c950","1677","stimuli/1111100.jpg","1","","prediction_trial","0","","false","","1","true","true","false","false","false","false","[0,1,2]","111","100","0","","","","","","",""
"","","","","","image-keyboard-response","71","628266","0.0-46.0","640e4ddaf9f67c6c8ea4936b","665500ab8938657b03fbdba8","665792b645671cf5a377c950","2485","stimuli/11111000.jpg"," ","","feedback_trial","0","","","","","","","","","","","","","","","","","","","","",""
"","","","","","image-keyboard-response","72","633558","0.0-47.0","640e4ddaf9f67c6c8ea4936b","665500ab8938657b03fbdba8","665792b645671cf5a377c950","5295","stimuli/0111111.jpg","1","","prediction_trial","0","","false","","0","false","false","false","false","false","false","[1,2,0]","111","111","0","","","","","","",""
"","","","","","image-keyboard-response","73","634302","0.0-48.0","640e4ddaf9f67c6c8ea4936b","665500ab8938657b03fbdba8","665792b645671cf5a377c950","741","stimuli/01111110.jpg"," ","","feedback_trial","1","","","","","","","","","","","","","","","","","","","","",""
"","","","","","image-keyboard-response","74","636206","0.0-49.0","640e4ddaf9f67c6c8ea4936b","665500ab8938657b03fbdba8","665792b645671cf5a377c950","1902","stimuli/0100111.jpg","0","","prediction_trial","0","","true","","0","false","false","false","true","false","false","[0]","100","111","1","","","","","","",""
"","","","","","image-keyboard-response","75","637000","0.0-50.0","640e4ddaf9f67c6c8ea4936b","665500ab8938657b03fbdba8","665792b645671cf5a377c950","792","stimuli/01001110.jpg"," ","","feedback_trial","0","","","","","","","","","","","","","","","","","","","","",""
"","","","","","image-keyboard-response","76","638537","0.0-51.0","640e4ddaf9f67c6c8ea4936b","665500ab8938657b03fbdba8","665792b645671cf5a377c950","1535","stimuli/1011101.jpg","1","","prediction_trial","1","","true","","1","true","true","false","false","false","false","[2,1]","011","101","1","","","","","","",""
"","","","","","image-keyboard-response","77","639211","0.0-52.0","640e4ddaf9f67c6c8ea4936b","665500ab8938657b03fbdba8","665792b645671cf5a377c950","672","stimuli/10111011.jpg"," ","","feedback_trial","2","","","","","","","","","","","","","","","","","","","","",""
"","","","","","image-keyboard-response","78","641517","0.0-53.0","640e4ddaf9f67c6c8ea4936b","665500ab8938657b03fbdba8","665792b645671cf5a377c950","2303","stimuli/1101010.jpg","1","","prediction_trial","1","","true","","1","false","true","true","true","false","true","[1]","101","010","1","","","","","","",""
"","","","","","image-keyboard-response","79","642297","0.0-54.0","640e4ddaf9f67c6c8ea4936b","665500ab8938657b03fbdba8","665792b645671cf5a377c950","778","stimuli/11010101.jpg"," ","","feedback_trial","1","","","","","","","","","","","","","","","","","","","","",""
"","","","","","image-keyboard-response","80","643629","0.0-55.0","640e4ddaf9f67c6c8ea4936b","665500ab8938657b03fbdba8","665792b645671cf5a377c950","1316","stimuli/0010001.jpg","0","","prediction_trial","0","","true","","0","true","true","true","true","true","true","[0]","010","001","1","","","","","","",""
"","","","","","image-keyboard-response","81","644374","0.0-56.0","640e4ddaf9f67c6c8ea4936b","665500ab8938657b03fbdba8","665792b645671cf5a377c950","743","stimuli/00100010.jpg"," ","","feedback_trial","0","","","","","","","","","","","","","","","","","","","","",""
"","","","","","image-keyboard-response","82","646428","0.0-57.0","640e4ddaf9f67c6c8ea4936b","665500ab8938657b03fbdba8","665792b645671cf5a377c950","2052","stimuli/2110011.jpg","2","","prediction_trial","2","","true","","2","false","false","true","true","false","false","[2]","110","011","1","","","","","","",""
"","","","","","image-keyboard-response","83","647415","0.0-58.0","640e4ddaf9f67c6c8ea4936b","665500ab8938657b03fbdba8","665792b645671cf5a377c950","986","stimuli/21100112.jpg"," ","","feedback_trial","2","","","","","","","","","","","","","","","","","","","","",""
"","","","","","image-keyboard-response","84","650272","0.0-59.0","640e4ddaf9f67c6c8ea4936b","665500ab8938657b03fbdba8","665792b645671cf5a377c950","2855","stimuli/2101001.jpg","2","","prediction_trial","2","","true","","2","false","true","false","false","false","false","[2,0]","101","001","1","","","","","","",""
"","","","","","image-keyboard-response","85","651844","0.0-60.0","640e4ddaf9f67c6c8ea4936b","665500ab8938657b03fbdba8","665792b645671cf5a377c950","1570","stimuli/21010012.jpg"," ","","feedback_trial","2","","","","","","","","","","","","","","","","","","","","",""
"","","","","","image-keyboard-response","86","654051","0.0-61.0","640e4ddaf9f67c6c8ea4936b","665500ab8938657b03fbdba8","665792b645671cf5a377c950","2205","stimuli/1001001.jpg","1","","prediction_trial","1","","true","","1","true","true","true","true","true","true","[1]","001","001","1","","","","","","",""
"","","","","","image-keyboard-response","87","654660","0.0-62.0","640e4ddaf9f67c6c8ea4936b","665500ab8938657b03fbdba8","665792b645671cf5a377c950","606","stimuli/10010011.jpg"," ","","feedback_trial","1","","","","","","","","","","","","","","","","","","","","",""
"","","","","","image-keyboard-response","88","657521","0.0-63.0","640e4ddaf9f67c6c8ea4936b","665500ab8938657b03fbdba8","665792b645671cf5a377c950","2860","stimuli/1001010.jpg","1","","prediction_trial","1","","true","","1","false","true","true","true","false","true","[1]","001","010","1","","","","","","",""
"","","","","","image-keyboard-response","89","658841","0.0-64.0","640e4ddaf9f67c6c8ea4936b","665500ab8938657b03fbdba8","665792b645671cf5a377c950","1317","stimuli/10010101.jpg"," ","","feedback_trial","1","","","","","","","","","","","","","","","","","","","","",""
"","","","","","image-keyboard-response","90","662444","0.0-65.0","640e4ddaf9f67c6c8ea4936b","665500ab8938657b03fbdba8","665792b645671cf5a377c950","3601","stimuli/1110111.jpg","2","","prediction_trial","1","","false","","1","false","false","false","false","false","false","[1,0]","110","111","0","","","","","","",""
"","","","","","image-keyboard-response","91","664852","0.0-66.0","640e4ddaf9f67c6c8ea4936b","665500ab8938657b03fbdba8","665792b645671cf5a377c950","2406","stimuli/11101111.jpg"," ","","feedback_trial","1","","","","","","","","","","","","","","","","","","","","",""
"","","","","","image-keyboard-response","92","667762","0.0-67.0","640e4ddaf9f67c6c8ea4936b","665500ab8938657b03fbdba8","665792b645671cf5a377c950","2908","stimuli/0001101.jpg","1","","prediction_trial","0","","false","","0","false","false","true","true","false","false","[0]","001","101","0","","","","","","",""
"","","","","","image-keyboard-response","93","668649","0.0-68.0","640e4ddaf9f67c6c8ea4936b","665500ab8938657b03fbdba8","665792b645671cf5a377c950","884","stimuli/00011010.jpg"," ","","feedback_trial","0","","","","","","","","","","","","","","","","","","","","",""
"","","","","","image-keyboard-response","94","669824","0.0-69.0","640e4ddaf9f67c6c8ea4936b","665500ab8938657b03fbdba8","665792b645671cf5a377c950","1172","stimuli/0110010.jpg","0","","prediction_trial","1","","false","","0","true","true","false","false","false","false","[1,0]","110","010","0","","","","","","",""
"","","","","","image-keyboard-response","95","671029","0.0-70.0","640e4ddaf9f67c6c8ea4936b","665500ab8938657b03fbdba8","665792b645671cf5a377c950","1203","stimuli/01100101.jpg"," ","","feedback_trial","1","","","","","","","","","","","","","","","","","","","","",""
"","","","","","image-keyboard-response","96","672351","0.0-71.0","640e4ddaf9f67c6c8ea4936b","665500ab8938657b03fbdba8","665792b645671cf5a377c950","1319","stimuli/0011010.jpg","0","","prediction_trial","0","","true","","0","true","true","true","true","true","true","[0]","011","010","1","","","","","","",""
"","","","","","image-keyboard-response","97","673007","0.0-72.0","640e4ddaf9f67c6c8ea4936b","665500ab8938657b03fbdba8","665792b645671cf5a377c950","654","stimuli/00110100.jpg"," ","","feedback_trial","0","","","","","","","","","","","","","","","","","","","","",""
"","","","","","image-keyboard-response","98","674432","0.0-73.0","640e4ddaf9f67c6c8ea4936b","665500ab8938657b03fbdba8","665792b645671cf5a377c950","1423","stimuli/1100100.jpg","1","","prediction_trial","1","","true","","1","true","true","true","true","true","true","[1]","100","100","1","","","","","","",""
"","","","","","image-keyboard-response","99","675144","0.0-74.0","640e4ddaf9f67c6c8ea4936b","665500ab8938657b03fbdba8","665792b645671cf5a377c950","710","stimuli/11001001.jpg"," ","","feedback_trial","1","","","","","","","","","","","","","","","","","","","","",""
"","","","","","image-keyboard-response","100","678160","0.0-75.0","640e4ddaf9f67c6c8ea4936b","665500ab8938657b03fbdba8","665792b645671cf5a377c950","3014","stimuli/0111001.jpg","0","","prediction_trial","0","","true","","0","true","true","false","false","false","false","[0,1,2]","111","001","1","","","","","","",""
"","","","","","image-keyboard-response","101","679052","0.0-76.0","640e4ddaf9f67c6c8ea4936b","665500ab8938657b03fbdba8","665792b645671cf5a377c950","890","stimuli/01110010.jpg"," ","","feedback_trial","0","","","","","","","","","","","","","","","","","","","","",""
"","","","","","image-keyboard-response","102","683609","0.0-77.0","640e4ddaf9f67c6c8ea4936b","665500ab8938657b03fbdba8","665792b645671cf5a377c950","4555","stimuli/1100111.jpg","0","","prediction_trial","1","","false","","1","false","false","true","true","false","false","[1]","100","111","0","","","","","","",""
"","","","","","image-keyboard-response","103","684342","0.0-78.0","640e4ddaf9f67c6c8ea4936b","665500ab8938657b03fbdba8","665792b645671cf5a377c950","730","stimuli/11001111.jpg"," ","","feedback_trial","1","","","","","","","","","","","","","","","","","","","","",""
"","","","","","image-keyboard-response","104","686115","0.0-79.0","640e4ddaf9f67c6c8ea4936b","665500ab8938657b03fbdba8","665792b645671cf5a377c950","1772","stimuli/2010111.jpg","1","","prediction_trial","2","","false","","2","false","false","true","true","false","false","[2]","010","111","0","","","","","","",""
"","","","","","image-keyboard-response","105","686969","0.0-80.0","640e4ddaf9f67c6c8ea4936b","665500ab8938657b03fbdba8","665792b645671cf5a377c950","852","stimuli/20101112.jpg"," ","","feedback_trial","2","","","","","","","","","","","","","","","","","","","","",""
"","","","","","image-keyboard-response","106","689820","0.0-81.0","640e4ddaf9f67c6c8ea4936b","665500ab8938657b03fbdba8","665792b645671cf5a377c950","2849","stimuli/0010101.jpg","1","","prediction_trial","0","","false","","0","false","false","true","true","false","false","[0]","010","101","0","","","","","","",""
"","","","","","image-keyboard-response","107","691667","0.0-82.0","640e4ddaf9f67c6c8ea4936b","665500ab8938657b03fbdba8","665792b645671cf5a377c950","1844","stimuli/00101010.jpg"," ","","feedback_trial","0","","","","","","","","","","","","","","","","","","","","",""
"","","","","","image-keyboard-response","108","694655","0.0-83.0","640e4ddaf9f67c6c8ea4936b","665500ab8938657b03fbdba8","665792b645671cf5a377c950","2985","stimuli/2111101.jpg","2","","prediction_trial","0","","false","","2","false","false","false","false","false","false","[2,1,0]","111","101","0","","","","","","",""
"","","","","","image-keyboard-response","109","695516","0.0-84.0","640e4ddaf9f67c6c8ea4936b","665500ab8938657b03fbdba8","665792b645671cf5a377c950","859","stimuli/21111010.jpg"," ","","feedback_trial","2","","","","","","","","","","","","","","","","","","","","",""
"","","","","","image-keyboard-response","110","697488","0.0-85.0","640e4ddaf9f67c6c8ea4936b","665500ab8938657b03fbdba8","665792b645671cf5a377c950","1970","stimuli/1000110.jpg","0","","prediction_trial","1","","false","","1","false","false","true","true","false","false","[1]","000","110","0","","","","","","",""
"","","","","","image-keyboard-response","111","698774","0.0-86.0","640e4ddaf9f67c6c8ea4936b","665500ab8938657b03fbdba8","665792b645671cf5a377c950","1283","stimuli/10001101.jpg"," ","","feedback_trial","1","","","","","","","","","","","","","","","","","","","","",""
"","","","","","image-keyboard-response","112","700079","0.0-87.0","640e4ddaf9f67c6c8ea4936b","665500ab8938657b03fbdba8","665792b645671cf5a377c950","1302","stimuli/0010010.jpg","0","","prediction_trial","0","","true","","0","true","true","true","true","true","true","[0]","010","010","1","","","","","","",""
"","","","","","image-keyboard-response","113","700778","0.0-88.0","640e4ddaf9f67c6c8ea4936b","665500ab8938657b03fbdba8","665792b645671cf5a377c950","697","stimuli/00100100.jpg"," ","","feedback_trial","0","","","","","","","","","","","","","","","","","","","","",""
"","","","","","image-keyboard-response","114","702985","0.0-89.0","640e4ddaf9f67c6c8ea4936b","665500ab8938657b03fbdba8","665792b645671cf5a377c950","2205","stimuli/1011110.jpg","0","","prediction_trial","1","","false","","1","false","false","false","false","false","false","[1,2]","011","110","0","","","","","","",""
"","","","","","image-keyboard-response","115","703719","0.0-90.0","640e4ddaf9f67c6c8ea4936b","665500ab8938657b03fbdba8","665792b645671cf5a377c950","731","stimuli/10111101.jpg"," ","","feedback_trial","1","","","","","","","","","","","","","","","","","","","","",""
"","","","","","image-keyboard-response","116","705150","0.0-91.0","640e4ddaf9f67c6c8ea4936b","665500ab8938657b03fbdba8","665792b645671cf5a377c950","1429","stimuli/0000000.jpg","0","","prediction_trial","0","","true","","0","true","true","true","true","true","true","[0]","000","000","1","","","","","","",""
"","","","","","image-keyboard-response","117","706133","0.0-92.0","640e4ddaf9f67c6c8ea4936b","665500ab8938657b03fbdba8","665792b645671cf5a377c950","980","stimuli/00000000.jpg"," ","","feedback_trial","0","","","","","","","","","","","","","","","","","","","","",""
"","","","","","image-keyboard-response","118","707319","0.0-93.0","640e4ddaf9f67c6c8ea4936b","665500ab8938657b03fbdba8","665792b645671cf5a377c950","1184","stimuli/2100110.jpg","2","","prediction_trial","2","","true","","2","true","true","true","true","true","true","[2]","100","110","1","","","","","","",""
"","","","","","image-keyboard-response","119","708437","0.0-94.0","640e4ddaf9f67c6c8ea4936b","665500ab8938657b03fbdba8","665792b645671cf5a377c950","1116","stimuli/21001102.jpg"," ","","feedback_trial","2","","","","","","","","","","","","","","","","","","","","",""
"","","","","","image-keyboard-response","120","709784","0.0-95.0","640e4ddaf9f67c6c8ea4936b","665500ab8938657b03fbdba8","665792b645671cf5a377c950","1344","stimuli/2001100.jpg","2","","prediction_trial","2","","true","","2","true","true","false","true","false","true","[2]","001","100","1","","","","","","",""
"","","","","","image-keyboard-response","121","710502","0.0-96.0","640e4ddaf9f67c6c8ea4936b","665500ab8938657b03fbdba8","665792b645671cf5a377c950","716","stimuli/20011002.jpg"," ","","feedback_trial","2","","","","","","","","","","","","","","","","","","","","",""
"","","","","","image-keyboard-response","122","714618","0.0-97.0","640e4ddaf9f67c6c8ea4936b","665500ab8938657b03fbdba8","665792b645671cf5a377c950","4114","stimuli/0011100.jpg","0","","prediction_trial","0","","true","","0","false","true","true","true","false","true","[0]","011","100","1","","","","","","",""
"","","","","","image-keyboard-response","123","715292","0.0-98.0","640e4ddaf9f67c6c8ea4936b","665500ab8938657b03fbdba8","665792b645671cf5a377c950","672","stimuli/00111000.jpg"," ","","feedback_trial","0","","","","","","","","","","","","","","","","","","","","",""
"","","","","","image-keyboard-response","124","716562","0.0-99.0","640e4ddaf9f67c6c8ea4936b","665500ab8938657b03fbdba8","665792b645671cf5a377c950","1268","stimuli/1111000.jpg","1","","prediction_trial","2","","false","","1","true","true","false","false","false","false","[0,1,2]","111","000","0","","","","","","",""
"","","","","","image-keyboard-response","125","717539","0.0-100.0","640e4ddaf9f67c6c8ea4936b","665500ab8938657b03fbdba8","665792b645671cf5a377c950","974","stimuli/11110002.jpg"," ","","feedback_trial","0","","","","","","","","","","","","","","","","","","","","",""
"","","","","","image-keyboard-response","126","718766","0.0-101.0","640e4ddaf9f67c6c8ea4936b","665500ab8938657b03fbdba8","665792b645671cf5a377c950","1225","stimuli/0110001.jpg","0","","prediction_trial","1","","false","","0","true","true","false","false","false","false","[0,1]","110","001","0","","","","","","",""
"","","","","","image-keyboard-response","127","719549","0.0-102.0","640e4ddaf9f67c6c8ea4936b","665500ab8938657b03fbdba8","665792b645671cf5a377c950","780","stimuli/01100011.jpg"," ","","feedback_trial","0","","","","","","","","","","","","","","","","","","","","",""
"","","","","","image-keyboard-response","128","721621","0.0-103.0","640e4ddaf9f67c6c8ea4936b","665500ab8938657b03fbdba8","665792b645671cf5a377c950","2070","stimuli/2100001.jpg","2","","prediction_trial","2","","true","","2","false","true","true","true","false","true","[2]","100","001","1","","","","","","",""
"","","","","","image-keyboard-response","129","722402","0.0-104.0","640e4ddaf9f67c6c8ea4936b","665500ab8938657b03fbdba8","665792b645671cf5a377c950","779","stimuli/21000012.jpg"," ","","feedback_trial","2","","","","","","","","","","","","","","","","","","","","",""
"","","","","","image-keyboard-response","130","725141","0.0-105.0","640e4ddaf9f67c6c8ea4936b","665500ab8938657b03fbdba8","665792b645671cf5a377c950","2737","stimuli/2010011.jpg","2","","prediction_trial","2","","true","","2","false","false","true","true","false","false","[2]","010","011","1","","","","","","",""
"","","","","","image-keyboard-response","131","726132","0.0-106.0","640e4ddaf9f67c6c8ea4936b","665500ab8938657b03fbdba8","665792b645671cf5a377c950","988","stimuli/20100112.jpg"," ","","feedback_trial","2","","","","","","","","","","","","","","","","","","","","",""
"","","","","","image-keyboard-response","132","729852","0.0-107.0","640e4ddaf9f67c6c8ea4936b","665500ab8938657b03fbdba8","665792b645671cf5a377c950","3719","stimuli/2101111.jpg","1","","prediction_trial","0","","false","","2","false","false","false","false","false","false","[2,0]","101","111","0","","","","","","",""
"","","","","","image-keyboard-response","133","731611","0.0-108.0","640e4ddaf9f67c6c8ea4936b","665500ab8938657b03fbdba8","665792b645671cf5a377c950","1757","stimuli/21011110.jpg"," ","","feedback_trial","2","","","","","","","","","","","","","","","","","","","","",""
"","","","","","image-keyboard-response","134","733498","0.0-109.0","640e4ddaf9f67c6c8ea4936b","665500ab8938657b03fbdba8","665792b645671cf5a377c950","1885","stimuli/1111110.jpg","0","","prediction_trial","2","","false","","1","false","false","false","false","false","false","[1,0,2]","111","110","0","","","","","","",""
"","","","","","image-keyboard-response","135","734135","0.0-110.0","640e4ddaf9f67c6c8ea4936b","665500ab8938657b03fbdba8","665792b645671cf5a377c950","635","stimuli/11111102.jpg"," ","","feedback_trial","1","","","","","","","","","","","","","","","","","","","","",""
"","","","","","image-keyboard-response","136","735446","0.0-111.0","640e4ddaf9f67c6c8ea4936b","665500ab8938657b03fbdba8","665792b645671cf5a377c950","1308","stimuli/1111101.jpg","1","","prediction_trial","1","","true","","1","true","true","false","false","false","false","[0,2,1]","111","101","1","","","","","","",""
"","","","","","image-keyboard-response","137","736188","0.0-112.0","640e4ddaf9f67c6c8ea4936b","665500ab8938657b03fbdba8","665792b645671cf5a377c950","740","stimuli/11111011.jpg"," ","","feedback_trial","0","","","","","","","","","","","","","","","","","","","","",""
"","","","","","image-keyboard-response","138","739828","0.0-113.0","640e4ddaf9f67c6c8ea4936b","665500ab8938657b03fbdba8","665792b645671cf5a377c950","3638","stimuli/0000111.jpg","0","","prediction_trial","0","","true","","0","false","false","true","true","false","false","[0]","000","111","1","","","","","","",""
"","","","","","image-keyboard-response","139","741099","0.0-114.0","640e4ddaf9f67c6c8ea4936b","665500ab8938657b03fbdba8","665792b645671cf5a377c950","1269","stimuli/00001110.jpg"," ","","feedback_trial","0","","","","","","","","","","","","","","","","","","","","",""
"","","","","","image-keyboard-response","140","742442","0.0-115.0","640e4ddaf9f67c6c8ea4936b","665500ab8938657b03fbdba8","665792b645671cf5a377c950","1341","stimuli/0010000.jpg","0","","prediction_trial","0","","true","","0","true","true","true","true","true","true","[0]","010","000","1","","","","","","",""
"","","","","","image-keyboard-response","141","743145","0.0-116.0","640e4ddaf9f67c6c8ea4936b","665500ab8938657b03fbdba8","665792b645671cf5a377c950","700","stimuli/00100000.jpg"," ","","feedback_trial","0","","","","","","","","","","","","","","","","","","","","",""
"","","","","","image-keyboard-response","142","745028","0.0-117.0","640e4ddaf9f67c6c8ea4936b","665500ab8938657b03fbdba8","665792b645671cf5a377c950","1880","stimuli/1111111.jpg","1","","prediction_trial","0","","false","","1","false","false","false","false","false","false","[1,0,2]","111","111","0","","","","","","",""
"","","","","","image-keyboard-response","143","745998","0.0-118.0","640e4ddaf9f67c6c8ea4936b","665500ab8938657b03fbdba8","665792b645671cf5a377c950","967","stimuli/11111110.jpg"," ","","feedback_trial","1","","","","","","","","","","","","","","","","","","","","",""
"","","","","","image-keyboard-response","144","747281","0.0-119.0","640e4ddaf9f67c6c8ea4936b","665500ab8938657b03fbdba8","665792b645671cf5a377c950","1281","stimuli/2010010.jpg","2","","prediction_trial","2","","true","","2","true","true","true","true","true","true","[2]","010","010","1","","","","","","",""
"","","","","","image-keyboard-response","145","748040","0.0-120.0","640e4ddaf9f67c6c8ea4936b","665500ab8938657b03fbdba8","665792b645671cf5a377c950","757","stimuli/20100102.jpg"," ","","feedback_trial","2","","","","","","","","","","","","","","","","","","","","",""
"","","","","","image-keyboard-response","146","749255","0.0-121.0","640e4ddaf9f67c6c8ea4936b","665500ab8938657b03fbdba8","665792b645671cf5a377c950","1213","stimuli/0010011.jpg","0","","prediction_trial","0","","true","","0","true","true","true","true","true","true","[0]","010","011","1","","","","","","",""
"","","","","","image-keyboard-response","147","749870","0.0-122.0","640e4ddaf9f67c6c8ea4936b","665500ab8938657b03fbdba8","665792b645671cf5a377c950","612","stimuli/00100110.jpg"," ","","feedback_trial","0","","","","","","","","","","","","","","","","","","","","",""
"","","","","","image-keyboard-response","148","751007","0.0-123.0","640e4ddaf9f67c6c8ea4936b","665500ab8938657b03fbdba8","665792b645671cf5a377c950","1133","stimuli/1011000.jpg","1","","prediction_trial","1","","true","","1","true","true","false","false","false","false","[2,1]","011","000","1","","","","","","",""
"","","","","","image-keyboard-response","149","751713","0.0-124.0","640e4ddaf9f67c6c8ea4936b","665500ab8938657b03fbdba8","665792b645671cf5a377c950","704","stimuli/10110001.jpg"," ","","feedback_trial","2","","","","","","","","","","","","","","","","","","","","",""
"","","","","","image-keyboard-response","150","752813","0.0-125.0","640e4ddaf9f67c6c8ea4936b","665500ab8938657b03fbdba8","665792b645671cf5a377c950","1098","stimuli/2100010.jpg","2","","prediction_trial","2","","true","","2","true","true","true","true","true","true","[2]","100","010","1","","","","","","",""
"","","","","","image-keyboard-response","151","753533","0.0-126.0","640e4ddaf9f67c6c8ea4936b","665500ab8938657b03fbdba8","665792b645671cf5a377c950","716","stimuli/21000102.jpg"," ","","feedback_trial","2","","","","","","","","","","","","","","","","","","","","",""
"","","","","","image-keyboard-response","152","756520","0.0-127.0","640e4ddaf9f67c6c8ea4936b","665500ab8938657b03fbdba8","665792b645671cf5a377c950","2977","stimuli/0001111.jpg","1","","prediction_trial","0","","false","","0","false","false","true","true","false","false","[0]","001","111","0","","","","","","",""
"","","","","","image-keyboard-response","153","758060","0.0-128.0","640e4ddaf9f67c6c8ea4936b","665500ab8938657b03fbdba8","665792b645671cf5a377c950","1536","stimuli/00011110.jpg"," ","","feedback_trial","0","","","","","","","","","","","","","","","","","","","","",""
"","","","","","image-keyboard-response","154","759228","0.0-129.0","640e4ddaf9f67c6c8ea4936b","665500ab8938657b03fbdba8","665792b645671cf5a377c950","1166","stimuli/1010001.jpg","1","","prediction_trial","1","","true","","1","true","true","false","true","false","true","[1]","010","001","1","","","","","","",""
"","","","","","image-keyboard-response","155","760362","0.0-130.0","640e4ddaf9f67c6c8ea4936b","665500ab8938657b03fbdba8","665792b645671cf5a377c950","1131","stimuli/10100011.jpg"," ","","feedback_trial","1","","","","","","","","","","","","","","","","","","","","",""
"","","","","","image-keyboard-response","156","764129","0.0-131.0","640e4ddaf9f67c6c8ea4936b","665500ab8938657b03fbdba8","665792b645671cf5a377c950","3765","stimuli/1011010.jpg","1","","prediction_trial","1","","true","","1","false","true","false","false","false","false","[2,1]","011","010","1","","","","","","",""
"","","","","","image-keyboard-response","157","765314","0.0-132.0","640e4ddaf9f67c6c8ea4936b","665500ab8938657b03fbdba8","665792b645671cf5a377c950","1179","stimuli/10110101.jpg"," ","","feedback_trial","2","","","","","","","","","","","","","","","","","","","","",""
"","","","","","image-keyboard-response","158","766704","0.0-133.0","640e4ddaf9f67c6c8ea4936b","665500ab8938657b03fbdba8","665792b645671cf5a377c950","1387","stimuli/0101110.jpg","2","","prediction_trial","2","","true","","0","false","false","false","false","false","false","[0,2]","101","110","1","","","","","","",""
"","","","","","image-keyboard-response","159","767758","0.0-134.0","640e4ddaf9f67c6c8ea4936b","665500ab8938657b03fbdba8","665792b645671cf5a377c950","1050","stimuli/01011102.jpg"," ","","feedback_trial","0","","","","","","","","","","","","","","","","","","","","",""
"","","","","","image-keyboard-response","160","768985","0.0-135.0","640e4ddaf9f67c6c8ea4936b","665500ab8938657b03fbdba8","665792b645671cf5a377c950","1224","stimuli/1110000.jpg","1","","prediction_trial","0","","false","","1","true","true","false","false","false","false","[0,1]","110","000","0","","","","","","",""
"","","","","","image-keyboard-response","161","769924","0.0-136.0","640e4ddaf9f67c6c8ea4936b","665500ab8938657b03fbdba8","665792b645671cf5a377c950","936","stimuli/11100000.jpg"," ","","feedback_trial","0","","","","","","","","","","","","","","","","","","","","",""
"","","","","","image-keyboard-response","162","771753","0.0-137.0","640e4ddaf9f67c6c8ea4936b","665500ab8938657b03fbdba8","665792b645671cf5a377c950","1826","stimuli/2100100.jpg","2","","prediction_trial","2","","true","","2","true","true","true","true","true","true","[2]","100","100","1","","","","","","",""
"","","","","","image-keyboard-response","163","777205","0.0-138.0","640e4ddaf9f67c6c8ea4936b","665500ab8938657b03fbdba8","665792b645671cf5a377c950","5449","stimuli/21001002.jpg"," ","","feedback_trial","2","","","","","","","","","","","","","","","","","","","","",""
"","","","","","image-keyboard-response","164","778376","0.0-139.0","640e4ddaf9f67c6c8ea4936b","665500ab8938657b03fbdba8","665792b645671cf5a377c950","1168","stimuli/2001110.jpg","2","","prediction_trial","2","","true","","2","true","true","false","true","false","true","[2]","001","110","1","","","","","","",""
"","","","","","image-keyboard-response","165","778945","0.0-140.0","640e4ddaf9f67c6c8ea4936b","665500ab8938657b03fbdba8","665792b645671cf5a377c950","566","stimuli/20011102.jpg"," ","","feedback_trial","2","","","","","","","","","","","","","","","","","","","","",""
"","","","","","image-keyboard-response","166","783450","0.0-141.0","640e4ddaf9f67c6c8ea4936b","665500ab8938657b03fbdba8","665792b645671cf5a377c950","4502","stimuli/0011101.jpg","0","","prediction_trial","0","","true","","0","false","false","true","true","false","false","[0]","011","101","1","","","","","","",""
"","","","","","image-keyboard-response","167","784526","0.0-142.0","640e4ddaf9f67c6c8ea4936b","665500ab8938657b03fbdba8","665792b645671cf5a377c950","1069","stimuli/00111010.jpg"," ","","feedback_trial","0","","","","","","","","","","","","","","","","","","","","",""
"","","","","","image-keyboard-response","168","785731","0.0-143.0","640e4ddaf9f67c6c8ea4936b","665500ab8938657b03fbdba8","665792b645671cf5a377c950","1202","stimuli/0100010.jpg","0","","prediction_trial","0","","true","","0","true","true","false","true","false","true","[0]","100","010","1","","","","","","",""
"","","","","","image-keyboard-response","169","786303","0.0-144.0","640e4ddaf9f67c6c8ea4936b","665500ab8938657b03fbdba8","665792b645671cf5a377c950","569","stimuli/01000100.jpg"," ","","feedback_trial","0","","","","","","","","","","","","","","","","","","","","",""
"","","","","","image-keyboard-response","170","787391","0.0-145.0","640e4ddaf9f67c6c8ea4936b","665500ab8938657b03fbdba8","665792b645671cf5a377c950","1085","stimuli/2001000.jpg","2","","prediction_trial","2","","true","","2","true","true","false","true","false","true","[2]","001","000","1","","","","","","",""
"","","","","","image-keyboard-response","171","788187","0.0-146.0","640e4ddaf9f67c6c8ea4936b","665500ab8938657b03fbdba8","665792b645671cf5a377c950","793","stimuli/20010002.jpg"," ","","feedback_trial","2","","","","","","","","","","","","","","","","","","","","",""
"","","","","","image-keyboard-response","172","791180","0.0-147.0","640e4ddaf9f67c6c8ea4936b","665500ab8938657b03fbdba8","665792b645671cf5a377c950","2991","stimuli/0110100.jpg","1","","prediction_trial","0","","false","","0","false","true","false","false","false","false","[1,0]","110","100","0","","","","","","",""
"","","","","","image-keyboard-response","173","792431","0.0-148.0","640e4ddaf9f67c6c8ea4936b","665500ab8938657b03fbdba8","665792b645671cf5a377c950","1248","stimuli/01101000.jpg"," ","","feedback_trial","1","","","","","","","","","","","","","","","","","","","","",""
"","","","","","image-keyboard-response","174","794084","0.0-149.0","640e4ddaf9f67c6c8ea4936b","665500ab8938657b03fbdba8","665792b645671cf5a377c950","1651","stimuli/2000011.jpg","2","","prediction_trial","2","","true","","2","false","false","true","true","false","false","[2]","000","011","1","","","","","","",""
"","","","","","image-keyboard-response","175","794922","0.0-150.0","640e4ddaf9f67c6c8ea4936b","665500ab8938657b03fbdba8","665792b645671cf5a377c950","835","stimuli/20000112.jpg"," ","","feedback_trial","2","","","","","","","","","","","","","","","","","","","","",""
"","","","","","image-keyboard-response","176","797005","0.0-151.0","640e4ddaf9f67c6c8ea4936b","665500ab8938657b03fbdba8","665792b645671cf5a377c950","2055","stimuli/1000010.jpg","1","","prediction_trial","1","","true","","1","false","true","true","true","false","true","[1]","000","010","1","","","","","","",""
"","","","","","image-keyboard-response","177","798161","0.0-152.0","640e4ddaf9f67c6c8ea4936b","665500ab8938657b03fbdba8","665792b645671cf5a377c950","1153","stimuli/10000101.jpg"," ","","feedback_trial","1","","","","","","","","","","","","","","","","","","","","",""
"","","","","","image-keyboard-response","178","801981","0.0-153.0","640e4ddaf9f67c6c8ea4936b","665500ab8938657b03fbdba8","665792b645671cf5a377c950","3817","stimuli/1101011.jpg","0","","prediction_trial","1","","false","","1","false","false","true","true","false","false","[1]","101","011","0","","","","","","",""
"","","","","","image-keyboard-response","179","802921","0.0-154.0","640e4ddaf9f67c6c8ea4936b","665500ab8938657b03fbdba8","665792b645671cf5a377c950","936","stimuli/11010111.jpg"," ","","feedback_trial","1","","","","","","","","","","","","","","","","","","","","",""
"","","","","","image-keyboard-response","180","804348","0.0-155.0","640e4ddaf9f67c6c8ea4936b","665500ab8938657b03fbdba8","665792b645671cf5a377c950","1423","stimuli/0101000.jpg","0","","prediction_trial","2","","false","","0","true","true","false","false","false","false","[2,0]","101","000","0","","","","","","",""
"","","","","","image-keyboard-response","181","805405","0.0-156.0","640e4ddaf9f67c6c8ea4936b","665500ab8938657b03fbdba8","665792b645671cf5a377c950","1054","stimuli/01010002.jpg"," ","","feedback_trial","2","","","","","","","","","","","","","","","","","","","","",""
"","","","","","image-keyboard-response","182","806437","0.0-157.0","640e4ddaf9f67c6c8ea4936b","665500ab8938657b03fbdba8","665792b645671cf5a377c950","1029","stimuli/2111000.jpg","2","","prediction_trial","1","","false","","2","true","true","false","false","false","false","[1,0,2]","111","000","0","","","","","","",""
"","","","","","image-keyboard-response","183","808335","0.0-158.0","640e4ddaf9f67c6c8ea4936b","665500ab8938657b03fbdba8","665792b645671cf5a377c950","1894","stimuli/21110001.jpg"," ","","feedback_trial","1","","","","","","","","","","","","","","","","","","","","",""
"","","","","","image-keyboard-response","184","810208","0.0-159.0","640e4ddaf9f67c6c8ea4936b","665500ab8938657b03fbdba8","665792b645671cf5a377c950","1871","stimuli/0110111.jpg","1","","prediction_trial","1","","true","","0","false","false","false","false","false","false","[0,1]","110","111","1","","","","","","",""
"","","","","","image-keyboard-response","185","810886","0.0-160.0","640e4ddaf9f67c6c8ea4936b","665500ab8938657b03fbdba8","665792b645671cf5a377c950","674","stimuli/01101111.jpg"," ","","feedback_trial","0","","","","","","","","","","","","","","","","","","","","",""
"","","","","","image-keyboard-response","186","818130","0.0-161.0","640e4ddaf9f67c6c8ea4936b","665500ab8938657b03fbdba8","665792b645671cf5a377c950","7253","stimuli/0101100.jpg","0","","prediction_trial","0","","true","","0","false","true","false","false","false","false","[2,0]","101","100","1","","","","","","",""
"","","","","","image-keyboard-response","187","818739","0.0-162.0","640e4ddaf9f67c6c8ea4936b","665500ab8938657b03fbdba8","665792b645671cf5a377c950","604","stimuli/01011000.jpg"," ","","feedback_trial","2","","","","","","","","","","","","","","","","","","","","",""
"","","","","","image-keyboard-response","188","821776","0.0-163.0","640e4ddaf9f67c6c8ea4936b","665500ab8938657b03fbdba8","665792b645671cf5a377c950","3034","stimuli/1111010.jpg","1","","prediction_trial","1","","true","","1","false","true","false","false","false","false","[1,2,0]","111","010","1","","","","","","",""
"","","","","","image-keyboard-response","189","822760","0.0-164.0","640e4ddaf9f67c6c8ea4936b","665500ab8938657b03fbdba8","665792b645671cf5a377c950","980","stimuli/11110101.jpg"," ","","feedback_trial","1","","","","","","","","","","","","","","","","","","","","",""
"","","","","","image-keyboard-response","190","823900","0.0-165.0","640e4ddaf9f67c6c8ea4936b","665500ab8938657b03fbdba8","665792b645671cf5a377c950","1138","stimuli/2010110.jpg","2","","prediction_trial","2","","true","","2","true","true","true","true","true","true","[2]","010","110","1","","","","","","",""
"","","","","","image-keyboard-response","191","824673","0.0-166.0","640e4ddaf9f67c6c8ea4936b","665500ab8938657b03fbdba8","665792b645671cf5a377c950","769","stimuli/20101102.jpg"," ","","feedback_trial","2","","","","","","","","","","","","","","","","","","","","",""
"","","","","","image-keyboard-response","192","829796","0.0-167.0","640e4ddaf9f67c6c8ea4936b","665500ab8938657b03fbdba8","665792b645671cf5a377c950","5120","stimuli/2100111.jpg","0","","prediction_trial","2","","false","","2","false","false","true","true","false","false","[2]","100","111","0","","","","","","",""
"","","","","","image-keyboard-response","193","830454","0.0-168.0","640e4ddaf9f67c6c8ea4936b","665500ab8938657b03fbdba8","665792b645671cf5a377c950","655","stimuli/21001112.jpg"," ","","feedback_trial","2","","","","","","","","","","","","","","","","","","","","",""
"","","","","","image-keyboard-response","194","832052","0.0-169.0","640e4ddaf9f67c6c8ea4936b","665500ab8938657b03fbdba8","665792b645671cf5a377c950","1595","stimuli/1010010.jpg","1","","prediction_trial","1","","true","","1","false","true","false","true","false","true","[1]","010","010","1","","","","","","",""
"","","","","","image-keyboard-response","195","832783","0.0-170.0","640e4ddaf9f67c6c8ea4936b","665500ab8938657b03fbdba8","665792b645671cf5a377c950","727","stimuli/10100101.jpg"," ","","feedback_trial","1","","","","","","","","","","","","","","","","","","","","",""
"","","","","","image-keyboard-response","196","834170","0.0-171.0","640e4ddaf9f67c6c8ea4936b","665500ab8938657b03fbdba8","665792b645671cf5a377c950","1384","stimuli/1000100.jpg","1","","prediction_trial","1","","true","","1","true","true","true","true","true","true","[1]","000","100","1","","","","","","",""
"","","","","","image-keyboard-response","197","834953","0.0-172.0","640e4ddaf9f67c6c8ea4936b","665500ab8938657b03fbdba8","665792b645671cf5a377c950","779","stimuli/10001001.jpg"," ","","feedback_trial","1","","","","","","","","","","","","","","","","","","","","",""
"","","","","","image-keyboard-response","198","836034","0.0-173.0","640e4ddaf9f67c6c8ea4936b","665500ab8938657b03fbdba8","665792b645671cf5a377c950","1077","stimuli/2111100.jpg","2","","prediction_trial","0","","false","","2","true","true","false","false","false","false","[0,2,1]","111","100","0","","","","","","",""
"","","","","","image-keyboard-response","199","837227","0.0-174.0","640e4ddaf9f67c6c8ea4936b","665500ab8938657b03fbdba8","665792b645671cf5a377c950","1190","stimuli/21111000.jpg"," ","","feedback_trial","0","","","","","","","","","","","","","","","","","","","","",""
"","","","","","image-keyboard-response","200","838501","0.0-175.0","640e4ddaf9f67c6c8ea4936b","665500ab8938657b03fbdba8","665792b645671cf5a377c950","1272","stimuli/1001101.jpg","1","","prediction_trial","1","","true","","1","true","true","true","true","true","true","[1]","001","101","1","","","","","","",""
"","","","","","image-keyboard-response","201","839469","0.0-176.0","640e4ddaf9f67c6c8ea4936b","665500ab8938657b03fbdba8","665792b645671cf5a377c950","964","stimuli/10011011.jpg"," ","","feedback_trial","1","","","","","","","","","","","","","","","","","","","","",""
"","","","","","image-keyboard-response","202","843294","0.0-177.0","640e4ddaf9f67c6c8ea4936b","665500ab8938657b03fbdba8","665792b645671cf5a377c950","3822","stimuli/2101011.jpg","1","","prediction_trial","0","","false","","2","false","false","false","false","false","false","[0,2]","101","011","0","","","","","","",""
"","","","","","image-keyboard-response","203","844059","0.0-178.0","640e4ddaf9f67c6c8ea4936b","665500ab8938657b03fbdba8","665792b645671cf5a377c950","761","stimuli/21010110.jpg"," ","","feedback_trial","0","","","","","","","","","","","","","","","","","","","","",""
"","","","","","image-keyboard-response","204","845105","0.0-179.0","640e4ddaf9f67c6c8ea4936b","665500ab8938657b03fbdba8","665792b645671cf5a377c950","1043","stimuli/2110100.jpg","2","","prediction_trial","2","","true","","2","true","true","true","true","true","true","[2]","110","100","1","","","","","","",""
"","","","","","image-keyboard-response","205","845820","0.0-180.0","640e4ddaf9f67c6c8ea4936b","665500ab8938657b03fbdba8","665792b645671cf5a377c950","712","stimuli/21101002.jpg"," ","","feedback_trial","2","","","","","","","","","","","","","","","","","","","","",""
"","","","","","image-keyboard-response","206","847744","0.0-181.0","640e4ddaf9f67c6c8ea4936b","665500ab8938657b03fbdba8","665792b645671cf5a377c950","1921","stimuli/2100101.jpg","2","","prediction_trial","2","","true","","2","false","false","true","true","false","false","[2]","100","101","1","","","","","","",""
"","","","","","image-keyboard-response","207","848892","0.0-182.0","640e4ddaf9f67c6c8ea4936b","665500ab8938657b03fbdba8","665792b645671cf5a377c950","1144","stimuli/21001012.jpg"," ","","feedback_trial","2","","","","","","","","","","","","","","","","","","","","",""
"","","","","","image-keyboard-response","208","851218","0.0-183.0","640e4ddaf9f67c6c8ea4936b","665500ab8938657b03fbdba8","665792b645671cf5a377c950","2322","stimuli/1000011.jpg","1","","prediction_trial","1","","true","","1","false","false","true","true","false","false","[1]","000","011","1","","","","","","",""
"","","","","","image-keyboard-response","209","852213","0.0-184.0","640e4ddaf9f67c6c8ea4936b","665500ab8938657b03fbdba8","665792b645671cf5a377c950","990","stimuli/10000111.jpg"," ","","feedback_trial","1","","","","","","","","","","","","","","","","","","","","",""
"","","","","","image-keyboard-response","210","853345","0.0-185.0","640e4ddaf9f67c6c8ea4936b","665500ab8938657b03fbdba8","665792b645671cf5a377c950","1130","stimuli/2101100.jpg","2","","prediction_trial","0","","false","","2","true","true","false","false","false","false","[0,2]","101","100","0","","","","","","",""
"","","","","","image-keyboard-response","211","854401","0.0-186.0","640e4ddaf9f67c6c8ea4936b","665500ab8938657b03fbdba8","665792b645671cf5a377c950","1052","stimuli/21011000.jpg"," ","","feedback_trial","0","","","","","","","","","","","","","","","","","","","","",""
"","","","","","image-keyboard-response","212","855722","0.0-187.0","640e4ddaf9f67c6c8ea4936b","665500ab8938657b03fbdba8","665792b645671cf5a377c950","1318","stimuli/2101110.jpg","2","","prediction_trial","0","","false","","2","true","true","false","false","false","false","[2,0]","101","110","0","","","","","","",""
"","","","","","image-keyboard-response","213","860228","0.0-188.0","640e4ddaf9f67c6c8ea4936b","665500ab8938657b03fbdba8","665792b645671cf5a377c950","4502","stimuli/21011100.jpg"," ","","feedback_trial","2","","","","","","","","","","","","","","","","","","","","",""
"","","","","","image-keyboard-response","214","862244","0.0-189.0","640e4ddaf9f67c6c8ea4936b","665500ab8938657b03fbdba8","665792b645671cf5a377c950","2012","stimuli/0010100.jpg","0","","prediction_trial","0","","true","","0","false","true","true","true","false","true","[0]","010","100","1","","","","","","",""
"","","","","","image-keyboard-response","215","863008","0.0-190.0","640e4ddaf9f67c6c8ea4936b","665500ab8938657b03fbdba8","665792b645671cf5a377c950","761","stimuli/00101000.jpg"," ","","feedback_trial","0","","","","","","","","","","","","","","","","","","","","",""
"","","","","","image-keyboard-response","216","866798","0.0-191.0","640e4ddaf9f67c6c8ea4936b","665500ab8938657b03fbdba8","665792b645671cf5a377c950","3787","stimuli/2101101.jpg","0","","prediction_trial","2","","false","","2","false","false","false","false","false","false","[0,2]","101","101","0","","","","","","",""
"","","","","","image-keyboard-response","217","868461","0.0-192.0","640e4ddaf9f67c6c8ea4936b","665500ab8938657b03fbdba8","665792b645671cf5a377c950","1660","stimuli/21011012.jpg"," ","","feedback_trial","0","","","","","","","","","","","","","","","","","","","","",""
"","","","","","image-keyboard-response","218","869903","0.0-193.0","640e4ddaf9f67c6c8ea4936b","665500ab8938657b03fbdba8","665792b645671cf5a377c950","1440","stimuli/2011100.jpg","2","","prediction_trial","1","","false","","2","true","true","false","false","false","false","[2,1]","011","100","0","","","","","","",""
"","","","","","image-keyboard-response","219","871784","0.0-194.0","640e4ddaf9f67c6c8ea4936b","665500ab8938657b03fbdba8","665792b645671cf5a377c950","1877","stimuli/20111001.jpg"," ","","feedback_trial","2","","","","","","","","","","","","","","","","","","","","",""
"","","","","","image-keyboard-response","220","873084","0.0-195.0","640e4ddaf9f67c6c8ea4936b","665500ab8938657b03fbdba8","665792b645671cf5a377c950","1298","stimuli/0100001.jpg","0","","prediction_trial","0","","true","","0","true","true","false","true","false","true","[0]","100","001","1","","","","","","",""
"","","","","","image-keyboard-response","221","873706","0.0-196.0","640e4ddaf9f67c6c8ea4936b","665500ab8938657b03fbdba8","665792b645671cf5a377c950","618","stimuli/01000010.jpg"," ","","feedback_trial","0","","","","","","","","","","","","","","","","","","","","",""
"","","","","","image-keyboard-response","222","876763","0.0-197.0","640e4ddaf9f67c6c8ea4936b","665500ab8938657b03fbdba8","665792b645671cf5a377c950","3054","stimuli/1011011.jpg","0","","prediction_trial","2","","false","","1","false","false","false","false","false","false","[1,2]","011","011","0","","","","","","",""
"","","","","","image-keyboard-response","223","877504","0.0-198.0","640e4ddaf9f67c6c8ea4936b","665500ab8938657b03fbdba8","665792b645671cf5a377c950","738","stimuli/10110112.jpg"," ","","feedback_trial","1","","","","","","","","","","","","","","","","","","","","",""
"","","","","","image-keyboard-response","224","879045","0.0-199.0","640e4ddaf9f67c6c8ea4936b","665500ab8938657b03fbdba8","665792b645671cf5a377c950","1530","stimuli/1110110.jpg","2","","prediction_trial","1","","false","","1","false","false","false","false","false","false","[1,0]","110","110","0","","","","","","",""
"","","","","","image-keyboard-response","225","880270","0.0-200.0","640e4ddaf9f67c6c8ea4936b","665500ab8938657b03fbdba8","665792b645671cf5a377c950","1221","stimuli/11101101.jpg"," ","","feedback_trial","1","","","","","","","","","","","","","","","","","","","","",""
"","","","","","image-keyboard-response","226","881746","0.0-201.0","640e4ddaf9f67c6c8ea4936b","665500ab8938657b03fbdba8","665792b645671cf5a377c950","1474","stimuli/2111010.jpg","2","","prediction_trial","1","","false","","2","true","true","false","false","false","false","[0,1,2]","111","010","0","","","","","","",""
"","","","","","image-keyboard-response","227","882769","0.0-202.0","640e4ddaf9f67c6c8ea4936b","665500ab8938657b03fbdba8","665792b645671cf5a377c950","1019","stimuli/21110101.jpg"," ","","feedback_trial","0","","","","","","","","","","","","","","","","","","","","",""
"","","","","","image-keyboard-response","228","884264","0.0-203.0","640e4ddaf9f67c6c8ea4936b","665500ab8938657b03fbdba8","665792b645671cf5a377c950","1492","stimuli/1100000.jpg","1","","prediction_trial","1","","true","","1","true","true","true","true","true","true","[1]","100","000","1","","","","","","",""
"","","","","","image-keyboard-response","229","885088","0.0-204.0","640e4ddaf9f67c6c8ea4936b","665500ab8938657b03fbdba8","665792b645671cf5a377c950","821","stimuli/11000001.jpg"," ","","feedback_trial","1","","","","","","","","","","","","","","","","","","","","",""
"","","","","","image-keyboard-response","230","887106","0.0-205.0","640e4ddaf9f67c6c8ea4936b","665500ab8938657b03fbdba8","665792b645671cf5a377c950","2015","stimuli/1100010.jpg","1","","prediction_trial","1","","true","","1","false","true","true","true","false","true","[1]","100","010","1","","","","","","",""
"","","","","","image-keyboard-response","231","887850","0.0-206.0","640e4ddaf9f67c6c8ea4936b","665500ab8938657b03fbdba8","665792b645671cf5a377c950","741","stimuli/11000101.jpg"," ","","feedback_trial","1","","","","","","","","","","","","","","","","","","","","",""
"","","","","","image-keyboard-response","232","890948","0.0-207.0","640e4ddaf9f67c6c8ea4936b","665500ab8938657b03fbdba8","665792b645671cf5a377c950","3095","stimuli/1001110.jpg","0","","prediction_trial","1","","false","","1","false","false","true","true","false","false","[1]","001","110","0","","","","","","",""
"","","","","","image-keyboard-response","233","892102","0.0-208.0","640e4ddaf9f67c6c8ea4936b","665500ab8938657b03fbdba8","665792b645671cf5a377c950","1151","stimuli/10011101.jpg"," ","","feedback_trial","1","","","","","","","","","","","","","","","","","","","","",""
"","","","","","image-keyboard-response","234","893585","0.0-209.0","640e4ddaf9f67c6c8ea4936b","665500ab8938657b03fbdba8","665792b645671cf5a377c950","1481","stimuli/2111001.jpg","2","","prediction_trial","1","","false","","2","false","true","false","false","false","false","[0,1,2]","111","001","0","","","","","","",""
"","","","","","image-keyboard-response","235","894571","0.0-210.0","640e4ddaf9f67c6c8ea4936b","665500ab8938657b03fbdba8","665792b645671cf5a377c950","982","stimuli/21110011.jpg"," ","","feedback_trial","0","","","","","","","","","","","","","","","","","","","","",""
"","","","","","image-keyboard-response","236","895674","0.0-211.0","640e4ddaf9f67c6c8ea4936b","665500ab8938657b03fbdba8","665792b645671cf5a377c950","1100","stimuli/2110010.jpg","2","","prediction_trial","2","","true","","2","true","true","true","true","true","true","[2]","110","010","1","","","","","","",""
"","","","","","image-keyboard-response","237","896498","0.0-212.0","640e4ddaf9f67c6c8ea4936b","665500ab8938657b03fbdba8","665792b645671cf5a377c950","820","stimuli/21100102.jpg"," ","","feedback_trial","2","","","","","","","","","","","","","","","","","","","","",""
"","","","","","image-keyboard-response","238","897978","0.0-213.0","640e4ddaf9f67c6c8ea4936b","665500ab8938657b03fbdba8","665792b645671cf5a377c950","1477","stimuli/1110101.jpg","1","","prediction_trial","0","","false","","1","true","true","false","false","false","false","[0,1]","110","101","0","","","","","","",""
"","","","","","image-keyboard-response","239","899112","0.0-214.0","640e4ddaf9f67c6c8ea4936b","665500ab8938657b03fbdba8","665792b645671cf5a377c950","1131","stimuli/11101010.jpg"," ","","feedback_trial","0","","","","","","","","","","","","","","","","","","","","",""
"","","","","","image-keyboard-response","240","900425","0.0-215.0","640e4ddaf9f67c6c8ea4936b","665500ab8938657b03fbdba8","665792b645671cf5a377c950","1285","stimuli/2101000.jpg","2","","prediction_trial","0","","false","","2","true","true","false","false","false","false","[0,2]","101","000","0","","","","","","",""
"","","","","","image-keyboard-response","241","902243","0.0-216.0","640e4ddaf9f67c6c8ea4936b","665500ab8938657b03fbdba8","665792b645671cf5a377c950","1814","stimuli/21010000.jpg"," ","","feedback_trial","0","","","","","","","","","","","","","","","","","","","","",""
"","","","","","image-keyboard-response","242","903888","0.0-217.0","640e4ddaf9f67c6c8ea4936b","665500ab8938657b03fbdba8","665792b645671cf5a377c950","1641","stimuli/1101001.jpg","1","","prediction_trial","1","","true","","1","true","true","true","true","true","true","[1]","101","001","1","","","","","","",""
"","","","","","image-keyboard-response","243","904532","0.0-218.0","640e4ddaf9f67c6c8ea4936b","665500ab8938657b03fbdba8","665792b645671cf5a377c950","640","stimuli/11010011.jpg"," ","","feedback_trial","1","","","","","","","","","","","","","","","","","","","","",""
"","","","","","image-keyboard-response","244","905602","0.0-219.0","640e4ddaf9f67c6c8ea4936b","665500ab8938657b03fbdba8","665792b645671cf5a377c950","1068","stimuli/0100000.jpg","0","","prediction_trial","0","","true","","0","true","true","false","true","false","true","[0]","100","000","1","","","","","","",""
"","","","","","image-keyboard-response","245","906520","0.0-220.0","640e4ddaf9f67c6c8ea4936b","665500ab8938657b03fbdba8","665792b645671cf5a377c950","913","stimuli/01000000.jpg"," ","","feedback_trial","0","","","","","","","","","","","","","","","","","","","","",""
"","","","","","image-keyboard-response","246","908498","0.0-221.0","640e4ddaf9f67c6c8ea4936b","665500ab8938657b03fbdba8","665792b645671cf5a377c950","1976","stimuli/1110011.jpg","1","","prediction_trial","0","","false","","1","false","false","false","false","false","false","[0,1]","110","011","0","","","","","","",""
"","","","","","image-keyboard-response","247","909348","0.0-222.0","640e4ddaf9f67c6c8ea4936b","665500ab8938657b03fbdba8","665792b645671cf5a377c950","847","stimuli/11100110.jpg"," ","","feedback_trial","0","","","","","","","","","","","","","","","","","","","","",""
"","","","","","image-keyboard-response","248","910838","0.0-223.0","640e4ddaf9f67c6c8ea4936b","665500ab8938657b03fbdba8","665792b645671cf5a377c950","1487","stimuli/0011001.jpg","0","","prediction_trial","0","","true","","0","true","true","true","true","true","true","[0]","011","001","1","","","","","","",""
"","","","","","image-keyboard-response","249","911403","0.0-224.0","640e4ddaf9f67c6c8ea4936b","665500ab8938657b03fbdba8","665792b645671cf5a377c950","561","stimuli/00110010.jpg"," ","","feedback_trial","0","","","","","","","","","","","","","","","","","","","","",""
"","","","","","image-keyboard-response","250","912848","0.0-225.0","640e4ddaf9f67c6c8ea4936b","665500ab8938657b03fbdba8","665792b645671cf5a377c950","1443","stimuli/1010011.jpg","2","","prediction_trial","1","","false","","1","false","false","false","true","false","false","[1]","010","011","0","","","","","","",""
"","","","","","image-keyboard-response","251","914513","0.0-226.0","640e4ddaf9f67c6c8ea4936b","665500ab8938657b03fbdba8","665792b645671cf5a377c950","1661","stimuli/10100111.jpg"," ","","feedback_trial","1","","","","","","","","","","","","","","","","","","","","",""
"","","","","","image-keyboard-response","252","915771","0.0-227.0","640e4ddaf9f67c6c8ea4936b","665500ab8938657b03fbdba8","665792b645671cf5a377c950","1255","stimuli/1111001.jpg","1","","prediction_trial","1","","true","","1","true","true","false","false","false","false","[1,2,0]","111","001","1","","","","","","",""
"","","","","","image-keyboard-response","253","916495","0.0-228.0","640e4ddaf9f67c6c8ea4936b","665500ab8938657b03fbdba8","665792b645671cf5a377c950","721","stimuli/11110011.jpg"," ","","feedback_trial","1","","","","","","","","","","","","","","","","","","","","",""
"","","","","","image-keyboard-response","254","919337","0.0-229.0","640e4ddaf9f67c6c8ea4936b","665500ab8938657b03fbdba8","665792b645671cf5a377c950","2840","stimuli/2110101.jpg","0","","prediction_trial","2","","false","","2","false","false","true","true","false","false","[2]","110","101","0","","","","","","",""
"","","","","","image-keyboard-response","255","921194","0.0-230.0","640e4ddaf9f67c6c8ea4936b","665500ab8938657b03fbdba8","665792b645671cf5a377c950","1854","stimuli/21101012.jpg"," ","","feedback_trial","2","","","","","","","","","","","","","","","","","","","","",""
"","","","","","image-keyboard-response","256","924354","0.0-231.0","640e4ddaf9f67c6c8ea4936b","665500ab8938657b03fbdba8","665792b645671cf5a377c950","3158","stimuli/1010100.jpg","0","","prediction_trial","1","","false","","1","true","true","false","true","false","true","[1]","010","100","0","","","","","","",""
"","","","","","image-keyboard-response","257","925654","0.0-232.0","640e4ddaf9f67c6c8ea4936b","665500ab8938657b03fbdba8","665792b645671cf5a377c950","1296","stimuli/10101001.jpg"," ","","feedback_trial","1","","","","","","","","","","","","","","","","","","","","",""
"","","","","","image-keyboard-response","258","929018","0.0-233.0","640e4ddaf9f67c6c8ea4936b","665500ab8938657b03fbdba8","665792b645671cf5a377c950","3362","stimuli/0110101.jpg","2","","prediction_trial","0","","false","","0","false","false","false","false","false","false","[0,1]","110","101","0","","","","","","",""
"","","","","","image-keyboard-response","259","930251","0.0-234.0","640e4ddaf9f67c6c8ea4936b","665500ab8938657b03fbdba8","665792b645671cf5a377c950","1228","stimuli/01101010.jpg"," ","","feedback_trial","0","","","","","","","","","","","","","","","","","","","","",""
"","","","","","image-keyboard-response","260","931233","0.0-235.0","640e4ddaf9f67c6c8ea4936b","665500ab8938657b03fbdba8","665792b645671cf5a377c950","978","stimuli/2000000.jpg","2","","prediction_trial","2","","true","","2","true","true","true","true","true","true","[2]","000","000","1","","","","","","",""
"","","","","","image-keyboard-response","261","932086","0.0-236.0","640e4ddaf9f67c6c8ea4936b","665500ab8938657b03fbdba8","665792b645671cf5a377c950","850","stimuli/20000002.jpg"," ","","feedback_trial","2","","","","","","","","","","","","","","","","","","","","",""
"","","","","","image-keyboard-response","262","933886","0.0-237.0","640e4ddaf9f67c6c8ea4936b","665500ab8938657b03fbdba8","665792b645671cf5a377c950","1797","stimuli/0101111.jpg","1","","prediction_trial","0","","false","","0","false","false","false","false","false","false","[2,0]","101","111","0","","","","","","",""
"","","","","","image-keyboard-response","263","934771","0.0-238.0","640e4ddaf9f67c6c8ea4936b","665500ab8938657b03fbdba8","665792b645671cf5a377c950","881","stimuli/01011110.jpg"," ","","feedback_trial","2","","","","","","","","","","","","","","","","","","","","",""
"","","","","","image-keyboard-response","264","936310","0.0-239.0","640e4ddaf9f67c6c8ea4936b","665500ab8938657b03fbdba8","665792b645671cf5a377c950","1536","stimuli/2011111.jpg","0","","prediction_trial","1","","false","","2","false","false","false","false","false","false","[2,1]","011","111","0","","","","","","",""
"","","","","","image-keyboard-response","265","938139","0.0-240.0","640e4ddaf9f67c6c8ea4936b","665500ab8938657b03fbdba8","665792b645671cf5a377c950","1826","stimuli/20111111.jpg"," ","","feedback_trial","2","","","","","","","","","","","","","","","","","","","","",""
"","","","","","image-keyboard-response","266","939433","0.0-241.0","640e4ddaf9f67c6c8ea4936b","665500ab8938657b03fbdba8","665792b645671cf5a377c950","1295","stimuli/1000001.jpg","1","","prediction_trial","1","","true","","1","true","true","true","true","true","true","[1]","000","001","1","","","","","","",""
"","","","","","image-keyboard-response","267","940242","0.0-242.0","640e4ddaf9f67c6c8ea4936b","665500ab8938657b03fbdba8","665792b645671cf5a377c950","805","stimuli/10000011.jpg"," ","","feedback_trial","1","","","","","","","","","","","","","","","","","","","","",""
"","","","","","image-keyboard-response","268","943302","0.0-243.0","640e4ddaf9f67c6c8ea4936b","665500ab8938657b03fbdba8","665792b645671cf5a377c950","3057","stimuli/1111011.jpg","2","","prediction_trial","0","","false","","1","false","false","false","false","false","false","[2,0,1]","111","011","0","","","","","","",""
"","","","","","image-keyboard-response","269","947435","0.0-244.0","640e4ddaf9f67c6c8ea4936b","665500ab8938657b03fbdba8","665792b645671cf5a377c950","4130","stimuli/11110110.jpg"," ","","feedback_trial","2","","","","","","","","","","","","","","","","","","","","",""
"","","","","","image-keyboard-response","270","948803","0.0-245.0","640e4ddaf9f67c6c8ea4936b","665500ab8938657b03fbdba8","665792b645671cf5a377c950","1366","stimuli/1011100.jpg","1","","prediction_trial","1","","true","","1","true","true","false","false","false","false","[1,2]","011","100","1","","","","","","",""
"","","","","","image-keyboard-response","271","949946","0.0-246.0","640e4ddaf9f67c6c8ea4936b","665500ab8938657b03fbdba8","665792b645671cf5a377c950","1139","stimuli/10111001.jpg"," ","","feedback_trial","1","","","","","","","","","","","","","","","","","","","","",""
"","","","","","image-keyboard-response","272","951242","0.0-247.0","640e4ddaf9f67c6c8ea4936b","665500ab8938657b03fbdba8","665792b645671cf5a377c950","1292","stimuli/0001000.jpg","0","","prediction_trial","0","","true","","0","true","true","true","true","true","true","[0]","001","000","1","","","","","","",""
"","","","","","image-keyboard-response","273","952089","0.0-248.0","640e4ddaf9f67c6c8ea4936b","665500ab8938657b03fbdba8","665792b645671cf5a377c950","843","stimuli/00010000.jpg"," ","","feedback_trial","0","","","","","","","","","","","","","","","","","","","","",""
"","","","","","image-keyboard-response","274","953688","0.0-249.0","640e4ddaf9f67c6c8ea4936b","665500ab8938657b03fbdba8","665792b645671cf5a377c950","1596","stimuli/1101111.jpg","1","","prediction_trial","1","","true","","1","false","false","true","true","false","false","[1]","101","111","1","","","","","","",""
"","","","","","image-keyboard-response","275","954367","0.0-250.0","640e4ddaf9f67c6c8ea4936b","665500ab8938657b03fbdba8","665792b645671cf5a377c950","676","stimuli/11011111.jpg"," ","","feedback_trial","1","","","","","","","","","","","","","","","","","","","","",""
"","","","","","image-keyboard-response","276","960442","0.0-251.0","640e4ddaf9f67c6c8ea4936b","665500ab8938657b03fbdba8","665792b645671cf5a377c950","6072","stimuli/1001011.jpg","1","","prediction_trial","1","","true","","1","false","false","true","true","false","false","[1]","001","011","1","","","","","","",""
"","","","","","image-keyboard-response","277","961129","0.0-252.0","640e4ddaf9f67c6c8ea4936b","665500ab8938657b03fbdba8","665792b645671cf5a377c950","683","stimuli/10010111.jpg"," ","","feedback_trial","1","","","","","","","","","","","","","","","","","","","","",""
"","","","","","image-keyboard-response","278","962748","0.0-253.0","640e4ddaf9f67c6c8ea4936b","665500ab8938657b03fbdba8","665792b645671cf5a377c950","1617","stimuli/0100011.jpg","0","","prediction_trial","0","","true","","0","true","true","false","true","false","true","[0]","100","011","1","","","","","","",""
"","","","","","image-keyboard-response","279","963438","0.0-254.0","640e4ddaf9f67c6c8ea4936b","665500ab8938657b03fbdba8","665792b645671cf5a377c950","686","stimuli/01000110.jpg"," ","","feedback_trial","0","","","","","","","","","","","","","","","","","","","","",""
"","","","","","image-keyboard-response","280","965558","0.0-255.0","640e4ddaf9f67c6c8ea4936b","665500ab8938657b03fbdba8","665792b645671cf5a377c950","2117","stimuli/1010111.jpg","0","","prediction_trial","1","","false","","1","false","false","false","true","false","false","[1]","010","111","0","","","","","","",""
"","","","","","image-keyboard-response","281","966140","0.0-256.0","640e4ddaf9f67c6c8ea4936b","665500ab8938657b03fbdba8","665792b645671cf5a377c950","579","stimuli/10101111.jpg"," ","","feedback_trial","1","","","","","","","","","","","","","","","","","","","","",""
"","","","","","image-keyboard-response","282","968011","0.0-257.0","640e4ddaf9f67c6c8ea4936b","665500ab8938657b03fbdba8","665792b645671cf5a377c950","1869","stimuli/2000101.jpg","2","","prediction_trial","2","","true","","2","false","false","true","true","false","false","[2]","000","101","1","","","","","","",""
"","","","","","image-keyboard-response","283","968878","0.0-258.0","640e4ddaf9f67c6c8ea4936b","665500ab8938657b03fbdba8","665792b645671cf5a377c950","863","stimuli/20001012.jpg"," ","","feedback_trial","2","","","","","","","","","","","","","","","","","","","","",""
"","","","","","image-keyboard-response","284","970642","0.0-259.0","640e4ddaf9f67c6c8ea4936b","665500ab8938657b03fbdba8","665792b645671cf5a377c950","1761","stimuli/0000001.jpg","0","","prediction_trial","0","","true","","0","true","true","true","true","true","true","[0]","000","001","1","","","","","","",""
"","","","","","image-keyboard-response","285","971206","0.0-260.0","640e4ddaf9f67c6c8ea4936b","665500ab8938657b03fbdba8","665792b645671cf5a377c950","560","stimuli/00000010.jpg"," ","","feedback_trial","0","","","","","","","","","","","","","","","","","","","","",""
"","","","","","image-keyboard-response","286","973091","0.0-261.0","640e4ddaf9f67c6c8ea4936b","665500ab8938657b03fbdba8","665792b645671cf5a377c950","1881","stimuli/0010110.jpg","1","","prediction_trial","0","","false","","0","false","false","true","true","false","false","[0]","010","110","0","","","","","","",""
"","","","","","image-keyboard-response","287","974170","0.0-262.0","640e4ddaf9f67c6c8ea4936b","665500ab8938657b03fbdba8","665792b645671cf5a377c950","1076","stimuli/00101100.jpg"," ","","feedback_trial","0","","","","","","","","","","","","","","","","","","","","",""
"","","","","","image-keyboard-response","288","977037","0.0-263.0","640e4ddaf9f67c6c8ea4936b","665500ab8938657b03fbdba8","665792b645671cf5a377c950","2864","stimuli/2111111.jpg","0","","prediction_trial","1","","false","","2","false","false","false","false","false","false","[0,2,1]","111","111","0","","","","","","",""
"","","","","","image-keyboard-response","289","978544","0.0-264.0","640e4ddaf9f67c6c8ea4936b","665500ab8938657b03fbdba8","665792b645671cf5a377c950","1504","stimuli/21111111.jpg"," ","","feedback_trial","0","","","","","","","","","","","","","","","","","","","","",""
"","","","","","image-keyboard-response","290","980460","0.0-265.0","640e4ddaf9f67c6c8ea4936b","665500ab8938657b03fbdba8","665792b645671cf5a377c950","1914","stimuli/0110110.jpg","0","","prediction_trial","0","","true","","0","false","false","false","false","false","false","[1,0]","110","110","1","","","","","","",""
"","","","","","image-keyboard-response","291","981052","0.0-266.0","640e4ddaf9f67c6c8ea4936b","665500ab8938657b03fbdba8","665792b645671cf5a377c950","588","stimuli/01101100.jpg"," ","","feedback_trial","1","","","","","","","","","","","","","","","","","","","","",""
"","","","","","image-keyboard-response","292","982130","0.0-267.0","640e4ddaf9f67c6c8ea4936b","665500ab8938657b03fbdba8","665792b645671cf5a377c950","1075","stimuli/2011010.jpg","2","","prediction_trial","2","","true","","2","true","true","false","false","false","false","[2,1]","011","010","1","","","","","","",""
"","","","","","image-keyboard-response","293","983091","0.0-268.0","640e4ddaf9f67c6c8ea4936b","665500ab8938657b03fbdba8","665792b645671cf5a377c950","957","stimuli/20110102.jpg"," ","","feedback_trial","2","","","","","","","","","","","","","","","","","","","","",""
"","","","","","image-keyboard-response","294","985550","0.0-269.0","640e4ddaf9f67c6c8ea4936b","665500ab8938657b03fbdba8","665792b645671cf5a377c950","2456","stimuli/2010101.jpg","2","","prediction_trial","2","","true","","2","false","false","true","true","false","false","[2]","010","101","1","","","","","","",""
"","","","","","image-keyboard-response","295","986413","0.0-270.0","640e4ddaf9f67c6c8ea4936b","665500ab8938657b03fbdba8","665792b645671cf5a377c950","860","stimuli/20101012.jpg"," ","","feedback_trial","2","","","","","","","","","","","","","","","","","","","","",""
"","","","","","image-keyboard-response","296","987877","0.0-271.0","640e4ddaf9f67c6c8ea4936b","665500ab8938657b03fbdba8","665792b645671cf5a377c950","1462","stimuli/1001100.jpg","1","","prediction_trial","1","","true","","1","true","true","true","true","true","true","[1]","001","100","1","","","","","","",""
"","","","","","image-keyboard-response","297","988631","0.0-272.0","640e4ddaf9f67c6c8ea4936b","665500ab8938657b03fbdba8","665792b645671cf5a377c950","750","stimuli/10011001.jpg"," ","","feedback_trial","1","","","","","","","","","","","","","","","","","","","","",""
"","","","","","image-keyboard-response","298","990093","0.0-273.0","640e4ddaf9f67c6c8ea4936b","665500ab8938657b03fbdba8","665792b645671cf5a377c950","1459","stimuli/0111000.jpg","0","","prediction_trial","0","","true","","0","true","true","false","false","false","false","[1,2,0]","111","000","1","","","","","","",""
"","","","","","image-keyboard-response","299","990763","0.0-274.0","640e4ddaf9f67c6c8ea4936b","665500ab8938657b03fbdba8","665792b645671cf5a377c950","667","stimuli/01110000.jpg"," ","","feedback_trial","1","","","","","","","","","","","","","","","","","","","","",""
"","","","","","image-keyboard-response","300","993721","0.0-275.0","640e4ddaf9f67c6c8ea4936b","665500ab8938657b03fbdba8","665792b645671cf5a377c950","2956","stimuli/0000101.jpg","2","","prediction_trial","0","","false","","0","false","false","true","true","false","false","[0]","000","101","0","","","","","","",""
"","","","","","image-keyboard-response","301","997781","0.0-276.0","640e4ddaf9f67c6c8ea4936b","665500ab8938657b03fbdba8","665792b645671cf5a377c950","4056","stimuli/00001010.jpg"," ","","feedback_trial","0","","","","","","","","","","","","","","","","","","","","",""
"","","","","","image-keyboard-response","302","999561","0.0-277.0","640e4ddaf9f67c6c8ea4936b","665500ab8938657b03fbdba8","665792b645671cf5a377c950","1769","stimuli/1101101.jpg","1","","prediction_trial","1","","true","","1","true","true","true","true","true","true","[1]","101","101","1","","","","","","",""
"","","","","","image-keyboard-response","303","1000167","0.0-278.0","640e4ddaf9f67c6c8ea4936b","665500ab8938657b03fbdba8","665792b645671cf5a377c950","603","stimuli/11011011.jpg"," ","","feedback_trial","1","","","","","","","","","","","","","","","","","","","","",""
"","","","","","image-keyboard-response","304","1001621","0.0-279.0","640e4ddaf9f67c6c8ea4936b","665500ab8938657b03fbdba8","665792b645671cf5a377c950","1432","stimuli/1110100.jpg","1","","prediction_trial","0","","false","","1","true","true","false","false","false","false","[0,1]","110","100","0","","","","","","",""
"","","","","","image-keyboard-response","305","1004336","0.0-280.0","640e4ddaf9f67c6c8ea4936b","665500ab8938657b03fbdba8","665792b645671cf5a377c950","2712","stimuli/11101000.jpg"," ","","feedback_trial","0","","","","","","","","","","","","","","","","","","","","",""
"","","","","","image-keyboard-response","306","1007132","0.0-281.0","640e4ddaf9f67c6c8ea4936b","665500ab8938657b03fbdba8","665792b645671cf5a377c950","2792","stimuli/1101100.jpg","1","","prediction_trial","1","","true","","1","true","true","true","true","true","true","[1]","101","100","1","","","","","","",""
"","","","","","image-keyboard-response","307","1008329","0.0-282.0","640e4ddaf9f67c6c8ea4936b","665500ab8938657b03fbdba8","665792b645671cf5a377c950","1193","stimuli/11011001.jpg"," ","","feedback_trial","1","","","","","","","","","","","","","","","","","","","","",""
"","","","","","image-keyboard-response","308","1012512","0.0-283.0","640e4ddaf9f67c6c8ea4936b","665500ab8938657b03fbdba8","665792b645671cf5a377c950","4181","stimuli/1010110.jpg","0","","prediction_trial","1","","false","","1","false","false","false","true","false","false","[1]","010","110","0","","","","","","",""
"","","","","","image-keyboard-response","309","1014201","0.0-284.0","640e4ddaf9f67c6c8ea4936b","665500ab8938657b03fbdba8","665792b645671cf5a377c950","1686","stimuli/10101101.jpg"," ","","feedback_trial","1","","","","","","","","","","","","","","","","","","","","",""
"","","","","","image-keyboard-response","310","1018691","0.0-285.0","640e4ddaf9f67c6c8ea4936b","665500ab8938657b03fbdba8","665792b645671cf5a377c950","4487","stimuli/2001011.jpg","0","","prediction_trial","2","","false","","2","false","false","false","true","false","false","[2]","001","011","0","","","","","","",""
"","","","","","image-keyboard-response","311","1020034","0.0-286.0","640e4ddaf9f67c6c8ea4936b","665500ab8938657b03fbdba8","665792b645671cf5a377c950","1340","stimuli/20010112.jpg"," ","","feedback_trial","2","","","","","","","","","","","","","","","","","","","","",""
"","","","","","image-keyboard-response","312","1022720","0.0-287.0","640e4ddaf9f67c6c8ea4936b","665500ab8938657b03fbdba8","665792b645671cf5a377c950","2683","stimuli/2010001.jpg","1","","prediction_trial","2","","false","","2","false","true","true","true","false","true","[2]","010","001","0","","","","","","",""
"","","","","","image-keyboard-response","313","1024123","0.0-288.0","640e4ddaf9f67c6c8ea4936b","665500ab8938657b03fbdba8","665792b645671cf5a377c950","1399","stimuli/20100012.jpg"," ","","feedback_trial","2","","","","","","","","","","","","","","","","","","","","",""
"","","","","","image-keyboard-response","314","1025748","0.0-289.0","640e4ddaf9f67c6c8ea4936b","665500ab8938657b03fbdba8","665792b645671cf5a377c950","1622","stimuli/2000001.jpg","2","","prediction_trial","2","","true","","2","false","true","true","true","false","true","[2]","000","001","1","","","","","","",""
"","","","","","image-keyboard-response","315","1026677","0.0-290.0","640e4ddaf9f67c6c8ea4936b","665500ab8938657b03fbdba8","665792b645671cf5a377c950","925","stimuli/20000012.jpg"," ","","feedback_trial","2","","","","","","","","","","","","","","","","","","","","",""
"","","","","","image-keyboard-response","316","1027937","0.0-291.0","640e4ddaf9f67c6c8ea4936b","665500ab8938657b03fbdba8","665792b645671cf5a377c950","1257","stimuli/2110110.jpg","2","","prediction_trial","2","","true","","2","true","true","true","true","true","true","[2]","110","110","1","","","","","","",""
"","","","","","image-keyboard-response","317","1028827","0.0-292.0","640e4ddaf9f67c6c8ea4936b","665500ab8938657b03fbdba8","665792b645671cf5a377c950","886","stimuli/21101102.jpg"," ","","feedback_trial","2","","","","","","","","","","","","","","","","","","","","",""
"","","","","","survey-html-form","318","1125573","0.0-293.0","640e4ddaf9f67c6c8ea4936b","665500ab8938657b03fbdba8","665792b645671cf5a377c950","96734","","{""feedback"":""If I could see the ball in the basket."",""age"":""66"",""gender"":""Female"",""other_gender"":"""",""race"":""White"",""other_race"":"""",""ethnicity"":""Non-Hispanic""}","","exit_survey","","","","","","","","","","","","","","","","If I could see the ball in the basket.","66","Non-Hispanic","Female","White","0.6180555555555556","0.6180555555555556"
