"success","timeout","failed_images","failed_audio","failed_video","trial_type","trial_index","time_elapsed","internal_node_id","prolific_id","prolific_study_id","prolific_session_id","rt","stimulus","response","view_history","trial","character_choice","stimulus_dict","accuracy","correct_response","ball_pos","ego_ball_visible","ego_can_infer","alter_ball_visible","alter_can_infer","collective_ball_visible","collective_can_infer","search_locations","alter_occluders","ego_occluders","accuracy_bool","feedback","age","ethnicity","gender","race","overall_accuracy","bonus"
"true","false","[]","[]","[]","preload","0","2653","0.0-0.0","5f0d2ad60ad0d6730c380b05","665500ab8938657b03fbdba8","665796155824579986a2bdbd","","","","","","","","","","","","","","","","","","","","","","","","","","",""
"true","","","","","fullscreen","1","52482","0.0-1.0","5f0d2ad60ad0d6730c380b05","665500ab8938657b03fbdba8","665796155824579986a2bdbd","","","","","","","","","","","","","","","","","","","","","","","","","","",""
"","","","","","html-button-response","2","197322","0.0-2.0","5f0d2ad60ad0d6730c380b05","665500ab8938657b03fbdba8","665796155824579986a2bdbd","144836","<p><b>Consent Form</b></p> <div style=""text-align:left;background-color:lightgrey; padding:20px; max-width:900px;""><p>Please consider this information carefully before deciding whether to participate in this research.</p> <p>The purpose of this research is to examine which factors influence social judgment and decision-making. You will be asked to make judgements about individuals and actions in social scenarios. We are simply interested in your judgement. The study will take less than 1 hour to complete, and you will receive less than $20 on Prolific. Your compensation and time commitment are specified in the study description. There are no anticipated risks associated with participating in this study. The effects of participating should be comparable to those you would ordinarily experience from viewing a computer monitor and using a mouse or keyboard for a similar amount of time. At the end of the study, we will provide an explanation of the questions that motivate this line of research and will describe the potential implications. </p><p> Your participation in this study is completely voluntary and you may refuse to participate or you may choose to withdraw at any time without penalty or loss of benefits to you which are otherwise entitled. Your participation in this study will remain confidential. No personally identifiable information will be associated with your data. Also, all analyses of the data will be averaged across all the participants, so your individual responses will never be specifically analyzed. </p><p> If you have questions or concerns about your participation or payment, or want to request a summary of research findings, please contact Dr. Jonathan Phillips at Jonathan.S.Phillips@dartmouth.edu. </p><p> Please save a copy of this form for your records. </p><p><b>Agreement: </b>The nature and purpose of this research have been sufficiently explained and I agree to participate in this study. I understand that I am free to withdraw at any time without incurring any penalty. Please consent by clicking the button below to continue. Otherwise, please exit the study at any time. </p>","0","","","","","","","","","","","","","","","","","","","","","","","",""
"","","","","","instructions","3","321243","0.0-3.0-0.0","5f0d2ad60ad0d6730c380b05","665500ab8938657b03fbdba8","665796155824579986a2bdbd","123918","","","[{""page_index"":0,""viewing_time"":3671},{""page_index"":1,""viewing_time"":4184},{""page_index"":2,""viewing_time"":3376},{""page_index"":3,""viewing_time"":7152},{""page_index"":4,""viewing_time"":10088},{""page_index"":5,""viewing_time"":5816},{""page_index"":6,""viewing_time"":4064},{""page_index"":7,""viewing_time"":5688},{""page_index"":8,""viewing_time"":13864},{""page_index"":9,""viewing_time"":14888},{""page_index"":10,""viewing_time"":16960},{""page_index"":11,""viewing_time"":20224},{""page_index"":12,""viewing_time"":10000},{""page_index"":13,""viewing_time"":3944}]","intro","","","","","","","","","","","","","","","","","","","","","",""
"","","","","","image-keyboard-response","4","334963","0.0-3.0-1.0","5f0d2ad60ad0d6730c380b05","665500ab8938657b03fbdba8","665796155824579986a2bdbd","13719","stimuli/1001011.jpg","2","","prediction_practice","1","{""filepath"":""stimuli/1001011.jpg"",""ball_pos"":1,""ego_ball_visible"":false,""ego_can_infer"":false,""alter_ball_visible"":true,""alter_can_infer"":true,""collective_ball_visible"":false,""collective_can_infer"":false,""search_locations"":[1],""alter_occluders"":""001"",""ego_occluders"":""011""}","false","","","","","","","","","","","","","","","","","","",""
"","","","","","image-keyboard-response","5","341658","0.0-3.0-2.0","5f0d2ad60ad0d6730c380b05","665500ab8938657b03fbdba8","665796155824579986a2bdbd","6693","stimuli/10010111.jpg"," ","","practrice_feedback","1","","","","","","","","","","","","","","","","","","","","",""
"","","","","","image-keyboard-response","6","345534","0.0-3.0-3.0","5f0d2ad60ad0d6730c380b05","665500ab8938657b03fbdba8","665796155824579986a2bdbd","3876","stimuli/0010101.jpg","2","","prediction_practice","0","{""filepath"":""stimuli/0010101.jpg"",""ball_pos"":0,""ego_ball_visible"":false,""ego_can_infer"":false,""alter_ball_visible"":true,""alter_can_infer"":true,""collective_ball_visible"":false,""collective_can_infer"":false,""search_locations"":[0],""alter_occluders"":""010"",""ego_occluders"":""101""}","false","","","","","","","","","","","","","","","","","","",""
"","","","","","image-keyboard-response","7","347599","0.0-3.0-4.0","5f0d2ad60ad0d6730c380b05","665500ab8938657b03fbdba8","665796155824579986a2bdbd","2065","stimuli/00101010.jpg"," ","","practrice_feedback","0","","","","","","","","","","","","","","","","","","","","",""
"","","","","","image-keyboard-response","8","360441","0.0-3.0-5.0","5f0d2ad60ad0d6730c380b05","665500ab8938657b03fbdba8","665796155824579986a2bdbd","12840","stimuli/1010110.jpg","1","","prediction_practice","1","{""filepath"":""stimuli/1010110.jpg"",""ball_pos"":1,""ego_ball_visible"":false,""ego_can_infer"":false,""alter_ball_visible"":false,""alter_can_infer"":true,""collective_ball_visible"":false,""collective_can_infer"":false,""search_locations"":[1],""alter_occluders"":""010"",""ego_occluders"":""110""}","true","","","","","","","","","","","","","","","","","","",""
"","","","","","image-keyboard-response","9","363196","0.0-3.0-6.0","5f0d2ad60ad0d6730c380b05","665500ab8938657b03fbdba8","665796155824579986a2bdbd","2754","stimuli/10101101.jpg"," ","","practrice_feedback","1","","","","","","","","","","","","","","","","","","","","",""
"","","","","","image-keyboard-response","10","367044","0.0-3.0-7.0","5f0d2ad60ad0d6730c380b05","665500ab8938657b03fbdba8","665796155824579986a2bdbd","3848","stimuli/2000100.jpg","2","","prediction_practice","2","{""filepath"":""stimuli/2000100.jpg"",""ball_pos"":2,""ego_ball_visible"":true,""ego_can_infer"":true,""alter_ball_visible"":true,""alter_can_infer"":true,""collective_ball_visible"":true,""collective_can_infer"":true,""search_locations"":[2],""alter_occluders"":""000"",""ego_occluders"":""100""}","true","","","","","","","","","","","","","","","","","","",""
"","","","","","image-keyboard-response","11","368863","0.0-3.0-8.0","5f0d2ad60ad0d6730c380b05","665500ab8938657b03fbdba8","665796155824579986a2bdbd","1818","stimuli/20001002.jpg"," ","","practrice_feedback","2","","","","","","","","","","","","","","","","","","","","",""
"","","","","","image-keyboard-response","12","372097","0.0-3.0-9.0","5f0d2ad60ad0d6730c380b05","665500ab8938657b03fbdba8","665796155824579986a2bdbd","3233","stimuli/2100101.jpg","0","","prediction_practice","2","{""filepath"":""stimuli/2100101.jpg"",""ball_pos"":2,""ego_ball_visible"":false,""ego_can_infer"":false,""alter_ball_visible"":true,""alter_can_infer"":true,""collective_ball_visible"":false,""collective_can_infer"":false,""search_locations"":[2],""alter_occluders"":""100"",""ego_occluders"":""101""}","false","","","","","","","","","","","","","","","","","","",""
"","","","","","image-keyboard-response","13","375919","0.0-3.0-10.0","5f0d2ad60ad0d6730c380b05","665500ab8938657b03fbdba8","665796155824579986a2bdbd","3821","stimuli/21001012.jpg"," ","","practrice_feedback","2","","","","","","","","","","","","","","","","","","","","",""
"","","","","","image-keyboard-response","14","381762","0.0-3.0-11.0","5f0d2ad60ad0d6730c380b05","665500ab8938657b03fbdba8","665796155824579986a2bdbd","5842","stimuli/2100110.jpg","2","","prediction_practice","2","{""filepath"":""stimuli/2100110.jpg"",""ball_pos"":2,""ego_ball_visible"":true,""ego_can_infer"":true,""alter_ball_visible"":true,""alter_can_infer"":true,""collective_ball_visible"":true,""collective_can_infer"":true,""search_locations"":[2],""alter_occluders"":""100"",""ego_occluders"":""110""}","true","","","","","","","","","","","","","","","","","","",""
"","","","","","image-keyboard-response","15","383327","0.0-3.0-12.0","5f0d2ad60ad0d6730c380b05","665500ab8938657b03fbdba8","665796155824579986a2bdbd","1564","stimuli/21001102.jpg"," ","","practrice_feedback","2","","","","","","","","","","","","","","","","","","","","",""
"","","","","","image-keyboard-response","16","388198","0.0-3.0-13.0","5f0d2ad60ad0d6730c380b05","665500ab8938657b03fbdba8","665796155824579986a2bdbd","4871","stimuli/0010110.jpg","0","","prediction_practice","0","{""filepath"":""stimuli/0010110.jpg"",""ball_pos"":0,""ego_ball_visible"":false,""ego_can_infer"":false,""alter_ball_visible"":true,""alter_can_infer"":true,""collective_ball_visible"":false,""collective_can_infer"":false,""search_locations"":[0],""alter_occluders"":""010"",""ego_occluders"":""110""}","true","","","","","","","","","","","","","","","","","","",""
"","","","","","image-keyboard-response","17","390450","0.0-3.0-14.0","5f0d2ad60ad0d6730c380b05","665500ab8938657b03fbdba8","665796155824579986a2bdbd","2251","stimuli/00101100.jpg"," ","","practrice_feedback","0","","","","","","","","","","","","","","","","","","","","",""
"","","","","","image-keyboard-response","18","399935","0.0-3.0-15.0","5f0d2ad60ad0d6730c380b05","665500ab8938657b03fbdba8","665796155824579986a2bdbd","9485","stimuli/0110000.jpg","0","","prediction_practice","1","{""filepath"":""stimuli/0110000.jpg"",""ball_pos"":0,""ego_ball_visible"":true,""ego_can_infer"":true,""alter_ball_visible"":false,""alter_can_infer"":false,""collective_ball_visible"":false,""collective_can_infer"":false,""search_locations"":[0,1],""alter_occluders"":""110"",""ego_occluders"":""000""}","false","","","","","","","","","","","","","","","","","","",""
"","","","","","image-keyboard-response","19","404208","0.0-3.0-16.0","5f0d2ad60ad0d6730c380b05","665500ab8938657b03fbdba8","665796155824579986a2bdbd","4271","stimuli/01100001.jpg"," ","","practrice_feedback","0","","","","","","","","","","","","","","","","","","","","",""
"","","","","","image-keyboard-response","20","410337","0.0-3.0-17.0","5f0d2ad60ad0d6730c380b05","665500ab8938657b03fbdba8","665796155824579986a2bdbd","6128","stimuli/1010101.jpg","1","","prediction_practice","1","{""filepath"":""stimuli/1010101.jpg"",""ball_pos"":1,""ego_ball_visible"":true,""ego_can_infer"":true,""alter_ball_visible"":false,""alter_can_infer"":true,""collective_ball_visible"":false,""collective_can_infer"":true,""search_locations"":[1],""alter_occluders"":""010"",""ego_occluders"":""101""}","true","","","","","","","","","","","","","","","","","","",""
"","","","","","image-keyboard-response","21","411676","0.0-3.0-18.0","5f0d2ad60ad0d6730c380b05","665500ab8938657b03fbdba8","665796155824579986a2bdbd","1339","stimuli/10101011.jpg"," ","","practrice_feedback","1","","","","","","","","","","","","","","","","","","","","",""
"","","","","","image-keyboard-response","22","416929","0.0-3.0-19.0","5f0d2ad60ad0d6730c380b05","665500ab8938657b03fbdba8","665796155824579986a2bdbd","5253","stimuli/2110111.jpg","1","","prediction_practice","2","{""filepath"":""stimuli/2110111.jpg"",""ball_pos"":2,""ego_ball_visible"":false,""ego_can_infer"":false,""alter_ball_visible"":true,""alter_can_infer"":true,""collective_ball_visible"":false,""collective_can_infer"":false,""search_locations"":[2],""alter_occluders"":""110"",""ego_occluders"":""111""}","false","","","","","","","","","","","","","","","","","","",""
"","","","","","image-keyboard-response","23","419411","0.0-3.0-20.0","5f0d2ad60ad0d6730c380b05","665500ab8938657b03fbdba8","665796155824579986a2bdbd","2480","stimuli/21101112.jpg"," ","","practrice_feedback","2","","","","","","","","","","","","","","","","","","","","",""
"","","","","","html-button-response","24","431114","0.0-3.0-21.0","5f0d2ad60ad0d6730c380b05","665500ab8938657b03fbdba8","665796155824579986a2bdbd","11702","Now that you've had some practice, you'll be tested with a couple of easy trials. If you correctly predict Sam's choice, you'll move on to complete the experiment!","0","","","","","","","","","","","","","","","","","","","","","","","",""
"","","","","","image-keyboard-response","25","433997","0.0-3.0-22.0-0.0","5f0d2ad60ad0d6730c380b05","665500ab8938657b03fbdba8","665796155824579986a2bdbd","2882","stimuli/0000011.jpg","arrowleft","","comprehension_quiz","","","true","arrowleft","","","","","","","","","","","","","","","","","",""
"","","","","","image-keyboard-response","26","436524","0.0-3.0-22.0-1.0","5f0d2ad60ad0d6730c380b05","665500ab8938657b03fbdba8","665796155824579986a2bdbd","2526","stimuli/00000110.jpg"," ","","comprehension_quiz","","","true"," ","","","","","","","","","","","","","","","","","",""
"","","","","","image-keyboard-response","27","440490","0.0-3.0-22.0-2.0","5f0d2ad60ad0d6730c380b05","665500ab8938657b03fbdba8","665796155824579986a2bdbd","3965","stimuli/1010010.jpg","arrowdown","","comprehension_quiz","","","true","arrowdown","","","","","","","","","","","","","","","","","",""
"","","","","","image-keyboard-response","28","442166","0.0-3.0-22.0-3.0","5f0d2ad60ad0d6730c380b05","665500ab8938657b03fbdba8","665796155824579986a2bdbd","1675","stimuli/10100101.jpg"," ","","comprehension_quiz","","","true"," ","","","","","","","","","","","","","","","","","",""
"","","","","","html-button-response","29","446026","0.0-4.0","5f0d2ad60ad0d6730c380b05","665500ab8938657b03fbdba8","665796155824579986a2bdbd","3859","The experiment will now begin.","0","","","","","","","","","","","","","","","","","","","","","","","",""
"","","","","","image-keyboard-response","30","455997","0.0-5.0","5f0d2ad60ad0d6730c380b05","665500ab8938657b03fbdba8","665796155824579986a2bdbd","9970","stimuli/2111100.jpg","1","","prediction_trial","2","","false","","2","true","true","false","false","false","false","[0,2,1]","111","100","0","","","","","","",""
"","","","","","image-keyboard-response","31","461004","0.0-6.0","5f0d2ad60ad0d6730c380b05","665500ab8938657b03fbdba8","665796155824579986a2bdbd","5007","stimuli/21111002.jpg"," ","","feedback_trial","0","","","","","","","","","","","","","","","","","","","","",""
"","","","","","image-keyboard-response","32","462855","0.0-7.0","5f0d2ad60ad0d6730c380b05","665500ab8938657b03fbdba8","665796155824579986a2bdbd","1850","stimuli/1001001.jpg","1","","prediction_trial","1","","true","","1","true","true","true","true","true","true","[1]","001","001","1","","","","","","",""
"","","","","","image-keyboard-response","33","463912","0.0-8.0","5f0d2ad60ad0d6730c380b05","665500ab8938657b03fbdba8","665796155824579986a2bdbd","1056","stimuli/10010011.jpg"," ","","feedback_trial","1","","","","","","","","","","","","","","","","","","","","",""
"","","","","","image-keyboard-response","34","466409","0.0-9.0","5f0d2ad60ad0d6730c380b05","665500ab8938657b03fbdba8","665796155824579986a2bdbd","2496","stimuli/0011100.jpg","0","","prediction_trial","0","","true","","0","false","true","true","true","false","true","[0]","011","100","1","","","","","","",""
"","","","","","image-keyboard-response","35","467417","0.0-10.0","5f0d2ad60ad0d6730c380b05","665500ab8938657b03fbdba8","665796155824579986a2bdbd","1008","stimuli/00111000.jpg"," ","","feedback_trial","0","","","","","","","","","","","","","","","","","","","","",""
"","","","","","image-keyboard-response","36","468854","0.0-11.0","5f0d2ad60ad0d6730c380b05","665500ab8938657b03fbdba8","665796155824579986a2bdbd","1437","stimuli/1101101.jpg","1","","prediction_trial","1","","true","","1","true","true","true","true","true","true","[1]","101","101","1","","","","","","",""
"","","","","","image-keyboard-response","37","469823","0.0-12.0","5f0d2ad60ad0d6730c380b05","665500ab8938657b03fbdba8","665796155824579986a2bdbd","968","stimuli/11011011.jpg"," ","","feedback_trial","1","","","","","","","","","","","","","","","","","","","","",""
"","","","","","image-keyboard-response","38","472911","0.0-13.0","5f0d2ad60ad0d6730c380b05","665500ab8938657b03fbdba8","665796155824579986a2bdbd","3087","stimuli/2101100.jpg","2","","prediction_trial","0","","false","","2","true","true","false","false","false","false","[2,0]","101","100","0","","","","","","",""
"","","","","","image-keyboard-response","39","474106","0.0-14.0","5f0d2ad60ad0d6730c380b05","665500ab8938657b03fbdba8","665796155824579986a2bdbd","1194","stimuli/21011000.jpg"," ","","feedback_trial","2","","","","","","","","","","","","","","","","","","","","",""
"","","","","","image-keyboard-response","40","476906","0.0-15.0","5f0d2ad60ad0d6730c380b05","665500ab8938657b03fbdba8","665796155824579986a2bdbd","2800","stimuli/1110100.jpg","1","","prediction_trial","0","","false","","1","true","true","false","false","false","false","[1,0]","110","100","0","","","","","","",""
"","","","","","image-keyboard-response","41","478236","0.0-16.0","5f0d2ad60ad0d6730c380b05","665500ab8938657b03fbdba8","665796155824579986a2bdbd","1329","stimuli/11101000.jpg"," ","","feedback_trial","1","","","","","","","","","","","","","","","","","","","","",""
"","","","","","image-keyboard-response","42","483581","0.0-17.0","5f0d2ad60ad0d6730c380b05","665500ab8938657b03fbdba8","665796155824579986a2bdbd","5345","stimuli/2011100.jpg","1","","prediction_trial","2","","false","","2","true","true","false","false","false","false","[2,1]","011","100","0","","","","","","",""
"","","","","","image-keyboard-response","43","484683","0.0-18.0","5f0d2ad60ad0d6730c380b05","665500ab8938657b03fbdba8","665796155824579986a2bdbd","1101","stimuli/20111002.jpg"," ","","feedback_trial","2","","","","","","","","","","","","","","","","","","","","",""
"","","","","","image-keyboard-response","44","487411","0.0-19.0","5f0d2ad60ad0d6730c380b05","665500ab8938657b03fbdba8","665796155824579986a2bdbd","2727","stimuli/0001100.jpg","0","","prediction_trial","0","","true","","0","false","true","true","true","false","true","[0]","001","100","1","","","","","","",""
"","","","","","image-keyboard-response","45","488418","0.0-20.0","5f0d2ad60ad0d6730c380b05","665500ab8938657b03fbdba8","665796155824579986a2bdbd","1007","stimuli/00011000.jpg"," ","","feedback_trial","0","","","","","","","","","","","","","","","","","","","","",""
"","","","","","image-keyboard-response","46","489764","0.0-21.0","5f0d2ad60ad0d6730c380b05","665500ab8938657b03fbdba8","665796155824579986a2bdbd","1345","stimuli/0011010.jpg","0","","prediction_trial","0","","true","","0","true","true","true","true","true","true","[0]","011","010","1","","","","","","",""
"","","","","","image-keyboard-response","47","490591","0.0-22.0","5f0d2ad60ad0d6730c380b05","665500ab8938657b03fbdba8","665796155824579986a2bdbd","826","stimuli/00110100.jpg"," ","","feedback_trial","0","","","","","","","","","","","","","","","","","","","","",""
"","","","","","image-keyboard-response","48","495845","0.0-23.0","5f0d2ad60ad0d6730c380b05","665500ab8938657b03fbdba8","665796155824579986a2bdbd","5253","stimuli/1110111.jpg","1","","prediction_trial","0","","false","","1","false","false","false","false","false","false","[1,0]","110","111","0","","","","","","",""
"","","","","","image-keyboard-response","49","497269","0.0-24.0","5f0d2ad60ad0d6730c380b05","665500ab8938657b03fbdba8","665796155824579986a2bdbd","1423","stimuli/11101110.jpg"," ","","feedback_trial","1","","","","","","","","","","","","","","","","","","","","",""
"","","","","","image-keyboard-response","50","499168","0.0-25.0","5f0d2ad60ad0d6730c380b05","665500ab8938657b03fbdba8","665796155824579986a2bdbd","1899","stimuli/1000001.jpg","1","","prediction_trial","1","","true","","1","true","true","true","true","true","true","[1]","000","001","1","","","","","","",""
"","","","","","image-keyboard-response","51","500204","0.0-26.0","5f0d2ad60ad0d6730c380b05","665500ab8938657b03fbdba8","665796155824579986a2bdbd","1035","stimuli/10000011.jpg"," ","","feedback_trial","1","","","","","","","","","","","","","","","","","","","","",""
"","","","","","image-keyboard-response","52","501321","0.0-27.0","5f0d2ad60ad0d6730c380b05","665500ab8938657b03fbdba8","665796155824579986a2bdbd","1116","stimuli/2010000.jpg","2","","prediction_trial","2","","true","","2","true","true","true","true","true","true","[2]","010","000","1","","","","","","",""
"","","","","","image-keyboard-response","53","502054","0.0-28.0","5f0d2ad60ad0d6730c380b05","665500ab8938657b03fbdba8","665796155824579986a2bdbd","732","stimuli/20100002.jpg"," ","","feedback_trial","2","","","","","","","","","","","","","","","","","","","","",""
"","","","","","image-keyboard-response","54","505101","0.0-29.0","5f0d2ad60ad0d6730c380b05","665500ab8938657b03fbdba8","665796155824579986a2bdbd","3046","stimuli/0011111.jpg","1","","prediction_trial","0","","false","","0","false","false","true","true","false","false","[0]","011","111","0","","","","","","",""
"","","","","","image-keyboard-response","55","507950","0.0-30.0","5f0d2ad60ad0d6730c380b05","665500ab8938657b03fbdba8","665796155824579986a2bdbd","2849","stimuli/00111110.jpg"," ","","feedback_trial","0","","","","","","","","","","","","","","","","","","","","",""
"","","","","","image-keyboard-response","56","510999","0.0-31.0","5f0d2ad60ad0d6730c380b05","665500ab8938657b03fbdba8","665796155824579986a2bdbd","3040","stimuli/2100111.jpg","2","","prediction_trial","2","","true","","2","false","false","true","true","false","false","[2]","100","111","1","","","","","","",""
"","","","","","image-keyboard-response","57","513478","0.0-32.0","5f0d2ad60ad0d6730c380b05","665500ab8938657b03fbdba8","665796155824579986a2bdbd","2478","stimuli/21001112.jpg"," ","","feedback_trial","2","","","","","","","","","","","","","","","","","","","","",""
"","","","","","image-keyboard-response","58","514824","0.0-33.0","5f0d2ad60ad0d6730c380b05","665500ab8938657b03fbdba8","665796155824579986a2bdbd","1345","stimuli/1010010.jpg","1","","prediction_trial","1","","true","","1","false","true","false","true","false","true","[1]","010","010","1","","","","","","",""
"","","","","","image-keyboard-response","59","515972","0.0-34.0","5f0d2ad60ad0d6730c380b05","665500ab8938657b03fbdba8","665796155824579986a2bdbd","1148","stimuli/10100101.jpg"," ","","feedback_trial","1","","","","","","","","","","","","","","","","","","","","",""
"","","","","","image-keyboard-response","60","523895","0.0-35.0","5f0d2ad60ad0d6730c380b05","665500ab8938657b03fbdba8","665796155824579986a2bdbd","7922","stimuli/1100011.jpg","2","","prediction_trial","1","","false","","1","false","false","true","true","false","false","[1]","100","011","0","","","","","","",""
"","","","","","image-keyboard-response","61","526192","0.0-36.0","5f0d2ad60ad0d6730c380b05","665500ab8938657b03fbdba8","665796155824579986a2bdbd","2297","stimuli/11000111.jpg"," ","","feedback_trial","1","","","","","","","","","","","","","","","","","","","","",""
"","","","","","image-keyboard-response","62","529054","0.0-37.0","5f0d2ad60ad0d6730c380b05","665500ab8938657b03fbdba8","665796155824579986a2bdbd","2862","stimuli/1010101.jpg","1","","prediction_trial","1","","true","","1","true","true","false","true","false","true","[1]","010","101","1","","","","","","",""
"","","","","","image-keyboard-response","63","530386","0.0-38.0","5f0d2ad60ad0d6730c380b05","665500ab8938657b03fbdba8","665796155824579986a2bdbd","1332","stimuli/10101011.jpg"," ","","feedback_trial","1","","","","","","","","","","","","","","","","","","","","",""
"","","","","","image-keyboard-response","64","537252","0.0-39.0","5f0d2ad60ad0d6730c380b05","665500ab8938657b03fbdba8","665796155824579986a2bdbd","6865","stimuli/2111001.jpg","0","","prediction_trial","2","","false","","2","false","true","false","false","false","false","[0,2,1]","111","001","0","","","","","","",""
"","","","","","image-keyboard-response","65","540329","0.0-40.0","5f0d2ad60ad0d6730c380b05","665500ab8938657b03fbdba8","665796155824579986a2bdbd","3077","stimuli/21110012.jpg"," ","","feedback_trial","0","","","","","","","","","","","","","","","","","","","","",""
"","","","","","image-keyboard-response","66","543191","0.0-41.0","5f0d2ad60ad0d6730c380b05","665500ab8938657b03fbdba8","665796155824579986a2bdbd","2862","stimuli/1000010.jpg","1","","prediction_trial","1","","true","","1","false","true","true","true","false","true","[1]","000","010","1","","","","","","",""
"","","","","","image-keyboard-response","67","544891","0.0-42.0","5f0d2ad60ad0d6730c380b05","665500ab8938657b03fbdba8","665796155824579986a2bdbd","1699","stimuli/10000101.jpg"," ","","feedback_trial","1","","","","","","","","","","","","","","","","","","","","",""
"","","","","","image-keyboard-response","68","547526","0.0-43.0","5f0d2ad60ad0d6730c380b05","665500ab8938657b03fbdba8","665796155824579986a2bdbd","2634","stimuli/2001001.jpg","2","","prediction_trial","2","","true","","2","false","true","false","true","false","true","[2]","001","001","1","","","","","","",""
"","","","","","image-keyboard-response","69","548902","0.0-44.0","5f0d2ad60ad0d6730c380b05","665500ab8938657b03fbdba8","665796155824579986a2bdbd","1375","stimuli/20010012.jpg"," ","","feedback_trial","2","","","","","","","","","","","","","","","","","","","","",""
"","","","","","image-keyboard-response","70","554247","0.0-45.0","5f0d2ad60ad0d6730c380b05","665500ab8938657b03fbdba8","665796155824579986a2bdbd","5345","stimuli/2010011.jpg","1","","prediction_trial","2","","false","","2","false","false","true","true","false","false","[2]","010","011","0","","","","","","",""
"","","","","","image-keyboard-response","71","555671","0.0-46.0","5f0d2ad60ad0d6730c380b05","665500ab8938657b03fbdba8","665796155824579986a2bdbd","1423","stimuli/20100112.jpg"," ","","feedback_trial","2","","","","","","","","","","","","","","","","","","","","",""
"","","","","","image-keyboard-response","72","560329","0.0-47.0","5f0d2ad60ad0d6730c380b05","665500ab8938657b03fbdba8","665796155824579986a2bdbd","4649","stimuli/0001101.jpg","0","","prediction_trial","0","","true","","0","false","false","true","true","false","false","[0]","001","101","1","","","","","","",""
"","","","","","image-keyboard-response","73","561567","0.0-48.0","5f0d2ad60ad0d6730c380b05","665500ab8938657b03fbdba8","665796155824579986a2bdbd","1237","stimuli/00011010.jpg"," ","","feedback_trial","0","","","","","","","","","","","","","","","","","","","","",""
"","","","","","image-keyboard-response","74","567142","0.0-49.0","5f0d2ad60ad0d6730c380b05","665500ab8938657b03fbdba8","665796155824579986a2bdbd","5575","stimuli/1000111.jpg","2","","prediction_trial","1","","false","","1","false","false","true","true","false","false","[1]","000","111","0","","","","","","",""
"","","","","","image-keyboard-response","75","568842","0.0-50.0","5f0d2ad60ad0d6730c380b05","665500ab8938657b03fbdba8","665796155824579986a2bdbd","1699","stimuli/10001111.jpg"," ","","feedback_trial","1","","","","","","","","","","","","","","","","","","","","",""
"","","","","","image-keyboard-response","76","572489","0.0-51.0","5f0d2ad60ad0d6730c380b05","665500ab8938657b03fbdba8","665796155824579986a2bdbd","3646","stimuli/1010100.jpg","1","","prediction_trial","1","","true","","1","true","true","false","true","false","true","[1]","010","100","1","","","","","","",""
"","","","","","image-keyboard-response","77","573387","0.0-52.0","5f0d2ad60ad0d6730c380b05","665500ab8938657b03fbdba8","665796155824579986a2bdbd","897","stimuli/10101001.jpg"," ","","feedback_trial","1","","","","","","","","","","","","","","","","","","","","",""
"","","","","","image-keyboard-response","78","574548","0.0-53.0","5f0d2ad60ad0d6730c380b05","665500ab8938657b03fbdba8","665796155824579986a2bdbd","1161","stimuli/2000110.jpg","2","","prediction_trial","2","","true","","2","true","true","true","true","true","true","[2]","000","110","1","","","","","","",""
"","","","","","image-keyboard-response","79","575558","0.0-54.0","5f0d2ad60ad0d6730c380b05","665500ab8938657b03fbdba8","665796155824579986a2bdbd","1010","stimuli/20001102.jpg"," ","","feedback_trial","2","","","","","","","","","","","","","","","","","","","","",""
"","","","","","image-keyboard-response","80","577116","0.0-55.0","5f0d2ad60ad0d6730c380b05","665500ab8938657b03fbdba8","665796155824579986a2bdbd","1557","stimuli/2100100.jpg","2","","prediction_trial","2","","true","","2","true","true","true","true","true","true","[2]","100","100","1","","","","","","",""
"","","","","","image-keyboard-response","81","578174","0.0-56.0","5f0d2ad60ad0d6730c380b05","665500ab8938657b03fbdba8","665796155824579986a2bdbd","1057","stimuli/21001002.jpg"," ","","feedback_trial","2","","","","","","","","","","","","","","","","","","","","",""
"","","","","","image-keyboard-response","82","580378","0.0-57.0","5f0d2ad60ad0d6730c380b05","665500ab8938657b03fbdba8","665796155824579986a2bdbd","2203","stimuli/2001110.jpg","2","","prediction_trial","2","","true","","2","true","true","false","true","false","true","[2]","001","110","1","","","","","","",""
"","","","","","image-keyboard-response","83","581326","0.0-58.0","5f0d2ad60ad0d6730c380b05","665500ab8938657b03fbdba8","665796155824579986a2bdbd","947","stimuli/20011102.jpg"," ","","feedback_trial","2","","","","","","","","","","","","","","","","","","","","",""
"","","","","","image-keyboard-response","84","584743","0.0-59.0","5f0d2ad60ad0d6730c380b05","665500ab8938657b03fbdba8","665796155824579986a2bdbd","3416","stimuli/2011110.jpg","1","","prediction_trial","2","","false","","2","true","true","false","false","false","false","[1,2]","011","110","0","","","","","","",""
"","","","","","image-keyboard-response","85","587774","0.0-60.0","5f0d2ad60ad0d6730c380b05","665500ab8938657b03fbdba8","665796155824579986a2bdbd","3030","stimuli/20111102.jpg"," ","","feedback_trial","1","","","","","","","","","","","","","","","","","","","","",""
"","","","","","image-keyboard-response","86","590299","0.0-61.0","5f0d2ad60ad0d6730c380b05","665500ab8938657b03fbdba8","665796155824579986a2bdbd","2525","stimuli/2110001.jpg","2","","prediction_trial","2","","true","","2","false","true","true","true","false","true","[2]","110","001","1","","","","","","",""
"","","","","","image-keyboard-response","87","591539","0.0-62.0","5f0d2ad60ad0d6730c380b05","665500ab8938657b03fbdba8","665796155824579986a2bdbd","1239","stimuli/21100012.jpg"," ","","feedback_trial","2","","","","","","","","","","","","","","","","","","","","",""
"","","","","","image-keyboard-response","88","595169","0.0-63.0","5f0d2ad60ad0d6730c380b05","665500ab8938657b03fbdba8","665796155824579986a2bdbd","3629","stimuli/2001011.jpg","0","","prediction_trial","2","","false","","2","false","false","false","true","false","false","[2]","001","011","0","","","","","","",""
"","","","","","image-keyboard-response","89","599349","0.0-64.0","5f0d2ad60ad0d6730c380b05","665500ab8938657b03fbdba8","665796155824579986a2bdbd","4180","stimuli/20010112.jpg"," ","","feedback_trial","2","","","","","","","","","","","","","","","","","","","","",""
"","","","","","image-keyboard-response","90","601044","0.0-65.0","5f0d2ad60ad0d6730c380b05","665500ab8938657b03fbdba8","665796155824579986a2bdbd","1694","stimuli/2111111.jpg","1","","prediction_trial","1","","true","","2","false","false","false","false","false","false","[1,0,2]","111","111","1","","","","","","",""
"","","","","","image-keyboard-response","91","602468","0.0-66.0","5f0d2ad60ad0d6730c380b05","665500ab8938657b03fbdba8","665796155824579986a2bdbd","1423","stimuli/21111111.jpg"," ","","feedback_trial","1","","","","","","","","","","","","","","","","","","","","",""
"","","","","","image-keyboard-response","92","605242","0.0-67.0","5f0d2ad60ad0d6730c380b05","665500ab8938657b03fbdba8","665796155824579986a2bdbd","2773","stimuli/0111001.jpg","0","","prediction_trial","1","","false","","0","true","true","false","false","false","false","[2,0,1]","111","001","0","","","","","","",""
"","","","","","image-keyboard-response","93","606250","0.0-68.0","5f0d2ad60ad0d6730c380b05","665500ab8938657b03fbdba8","665796155824579986a2bdbd","1007","stimuli/01110011.jpg"," ","","feedback_trial","2","","","","","","","","","","","","","","","","","","","","",""
"","","","","","image-keyboard-response","94","608928","0.0-69.0","5f0d2ad60ad0d6730c380b05","665500ab8938657b03fbdba8","665796155824579986a2bdbd","2678","stimuli/2001100.jpg","2","","prediction_trial","2","","true","","2","true","true","false","true","false","true","[2]","001","100","1","","","","","","",""
"","","","","","image-keyboard-response","95","609878","0.0-70.0","5f0d2ad60ad0d6730c380b05","665500ab8938657b03fbdba8","665796155824579986a2bdbd","949","stimuli/20011002.jpg"," ","","feedback_trial","2","","","","","","","","","","","","","","","","","","","","",""
"","","","","","image-keyboard-response","96","613017","0.0-71.0","5f0d2ad60ad0d6730c380b05","665500ab8938657b03fbdba8","665796155824579986a2bdbd","3138","stimuli/0110111.jpg","1","","prediction_trial","0","","false","","0","false","false","false","false","false","false","[0,1]","110","111","0","","","","","","",""
"","","","","","image-keyboard-response","97","614441","0.0-72.0","5f0d2ad60ad0d6730c380b05","665500ab8938657b03fbdba8","665796155824579986a2bdbd","1423","stimuli/01101110.jpg"," ","","feedback_trial","0","","","","","","","","","","","","","","","","","","","","",""
"","","","","","image-keyboard-response","98","621997","0.0-73.0","5f0d2ad60ad0d6730c380b05","665500ab8938657b03fbdba8","665796155824579986a2bdbd","7554","stimuli/2011101.jpg","2","","prediction_trial","2","","true","","2","false","false","false","false","false","false","[1,2]","011","101","1","","","","","","",""
"","","","","","image-keyboard-response","99","623465","0.0-74.0","5f0d2ad60ad0d6730c380b05","665500ab8938657b03fbdba8","665796155824579986a2bdbd","1467","stimuli/20111012.jpg"," ","","feedback_trial","1","","","","","","","","","","","","","","","","","","","","",""
"","","","","","image-keyboard-response","100","631936","0.0-75.0","5f0d2ad60ad0d6730c380b05","665500ab8938657b03fbdba8","665796155824579986a2bdbd","8471","stimuli/2101001.jpg","0","","prediction_trial","0","","true","","2","false","true","false","false","false","false","[0,2]","101","001","1","","","","","","",""
"","","","","","image-keyboard-response","101","633455","0.0-76.0","5f0d2ad60ad0d6730c380b05","665500ab8938657b03fbdba8","665796155824579986a2bdbd","1518","stimuli/21010010.jpg"," ","","feedback_trial","0","","","","","","","","","","","","","","","","","","","","",""
"","","","","","image-keyboard-response","102","643674","0.0-77.0","5f0d2ad60ad0d6730c380b05","665500ab8938657b03fbdba8","665796155824579986a2bdbd","10218","stimuli/0000110.jpg","1","","prediction_trial","0","","false","","0","false","false","true","true","false","false","[0]","000","110","0","","","","","","",""
"","","","","","image-keyboard-response","103","645152","0.0-78.0","5f0d2ad60ad0d6730c380b05","665500ab8938657b03fbdba8","665796155824579986a2bdbd","1478","stimuli/00001100.jpg"," ","","feedback_trial","0","","","","","","","","","","","","","","","","","","","","",""
"","","","","","image-keyboard-response","104","648832","0.0-79.0","5f0d2ad60ad0d6730c380b05","665500ab8938657b03fbdba8","665796155824579986a2bdbd","3679","stimuli/0101001.jpg","0","","prediction_trial","0","","true","","0","true","true","false","false","false","false","[0,2]","101","001","1","","","","","","",""
"","","","","","image-keyboard-response","105","650027","0.0-80.0","5f0d2ad60ad0d6730c380b05","665500ab8938657b03fbdba8","665796155824579986a2bdbd","1183","stimuli/01010010.jpg"," ","","feedback_trial","0","","","","","","","","","","","","","","","","","","","","",""
"","","","","","image-keyboard-response","106","652705","0.0-81.0","5f0d2ad60ad0d6730c380b05","665500ab8938657b03fbdba8","665796155824579986a2bdbd","2678","stimuli/1110001.jpg","1","","prediction_trial","0","","false","","1","true","true","false","false","false","false","[0,1]","110","001","0","","","","","","",""
"","","","","","image-keyboard-response","107","654362","0.0-82.0","5f0d2ad60ad0d6730c380b05","665500ab8938657b03fbdba8","665796155824579986a2bdbd","1656","stimuli/11100010.jpg"," ","","feedback_trial","0","","","","","","","","","","","","","","","","","","","","",""
"","","","","","image-keyboard-response","108","661389","0.0-83.0","5f0d2ad60ad0d6730c380b05","665500ab8938657b03fbdba8","665796155824579986a2bdbd","7026","stimuli/0001111.jpg","2","","prediction_trial","0","","false","","0","false","false","true","true","false","false","[0]","001","111","0","","","","","","",""
"","","","","","image-keyboard-response","109","662911","0.0-84.0","5f0d2ad60ad0d6730c380b05","665500ab8938657b03fbdba8","665796155824579986a2bdbd","1522","stimuli/00011110.jpg"," ","","feedback_trial","0","","","","","","","","","","","","","","","","","","","","",""
"","","","","","image-keyboard-response","110","669218","0.0-85.0","5f0d2ad60ad0d6730c380b05","665500ab8938657b03fbdba8","665796155824579986a2bdbd","6307","stimuli/0001110.jpg","1","","prediction_trial","0","","false","","0","false","false","true","true","false","false","[0]","001","110","0","","","","","","",""
"","","","","","image-keyboard-response","111","670640","0.0-86.0","5f0d2ad60ad0d6730c380b05","665500ab8938657b03fbdba8","665796155824579986a2bdbd","1421","stimuli/00011100.jpg"," ","","feedback_trial","0","","","","","","","","","","","","","","","","","","","","",""
"","","","","","image-keyboard-response","112","677135","0.0-87.0","5f0d2ad60ad0d6730c380b05","665500ab8938657b03fbdba8","665796155824579986a2bdbd","6494","stimuli/0101110.jpg","0","","prediction_trial","0","","true","","0","false","false","false","false","false","false","[0,2]","101","110","1","","","","","","",""
"","","","","","image-keyboard-response","113","678652","0.0-88.0","5f0d2ad60ad0d6730c380b05","665500ab8938657b03fbdba8","665796155824579986a2bdbd","1516","stimuli/01011100.jpg"," ","","feedback_trial","0","","","","","","","","","","","","","","","","","","","","",""
"","","","","","image-keyboard-response","114","686344","0.0-89.0","5f0d2ad60ad0d6730c380b05","665500ab8938657b03fbdba8","665796155824579986a2bdbd","7692","stimuli/2100011.jpg","1","","prediction_trial","2","","false","","2","false","false","true","true","false","false","[2]","100","011","0","","","","","","",""
"","","","","","image-keyboard-response","115","687491","0.0-90.0","5f0d2ad60ad0d6730c380b05","665500ab8938657b03fbdba8","665796155824579986a2bdbd","1145","stimuli/21000112.jpg"," ","","feedback_trial","2","","","","","","","","","","","","","","","","","","","","",""
"","","","","","image-keyboard-response","116","689388","0.0-91.0","5f0d2ad60ad0d6730c380b05","665500ab8938657b03fbdba8","665796155824579986a2bdbd","1896","stimuli/0010001.jpg","0","","prediction_trial","0","","true","","0","true","true","true","true","true","true","[0]","010","001","1","","","","","","",""
"","","","","","image-keyboard-response","117","690538","0.0-92.0","5f0d2ad60ad0d6730c380b05","665500ab8938657b03fbdba8","665796155824579986a2bdbd","1149","stimuli/00100010.jpg"," ","","feedback_trial","0","","","","","","","","","","","","","","","","","","","","",""
"","","","","","image-keyboard-response","118","692785","0.0-93.0","5f0d2ad60ad0d6730c380b05","665500ab8938657b03fbdba8","665796155824579986a2bdbd","2246","stimuli/2001000.jpg","2","","prediction_trial","2","","true","","2","true","true","false","true","false","true","[2]","001","000","1","","","","","","",""
"","","","","","image-keyboard-response","119","693703","0.0-94.0","5f0d2ad60ad0d6730c380b05","665500ab8938657b03fbdba8","665796155824579986a2bdbd","918","stimuli/20010002.jpg"," ","","feedback_trial","2","","","","","","","","","","","","","","","","","","","","",""
"","","","","","image-keyboard-response","120","697580","0.0-95.0","5f0d2ad60ad0d6730c380b05","665500ab8938657b03fbdba8","665796155824579986a2bdbd","3877","stimuli/2101101.jpg","2","","prediction_trial","2","","true","","2","false","false","false","false","false","false","[0,2]","101","101","1","","","","","","",""
"","","","","","image-keyboard-response","121","699370","0.0-96.0","5f0d2ad60ad0d6730c380b05","665500ab8938657b03fbdba8","665796155824579986a2bdbd","1789","stimuli/21011012.jpg"," ","","feedback_trial","0","","","","","","","","","","","","","","","","","","","","",""
"","","","","","image-keyboard-response","122","703842","0.0-97.0","5f0d2ad60ad0d6730c380b05","665500ab8938657b03fbdba8","665796155824579986a2bdbd","4471","stimuli/0111011.jpg","2","","prediction_trial","0","","false","","0","true","true","false","false","false","false","[0,2,1]","111","011","0","","","","","","",""
"","","","","","image-keyboard-response","123","705450","0.0-98.0","5f0d2ad60ad0d6730c380b05","665500ab8938657b03fbdba8","665796155824579986a2bdbd","1608","stimuli/01110110.jpg"," ","","feedback_trial","0","","","","","","","","","","","","","","","","","","","","",""
"","","","","","image-keyboard-response","124","706979","0.0-99.0","5f0d2ad60ad0d6730c380b05","665500ab8938657b03fbdba8","665796155824579986a2bdbd","1528","stimuli/0000001.jpg","0","","prediction_trial","0","","true","","0","true","true","true","true","true","true","[0]","000","001","1","","","","","","",""
"","","","","","image-keyboard-response","125","708084","0.0-100.0","5f0d2ad60ad0d6730c380b05","665500ab8938657b03fbdba8","665796155824579986a2bdbd","1104","stimuli/00000010.jpg"," ","","feedback_trial","0","","","","","","","","","","","","","","","","","","","","",""
"","","","","","image-keyboard-response","126","712507","0.0-101.0","5f0d2ad60ad0d6730c380b05","665500ab8938657b03fbdba8","665796155824579986a2bdbd","4423","stimuli/2101111.jpg","0","","prediction_trial","2","","false","","2","false","false","false","false","false","false","[2,0]","101","111","0","","","","","","",""
"","","","","","image-keyboard-response","127","713968","0.0-102.0","5f0d2ad60ad0d6730c380b05","665500ab8938657b03fbdba8","665796155824579986a2bdbd","1459","stimuli/21011112.jpg"," ","","feedback_trial","2","","","","","","","","","","","","","","","","","","","","",""
"","","","","","image-keyboard-response","128","716003","0.0-103.0","5f0d2ad60ad0d6730c380b05","665500ab8938657b03fbdba8","665796155824579986a2bdbd","2034","stimuli/1101000.jpg","1","","prediction_trial","1","","true","","1","true","true","true","true","true","true","[1]","101","000","1","","","","","","",""
"","","","","","image-keyboard-response","129","717933","0.0-104.0","5f0d2ad60ad0d6730c380b05","665500ab8938657b03fbdba8","665796155824579986a2bdbd","1930","stimuli/11010001.jpg"," ","","feedback_trial","1","","","","","","","","","","","","","","","","","","","","",""
"","","","","","image-keyboard-response","130","720338","0.0-105.0","5f0d2ad60ad0d6730c380b05","665500ab8938657b03fbdba8","665796155824579986a2bdbd","2405","stimuli/2110000.jpg","2","","prediction_trial","2","","true","","2","true","true","true","true","true","true","[2]","110","000","1","","","","","","",""
"","","","","","image-keyboard-response","131","721760","0.0-106.0","5f0d2ad60ad0d6730c380b05","665500ab8938657b03fbdba8","665796155824579986a2bdbd","1421","stimuli/21100002.jpg"," ","","feedback_trial","2","","","","","","","","","","","","","","","","","","","","",""
"","","","","","image-keyboard-response","132","723949","0.0-107.0","5f0d2ad60ad0d6730c380b05","665500ab8938657b03fbdba8","665796155824579986a2bdbd","2188","stimuli/0011001.jpg","0","","prediction_trial","0","","true","","0","true","true","true","true","true","true","[0]","011","001","1","","","","","","",""
"","","","","","image-keyboard-response","133","724945","0.0-108.0","5f0d2ad60ad0d6730c380b05","665500ab8938657b03fbdba8","665796155824579986a2bdbd","995","stimuli/00110010.jpg"," ","","feedback_trial","0","","","","","","","","","","","","","","","","","","","","",""
"","","","","","image-keyboard-response","134","732086","0.0-109.0","5f0d2ad60ad0d6730c380b05","665500ab8938657b03fbdba8","665796155824579986a2bdbd","7140","stimuli/1011101.jpg","1","","prediction_trial","2","","false","","1","true","true","false","false","false","false","[1,2]","011","101","0","","","","","","",""
"","","","","","image-keyboard-response","135","733462","0.0-110.0","5f0d2ad60ad0d6730c380b05","665500ab8938657b03fbdba8","665796155824579986a2bdbd","1375","stimuli/10111012.jpg"," ","","feedback_trial","1","","","","","","","","","","","","","","","","","","","","",""
"","","","","","image-keyboard-response","136","741060","0.0-111.0","5f0d2ad60ad0d6730c380b05","665500ab8938657b03fbdba8","665796155824579986a2bdbd","7598","stimuli/0100001.jpg","0","","prediction_trial","0","","true","","0","true","true","false","true","false","true","[0]","100","001","1","","","","","","",""
"","","","","","image-keyboard-response","137","742396","0.0-112.0","5f0d2ad60ad0d6730c380b05","665500ab8938657b03fbdba8","665796155824579986a2bdbd","1334","stimuli/01000010.jpg"," ","","feedback_trial","0","","","","","","","","","","","","","","","","","","","","",""
"","","","","","image-keyboard-response","138","746819","0.0-113.0","5f0d2ad60ad0d6730c380b05","665500ab8938657b03fbdba8","665796155824579986a2bdbd","4423","stimuli/1011100.jpg","2","","prediction_trial","2","","true","","1","true","true","false","false","false","false","[1,2]","011","100","1","","","","","","",""
"","","","","","image-keyboard-response","139","749945","0.0-114.0","5f0d2ad60ad0d6730c380b05","665500ab8938657b03fbdba8","665796155824579986a2bdbd","3125","stimuli/10111002.jpg"," ","","feedback_trial","1","","","","","","","","","","","","","","","","","","","","",""
"","","","","","image-keyboard-response","140","751568","0.0-115.0","5f0d2ad60ad0d6730c380b05","665500ab8938657b03fbdba8","665796155824579986a2bdbd","1623","stimuli/0001011.jpg","0","","prediction_trial","0","","true","","0","true","true","true","true","true","true","[0]","001","011","1","","","","","","",""
"","","","","","image-keyboard-response","141","752625","0.0-116.0","5f0d2ad60ad0d6730c380b05","665500ab8938657b03fbdba8","665796155824579986a2bdbd","1056","stimuli/00010110.jpg"," ","","feedback_trial","0","","","","","","","","","","","","","","","","","","","","",""
"","","","","","image-keyboard-response","142","754887","0.0-117.0","5f0d2ad60ad0d6730c380b05","665500ab8938657b03fbdba8","665796155824579986a2bdbd","2262","stimuli/1010000.jpg","1","","prediction_trial","1","","true","","1","true","true","false","true","false","true","[1]","010","000","1","","","","","","",""
"","","","","","image-keyboard-response","143","755806","0.0-118.0","5f0d2ad60ad0d6730c380b05","665500ab8938657b03fbdba8","665796155824579986a2bdbd","918","stimuli/10100001.jpg"," ","","feedback_trial","1","","","","","","","","","","","","","","","","","","","","",""
"","","","","","image-keyboard-response","144","762947","0.0-119.0","5f0d2ad60ad0d6730c380b05","665500ab8938657b03fbdba8","665796155824579986a2bdbd","7140","stimuli/1110011.jpg","1","","prediction_trial","0","","false","","1","false","false","false","false","false","false","[0,1]","110","011","0","","","","","","",""
"","","","","","image-keyboard-response","145","765519","0.0-120.0","5f0d2ad60ad0d6730c380b05","665500ab8938657b03fbdba8","665796155824579986a2bdbd","2572","stimuli/11100110.jpg"," ","","feedback_trial","0","","","","","","","","","","","","","","","","","","","","",""
"","","","","","image-keyboard-response","146","769393","0.0-121.0","5f0d2ad60ad0d6730c380b05","665500ab8938657b03fbdba8","665796155824579986a2bdbd","3874","stimuli/0000100.jpg","0","","prediction_trial","0","","true","","0","false","true","true","true","false","true","[0]","000","100","1","","","","","","",""
"","","","","","image-keyboard-response","147","770588","0.0-122.0","5f0d2ad60ad0d6730c380b05","665500ab8938657b03fbdba8","665796155824579986a2bdbd","1194","stimuli/00001000.jpg"," ","","feedback_trial","0","","","","","","","","","","","","","","","","","","","","",""
"","","","","","image-keyboard-response","148","777315","0.0-123.0","5f0d2ad60ad0d6730c380b05","665500ab8938657b03fbdba8","665796155824579986a2bdbd","6726","stimuli/2101011.jpg","2","","prediction_trial","2","","true","","2","false","false","false","false","false","false","[0,2]","101","011","1","","","","","","",""
"","","","","","image-keyboard-response","149","778645","0.0-124.0","5f0d2ad60ad0d6730c380b05","665500ab8938657b03fbdba8","665796155824579986a2bdbd","1329","stimuli/21010112.jpg"," ","","feedback_trial","0","","","","","","","","","","","","","","","","","","","","",""
"","","","","","image-keyboard-response","150","781094","0.0-125.0","5f0d2ad60ad0d6730c380b05","665500ab8938657b03fbdba8","665796155824579986a2bdbd","2448","stimuli/1101010.jpg","1","","prediction_trial","1","","true","","1","false","true","true","true","false","true","[1]","101","010","1","","","","","","",""
"","","","","","image-keyboard-response","151","782334","0.0-126.0","5f0d2ad60ad0d6730c380b05","665500ab8938657b03fbdba8","665796155824579986a2bdbd","1239","stimuli/11010101.jpg"," ","","feedback_trial","1","","","","","","","","","","","","","","","","","","","","",""
"","","","","","image-keyboard-response","152","787128","0.0-127.0","5f0d2ad60ad0d6730c380b05","665500ab8938657b03fbdba8","665796155824579986a2bdbd","4793","stimuli/1000011.jpg","1","","prediction_trial","1","","true","","1","false","false","true","true","false","false","[1]","000","011","1","","","","","","",""
"","","","","","image-keyboard-response","153","788151","0.0-128.0","5f0d2ad60ad0d6730c380b05","665500ab8938657b03fbdba8","665796155824579986a2bdbd","1022","stimuli/10000111.jpg"," ","","feedback_trial","1","","","","","","","","","","","","","","","","","","","","",""
"","","","","","image-keyboard-response","154","797990","0.0-129.0","5f0d2ad60ad0d6730c380b05","665500ab8938657b03fbdba8","665796155824579986a2bdbd","9839","stimuli/0000111.jpg","0","","prediction_trial","0","","true","","0","false","false","true","true","false","false","[0]","000","111","1","","","","","","",""
"","","","","","image-keyboard-response","155","799279","0.0-130.0","5f0d2ad60ad0d6730c380b05","665500ab8938657b03fbdba8","665796155824579986a2bdbd","1288","stimuli/00001110.jpg"," ","","feedback_trial","0","","","","","","","","","","","","","","","","","","","","",""
"","","","","","image-keyboard-response","156","802691","0.0-131.0","5f0d2ad60ad0d6730c380b05","665500ab8938657b03fbdba8","665796155824579986a2bdbd","3411","stimuli/1000110.jpg","0","","prediction_trial","1","","false","","1","false","false","true","true","false","false","[1]","000","110","0","","","","","","",""
"","","","","","image-keyboard-response","157","804058","0.0-132.0","5f0d2ad60ad0d6730c380b05","665500ab8938657b03fbdba8","665796155824579986a2bdbd","1366","stimuli/10001101.jpg"," ","","feedback_trial","1","","","","","","","","","","","","","","","","","","","","",""
"","","","","","image-keyboard-response","158","805541","0.0-133.0","5f0d2ad60ad0d6730c380b05","665500ab8938657b03fbdba8","665796155824579986a2bdbd","1482","stimuli/1011000.jpg","1","","prediction_trial","2","","false","","1","true","true","false","false","false","false","[2,1]","011","000","0","","","","","","",""
"","","","","","image-keyboard-response","159","809818","0.0-134.0","5f0d2ad60ad0d6730c380b05","665500ab8938657b03fbdba8","665796155824579986a2bdbd","4277","stimuli/10110002.jpg"," ","","feedback_trial","2","","","","","","","","","","","","","","","","","","","","",""
"","","","","","image-keyboard-response","160","811051","0.0-135.0","5f0d2ad60ad0d6730c380b05","665500ab8938657b03fbdba8","665796155824579986a2bdbd","1232","stimuli/2100110.jpg","2","","prediction_trial","2","","true","","2","true","true","true","true","true","true","[2]","100","110","1","","","","","","",""
"","","","","","image-keyboard-response","161","812062","0.0-136.0","5f0d2ad60ad0d6730c380b05","665500ab8938657b03fbdba8","665796155824579986a2bdbd","1010","stimuli/21001102.jpg"," ","","feedback_trial","2","","","","","","","","","","","","","","","","","","","","",""
"","","","","","image-keyboard-response","162","817527","0.0-137.0","5f0d2ad60ad0d6730c380b05","665500ab8938657b03fbdba8","665796155824579986a2bdbd","5465","stimuli/1100111.jpg","1","","prediction_trial","1","","true","","1","false","false","true","true","false","false","[1]","100","111","1","","","","","","",""
"","","","","","image-keyboard-response","163","818722","0.0-138.0","5f0d2ad60ad0d6730c380b05","665500ab8938657b03fbdba8","665796155824579986a2bdbd","1194","stimuli/11001111.jpg"," ","","feedback_trial","1","","","","","","","","","","","","","","","","","","","","",""
"","","","","","image-keyboard-response","164","824832","0.0-139.0","5f0d2ad60ad0d6730c380b05","665500ab8938657b03fbdba8","665796155824579986a2bdbd","6110","stimuli/0111101.jpg","1","","prediction_trial","2","","false","","0","false","false","false","false","false","false","[1,0,2]","111","101","0","","","","","","",""
"","","","","","image-keyboard-response","165","826225","0.0-140.0","5f0d2ad60ad0d6730c380b05","665500ab8938657b03fbdba8","665796155824579986a2bdbd","1391","stimuli/01111012.jpg"," ","","feedback_trial","1","","","","","","","","","","","","","","","","","","","","",""
"","","","","","image-keyboard-response","166","828869","0.0-141.0","5f0d2ad60ad0d6730c380b05","665500ab8938657b03fbdba8","665796155824579986a2bdbd","2644","stimuli/1010001.jpg","1","","prediction_trial","1","","true","","1","true","true","false","true","false","true","[1]","010","001","1","","","","","","",""
"","","","","","image-keyboard-response","167","829788","0.0-142.0","5f0d2ad60ad0d6730c380b05","665500ab8938657b03fbdba8","665796155824579986a2bdbd","918","stimuli/10100011.jpg"," ","","feedback_trial","1","","","","","","","","","","","","","","","","","","","","",""
"","","","","","image-keyboard-response","168","837848","0.0-143.0","5f0d2ad60ad0d6730c380b05","665500ab8938657b03fbdba8","665796155824579986a2bdbd","8060","stimuli/0100101.jpg","0","","prediction_trial","0","","true","","0","false","false","false","true","false","false","[0]","100","101","1","","","","","","",""
"","","","","","image-keyboard-response","169","839224","0.0-144.0","5f0d2ad60ad0d6730c380b05","665500ab8938657b03fbdba8","665796155824579986a2bdbd","1375","stimuli/01001010.jpg"," ","","feedback_trial","0","","","","","","","","","","","","","","","","","","","","",""
"","","","","","image-keyboard-response","170","841489","0.0-145.0","5f0d2ad60ad0d6730c380b05","665500ab8938657b03fbdba8","665796155824579986a2bdbd","2264","stimuli/2000010.jpg","2","","prediction_trial","2","","true","","2","true","true","true","true","true","true","[2]","000","010","1","","","","","","",""
"","","","","","image-keyboard-response","171","842776","0.0-146.0","5f0d2ad60ad0d6730c380b05","665500ab8938657b03fbdba8","665796155824579986a2bdbd","1286","stimuli/20000102.jpg"," ","","feedback_trial","2","","","","","","","","","","","","","","","","","","","","",""
"","","","","","image-keyboard-response","172","849733","0.0-147.0","5f0d2ad60ad0d6730c380b05","665500ab8938657b03fbdba8","665796155824579986a2bdbd","6956","stimuli/1100110.jpg","1","","prediction_trial","1","","true","","1","false","false","true","true","false","false","[1]","100","110","1","","","","","","",""
"","","","","","image-keyboard-response","173","850953","0.0-148.0","5f0d2ad60ad0d6730c380b05","665500ab8938657b03fbdba8","665796155824579986a2bdbd","1220","stimuli/11001101.jpg"," ","","feedback_trial","1","","","","","","","","","","","","","","","","","","","","",""
"","","","","","image-keyboard-response","174","852758","0.0-149.0","5f0d2ad60ad0d6730c380b05","665500ab8938657b03fbdba8","665796155824579986a2bdbd","1805","stimuli/1100101.jpg","1","","prediction_trial","1","","true","","1","true","true","true","true","true","true","[1]","100","101","1","","","","","","",""
"","","","","","image-keyboard-response","175","853871","0.0-150.0","5f0d2ad60ad0d6730c380b05","665500ab8938657b03fbdba8","665796155824579986a2bdbd","1112","stimuli/11001011.jpg"," ","","feedback_trial","1","","","","","","","","","","","","","","","","","","","","",""
"","","","","","image-keyboard-response","176","855298","0.0-151.0","5f0d2ad60ad0d6730c380b05","665500ab8938657b03fbdba8","665796155824579986a2bdbd","1426","stimuli/1000100.jpg","1","","prediction_trial","1","","true","","1","true","true","true","true","true","true","[1]","000","100","1","","","","","","",""
"","","","","","image-keyboard-response","177","856124","0.0-152.0","5f0d2ad60ad0d6730c380b05","665500ab8938657b03fbdba8","665796155824579986a2bdbd","825","stimuli/10001001.jpg"," ","","feedback_trial","1","","","","","","","","","","","","","","","","","","","","",""
"","","","","","image-keyboard-response","178","862392","0.0-153.0","5f0d2ad60ad0d6730c380b05","665500ab8938657b03fbdba8","665796155824579986a2bdbd","6267","stimuli/0100011.jpg","0","","prediction_trial","0","","true","","0","true","true","false","true","false","true","[0]","100","011","1","","","","","","",""
"","","","","","image-keyboard-response","179","864045","0.0-154.0","5f0d2ad60ad0d6730c380b05","665500ab8938657b03fbdba8","665796155824579986a2bdbd","1651","stimuli/01000110.jpg"," ","","feedback_trial","0","","","","","","","","","","","","","","","","","","","","",""
"","","","","","image-keyboard-response","180","870954","0.0-155.0","5f0d2ad60ad0d6730c380b05","665500ab8938657b03fbdba8","665796155824579986a2bdbd","6908","stimuli/2111101.jpg","0","","prediction_trial","1","","false","","2","false","false","false","false","false","false","[1,0,2]","111","101","0","","","","","","",""
"","","","","","image-keyboard-response","181","873070","0.0-156.0","5f0d2ad60ad0d6730c380b05","665500ab8938657b03fbdba8","665796155824579986a2bdbd","2116","stimuli/21111011.jpg"," ","","feedback_trial","1","","","","","","","","","","","","","","","","","","","","",""
"","","","","","image-keyboard-response","182","880850","0.0-157.0","5f0d2ad60ad0d6730c380b05","665500ab8938657b03fbdba8","665796155824579986a2bdbd","7779","stimuli/1111001.jpg","1","","prediction_trial","1","","true","","1","true","true","false","false","false","false","[1,2,0]","111","001","1","","","","","","",""
"","","","","","image-keyboard-response","183","882075","0.0-158.0","5f0d2ad60ad0d6730c380b05","665500ab8938657b03fbdba8","665796155824579986a2bdbd","1224","stimuli/11110011.jpg"," ","","feedback_trial","1","","","","","","","","","","","","","","","","","","","","",""
"","","","","","image-keyboard-response","184","886530","0.0-159.0","5f0d2ad60ad0d6730c380b05","665500ab8938657b03fbdba8","665796155824579986a2bdbd","4455","stimuli/1001110.jpg","0","","prediction_trial","1","","false","","1","false","false","true","true","false","false","[1]","001","110","0","","","","","","",""
"","","","","","image-keyboard-response","185","887722","0.0-160.0","5f0d2ad60ad0d6730c380b05","665500ab8938657b03fbdba8","665796155824579986a2bdbd","1192","stimuli/10011101.jpg"," ","","feedback_trial","1","","","","","","","","","","","","","","","","","","","","",""
"","","","","","image-keyboard-response","186","890033","0.0-161.0","5f0d2ad60ad0d6730c380b05","665500ab8938657b03fbdba8","665796155824579986a2bdbd","2310","stimuli/0100100.jpg","0","","prediction_trial","0","","true","","0","false","true","false","true","false","true","[0]","100","100","1","","","","","","",""
"","","","","","image-keyboard-response","187","890722","0.0-162.0","5f0d2ad60ad0d6730c380b05","665500ab8938657b03fbdba8","665796155824579986a2bdbd","688","stimuli/01001000.jpg"," ","","feedback_trial","0","","","","","","","","","","","","","","","","","","","","",""
"","","","","","image-keyboard-response","188","892022","0.0-163.0","5f0d2ad60ad0d6730c380b05","665500ab8938657b03fbdba8","665796155824579986a2bdbd","1299","stimuli/1000101.jpg","1","","prediction_trial","1","","true","","1","true","true","true","true","true","true","[1]","000","101","1","","","","","","",""
"","","","","","image-keyboard-response","189","892756","0.0-164.0","5f0d2ad60ad0d6730c380b05","665500ab8938657b03fbdba8","665796155824579986a2bdbd","734","stimuli/10001011.jpg"," ","","feedback_trial","1","","","","","","","","","","","","","","","","","","","","",""
"","","","","","image-keyboard-response","190","894607","0.0-165.0","5f0d2ad60ad0d6730c380b05","665500ab8938657b03fbdba8","665796155824579986a2bdbd","1851","stimuli/1111111.jpg","1","","prediction_trial","1","","true","","1","false","false","false","false","false","false","[1,2,0]","111","111","1","","","","","","",""
"","","","","","image-keyboard-response","191","895342","0.0-166.0","5f0d2ad60ad0d6730c380b05","665500ab8938657b03fbdba8","665796155824579986a2bdbd","734","stimuli/11111111.jpg"," ","","feedback_trial","1","","","","","","","","","","","","","","","","","","","","",""
"","","","","","image-keyboard-response","192","901242","0.0-167.0","5f0d2ad60ad0d6730c380b05","665500ab8938657b03fbdba8","665796155824579986a2bdbd","5899","stimuli/2010111.jpg","2","","prediction_trial","2","","true","","2","false","false","true","true","false","false","[2]","010","111","1","","","","","","",""
"","","","","","image-keyboard-response","193","902663","0.0-168.0","5f0d2ad60ad0d6730c380b05","665500ab8938657b03fbdba8","665796155824579986a2bdbd","1421","stimuli/20101112.jpg"," ","","feedback_trial","2","","","","","","","","","","","","","","","","","","","","",""
"","","","","","image-keyboard-response","194","907641","0.0-169.0","5f0d2ad60ad0d6730c380b05","665500ab8938657b03fbdba8","665796155824579986a2bdbd","4977","stimuli/1101110.jpg","0","","prediction_trial","1","","false","","1","false","false","true","true","false","false","[1]","101","110","0","","","","","","",""
"","","","","","image-keyboard-response","195","909111","0.0-170.0","5f0d2ad60ad0d6730c380b05","665500ab8938657b03fbdba8","665796155824579986a2bdbd","1470","stimuli/11011101.jpg"," ","","feedback_trial","1","","","","","","","","","","","","","","","","","","","","",""
"","","","","","image-keyboard-response","196","914505","0.0-171.0","5f0d2ad60ad0d6730c380b05","665500ab8938657b03fbdba8","665796155824579986a2bdbd","5393","stimuli/2000011.jpg","2","","prediction_trial","2","","true","","2","false","false","true","true","false","false","[2]","000","011","1","","","","","","",""
"","","","","","image-keyboard-response","197","915375","0.0-172.0","5f0d2ad60ad0d6730c380b05","665500ab8938657b03fbdba8","665796155824579986a2bdbd","869","stimuli/20000112.jpg"," ","","feedback_trial","2","","","","","","","","","","","","","","","","","","","","",""
"","","","","","image-keyboard-response","198","926196","0.0-173.0","5f0d2ad60ad0d6730c380b05","665500ab8938657b03fbdba8","665796155824579986a2bdbd","10819","stimuli/1110110.jpg","1","","prediction_trial","0","","false","","1","false","false","false","false","false","false","[1,0]","110","110","0","","","","","","",""
"","","","","","image-keyboard-response","199","927507","0.0-174.0","5f0d2ad60ad0d6730c380b05","665500ab8938657b03fbdba8","665796155824579986a2bdbd","1310","stimuli/11101100.jpg"," ","","feedback_trial","1","","","","","","","","","","","","","","","","","","","","",""
"","","","","","image-keyboard-response","200","931059","0.0-175.0","5f0d2ad60ad0d6730c380b05","665500ab8938657b03fbdba8","665796155824579986a2bdbd","3552","stimuli/2001101.jpg","2","","prediction_trial","2","","true","","2","false","false","false","true","false","false","[2]","001","101","1","","","","","","",""
"","","","","","image-keyboard-response","201","932208","0.0-176.0","5f0d2ad60ad0d6730c380b05","665500ab8938657b03fbdba8","665796155824579986a2bdbd","1148","stimuli/20011012.jpg"," ","","feedback_trial","2","","","","","","","","","","","","","","","","","","","","",""
"","","","","","image-keyboard-response","202","936406","0.0-177.0","5f0d2ad60ad0d6730c380b05","665500ab8938657b03fbdba8","665796155824579986a2bdbd","4197","stimuli/2100101.jpg","0","","prediction_trial","2","","false","","2","false","false","true","true","false","false","[2]","100","101","0","","","","","","",""
"","","","","","image-keyboard-response","203","937364","0.0-178.0","5f0d2ad60ad0d6730c380b05","665500ab8938657b03fbdba8","665796155824579986a2bdbd","957","stimuli/21001012.jpg"," ","","feedback_trial","2","","","","","","","","","","","","","","","","","","","","",""
"","","","","","image-keyboard-response","204","948170","0.0-179.0","5f0d2ad60ad0d6730c380b05","665500ab8938657b03fbdba8","665796155824579986a2bdbd","10806","stimuli/1011001.jpg","2","","prediction_trial","2","","true","","1","true","true","false","false","false","false","[2,1]","011","001","1","","","","","","",""
"","","","","","image-keyboard-response","205","949224","0.0-180.0","5f0d2ad60ad0d6730c380b05","665500ab8938657b03fbdba8","665796155824579986a2bdbd","1044","stimuli/10110012.jpg"," ","","feedback_trial","2","","","","","","","","","","","","","","","","","","","","",""
"","","","","","image-keyboard-response","206","953880","0.0-181.0","5f0d2ad60ad0d6730c380b05","665500ab8938657b03fbdba8","665796155824579986a2bdbd","4655","stimuli/2101000.jpg","2","","prediction_trial","2","","true","","2","true","true","false","false","false","false","[0,2]","101","000","1","","","","","","",""
"","","","","","image-keyboard-response","207","954734","0.0-182.0","5f0d2ad60ad0d6730c380b05","665500ab8938657b03fbdba8","665796155824579986a2bdbd","854","stimuli/21010002.jpg"," ","","feedback_trial","0","","","","","","","","","","","","","","","","","","","","",""
"","","","","","image-keyboard-response","208","964864","0.0-183.0","5f0d2ad60ad0d6730c380b05","665500ab8938657b03fbdba8","665796155824579986a2bdbd","10129","stimuli/0111110.jpg","0","","prediction_trial","0","","true","","0","false","false","false","false","false","false","[2,0,1]","111","110","1","","","","","","",""
"","","","","","image-keyboard-response","209","966149","0.0-184.0","5f0d2ad60ad0d6730c380b05","665500ab8938657b03fbdba8","665796155824579986a2bdbd","1285","stimuli/01111100.jpg"," ","","feedback_trial","2","","","","","","","","","","","","","","","","","","","","",""
"","","","","","image-keyboard-response","210","973472","0.0-185.0","5f0d2ad60ad0d6730c380b05","665500ab8938657b03fbdba8","665796155824579986a2bdbd","7322","stimuli/0010101.jpg","2","","prediction_trial","0","","false","","0","false","false","true","true","false","false","[0]","010","101","0","","","","","","",""
"","","","","","image-keyboard-response","211","975139","0.0-186.0","5f0d2ad60ad0d6730c380b05","665500ab8938657b03fbdba8","665796155824579986a2bdbd","1667","stimuli/00101010.jpg"," ","","feedback_trial","0","","","","","","","","","","","","","","","","","","","","",""
"","","","","","image-keyboard-response","212","978919","0.0-187.0","5f0d2ad60ad0d6730c380b05","665500ab8938657b03fbdba8","665796155824579986a2bdbd","3779","stimuli/0000101.jpg","2","","prediction_trial","0","","false","","0","false","false","true","true","false","false","[0]","000","101","0","","","","","","",""
"","","","","","image-keyboard-response","213","980205","0.0-188.0","5f0d2ad60ad0d6730c380b05","665500ab8938657b03fbdba8","665796155824579986a2bdbd","1285","stimuli/00001010.jpg"," ","","feedback_trial","0","","","","","","","","","","","","","","","","","","","","",""
"","","","","","image-keyboard-response","214","984448","0.0-189.0","5f0d2ad60ad0d6730c380b05","665500ab8938657b03fbdba8","665796155824579986a2bdbd","4242","stimuli/1110010.jpg","0","","prediction_trial","0","","true","","1","false","true","false","false","false","false","[1,0]","110","010","1","","","","","","",""
"","","","","","image-keyboard-response","215","985508","0.0-190.0","5f0d2ad60ad0d6730c380b05","665500ab8938657b03fbdba8","665796155824579986a2bdbd","1059","stimuli/11100100.jpg"," ","","feedback_trial","1","","","","","","","","","","","","","","","","","","","","",""
"","","","","","image-keyboard-response","216","987080","0.0-191.0","5f0d2ad60ad0d6730c380b05","665500ab8938657b03fbdba8","665796155824579986a2bdbd","1572","stimuli/0010011.jpg","0","","prediction_trial","0","","true","","0","true","true","true","true","true","true","[0]","010","011","1","","","","","","",""
"","","","","","image-keyboard-response","217","987815","0.0-192.0","5f0d2ad60ad0d6730c380b05","665500ab8938657b03fbdba8","665796155824579986a2bdbd","734","stimuli/00100110.jpg"," ","","feedback_trial","0","","","","","","","","","","","","","","","","","","","","",""
"","","","","","image-keyboard-response","218","989161","0.0-193.0","5f0d2ad60ad0d6730c380b05","665500ab8938657b03fbdba8","665796155824579986a2bdbd","1345","stimuli/0011000.jpg","0","","prediction_trial","0","","true","","0","true","true","true","true","true","true","[0]","011","000","1","","","","","","",""
"","","","","","image-keyboard-response","219","989849","0.0-194.0","5f0d2ad60ad0d6730c380b05","665500ab8938657b03fbdba8","665796155824579986a2bdbd","688","stimuli/00110000.jpg"," ","","feedback_trial","0","","","","","","","","","","","","","","","","","","","","",""
"","","","","","image-keyboard-response","220","992482","0.0-195.0","5f0d2ad60ad0d6730c380b05","665500ab8938657b03fbdba8","665796155824579986a2bdbd","2621","stimuli/1111100.jpg","0","","prediction_trial","0","","true","","1","true","true","false","false","false","false","[0,2,1]","111","100","1","","","","","","",""
"","","","","","image-keyboard-response","221","993355","0.0-196.0","5f0d2ad60ad0d6730c380b05","665500ab8938657b03fbdba8","665796155824579986a2bdbd","872","stimuli/11111000.jpg"," ","","feedback_trial","0","","","","","","","","","","","","","","","","","","","","",""
"","","","","","image-keyboard-response","222","994654","0.0-197.0","5f0d2ad60ad0d6730c380b05","665500ab8938657b03fbdba8","665796155824579986a2bdbd","1299","stimuli/0010010.jpg","0","","prediction_trial","0","","true","","0","true","true","true","true","true","true","[0]","010","010","1","","","","","","",""
"","","","","","image-keyboard-response","223","995389","0.0-198.0","5f0d2ad60ad0d6730c380b05","665500ab8938657b03fbdba8","665796155824579986a2bdbd","734","stimuli/00100100.jpg"," ","","feedback_trial","0","","","","","","","","","","","","","","","","","","","","",""
"","","","","","image-keyboard-response","224","996737","0.0-199.0","5f0d2ad60ad0d6730c380b05","665500ab8938657b03fbdba8","665796155824579986a2bdbd","1348","stimuli/2000000.jpg","2","","prediction_trial","2","","true","","2","true","true","true","true","true","true","[2]","000","000","1","","","","","","",""
"","","","","","image-keyboard-response","225","997331","0.0-200.0","5f0d2ad60ad0d6730c380b05","665500ab8938657b03fbdba8","665796155824579986a2bdbd","593","stimuli/20000002.jpg"," ","","feedback_trial","2","","","","","","","","","","","","","","","","","","","","",""
"","","","","","image-keyboard-response","226","1002907","0.0-201.0","5f0d2ad60ad0d6730c380b05","665500ab8938657b03fbdba8","665796155824579986a2bdbd","5575","stimuli/2110111.jpg","0","","prediction_trial","2","","false","","2","false","false","true","true","false","false","[2]","110","111","0","","","","","","",""
"","","","","","image-keyboard-response","227","1006908","0.0-202.0","5f0d2ad60ad0d6730c380b05","665500ab8938657b03fbdba8","665796155824579986a2bdbd","4001","stimuli/21101112.jpg"," ","","feedback_trial","2","","","","","","","","","","","","","","","","","","","","",""
"","","","","","image-keyboard-response","228","1010090","0.0-203.0","5f0d2ad60ad0d6730c380b05","665500ab8938657b03fbdba8","665796155824579986a2bdbd","3181","stimuli/1111110.jpg","0","","prediction_trial","1","","false","","1","false","false","false","false","false","false","[0,1,2]","111","110","0","","","","","","",""
"","","","","","image-keyboard-response","229","1011377","0.0-204.0","5f0d2ad60ad0d6730c380b05","665500ab8938657b03fbdba8","665796155824579986a2bdbd","1286","stimuli/11111101.jpg"," ","","feedback_trial","0","","","","","","","","","","","","","","","","","","","","",""
"","","","","","image-keyboard-response","230","1015251","0.0-205.0","5f0d2ad60ad0d6730c380b05","665500ab8938657b03fbdba8","665796155824579986a2bdbd","3874","stimuli/1011111.jpg","1","","prediction_trial","2","","false","","1","false","false","false","false","false","false","[2,1]","011","111","0","","","","","","",""
"","","","","","image-keyboard-response","231","1016813","0.0-206.0","5f0d2ad60ad0d6730c380b05","665500ab8938657b03fbdba8","665796155824579986a2bdbd","1562","stimuli/10111112.jpg"," ","","feedback_trial","2","","","","","","","","","","","","","","","","","","","","",""
"","","","","","image-keyboard-response","232","1018024","0.0-207.0","5f0d2ad60ad0d6730c380b05","665500ab8938657b03fbdba8","665796155824579986a2bdbd","1209","stimuli/0001000.jpg","0","","prediction_trial","0","","true","","0","true","true","true","true","true","true","[0]","001","000","1","","","","","","",""
"","","","","","image-keyboard-response","233","1019152","0.0-208.0","5f0d2ad60ad0d6730c380b05","665500ab8938657b03fbdba8","665796155824579986a2bdbd","1128","stimuli/00010000.jpg"," ","","feedback_trial","0","","","","","","","","","","","","","","","","","","","","",""
"","","","","","image-keyboard-response","234","1021281","0.0-209.0","5f0d2ad60ad0d6730c380b05","665500ab8938657b03fbdba8","665796155824579986a2bdbd","2128","stimuli/0101111.jpg","0","","prediction_trial","0","","true","","0","false","false","false","false","false","false","[0,2]","101","111","1","","","","","","",""
"","","","","","image-keyboard-response","235","1022233","0.0-210.0","5f0d2ad60ad0d6730c380b05","665500ab8938657b03fbdba8","665796155824579986a2bdbd","951","stimuli/01011110.jpg"," ","","feedback_trial","0","","","","","","","","","","","","","","","","","","","","",""
"","","","","","image-keyboard-response","236","1025280","0.0-211.0","5f0d2ad60ad0d6730c380b05","665500ab8938657b03fbdba8","665796155824579986a2bdbd","3046","stimuli/2000101.jpg","2","","prediction_trial","2","","true","","2","false","false","true","true","false","false","[2]","000","101","1","","","","","","",""
"","","","","","image-keyboard-response","237","1026228","0.0-212.0","5f0d2ad60ad0d6730c380b05","665500ab8938657b03fbdba8","665796155824579986a2bdbd","947","stimuli/20001012.jpg"," ","","feedback_trial","2","","","","","","","","","","","","","","","","","","","","",""
"","","","","","image-keyboard-response","238","1027527","0.0-213.0","5f0d2ad60ad0d6730c380b05","665500ab8938657b03fbdba8","665796155824579986a2bdbd","1298","stimuli/2000100.jpg","2","","prediction_trial","2","","true","","2","true","true","true","true","true","true","[2]","000","100","1","","","","","","",""
"","","","","","image-keyboard-response","239","1028265","0.0-214.0","5f0d2ad60ad0d6730c380b05","665500ab8938657b03fbdba8","665796155824579986a2bdbd","737","stimuli/20001002.jpg"," ","","feedback_trial","2","","","","","","","","","","","","","","","","","","","","",""
"","","","","","image-keyboard-response","240","1033515","0.0-215.0","5f0d2ad60ad0d6730c380b05","665500ab8938657b03fbdba8","665796155824579986a2bdbd","5248","stimuli/1111000.jpg","2","","prediction_trial","0","","false","","1","true","true","false","false","false","false","[1,2,0]","111","000","0","","","","","","",""
"","","","","","image-keyboard-response","241","1035583","0.0-216.0","5f0d2ad60ad0d6730c380b05","665500ab8938657b03fbdba8","665796155824579986a2bdbd","2067","stimuli/11110000.jpg"," ","","feedback_trial","1","","","","","","","","","","","","","","","","","","","","",""
"","","","","","image-keyboard-response","242","1037986","0.0-217.0","5f0d2ad60ad0d6730c380b05","665500ab8938657b03fbdba8","665796155824579986a2bdbd","2402","stimuli/1001011.jpg","2","","prediction_trial","1","","false","","1","false","false","true","true","false","false","[1]","001","011","0","","","","","","",""
"","","","","","image-keyboard-response","243","1039229","0.0-218.0","5f0d2ad60ad0d6730c380b05","665500ab8938657b03fbdba8","665796155824579986a2bdbd","1242","stimuli/10010111.jpg"," ","","feedback_trial","1","","","","","","","","","","","","","","","","","","","","",""
"","","","","","image-keyboard-response","244","1040342","0.0-219.0","5f0d2ad60ad0d6730c380b05","665500ab8938657b03fbdba8","665796155824579986a2bdbd","1113","stimuli/1001100.jpg","1","","prediction_trial","1","","true","","1","true","true","true","true","true","true","[1]","001","100","1","","","","","","",""
"","","","","","image-keyboard-response","245","1041490","0.0-220.0","5f0d2ad60ad0d6730c380b05","665500ab8938657b03fbdba8","665796155824579986a2bdbd","1147","stimuli/10011001.jpg"," ","","feedback_trial","1","","","","","","","","","","","","","","","","","","","","",""
"","","","","","image-keyboard-response","246","1043985","0.0-221.0","5f0d2ad60ad0d6730c380b05","665500ab8938657b03fbdba8","665796155824579986a2bdbd","2494","stimuli/1001010.jpg","1","","prediction_trial","1","","true","","1","false","true","true","true","false","true","[1]","001","010","1","","","","","","",""
"","","","","","image-keyboard-response","247","1044673","0.0-222.0","5f0d2ad60ad0d6730c380b05","665500ab8938657b03fbdba8","665796155824579986a2bdbd","688","stimuli/10010101.jpg"," ","","feedback_trial","1","","","","","","","","","","","","","","","","","","","","",""
"","","","","","image-keyboard-response","248","1049654","0.0-223.0","5f0d2ad60ad0d6730c380b05","665500ab8938657b03fbdba8","665796155824579986a2bdbd","4979","stimuli/1101111.jpg","0","","prediction_trial","1","","false","","1","false","false","true","true","false","false","[1]","101","111","0","","","","","","",""
"","","","","","image-keyboard-response","249","1050938","0.0-224.0","5f0d2ad60ad0d6730c380b05","665500ab8938657b03fbdba8","665796155824579986a2bdbd","1283","stimuli/11011111.jpg"," ","","feedback_trial","1","","","","","","","","","","","","","","","","","","","","",""
"","","","","","image-keyboard-response","250","1052422","0.0-225.0","5f0d2ad60ad0d6730c380b05","665500ab8938657b03fbdba8","665796155824579986a2bdbd","1483","stimuli/2010001.jpg","2","","prediction_trial","2","","true","","2","false","true","true","true","false","true","[2]","010","001","1","","","","","","",""
"","","","","","image-keyboard-response","251","1053718","0.0-226.0","5f0d2ad60ad0d6730c380b05","665500ab8938657b03fbdba8","665796155824579986a2bdbd","1295","stimuli/20100012.jpg"," ","","feedback_trial","2","","","","","","","","","","","","","","","","","","","","",""
"","","","","","image-keyboard-response","252","1058594","0.0-227.0","5f0d2ad60ad0d6730c380b05","665500ab8938657b03fbdba8","665796155824579986a2bdbd","4875","stimuli/1010011.jpg","1","","prediction_trial","1","","true","","1","false","false","false","true","false","false","[1]","010","011","1","","","","","","",""
"","","","","","image-keyboard-response","253","1059473","0.0-228.0","5f0d2ad60ad0d6730c380b05","665500ab8938657b03fbdba8","665796155824579986a2bdbd","879","stimuli/10100111.jpg"," ","","feedback_trial","1","","","","","","","","","","","","","","","","","","","","",""
"","","","","","image-keyboard-response","254","1062101","0.0-229.0","5f0d2ad60ad0d6730c380b05","665500ab8938657b03fbdba8","665796155824579986a2bdbd","2627","stimuli/1011010.jpg","1","","prediction_trial","2","","false","","1","false","true","false","false","false","false","[1,2]","011","010","0","","","","","","",""
"","","","","","image-keyboard-response","255","1063247","0.0-230.0","5f0d2ad60ad0d6730c380b05","665500ab8938657b03fbdba8","665796155824579986a2bdbd","1145","stimuli/10110102.jpg"," ","","feedback_trial","1","","","","","","","","","","","","","","","","","","","","",""
"","","","","","image-keyboard-response","256","1070450","0.0-231.0","5f0d2ad60ad0d6730c380b05","665500ab8938657b03fbdba8","665796155824579986a2bdbd","7202","stimuli/2010101.jpg","0","","prediction_trial","2","","false","","2","false","false","true","true","false","false","[2]","010","101","0","","","","","","",""
"","","","","","image-keyboard-response","257","1071812","0.0-232.0","5f0d2ad60ad0d6730c380b05","665500ab8938657b03fbdba8","665796155824579986a2bdbd","1361","stimuli/20101012.jpg"," ","","feedback_trial","2","","","","","","","","","","","","","","","","","","","","",""
"","","","","","image-keyboard-response","258","1079596","0.0-233.0","5f0d2ad60ad0d6730c380b05","665500ab8938657b03fbdba8","665796155824579986a2bdbd","7784","stimuli/0111111.jpg","1","","prediction_trial","0","","false","","0","false","false","false","false","false","false","[1,0,2]","111","111","0","","","","","","",""
"","","","","","image-keyboard-response","259","1081396","0.0-234.0","5f0d2ad60ad0d6730c380b05","665500ab8938657b03fbdba8","665796155824579986a2bdbd","1799","stimuli/01111110.jpg"," ","","feedback_trial","1","","","","","","","","","","","","","","","","","","","","",""
"","","","","","image-keyboard-response","260","1083145","0.0-235.0","5f0d2ad60ad0d6730c380b05","665500ab8938657b03fbdba8","665796155824579986a2bdbd","1748","stimuli/0101000.jpg","0","","prediction_trial","0","","true","","0","true","true","false","false","false","false","[0,2]","101","000","1","","","","","","",""
"","","","","","image-keyboard-response","261","1084064","0.0-236.0","5f0d2ad60ad0d6730c380b05","665500ab8938657b03fbdba8","665796155824579986a2bdbd","918","stimuli/01010000.jpg"," ","","feedback_trial","0","","","","","","","","","","","","","","","","","","","","",""
"","","","","","image-keyboard-response","262","1089688","0.0-237.0","5f0d2ad60ad0d6730c380b05","665500ab8938657b03fbdba8","665796155824579986a2bdbd","5623","stimuli/2000111.jpg","2","","prediction_trial","2","","true","","2","false","false","true","true","false","false","[2]","000","111","1","","","","","","",""
"","","","","","image-keyboard-response","263","1091017","0.0-238.0","5f0d2ad60ad0d6730c380b05","665500ab8938657b03fbdba8","665796155824579986a2bdbd","1329","stimuli/20001112.jpg"," ","","feedback_trial","2","","","","","","","","","","","","","","","","","","","","",""
"","","","","","image-keyboard-response","264","1092317","0.0-239.0","5f0d2ad60ad0d6730c380b05","665500ab8938657b03fbdba8","665796155824579986a2bdbd","1299","stimuli/1101100.jpg","1","","prediction_trial","1","","true","","1","true","true","true","true","true","true","[1]","101","100","1","","","","","","",""
"","","","","","image-keyboard-response","265","1093419","0.0-240.0","5f0d2ad60ad0d6730c380b05","665500ab8938657b03fbdba8","665796155824579986a2bdbd","1101","stimuli/11011001.jpg"," ","","feedback_trial","1","","","","","","","","","","","","","","","","","","","","",""
"","","","","","image-keyboard-response","266","1097524","0.0-241.0","5f0d2ad60ad0d6730c380b05","665500ab8938657b03fbdba8","665796155824579986a2bdbd","4103","stimuli/2111110.jpg","1","","prediction_trial","0","","false","","2","true","true","false","false","false","false","[2,0,1]","111","110","0","","","","","","",""
"","","","","","image-keyboard-response","267","1099362","0.0-242.0","5f0d2ad60ad0d6730c380b05","665500ab8938657b03fbdba8","665796155824579986a2bdbd","1837","stimuli/21111100.jpg"," ","","feedback_trial","2","","","","","","","","","","","","","","","","","","","","",""
"","","","","","image-keyboard-response","268","1103974","0.0-243.0","5f0d2ad60ad0d6730c380b05","665500ab8938657b03fbdba8","665796155824579986a2bdbd","4611","stimuli/2110100.jpg","2","","prediction_trial","2","","true","","2","true","true","true","true","true","true","[2]","110","100","1","","","","","","",""
"","","","","","image-keyboard-response","269","1106417","0.0-244.0","5f0d2ad60ad0d6730c380b05","665500ab8938657b03fbdba8","665796155824579986a2bdbd","2442","stimuli/21101002.jpg"," ","","feedback_trial","2","","","","","","","","","","","","","","","","","","","","",""
"","","","","","image-keyboard-response","270","1111799","0.0-245.0","5f0d2ad60ad0d6730c380b05","665500ab8938657b03fbdba8","665796155824579986a2bdbd","5381","stimuli/0110011.jpg","0","","prediction_trial","0","","true","","0","true","true","false","false","false","false","[0,1]","110","011","1","","","","","","",""
"","","","","","image-keyboard-response","271","1114054","0.0-246.0","5f0d2ad60ad0d6730c380b05","665500ab8938657b03fbdba8","665796155824579986a2bdbd","2254","stimuli/01100110.jpg"," ","","feedback_trial","0","","","","","","","","","","","","","","","","","","","","",""
"","","","","","image-keyboard-response","272","1116822","0.0-247.0","5f0d2ad60ad0d6730c380b05","665500ab8938657b03fbdba8","665796155824579986a2bdbd","2768","stimuli/1001101.jpg","1","","prediction_trial","1","","true","","1","true","true","true","true","true","true","[1]","001","101","1","","","","","","",""
"","","","","","image-keyboard-response","273","1117832","0.0-248.0","5f0d2ad60ad0d6730c380b05","665500ab8938657b03fbdba8","665796155824579986a2bdbd","1010","stimuli/10011011.jpg"," ","","feedback_trial","1","","","","","","","","","","","","","","","","","","","","",""
"","","","","","image-keyboard-response","274","1121385","0.0-249.0","5f0d2ad60ad0d6730c380b05","665500ab8938657b03fbdba8","665796155824579986a2bdbd","3552","stimuli/1111011.jpg","1","","prediction_trial","1","","true","","1","false","false","false","false","false","false","[1,2,0]","111","011","1","","","","","","",""
"","","","","","image-keyboard-response","275","1122809","0.0-250.0","5f0d2ad60ad0d6730c380b05","665500ab8938657b03fbdba8","665796155824579986a2bdbd","1423","stimuli/11110111.jpg"," ","","feedback_trial","1","","","","","","","","","","","","","","","","","","","","",""
"","","","","","image-keyboard-response","276","1125904","0.0-251.0","5f0d2ad60ad0d6730c380b05","665500ab8938657b03fbdba8","665796155824579986a2bdbd","3094","stimuli/2001111.jpg","2","","prediction_trial","2","","true","","2","false","false","false","true","false","false","[2]","001","111","1","","","","","","",""
"","","","","","image-keyboard-response","277","1127188","0.0-252.0","5f0d2ad60ad0d6730c380b05","665500ab8938657b03fbdba8","665796155824579986a2bdbd","1283","stimuli/20011112.jpg"," ","","feedback_trial","2","","","","","","","","","","","","","","","","","","","","",""
"","","","","","image-keyboard-response","278","1128441","0.0-253.0","5f0d2ad60ad0d6730c380b05","665500ab8938657b03fbdba8","665796155824579986a2bdbd","1253","stimuli/2010010.jpg","2","","prediction_trial","2","","true","","2","true","true","true","true","true","true","[2]","010","010","1","","","","","","",""
"","","","","","image-keyboard-response","279","1129498","0.0-254.0","5f0d2ad60ad0d6730c380b05","665500ab8938657b03fbdba8","665796155824579986a2bdbd","1056","stimuli/20100102.jpg"," ","","feedback_trial","2","","","","","","","","","","","","","","","","","","","","",""
"","","","","","image-keyboard-response","280","1131995","0.0-255.0","5f0d2ad60ad0d6730c380b05","665500ab8938657b03fbdba8","665796155824579986a2bdbd","2497","stimuli/0100000.jpg","0","","prediction_trial","0","","true","","0","true","true","false","true","false","true","[0]","100","000","1","","","","","","",""
"","","","","","image-keyboard-response","281","1132865","0.0-256.0","5f0d2ad60ad0d6730c380b05","665500ab8938657b03fbdba8","665796155824579986a2bdbd","869","stimuli/01000000.jpg"," ","","feedback_trial","0","","","","","","","","","","","","","","","","","","","","",""
"","","","","","image-keyboard-response","282","1134214","0.0-257.0","5f0d2ad60ad0d6730c380b05","665500ab8938657b03fbdba8","665796155824579986a2bdbd","1347","stimuli/2010100.jpg","2","","prediction_trial","2","","true","","2","true","true","true","true","true","true","[2]","010","100","1","","","","","","",""
"","","","","","image-keyboard-response","283","1135083","0.0-258.0","5f0d2ad60ad0d6730c380b05","665500ab8938657b03fbdba8","665796155824579986a2bdbd","868","stimuli/20101002.jpg"," ","","feedback_trial","2","","","","","","","","","","","","","","","","","","","","",""
"","","","","","image-keyboard-response","284","1138638","0.0-259.0","5f0d2ad60ad0d6730c380b05","665500ab8938657b03fbdba8","665796155824579986a2bdbd","3554","stimuli/1111101.jpg","2","","prediction_trial","0","","false","","1","true","true","false","false","false","false","[2,1,0]","111","101","0","","","","","","",""
"","","","","","image-keyboard-response","285","1140181","0.0-260.0","5f0d2ad60ad0d6730c380b05","665500ab8938657b03fbdba8","665796155824579986a2bdbd","1543","stimuli/11111010.jpg"," ","","feedback_trial","2","","","","","","","","","","","","","","","","","","","","",""
"","","","","","image-keyboard-response","286","1147228","0.0-261.0","5f0d2ad60ad0d6730c380b05","665500ab8938657b03fbdba8","665796155824579986a2bdbd","7046","stimuli/0100110.jpg","0","","prediction_trial","0","","true","","0","false","false","false","true","false","false","[0]","100","110","1","","","","","","",""
"","","","","","image-keyboard-response","287","1148320","0.0-262.0","5f0d2ad60ad0d6730c380b05","665500ab8938657b03fbdba8","665796155824579986a2bdbd","1091","stimuli/01001100.jpg"," ","","feedback_trial","0","","","","","","","","","","","","","","","","","","","","",""
"","","","","","image-keyboard-response","288","1151139","0.0-263.0","5f0d2ad60ad0d6730c380b05","665500ab8938657b03fbdba8","665796155824579986a2bdbd","2819","stimuli/0101100.jpg","0","","prediction_trial","0","","true","","0","false","true","false","false","false","false","[0,2]","101","100","1","","","","","","",""
"","","","","","image-keyboard-response","289","1152423","0.0-264.0","5f0d2ad60ad0d6730c380b05","665500ab8938657b03fbdba8","665796155824579986a2bdbd","1283","stimuli/01011000.jpg"," ","","feedback_trial","0","","","","","","","","","","","","","","","","","","","","",""
"","","","","","image-keyboard-response","290","1156144","0.0-265.0","5f0d2ad60ad0d6730c380b05","665500ab8938657b03fbdba8","665796155824579986a2bdbd","3711","stimuli/1111010.jpg","2","","prediction_trial","0","","false","","1","false","true","false","false","false","false","[1,0,2]","111","010","0","","","","","","",""
"","","","","","image-keyboard-response","291","1157660","0.0-266.0","5f0d2ad60ad0d6730c380b05","665500ab8938657b03fbdba8","665796155824579986a2bdbd","1515","stimuli/11110100.jpg"," ","","feedback_trial","1","","","","","","","","","","","","","","","","","","","","",""
"","","","","","image-keyboard-response","292","1163928","0.0-267.0","5f0d2ad60ad0d6730c380b05","665500ab8938657b03fbdba8","665796155824579986a2bdbd","6267","stimuli/1100010.jpg","1","","prediction_trial","1","","true","","1","false","true","true","true","false","true","[1]","100","010","1","","","","","","",""
"","","","","","image-keyboard-response","293","1165074","0.0-268.0","5f0d2ad60ad0d6730c380b05","665500ab8938657b03fbdba8","665796155824579986a2bdbd","1145","stimuli/11000101.jpg"," ","","feedback_trial","1","","","","","","","","","","","","","","","","","","","","",""
"","","","","","image-keyboard-response","294","1169454","0.0-269.0","5f0d2ad60ad0d6730c380b05","665500ab8938657b03fbdba8","665796155824579986a2bdbd","4380","stimuli/0110100.jpg","1","","prediction_trial","1","","true","","0","false","true","false","false","false","false","[0,1]","110","100","1","","","","","","",""
"","","","","","image-keyboard-response","295","1170464","0.0-270.0","5f0d2ad60ad0d6730c380b05","665500ab8938657b03fbdba8","665796155824579986a2bdbd","1009","stimuli/01101001.jpg"," ","","feedback_trial","0","","","","","","","","","","","","","","","","","","","","",""
"","","","","","image-keyboard-response","296","1173327","0.0-271.0","5f0d2ad60ad0d6730c380b05","665500ab8938657b03fbdba8","665796155824579986a2bdbd","2862","stimuli/2011010.jpg","2","","prediction_trial","1","","false","","2","true","true","false","false","false","false","[2,1]","011","010","0","","","","","","",""
"","","","","","image-keyboard-response","297","1177697","0.0-272.0","5f0d2ad60ad0d6730c380b05","665500ab8938657b03fbdba8","665796155824579986a2bdbd","4369","stimuli/20110101.jpg"," ","","feedback_trial","2","","","","","","","","","","","","","","","","","","","","",""
"","","","","","image-keyboard-response","298","1180143","0.0-273.0","5f0d2ad60ad0d6730c380b05","665500ab8938657b03fbdba8","665796155824579986a2bdbd","2445","stimuli/2001010.jpg","2","","prediction_trial","2","","true","","2","true","true","false","true","false","true","[2]","001","010","1","","","","","","",""
"","","","","","image-keyboard-response","299","1181245","0.0-274.0","5f0d2ad60ad0d6730c380b05","665500ab8938657b03fbdba8","665796155824579986a2bdbd","1092","stimuli/20010102.jpg"," ","","feedback_trial","2","","","","","","","","","","","","","","","","","","","","",""
"","","","","","image-keyboard-response","300","1185769","0.0-275.0","5f0d2ad60ad0d6730c380b05","665500ab8938657b03fbdba8","665796155824579986a2bdbd","4523","stimuli/0110101.jpg","0","","prediction_trial","1","","false","","0","false","false","false","false","false","false","[1,0]","110","101","0","","","","","","",""
"","","","","","image-keyboard-response","301","1189030","0.0-276.0","5f0d2ad60ad0d6730c380b05","665500ab8938657b03fbdba8","665796155824579986a2bdbd","3260","stimuli/01101011.jpg"," ","","feedback_trial","1","","","","","","","","","","","","","","","","","","","","",""
"","","","","","image-keyboard-response","302","1199507","0.0-277.0","5f0d2ad60ad0d6730c380b05","665500ab8938657b03fbdba8","665796155824579986a2bdbd","10477","stimuli/0101011.jpg","0","","prediction_trial","2","","false","","0","true","true","false","false","false","false","[2,0]","101","011","0","","","","","","",""
"","","","","","image-keyboard-response","303","1201619","0.0-278.0","5f0d2ad60ad0d6730c380b05","665500ab8938657b03fbdba8","665796155824579986a2bdbd","2111","stimuli/01010112.jpg"," ","","feedback_trial","2","","","","","","","","","","","","","","","","","","","","",""
"","","","","","image-keyboard-response","304","1213358","0.0-279.0","5f0d2ad60ad0d6730c380b05","665500ab8938657b03fbdba8","665796155824579986a2bdbd","11729","stimuli/2011111.jpg","2","","prediction_trial","2","","true","","2","false","false","false","false","false","false","[1,2]","011","111","1","","","","","","",""
"","","","","","image-keyboard-response","305","1214965","0.0-280.0","5f0d2ad60ad0d6730c380b05","665500ab8938657b03fbdba8","665796155824579986a2bdbd","1606","stimuli/20111112.jpg"," ","","feedback_trial","1","","","","","","","","","","","","","","","","","","","","",""
"","","","","","image-keyboard-response","306","1217320","0.0-281.0","5f0d2ad60ad0d6730c380b05","665500ab8938657b03fbdba8","665796155824579986a2bdbd","2355","stimuli/2111000.jpg","2","","prediction_trial","0","","false","","2","true","true","false","false","false","false","[1,2,0]","111","000","0","","","","","","",""
"","","","","","image-keyboard-response","307","1218791","0.0-282.0","5f0d2ad60ad0d6730c380b05","665500ab8938657b03fbdba8","665796155824579986a2bdbd","1470","stimuli/21110000.jpg"," ","","feedback_trial","1","","","","","","","","","","","","","","","","","","","","",""
"","","","","","image-keyboard-response","308","1232306","0.0-283.0","5f0d2ad60ad0d6730c380b05","665500ab8938657b03fbdba8","665796155824579986a2bdbd","13515","stimuli/2101110.jpg","0","","prediction_trial","0","","true","","2","true","true","false","false","false","false","[0,2]","101","110","1","","","","","","",""
"","","","","","image-keyboard-response","309","1233821","0.0-284.0","5f0d2ad60ad0d6730c380b05","665500ab8938657b03fbdba8","665796155824579986a2bdbd","1513","stimuli/21011100.jpg"," ","","feedback_trial","0","","","","","","","","","","","","","","","","","","","","",""
"","","","","","image-keyboard-response","310","1235764","0.0-285.0","5f0d2ad60ad0d6730c380b05","665500ab8938657b03fbdba8","665796155824579986a2bdbd","1943","stimuli/2000001.jpg","2","","prediction_trial","2","","true","","2","false","true","true","true","false","true","[2]","000","001","1","","","","","","",""
"","","","","","image-keyboard-response","311","1236729","0.0-286.0","5f0d2ad60ad0d6730c380b05","665500ab8938657b03fbdba8","665796155824579986a2bdbd","964","stimuli/20000012.jpg"," ","","feedback_trial","2","","","","","","","","","","","","","","","","","","","","",""
"","","","","","image-keyboard-response","312","1238074","0.0-287.0","5f0d2ad60ad0d6730c380b05","665500ab8938657b03fbdba8","665796155824579986a2bdbd","1345","stimuli/0010000.jpg","0","","prediction_trial","0","","true","","0","true","true","true","true","true","true","[0]","010","000","1","","","","","","",""
"","","","","","image-keyboard-response","313","1238809","0.0-288.0","5f0d2ad60ad0d6730c380b05","665500ab8938657b03fbdba8","665796155824579986a2bdbd","733","stimuli/00100000.jpg"," ","","feedback_trial","0","","","","","","","","","","","","","","","","","","","","",""
"","","","","","image-keyboard-response","314","1240982","0.0-289.0","5f0d2ad60ad0d6730c380b05","665500ab8938657b03fbdba8","665796155824579986a2bdbd","2172","stimuli/0010100.jpg","0","","prediction_trial","0","","true","","0","false","true","true","true","false","true","[0]","010","100","1","","","","","","",""
"","","","","","image-keyboard-response","315","1241809","0.0-290.0","5f0d2ad60ad0d6730c380b05","665500ab8938657b03fbdba8","665796155824579986a2bdbd","826","stimuli/00101000.jpg"," ","","feedback_trial","0","","","","","","","","","","","","","","","","","","","","",""
"","","","","","image-keyboard-response","316","1253272","0.0-291.0","5f0d2ad60ad0d6730c380b05","665500ab8938657b03fbdba8","665796155824579986a2bdbd","11462","stimuli/2111010.jpg","1","","prediction_trial","1","","true","","2","true","true","false","false","false","false","[0,2,1]","111","010","1","","","","","","",""
"","","","","","image-keyboard-response","317","1254510","0.0-292.0","5f0d2ad60ad0d6730c380b05","665500ab8938657b03fbdba8","665796155824579986a2bdbd","1237","stimuli/21110101.jpg"," ","","feedback_trial","0","","","","","","","","","","","","","","","","","","","","",""
