"success","timeout","failed_images","failed_audio","failed_video","trial_type","trial_index","time_elapsed","internal_node_id","prolific_id","prolific_study_id","prolific_session_id","rt","stimulus","response","view_history","trial","character_choice","stimulus_dict","accuracy","correct_response","ball_pos","ego_ball_visible","ego_can_infer","alter_ball_visible","alter_can_infer","collective_ball_visible","collective_can_infer","search_locations","alter_occluders","ego_occluders","accuracy_bool","feedback","age","ethnicity","gender","race","overall_accuracy","bonus"
"true","false","[]","[]","[]","preload","0","5057","0.0-0.0","628f9ef985fa6d3dc816672c","665500ab8938657b03fbdba8","66579267ec2b45982c0cd3fb","","","","","","","","","","","","","","","","","","","","","","","","","","",""
"true","","","","","fullscreen","1","7256","0.0-1.0","628f9ef985fa6d3dc816672c","665500ab8938657b03fbdba8","66579267ec2b45982c0cd3fb","","","","","","","","","","","","","","","","","","","","","","","","","","",""
"","","","","","html-button-response","2","11714","0.0-2.0","628f9ef985fa6d3dc816672c","665500ab8938657b03fbdba8","66579267ec2b45982c0cd3fb","4457","<p><b>Consent Form</b></p> <div style=""text-align:left;background-color:lightgrey; padding:20px; max-width:900px;""><p>Please consider this information carefully before deciding whether to participate in this research.</p> <p>The purpose of this research is to examine which factors influence social judgment and decision-making. You will be asked to make judgements about individuals and actions in social scenarios. We are simply interested in your judgement. The study will take less than 1 hour to complete, and you will receive less than $20 on Prolific. Your compensation and time commitment are specified in the study description. There are no anticipated risks associated with participating in this study. The effects of participating should be comparable to those you would ordinarily experience from viewing a computer monitor and using a mouse or keyboard for a similar amount of time. At the end of the study, we will provide an explanation of the questions that motivate this line of research and will describe the potential implications. </p><p> Your participation in this study is completely voluntary and you may refuse to participate or you may choose to withdraw at any time without penalty or loss of benefits to you which are otherwise entitled. Your participation in this study will remain confidential. No personally identifiable information will be associated with your data. Also, all analyses of the data will be averaged across all the participants, so your individual responses will never be specifically analyzed. </p><p> If you have questions or concerns about your participation or payment, or want to request a summary of research findings, please contact Dr. Jonathan Phillips at Jonathan.S.Phillips@dartmouth.edu. </p><p> Please save a copy of this form for your records. </p><p><b>Agreement: </b>The nature and purpose of this research have been sufficiently explained and I agree to participate in this study. I understand that I am free to withdraw at any time without incurring any penalty. Please consent by clicking the button below to continue. Otherwise, please exit the study at any time. </p>","0","","","","","","","","","","","","","","","","","","","","","","","",""
"","","","","","instructions","3","84141","0.0-3.0-0.0","628f9ef985fa6d3dc816672c","665500ab8938657b03fbdba8","66579267ec2b45982c0cd3fb","72428","","","[{""page_index"":0,""viewing_time"":1226},{""page_index"":1,""viewing_time"":1804},{""page_index"":2,""viewing_time"":2093},{""page_index"":3,""viewing_time"":6004},{""page_index"":4,""viewing_time"":3339},{""page_index"":5,""viewing_time"":4503},{""page_index"":6,""viewing_time"":4865},{""page_index"":7,""viewing_time"":4866},{""page_index"":8,""viewing_time"":6270},{""page_index"":9,""viewing_time"":4016},{""page_index"":10,""viewing_time"":9148},{""page_index"":11,""viewing_time"":13426},{""page_index"":12,""viewing_time"":9715},{""page_index"":13,""viewing_time"":1153}]","intro","","","","","","","","","","","","","","","","","","","","","",""
"","","","","","image-keyboard-response","4","88326","0.0-3.0-1.0","628f9ef985fa6d3dc816672c","665500ab8938657b03fbdba8","66579267ec2b45982c0cd3fb","4183","stimuli/0110001.jpg","0","","prediction_practice","1","{""filepath"":""stimuli/0110001.jpg"",""ball_pos"":0,""ego_ball_visible"":true,""ego_can_infer"":true,""alter_ball_visible"":false,""alter_can_infer"":false,""collective_ball_visible"":false,""collective_can_infer"":false,""search_locations"":[0,1],""alter_occluders"":""110"",""ego_occluders"":""001""}","false","","","","","","","","","","","","","","","","","","",""
"","","","","","image-keyboard-response","5","90318","0.0-3.0-2.0","628f9ef985fa6d3dc816672c","665500ab8938657b03fbdba8","66579267ec2b45982c0cd3fb","1992","stimuli/01100011.jpg"," ","","practrice_feedback","0","","","","","","","","","","","","","","","","","","","","",""
"","","","","","image-keyboard-response","6","92294","0.0-3.0-3.0","628f9ef985fa6d3dc816672c","665500ab8938657b03fbdba8","66579267ec2b45982c0cd3fb","1975","stimuli/1101100.jpg","1","","prediction_practice","1","{""filepath"":""stimuli/1101100.jpg"",""ball_pos"":1,""ego_ball_visible"":true,""ego_can_infer"":true,""alter_ball_visible"":true,""alter_can_infer"":true,""collective_ball_visible"":true,""collective_can_infer"":true,""search_locations"":[1],""alter_occluders"":""101"",""ego_occluders"":""100""}","true","","","","","","","","","","","","","","","","","","",""
"","","","","","image-keyboard-response","7","93798","0.0-3.0-4.0","628f9ef985fa6d3dc816672c","665500ab8938657b03fbdba8","66579267ec2b45982c0cd3fb","1503","stimuli/11011001.jpg"," ","","practrice_feedback","1","","","","","","","","","","","","","","","","","","","","",""
"","","","","","image-keyboard-response","8","95861","0.0-3.0-5.0","628f9ef985fa6d3dc816672c","665500ab8938657b03fbdba8","66579267ec2b45982c0cd3fb","2063","stimuli/0000111.jpg","1","","prediction_practice","0","{""filepath"":""stimuli/0000111.jpg"",""ball_pos"":0,""ego_ball_visible"":false,""ego_can_infer"":false,""alter_ball_visible"":true,""alter_can_infer"":true,""collective_ball_visible"":false,""collective_can_infer"":false,""search_locations"":[0],""alter_occluders"":""000"",""ego_occluders"":""111""}","false","","","","","","","","","","","","","","","","","","",""
"","","","","","image-keyboard-response","9","101555","0.0-3.0-6.0","628f9ef985fa6d3dc816672c","665500ab8938657b03fbdba8","66579267ec2b45982c0cd3fb","5693","stimuli/00001110.jpg"," ","","practrice_feedback","0","","","","","","","","","","","","","","","","","","","","",""
"","","","","","image-keyboard-response","10","108744","0.0-3.0-7.0","628f9ef985fa6d3dc816672c","665500ab8938657b03fbdba8","66579267ec2b45982c0cd3fb","7189","stimuli/2010111.jpg","0","","prediction_practice","2","{""filepath"":""stimuli/2010111.jpg"",""ball_pos"":2,""ego_ball_visible"":false,""ego_can_infer"":false,""alter_ball_visible"":true,""alter_can_infer"":true,""collective_ball_visible"":false,""collective_can_infer"":false,""search_locations"":[2],""alter_occluders"":""010"",""ego_occluders"":""111""}","false","","","","","","","","","","","","","","","","","","",""
"","","","","","image-keyboard-response","11","110466","0.0-3.0-8.0","628f9ef985fa6d3dc816672c","665500ab8938657b03fbdba8","66579267ec2b45982c0cd3fb","1721","stimuli/20101112.jpg"," ","","practrice_feedback","2","","","","","","","","","","","","","","","","","","","","",""
"","","","","","image-keyboard-response","12","116438","0.0-3.0-9.0","628f9ef985fa6d3dc816672c","665500ab8938657b03fbdba8","66579267ec2b45982c0cd3fb","5972","stimuli/2111011.jpg","1","","prediction_practice","2","{""filepath"":""stimuli/2111011.jpg"",""ball_pos"":2,""ego_ball_visible"":false,""ego_can_infer"":false,""alter_ball_visible"":false,""alter_can_infer"":false,""collective_ball_visible"":false,""collective_can_infer"":false,""search_locations"":[0,1,2],""alter_occluders"":""111"",""ego_occluders"":""011""}","false","","","","","","","","","","","","","","","","","","",""
"","","","","","image-keyboard-response","13","117325","0.0-3.0-10.0","628f9ef985fa6d3dc816672c","665500ab8938657b03fbdba8","66579267ec2b45982c0cd3fb","887","stimuli/21110112.jpg"," ","","practrice_feedback","0","","","","","","","","","","","","","","","","","","","","",""
"","","","","","image-keyboard-response","14","120464","0.0-3.0-11.0","628f9ef985fa6d3dc816672c","665500ab8938657b03fbdba8","66579267ec2b45982c0cd3fb","3138","stimuli/0101011.jpg","0","","prediction_practice","0","{""filepath"":""stimuli/0101011.jpg"",""ball_pos"":0,""ego_ball_visible"":true,""ego_can_infer"":true,""alter_ball_visible"":false,""alter_can_infer"":false,""collective_ball_visible"":false,""collective_can_infer"":false,""search_locations"":[2,0],""alter_occluders"":""101"",""ego_occluders"":""011""}","true","","","","","","","","","","","","","","","","","","",""
"","","","","","image-keyboard-response","15","121333","0.0-3.0-12.0","628f9ef985fa6d3dc816672c","665500ab8938657b03fbdba8","66579267ec2b45982c0cd3fb","870","stimuli/01010110.jpg"," ","","practrice_feedback","2","","","","","","","","","","","","","","","","","","","","",""
"","","","","","image-keyboard-response","16","124510","0.0-3.0-13.0","628f9ef985fa6d3dc816672c","665500ab8938657b03fbdba8","66579267ec2b45982c0cd3fb","3176","stimuli/0111001.jpg","0","","prediction_practice","0","{""filepath"":""stimuli/0111001.jpg"",""ball_pos"":0,""ego_ball_visible"":true,""ego_can_infer"":true,""alter_ball_visible"":false,""alter_can_infer"":false,""collective_ball_visible"":false,""collective_can_infer"":false,""search_locations"":[0,2,1],""alter_occluders"":""111"",""ego_occluders"":""001""}","true","","","","","","","","","","","","","","","","","","",""
"","","","","","image-keyboard-response","17","125139","0.0-3.0-14.0","628f9ef985fa6d3dc816672c","665500ab8938657b03fbdba8","66579267ec2b45982c0cd3fb","629","stimuli/01110010.jpg"," ","","practrice_feedback","0","","","","","","","","","","","","","","","","","","","","",""
"","","","","","image-keyboard-response","18","126465","0.0-3.0-15.0","628f9ef985fa6d3dc816672c","665500ab8938657b03fbdba8","66579267ec2b45982c0cd3fb","1326","stimuli/1000000.jpg","1","","prediction_practice","1","{""filepath"":""stimuli/1000000.jpg"",""ball_pos"":1,""ego_ball_visible"":true,""ego_can_infer"":true,""alter_ball_visible"":true,""alter_can_infer"":true,""collective_ball_visible"":true,""collective_can_infer"":true,""search_locations"":[1],""alter_occluders"":""000"",""ego_occluders"":""000""}","true","","","","","","","","","","","","","","","","","","",""
"","","","","","image-keyboard-response","19","126939","0.0-3.0-16.0","628f9ef985fa6d3dc816672c","665500ab8938657b03fbdba8","66579267ec2b45982c0cd3fb","474","stimuli/10000001.jpg"," ","","practrice_feedback","1","","","","","","","","","","","","","","","","","","","","",""
"","","","","","image-keyboard-response","20","131796","0.0-3.0-17.0","628f9ef985fa6d3dc816672c","665500ab8938657b03fbdba8","66579267ec2b45982c0cd3fb","4857","stimuli/2001011.jpg","1","","prediction_practice","2","{""filepath"":""stimuli/2001011.jpg"",""ball_pos"":2,""ego_ball_visible"":false,""ego_can_infer"":false,""alter_ball_visible"":false,""alter_can_infer"":true,""collective_ball_visible"":false,""collective_can_infer"":false,""search_locations"":[2],""alter_occluders"":""001"",""ego_occluders"":""011""}","false","","","","","","","","","","","","","","","","","","",""
"","","","","","image-keyboard-response","21","132594","0.0-3.0-18.0","628f9ef985fa6d3dc816672c","665500ab8938657b03fbdba8","66579267ec2b45982c0cd3fb","798","stimuli/20010112.jpg"," ","","practrice_feedback","2","","","","","","","","","","","","","","","","","","","","",""
"","","","","","image-keyboard-response","22","135110","0.0-3.0-19.0","628f9ef985fa6d3dc816672c","665500ab8938657b03fbdba8","66579267ec2b45982c0cd3fb","2516","stimuli/1010000.jpg","1","","prediction_practice","1","{""filepath"":""stimuli/1010000.jpg"",""ball_pos"":1,""ego_ball_visible"":true,""ego_can_infer"":true,""alter_ball_visible"":false,""alter_can_infer"":true,""collective_ball_visible"":false,""collective_can_infer"":true,""search_locations"":[1],""alter_occluders"":""010"",""ego_occluders"":""000""}","true","","","","","","","","","","","","","","","","","","",""
"","","","","","image-keyboard-response","23","135856","0.0-3.0-20.0","628f9ef985fa6d3dc816672c","665500ab8938657b03fbdba8","66579267ec2b45982c0cd3fb","746","stimuli/10100001.jpg"," ","","practrice_feedback","1","","","","","","","","","","","","","","","","","","","","",""
"","","","","","html-button-response","24","148411","0.0-3.0-21.0","628f9ef985fa6d3dc816672c","665500ab8938657b03fbdba8","66579267ec2b45982c0cd3fb","12554","Now that you've had some practice, you'll be tested with a couple of easy trials. If you correctly predict Sam's choice, you'll move on to complete the experiment!","0","","","","","","","","","","","","","","","","","","","","","","","",""
"","","","","","image-keyboard-response","25","150128","0.0-3.0-22.0-0.0","628f9ef985fa6d3dc816672c","665500ab8938657b03fbdba8","66579267ec2b45982c0cd3fb","1717","stimuli/0000011.jpg","arrowleft","","comprehension_quiz","","","true","arrowleft","","","","","","","","","","","","","","","","","",""
"","","","","","image-keyboard-response","26","150862","0.0-3.0-22.0-1.0","628f9ef985fa6d3dc816672c","665500ab8938657b03fbdba8","66579267ec2b45982c0cd3fb","733","stimuli/00000110.jpg"," ","","comprehension_quiz","","","true"," ","","","","","","","","","","","","","","","","","",""
"","","","","","image-keyboard-response","27","152932","0.0-3.0-22.0-2.0","628f9ef985fa6d3dc816672c","665500ab8938657b03fbdba8","66579267ec2b45982c0cd3fb","2070","stimuli/1010010.jpg","arrowdown","","comprehension_quiz","","","true","arrowdown","","","","","","","","","","","","","","","","","",""
"","","","","","image-keyboard-response","28","153308","0.0-3.0-22.0-3.0","628f9ef985fa6d3dc816672c","665500ab8938657b03fbdba8","66579267ec2b45982c0cd3fb","376","stimuli/10100101.jpg"," ","","comprehension_quiz","","","true"," ","","","","","","","","","","","","","","","","","",""
"","","","","","html-button-response","29","155736","0.0-4.0","628f9ef985fa6d3dc816672c","665500ab8938657b03fbdba8","66579267ec2b45982c0cd3fb","2427","The experiment will now begin.","0","","","","","","","","","","","","","","","","","","","","","","","",""
"","","","","","image-keyboard-response","30","159006","0.0-5.0","628f9ef985fa6d3dc816672c","665500ab8938657b03fbdba8","66579267ec2b45982c0cd3fb","3270","stimuli/0101100.jpg","0","","prediction_trial","2","","false","","0","false","true","false","false","false","false","[0,2]","101","100","0","","","","","","",""
"","","","","","image-keyboard-response","31","159532","0.0-6.0","628f9ef985fa6d3dc816672c","665500ab8938657b03fbdba8","66579267ec2b45982c0cd3fb","525","stimuli/01011002.jpg"," ","","feedback_trial","0","","","","","","","","","","","","","","","","","","","","",""
"","","","","","image-keyboard-response","32","160552","0.0-7.0","628f9ef985fa6d3dc816672c","665500ab8938657b03fbdba8","66579267ec2b45982c0cd3fb","1020","stimuli/0000001.jpg","0","","prediction_trial","0","","true","","0","true","true","true","true","true","true","[0]","000","001","1","","","","","","",""
"","","","","","image-keyboard-response","33","160790","0.0-8.0","628f9ef985fa6d3dc816672c","665500ab8938657b03fbdba8","66579267ec2b45982c0cd3fb","238","stimuli/00000010.jpg"," ","","feedback_trial","0","","","","","","","","","","","","","","","","","","","","",""
"","","","","","image-keyboard-response","34","162362","0.0-9.0","628f9ef985fa6d3dc816672c","665500ab8938657b03fbdba8","66579267ec2b45982c0cd3fb","1572","stimuli/0001110.jpg","1","","prediction_trial","0","","false","","0","false","false","true","true","false","false","[0]","001","110","0","","","","","","",""
"","","","","","image-keyboard-response","35","162764","0.0-10.0","628f9ef985fa6d3dc816672c","665500ab8938657b03fbdba8","66579267ec2b45982c0cd3fb","402","stimuli/00011100.jpg"," ","","feedback_trial","0","","","","","","","","","","","","","","","","","","","","",""
"","","","","","image-keyboard-response","36","165251","0.0-11.0","628f9ef985fa6d3dc816672c","665500ab8938657b03fbdba8","66579267ec2b45982c0cd3fb","2487","stimuli/2010101.jpg","0","","prediction_trial","2","","false","","2","false","false","true","true","false","false","[2]","010","101","0","","","","","","",""
"","","","","","image-keyboard-response","37","165652","0.0-12.0","628f9ef985fa6d3dc816672c","665500ab8938657b03fbdba8","66579267ec2b45982c0cd3fb","401","stimuli/20101012.jpg"," ","","feedback_trial","2","","","","","","","","","","","","","","","","","","","","",""
"","","","","","image-keyboard-response","38","170221","0.0-13.0","628f9ef985fa6d3dc816672c","665500ab8938657b03fbdba8","66579267ec2b45982c0cd3fb","4569","stimuli/0010100.jpg","0","","prediction_trial","0","","true","","0","false","true","true","true","false","true","[0]","010","100","1","","","","","","",""
"","","","","","image-keyboard-response","39","171400","0.0-14.0","628f9ef985fa6d3dc816672c","665500ab8938657b03fbdba8","66579267ec2b45982c0cd3fb","1179","stimuli/00101000.jpg"," ","","feedback_trial","0","","","","","","","","","","","","","","","","","","","","",""
"","","","","","image-keyboard-response","40","173931","0.0-15.0","628f9ef985fa6d3dc816672c","665500ab8938657b03fbdba8","66579267ec2b45982c0cd3fb","2531","stimuli/0000111.jpg","1","","prediction_trial","0","","false","","0","false","false","true","true","false","false","[0]","000","111","0","","","","","","",""
"","","","","","image-keyboard-response","41","174637","0.0-16.0","628f9ef985fa6d3dc816672c","665500ab8938657b03fbdba8","66579267ec2b45982c0cd3fb","706","stimuli/00001110.jpg"," ","","feedback_trial","0","","","","","","","","","","","","","","","","","","","","",""
"","","","","","image-keyboard-response","42","182070","0.0-17.0","628f9ef985fa6d3dc816672c","665500ab8938657b03fbdba8","66579267ec2b45982c0cd3fb","7433","stimuli/2101001.jpg","2","","prediction_trial","0","","false","","2","false","true","false","false","false","false","[2,0]","101","001","0","","","","","","",""
"","","","","","image-keyboard-response","43","182572","0.0-18.0","628f9ef985fa6d3dc816672c","665500ab8938657b03fbdba8","66579267ec2b45982c0cd3fb","502","stimuli/21010010.jpg"," ","","feedback_trial","2","","","","","","","","","","","","","","","","","","","","",""
"","","","","","image-keyboard-response","44","185333","0.0-19.0","628f9ef985fa6d3dc816672c","665500ab8938657b03fbdba8","66579267ec2b45982c0cd3fb","2761","stimuli/0001100.jpg","0","","prediction_trial","0","","true","","0","false","true","true","true","false","true","[0]","001","100","1","","","","","","",""
"","","","","","image-keyboard-response","45","185587","0.0-20.0","628f9ef985fa6d3dc816672c","665500ab8938657b03fbdba8","66579267ec2b45982c0cd3fb","254","stimuli/00011000.jpg"," ","","feedback_trial","0","","","","","","","","","","","","","","","","","","","","",""
"","","","","","image-keyboard-response","46","189099","0.0-21.0","628f9ef985fa6d3dc816672c","665500ab8938657b03fbdba8","66579267ec2b45982c0cd3fb","3512","stimuli/0110100.jpg","0","","prediction_trial","0","","true","","0","false","true","false","false","false","false","[0,1]","110","100","1","","","","","","",""
"","","","","","image-keyboard-response","47","189962","0.0-22.0","628f9ef985fa6d3dc816672c","665500ab8938657b03fbdba8","66579267ec2b45982c0cd3fb","863","stimuli/01101000.jpg"," ","","feedback_trial","0","","","","","","","","","","","","","","","","","","","","",""
"","","","","","image-keyboard-response","48","190988","0.0-23.0","628f9ef985fa6d3dc816672c","665500ab8938657b03fbdba8","66579267ec2b45982c0cd3fb","1026","stimuli/1001100.jpg","1","","prediction_trial","1","","true","","1","true","true","true","true","true","true","[1]","001","100","1","","","","","","",""
"","","","","","image-keyboard-response","49","191191","0.0-24.0","628f9ef985fa6d3dc816672c","665500ab8938657b03fbdba8","66579267ec2b45982c0cd3fb","203","stimuli/10011001.jpg"," ","","feedback_trial","1","","","","","","","","","","","","","","","","","","","","",""
"","","","","","image-keyboard-response","50","192255","0.0-25.0","628f9ef985fa6d3dc816672c","665500ab8938657b03fbdba8","66579267ec2b45982c0cd3fb","1064","stimuli/2000000.jpg","2","","prediction_trial","2","","true","","2","true","true","true","true","true","true","[2]","000","000","1","","","","","","",""
"","","","","","image-keyboard-response","51","192435","0.0-26.0","628f9ef985fa6d3dc816672c","665500ab8938657b03fbdba8","66579267ec2b45982c0cd3fb","180","stimuli/20000002.jpg"," ","","feedback_trial","2","","","","","","","","","","","","","","","","","","","","",""
"","","","","","image-keyboard-response","52","193282","0.0-27.0","628f9ef985fa6d3dc816672c","665500ab8938657b03fbdba8","66579267ec2b45982c0cd3fb","847","stimuli/1101101.jpg","1","","prediction_trial","1","","true","","1","true","true","true","true","true","true","[1]","101","101","1","","","","","","",""
"","","","","","image-keyboard-response","53","193459","0.0-28.0","628f9ef985fa6d3dc816672c","665500ab8938657b03fbdba8","66579267ec2b45982c0cd3fb","177","stimuli/11011011.jpg"," ","","feedback_trial","1","","","","","","","","","","","","","","","","","","","","",""
"","","","","","image-keyboard-response","54","195371","0.0-29.0","628f9ef985fa6d3dc816672c","665500ab8938657b03fbdba8","66579267ec2b45982c0cd3fb","1912","stimuli/2101111.jpg","1","","prediction_trial","0","","false","","2","false","false","false","false","false","false","[0,2]","101","111","0","","","","","","",""
"","","","","","image-keyboard-response","55","196058","0.0-30.0","628f9ef985fa6d3dc816672c","665500ab8938657b03fbdba8","66579267ec2b45982c0cd3fb","687","stimuli/21011110.jpg"," ","","feedback_trial","0","","","","","","","","","","","","","","","","","","","","",""
"","","","","","image-keyboard-response","56","199257","0.0-31.0","628f9ef985fa6d3dc816672c","665500ab8938657b03fbdba8","66579267ec2b45982c0cd3fb","3199","stimuli/1001010.jpg","1","","prediction_trial","1","","true","","1","false","true","true","true","false","true","[1]","001","010","1","","","","","","",""
"","","","","","image-keyboard-response","57","199564","0.0-32.0","628f9ef985fa6d3dc816672c","665500ab8938657b03fbdba8","66579267ec2b45982c0cd3fb","307","stimuli/10010101.jpg"," ","","feedback_trial","1","","","","","","","","","","","","","","","","","","","","",""
"","","","","","image-keyboard-response","58","202805","0.0-33.0","628f9ef985fa6d3dc816672c","665500ab8938657b03fbdba8","66579267ec2b45982c0cd3fb","3241","stimuli/2001111.jpg","0","","prediction_trial","2","","false","","2","false","false","false","true","false","false","[2]","001","111","0","","","","","","",""
"","","","","","image-keyboard-response","59","204136","0.0-34.0","628f9ef985fa6d3dc816672c","665500ab8938657b03fbdba8","66579267ec2b45982c0cd3fb","1331","stimuli/20011112.jpg"," ","","feedback_trial","2","","","","","","","","","","","","","","","","","","","","",""
"","","","","","image-keyboard-response","60","205107","0.0-35.0","628f9ef985fa6d3dc816672c","665500ab8938657b03fbdba8","66579267ec2b45982c0cd3fb","971","stimuli/2110100.jpg","2","","prediction_trial","2","","true","","2","true","true","true","true","true","true","[2]","110","100","1","","","","","","",""
"","","","","","image-keyboard-response","61","205325","0.0-36.0","628f9ef985fa6d3dc816672c","665500ab8938657b03fbdba8","66579267ec2b45982c0cd3fb","218","stimuli/21101002.jpg"," ","","feedback_trial","2","","","","","","","","","","","","","","","","","","","","",""
"","","","","","image-keyboard-response","62","207210","0.0-37.0","628f9ef985fa6d3dc816672c","665500ab8938657b03fbdba8","66579267ec2b45982c0cd3fb","1885","stimuli/1100010.jpg","1","","prediction_trial","1","","true","","1","false","true","true","true","false","true","[1]","100","010","1","","","","","","",""
"","","","","","image-keyboard-response","63","207337","0.0-38.0","628f9ef985fa6d3dc816672c","665500ab8938657b03fbdba8","66579267ec2b45982c0cd3fb","127","stimuli/11000101.jpg"," ","","feedback_trial","1","","","","","","","","","","","","","","","","","","","","",""
"","","","","","image-keyboard-response","64","209520","0.0-39.0","628f9ef985fa6d3dc816672c","665500ab8938657b03fbdba8","66579267ec2b45982c0cd3fb","2183","stimuli/1011011.jpg","1","","prediction_trial","1","","true","","1","false","false","false","false","false","false","[2,1]","011","011","1","","","","","","",""
"","","","","","image-keyboard-response","65","210115","0.0-40.0","628f9ef985fa6d3dc816672c","665500ab8938657b03fbdba8","66579267ec2b45982c0cd3fb","595","stimuli/10110111.jpg"," ","","feedback_trial","2","","","","","","","","","","","","","","","","","","","","",""
"","","","","","image-keyboard-response","66","210940","0.0-41.0","628f9ef985fa6d3dc816672c","665500ab8938657b03fbdba8","66579267ec2b45982c0cd3fb","825","stimuli/1101000.jpg","1","","prediction_trial","1","","true","","1","true","true","true","true","true","true","[1]","101","000","1","","","","","","",""
"","","","","","image-keyboard-response","67","211097","0.0-42.0","628f9ef985fa6d3dc816672c","665500ab8938657b03fbdba8","66579267ec2b45982c0cd3fb","157","stimuli/11010001.jpg"," ","","feedback_trial","1","","","","","","","","","","","","","","","","","","","","",""
"","","","","","image-keyboard-response","68","213414","0.0-43.0","628f9ef985fa6d3dc816672c","665500ab8938657b03fbdba8","66579267ec2b45982c0cd3fb","2317","stimuli/2111011.jpg","1","","prediction_trial","2","","false","","2","false","false","false","false","false","false","[0,1,2]","111","011","0","","","","","","",""
"","","","","","image-keyboard-response","69","213947","0.0-44.0","628f9ef985fa6d3dc816672c","665500ab8938657b03fbdba8","66579267ec2b45982c0cd3fb","533","stimuli/21110112.jpg"," ","","feedback_trial","0","","","","","","","","","","","","","","","","","","","","",""
"","","","","","image-keyboard-response","70","217962","0.0-45.0","628f9ef985fa6d3dc816672c","665500ab8938657b03fbdba8","66579267ec2b45982c0cd3fb","4015","stimuli/2011111.jpg","0","","prediction_trial","1","","false","","2","false","false","false","false","false","false","[2,1]","011","111","0","","","","","","",""
"","","","","","image-keyboard-response","71","218500","0.0-46.0","628f9ef985fa6d3dc816672c","665500ab8938657b03fbdba8","66579267ec2b45982c0cd3fb","538","stimuli/20111111.jpg"," ","","feedback_trial","2","","","","","","","","","","","","","","","","","","","","",""
"","","","","","image-keyboard-response","72","220261","0.0-47.0","628f9ef985fa6d3dc816672c","665500ab8938657b03fbdba8","66579267ec2b45982c0cd3fb","1761","stimuli/0011111.jpg","1","","prediction_trial","0","","false","","0","false","false","true","true","false","false","[0]","011","111","0","","","","","","",""
"","","","","","image-keyboard-response","73","220939","0.0-48.0","628f9ef985fa6d3dc816672c","665500ab8938657b03fbdba8","66579267ec2b45982c0cd3fb","678","stimuli/00111110.jpg"," ","","feedback_trial","0","","","","","","","","","","","","","","","","","","","","",""
"","","","","","image-keyboard-response","74","222024","0.0-49.0","628f9ef985fa6d3dc816672c","665500ab8938657b03fbdba8","66579267ec2b45982c0cd3fb","1085","stimuli/1011000.jpg","1","","prediction_trial","1","","true","","1","true","true","false","false","false","false","[2,1]","011","000","1","","","","","","",""
"","","","","","image-keyboard-response","75","222633","0.0-50.0","628f9ef985fa6d3dc816672c","665500ab8938657b03fbdba8","66579267ec2b45982c0cd3fb","609","stimuli/10110001.jpg"," ","","feedback_trial","2","","","","","","","","","","","","","","","","","","","","",""
"","","","","","image-keyboard-response","76","223324","0.0-51.0","628f9ef985fa6d3dc816672c","665500ab8938657b03fbdba8","66579267ec2b45982c0cd3fb","691","stimuli/0011010.jpg","0","","prediction_trial","0","","true","","0","true","true","true","true","true","true","[0]","011","010","1","","","","","","",""
"","","","","","image-keyboard-response","77","223594","0.0-52.0","628f9ef985fa6d3dc816672c","665500ab8938657b03fbdba8","66579267ec2b45982c0cd3fb","270","stimuli/00110100.jpg"," ","","feedback_trial","0","","","","","","","","","","","","","","","","","","","","",""
"","","","","","image-keyboard-response","78","225084","0.0-53.0","628f9ef985fa6d3dc816672c","665500ab8938657b03fbdba8","66579267ec2b45982c0cd3fb","1490","stimuli/2110101.jpg","2","","prediction_trial","2","","true","","2","false","false","true","true","false","false","[2]","110","101","1","","","","","","",""
"","","","","","image-keyboard-response","79","225484","0.0-54.0","628f9ef985fa6d3dc816672c","665500ab8938657b03fbdba8","66579267ec2b45982c0cd3fb","400","stimuli/21101012.jpg"," ","","feedback_trial","2","","","","","","","","","","","","","","","","","","","","",""
"","","","","","image-keyboard-response","80","229842","0.0-55.0","628f9ef985fa6d3dc816672c","665500ab8938657b03fbdba8","66579267ec2b45982c0cd3fb","4358","stimuli/1101110.jpg","1","","prediction_trial","1","","true","","1","false","false","true","true","false","false","[1]","101","110","1","","","","","","",""
"","","","","","image-keyboard-response","81","230335","0.0-56.0","628f9ef985fa6d3dc816672c","665500ab8938657b03fbdba8","66579267ec2b45982c0cd3fb","493","stimuli/11011101.jpg"," ","","feedback_trial","1","","","","","","","","","","","","","","","","","","","","",""
"","","","","","image-keyboard-response","82","233303","0.0-57.0","628f9ef985fa6d3dc816672c","665500ab8938657b03fbdba8","66579267ec2b45982c0cd3fb","2968","stimuli/0010110.jpg","0","","prediction_trial","0","","true","","0","false","false","true","true","false","false","[0]","010","110","1","","","","","","",""
"","","","","","image-keyboard-response","83","233887","0.0-58.0","628f9ef985fa6d3dc816672c","665500ab8938657b03fbdba8","66579267ec2b45982c0cd3fb","584","stimuli/00101100.jpg"," ","","feedback_trial","0","","","","","","","","","","","","","","","","","","","","",""
"","","","","","image-keyboard-response","84","235373","0.0-59.0","628f9ef985fa6d3dc816672c","665500ab8938657b03fbdba8","66579267ec2b45982c0cd3fb","1486","stimuli/1011111.jpg","0","","prediction_trial","1","","false","","1","false","false","false","false","false","false","[1,2]","011","111","0","","","","","","",""
"","","","","","image-keyboard-response","85","235896","0.0-60.0","628f9ef985fa6d3dc816672c","665500ab8938657b03fbdba8","66579267ec2b45982c0cd3fb","523","stimuli/10111111.jpg"," ","","feedback_trial","1","","","","","","","","","","","","","","","","","","","","",""
"","","","","","image-keyboard-response","86","238041","0.0-61.0","628f9ef985fa6d3dc816672c","665500ab8938657b03fbdba8","66579267ec2b45982c0cd3fb","2145","stimuli/1001110.jpg","1","","prediction_trial","1","","true","","1","false","false","true","true","false","false","[1]","001","110","1","","","","","","",""
"","","","","","image-keyboard-response","87","238478","0.0-62.0","628f9ef985fa6d3dc816672c","665500ab8938657b03fbdba8","66579267ec2b45982c0cd3fb","437","stimuli/10011101.jpg"," ","","feedback_trial","1","","","","","","","","","","","","","","","","","","","","",""
"","","","","","image-keyboard-response","88","239318","0.0-63.0","628f9ef985fa6d3dc816672c","665500ab8938657b03fbdba8","66579267ec2b45982c0cd3fb","840","stimuli/2100100.jpg","2","","prediction_trial","2","","true","","2","true","true","true","true","true","true","[2]","100","100","1","","","","","","",""
"","","","","","image-keyboard-response","89","239522","0.0-64.0","628f9ef985fa6d3dc816672c","665500ab8938657b03fbdba8","66579267ec2b45982c0cd3fb","204","stimuli/21001002.jpg"," ","","feedback_trial","2","","","","","","","","","","","","","","","","","","","","",""
"","","","","","image-keyboard-response","90","241344","0.0-65.0","628f9ef985fa6d3dc816672c","665500ab8938657b03fbdba8","66579267ec2b45982c0cd3fb","1822","stimuli/1001111.jpg","1","","prediction_trial","1","","true","","1","false","false","true","true","false","false","[1]","001","111","1","","","","","","",""
"","","","","","image-keyboard-response","91","241796","0.0-66.0","628f9ef985fa6d3dc816672c","665500ab8938657b03fbdba8","66579267ec2b45982c0cd3fb","451","stimuli/10011111.jpg"," ","","feedback_trial","1","","","","","","","","","","","","","","","","","","","","",""
"","","","","","image-keyboard-response","92","245518","0.0-67.0","628f9ef985fa6d3dc816672c","665500ab8938657b03fbdba8","66579267ec2b45982c0cd3fb","3723","stimuli/1111010.jpg","1","","prediction_trial","2","","false","","1","false","true","false","false","false","false","[2,1,0]","111","010","0","","","","","","",""
"","","","","","image-keyboard-response","93","246009","0.0-68.0","628f9ef985fa6d3dc816672c","665500ab8938657b03fbdba8","66579267ec2b45982c0cd3fb","491","stimuli/11110102.jpg"," ","","feedback_trial","2","","","","","","","","","","","","","","","","","","","","",""
"","","","","","image-keyboard-response","94","249840","0.0-69.0","628f9ef985fa6d3dc816672c","665500ab8938657b03fbdba8","66579267ec2b45982c0cd3fb","3831","stimuli/1010011.jpg","2","","prediction_trial","1","","false","","1","false","false","false","true","false","false","[1]","010","011","0","","","","","","",""
"","","","","","image-keyboard-response","95","250374","0.0-70.0","628f9ef985fa6d3dc816672c","665500ab8938657b03fbdba8","66579267ec2b45982c0cd3fb","534","stimuli/10100111.jpg"," ","","feedback_trial","1","","","","","","","","","","","","","","","","","","","","",""
"","","","","","image-keyboard-response","96","253146","0.0-71.0","628f9ef985fa6d3dc816672c","665500ab8938657b03fbdba8","66579267ec2b45982c0cd3fb","2772","stimuli/0100010.jpg","0","","prediction_trial","0","","true","","0","true","true","false","true","false","true","[0]","100","010","1","","","","","","",""
"","","","","","image-keyboard-response","97","253377","0.0-72.0","628f9ef985fa6d3dc816672c","665500ab8938657b03fbdba8","66579267ec2b45982c0cd3fb","231","stimuli/01000100.jpg"," ","","feedback_trial","0","","","","","","","","","","","","","","","","","","","","",""
"","","","","","image-keyboard-response","98","255629","0.0-73.0","628f9ef985fa6d3dc816672c","665500ab8938657b03fbdba8","66579267ec2b45982c0cd3fb","2252","stimuli/0101000.jpg","0","","prediction_trial","2","","false","","0","true","true","false","false","false","false","[0,2]","101","000","0","","","","","","",""
"","","","","","image-keyboard-response","99","255947","0.0-74.0","628f9ef985fa6d3dc816672c","665500ab8938657b03fbdba8","66579267ec2b45982c0cd3fb","318","stimuli/01010002.jpg"," ","","feedback_trial","0","","","","","","","","","","","","","","","","","","","","",""
"","","","","","image-keyboard-response","100","259561","0.0-75.0","628f9ef985fa6d3dc816672c","665500ab8938657b03fbdba8","66579267ec2b45982c0cd3fb","3614","stimuli/2110111.jpg","2","","prediction_trial","2","","true","","2","false","false","true","true","false","false","[2]","110","111","1","","","","","","",""
"","","","","","image-keyboard-response","101","260051","0.0-76.0","628f9ef985fa6d3dc816672c","665500ab8938657b03fbdba8","66579267ec2b45982c0cd3fb","490","stimuli/21101112.jpg"," ","","feedback_trial","2","","","","","","","","","","","","","","","","","","","","",""
"","","","","","image-keyboard-response","102","261335","0.0-77.0","628f9ef985fa6d3dc816672c","665500ab8938657b03fbdba8","66579267ec2b45982c0cd3fb","1284","stimuli/1110111.jpg","2","","prediction_trial","1","","false","","1","false","false","false","false","false","false","[0,1]","110","111","0","","","","","","",""
"","","","","","image-keyboard-response","103","261777","0.0-78.0","628f9ef985fa6d3dc816672c","665500ab8938657b03fbdba8","66579267ec2b45982c0cd3fb","442","stimuli/11101111.jpg"," ","","feedback_trial","0","","","","","","","","","","","","","","","","","","","","",""
"","","","","","image-keyboard-response","104","262894","0.0-79.0","628f9ef985fa6d3dc816672c","665500ab8938657b03fbdba8","66579267ec2b45982c0cd3fb","1117","stimuli/1101100.jpg","1","","prediction_trial","1","","true","","1","true","true","true","true","true","true","[1]","101","100","1","","","","","","",""
"","","","","","image-keyboard-response","105","263041","0.0-80.0","628f9ef985fa6d3dc816672c","665500ab8938657b03fbdba8","66579267ec2b45982c0cd3fb","147","stimuli/11011001.jpg"," ","","feedback_trial","1","","","","","","","","","","","","","","","","","","","","",""
"","","","","","image-keyboard-response","106","264854","0.0-81.0","628f9ef985fa6d3dc816672c","665500ab8938657b03fbdba8","66579267ec2b45982c0cd3fb","1813","stimuli/2101010.jpg","2","","prediction_trial","2","","true","","2","true","true","false","false","false","false","[2,0]","101","010","1","","","","","","",""
"","","","","","image-keyboard-response","107","265158","0.0-82.0","628f9ef985fa6d3dc816672c","665500ab8938657b03fbdba8","66579267ec2b45982c0cd3fb","304","stimuli/21010102.jpg"," ","","feedback_trial","2","","","","","","","","","","","","","","","","","","","","",""
"","","","","","image-keyboard-response","108","266671","0.0-83.0","628f9ef985fa6d3dc816672c","665500ab8938657b03fbdba8","66579267ec2b45982c0cd3fb","1513","stimuli/0010000.jpg","0","","prediction_trial","0","","true","","0","true","true","true","true","true","true","[0]","010","000","1","","","","","","",""
"","","","","","image-keyboard-response","109","266890","0.0-84.0","628f9ef985fa6d3dc816672c","665500ab8938657b03fbdba8","66579267ec2b45982c0cd3fb","218","stimuli/00100000.jpg"," ","","feedback_trial","0","","","","","","","","","","","","","","","","","","","","",""
"","","","","","image-keyboard-response","110","269230","0.0-85.0","628f9ef985fa6d3dc816672c","665500ab8938657b03fbdba8","66579267ec2b45982c0cd3fb","2340","stimuli/2100001.jpg","2","","prediction_trial","2","","true","","2","false","true","true","true","false","true","[2]","100","001","1","","","","","","",""
"","","","","","image-keyboard-response","111","269376","0.0-86.0","628f9ef985fa6d3dc816672c","665500ab8938657b03fbdba8","66579267ec2b45982c0cd3fb","146","stimuli/21000012.jpg"," ","","feedback_trial","2","","","","","","","","","","","","","","","","","","","","",""
"","","","","","image-keyboard-response","112","271558","0.0-87.0","628f9ef985fa6d3dc816672c","665500ab8938657b03fbdba8","66579267ec2b45982c0cd3fb","2182","stimuli/2101110.jpg","2","","prediction_trial","0","","false","","2","true","true","false","false","false","false","[0,2]","101","110","0","","","","","","",""
"","","","","","image-keyboard-response","113","272100","0.0-88.0","628f9ef985fa6d3dc816672c","665500ab8938657b03fbdba8","66579267ec2b45982c0cd3fb","542","stimuli/21011100.jpg"," ","","feedback_trial","0","","","","","","","","","","","","","","","","","","","","",""
"","","","","","image-keyboard-response","114","276178","0.0-89.0","628f9ef985fa6d3dc816672c","665500ab8938657b03fbdba8","66579267ec2b45982c0cd3fb","4078","stimuli/2000101.jpg","0","","prediction_trial","2","","false","","2","false","false","true","true","false","false","[2]","000","101","0","","","","","","",""
"","","","","","image-keyboard-response","115","276734","0.0-90.0","628f9ef985fa6d3dc816672c","665500ab8938657b03fbdba8","66579267ec2b45982c0cd3fb","556","stimuli/20001012.jpg"," ","","feedback_trial","2","","","","","","","","","","","","","","","","","","","","",""
"","","","","","image-keyboard-response","116","277987","0.0-91.0","628f9ef985fa6d3dc816672c","665500ab8938657b03fbdba8","66579267ec2b45982c0cd3fb","1253","stimuli/1111000.jpg","1","","prediction_trial","0","","false","","1","true","true","false","false","false","false","[1,2,0]","111","000","0","","","","","","",""
"","","","","","image-keyboard-response","117","278237","0.0-92.0","628f9ef985fa6d3dc816672c","665500ab8938657b03fbdba8","66579267ec2b45982c0cd3fb","250","stimuli/11110000.jpg"," ","","feedback_trial","1","","","","","","","","","","","","","","","","","","","","",""
"","","","","","image-keyboard-response","118","281542","0.0-93.0","628f9ef985fa6d3dc816672c","665500ab8938657b03fbdba8","66579267ec2b45982c0cd3fb","3305","stimuli/0110001.jpg","0","","prediction_trial","1","","false","","0","true","true","false","false","false","false","[0,1]","110","001","0","","","","","","",""
"","","","","","image-keyboard-response","119","282709","0.0-94.0","628f9ef985fa6d3dc816672c","665500ab8938657b03fbdba8","66579267ec2b45982c0cd3fb","1167","stimuli/01100011.jpg"," ","","feedback_trial","0","","","","","","","","","","","","","","","","","","","","",""
"","","","","","image-keyboard-response","120","283662","0.0-95.0","628f9ef985fa6d3dc816672c","665500ab8938657b03fbdba8","66579267ec2b45982c0cd3fb","953","stimuli/2100000.jpg","2","","prediction_trial","2","","true","","2","true","true","true","true","true","true","[2]","100","000","1","","","","","","",""
"","","","","","image-keyboard-response","121","283829","0.0-96.0","628f9ef985fa6d3dc816672c","665500ab8938657b03fbdba8","66579267ec2b45982c0cd3fb","167","stimuli/21000002.jpg"," ","","feedback_trial","2","","","","","","","","","","","","","","","","","","","","",""
"","","","","","image-keyboard-response","122","288994","0.0-97.0","628f9ef985fa6d3dc816672c","665500ab8938657b03fbdba8","66579267ec2b45982c0cd3fb","5165","stimuli/0111101.jpg","2","","prediction_trial","2","","true","","0","false","false","false","false","false","false","[0,1,2]","111","101","1","","","","","","",""
"","","","","","image-keyboard-response","123","289715","0.0-98.0","628f9ef985fa6d3dc816672c","665500ab8938657b03fbdba8","66579267ec2b45982c0cd3fb","721","stimuli/01111012.jpg"," ","","feedback_trial","0","","","","","","","","","","","","","","","","","","","","",""
"","","","","","image-keyboard-response","124","292496","0.0-99.0","628f9ef985fa6d3dc816672c","665500ab8938657b03fbdba8","66579267ec2b45982c0cd3fb","2781","stimuli/2001011.jpg","1","","prediction_trial","2","","false","","2","false","false","false","true","false","false","[2]","001","011","0","","","","","","",""
"","","","","","image-keyboard-response","125","293037","0.0-100.0","628f9ef985fa6d3dc816672c","665500ab8938657b03fbdba8","66579267ec2b45982c0cd3fb","541","stimuli/20010112.jpg"," ","","feedback_trial","2","","","","","","","","","","","","","","","","","","","","",""
"","","","","","image-keyboard-response","126","294791","0.0-101.0","628f9ef985fa6d3dc816672c","665500ab8938657b03fbdba8","66579267ec2b45982c0cd3fb","1754","stimuli/0011110.jpg","0","","prediction_trial","0","","true","","0","false","false","true","true","false","false","[0]","011","110","1","","","","","","",""
"","","","","","image-keyboard-response","127","295327","0.0-102.0","628f9ef985fa6d3dc816672c","665500ab8938657b03fbdba8","66579267ec2b45982c0cd3fb","536","stimuli/00111100.jpg"," ","","feedback_trial","0","","","","","","","","","","","","","","","","","","","","",""
"","","","","","image-keyboard-response","128","297688","0.0-103.0","628f9ef985fa6d3dc816672c","665500ab8938657b03fbdba8","66579267ec2b45982c0cd3fb","2361","stimuli/2011110.jpg","2","","prediction_trial","2","","true","","2","true","true","false","false","false","false","[2,1]","011","110","1","","","","","","",""
"","","","","","image-keyboard-response","129","298179","0.0-104.0","628f9ef985fa6d3dc816672c","665500ab8938657b03fbdba8","66579267ec2b45982c0cd3fb","491","stimuli/20111102.jpg"," ","","feedback_trial","2","","","","","","","","","","","","","","","","","","","","",""
"","","","","","image-keyboard-response","130","299912","0.0-105.0","628f9ef985fa6d3dc816672c","665500ab8938657b03fbdba8","66579267ec2b45982c0cd3fb","1734","stimuli/1010110.jpg","0","","prediction_trial","1","","false","","1","false","false","false","true","false","false","[1]","010","110","0","","","","","","",""
"","","","","","image-keyboard-response","131","300316","0.0-106.0","628f9ef985fa6d3dc816672c","665500ab8938657b03fbdba8","66579267ec2b45982c0cd3fb","404","stimuli/10101101.jpg"," ","","feedback_trial","1","","","","","","","","","","","","","","","","","","","","",""
"","","","","","image-keyboard-response","132","302740","0.0-107.0","628f9ef985fa6d3dc816672c","665500ab8938657b03fbdba8","66579267ec2b45982c0cd3fb","2423","stimuli/0101111.jpg","1","","prediction_trial","0","","false","","0","false","false","false","false","false","false","[0,2]","101","111","0","","","","","","",""
"","","","","","image-keyboard-response","133","303210","0.0-108.0","628f9ef985fa6d3dc816672c","665500ab8938657b03fbdba8","66579267ec2b45982c0cd3fb","471","stimuli/01011110.jpg"," ","","feedback_trial","0","","","","","","","","","","","","","","","","","","","","",""
"","","","","","image-keyboard-response","134","304886","0.0-109.0","628f9ef985fa6d3dc816672c","665500ab8938657b03fbdba8","66579267ec2b45982c0cd3fb","1675","stimuli/2100101.jpg","2","","prediction_trial","2","","true","","2","false","false","true","true","false","false","[2]","100","101","1","","","","","","",""
"","","","","","image-keyboard-response","135","305747","0.0-110.0","628f9ef985fa6d3dc816672c","665500ab8938657b03fbdba8","66579267ec2b45982c0cd3fb","861","stimuli/21001012.jpg"," ","","feedback_trial","2","","","","","","","","","","","","","","","","","","","","",""
"","","","","","image-keyboard-response","136","306707","0.0-111.0","628f9ef985fa6d3dc816672c","665500ab8938657b03fbdba8","66579267ec2b45982c0cd3fb","960","stimuli/2110010.jpg","2","","prediction_trial","2","","true","","2","true","true","true","true","true","true","[2]","110","010","1","","","","","","",""
"","","","","","image-keyboard-response","137","306886","0.0-112.0","628f9ef985fa6d3dc816672c","665500ab8938657b03fbdba8","66579267ec2b45982c0cd3fb","179","stimuli/21100102.jpg"," ","","feedback_trial","2","","","","","","","","","","","","","","","","","","","","",""
"","","","","","image-keyboard-response","138","308204","0.0-113.0","628f9ef985fa6d3dc816672c","665500ab8938657b03fbdba8","66579267ec2b45982c0cd3fb","1318","stimuli/1011001.jpg","1","","prediction_trial","1","","true","","1","true","true","false","false","false","false","[2,1]","011","001","1","","","","","","",""
"","","","","","image-keyboard-response","139","309410","0.0-114.0","628f9ef985fa6d3dc816672c","665500ab8938657b03fbdba8","66579267ec2b45982c0cd3fb","1206","stimuli/10110011.jpg"," ","","feedback_trial","2","","","","","","","","","","","","","","","","","","","","",""
"","","","","","image-keyboard-response","140","310107","0.0-115.0","628f9ef985fa6d3dc816672c","665500ab8938657b03fbdba8","66579267ec2b45982c0cd3fb","697","stimuli/0011000.jpg","0","","prediction_trial","0","","true","","0","true","true","true","true","true","true","[0]","011","000","1","","","","","","",""
"","","","","","image-keyboard-response","141","310285","0.0-116.0","628f9ef985fa6d3dc816672c","665500ab8938657b03fbdba8","66579267ec2b45982c0cd3fb","178","stimuli/00110000.jpg"," ","","feedback_trial","0","","","","","","","","","","","","","","","","","","","","",""
"","","","","","image-keyboard-response","142","312941","0.0-117.0","628f9ef985fa6d3dc816672c","665500ab8938657b03fbdba8","66579267ec2b45982c0cd3fb","2656","stimuli/0010101.jpg","2","","prediction_trial","0","","false","","0","false","false","true","true","false","false","[0]","010","101","0","","","","","","",""
"","","","","","image-keyboard-response","143","313517","0.0-118.0","628f9ef985fa6d3dc816672c","665500ab8938657b03fbdba8","66579267ec2b45982c0cd3fb","576","stimuli/00101010.jpg"," ","","feedback_trial","0","","","","","","","","","","","","","","","","","","","","",""
"","","","","","image-keyboard-response","144","314528","0.0-119.0","628f9ef985fa6d3dc816672c","665500ab8938657b03fbdba8","66579267ec2b45982c0cd3fb","1011","stimuli/2100010.jpg","2","","prediction_trial","2","","true","","2","true","true","true","true","true","true","[2]","100","010","1","","","","","","",""
"","","","","","image-keyboard-response","145","315046","0.0-120.0","628f9ef985fa6d3dc816672c","665500ab8938657b03fbdba8","66579267ec2b45982c0cd3fb","518","stimuli/21000102.jpg"," ","","feedback_trial","2","","","","","","","","","","","","","","","","","","","","",""
"","","","","","image-keyboard-response","146","319381","0.0-121.0","628f9ef985fa6d3dc816672c","665500ab8938657b03fbdba8","66579267ec2b45982c0cd3fb","4335","stimuli/2101101.jpg","2","","prediction_trial","2","","true","","2","false","false","false","false","false","false","[0,2]","101","101","1","","","","","","",""
"","","","","","image-keyboard-response","147","319930","0.0-122.0","628f9ef985fa6d3dc816672c","665500ab8938657b03fbdba8","66579267ec2b45982c0cd3fb","549","stimuli/21011012.jpg"," ","","feedback_trial","0","","","","","","","","","","","","","","","","","","","","",""
"","","","","","image-keyboard-response","148","321834","0.0-123.0","628f9ef985fa6d3dc816672c","665500ab8938657b03fbdba8","66579267ec2b45982c0cd3fb","1904","stimuli/0110000.jpg","0","","prediction_trial","0","","true","","0","true","true","false","false","false","false","[0,1]","110","000","1","","","","","","",""
"","","","","","image-keyboard-response","149","322306","0.0-124.0","628f9ef985fa6d3dc816672c","665500ab8938657b03fbdba8","66579267ec2b45982c0cd3fb","472","stimuli/01100000.jpg"," ","","feedback_trial","0","","","","","","","","","","","","","","","","","","","","",""
"","","","","","image-keyboard-response","150","323174","0.0-125.0","628f9ef985fa6d3dc816672c","665500ab8938657b03fbdba8","66579267ec2b45982c0cd3fb","868","stimuli/2100110.jpg","2","","prediction_trial","2","","true","","2","true","true","true","true","true","true","[2]","100","110","1","","","","","","",""
"","","","","","image-keyboard-response","151","323523","0.0-126.0","628f9ef985fa6d3dc816672c","665500ab8938657b03fbdba8","66579267ec2b45982c0cd3fb","349","stimuli/21001102.jpg"," ","","feedback_trial","2","","","","","","","","","","","","","","","","","","","","",""
"","","","","","image-keyboard-response","152","327811","0.0-127.0","628f9ef985fa6d3dc816672c","665500ab8938657b03fbdba8","66579267ec2b45982c0cd3fb","4288","stimuli/1111111.jpg","1","","prediction_trial","1","","true","","1","false","false","false","false","false","false","[2,1,0]","111","111","1","","","","","","",""
"","","","","","image-keyboard-response","153","328370","0.0-128.0","628f9ef985fa6d3dc816672c","665500ab8938657b03fbdba8","66579267ec2b45982c0cd3fb","559","stimuli/11111111.jpg"," ","","feedback_trial","2","","","","","","","","","","","","","","","","","","","","",""
"","","","","","image-keyboard-response","154","331662","0.0-129.0","628f9ef985fa6d3dc816672c","665500ab8938657b03fbdba8","66579267ec2b45982c0cd3fb","3292","stimuli/0000100.jpg","0","","prediction_trial","0","","true","","0","false","true","true","true","false","true","[0]","000","100","1","","","","","","",""
"","","","","","image-keyboard-response","155","331915","0.0-130.0","628f9ef985fa6d3dc816672c","665500ab8938657b03fbdba8","66579267ec2b45982c0cd3fb","253","stimuli/00001000.jpg"," ","","feedback_trial","0","","","","","","","","","","","","","","","","","","","","",""
"","","","","","image-keyboard-response","156","333775","0.0-131.0","628f9ef985fa6d3dc816672c","665500ab8938657b03fbdba8","66579267ec2b45982c0cd3fb","1860","stimuli/2001001.jpg","2","","prediction_trial","2","","true","","2","false","true","false","true","false","true","[2]","001","001","1","","","","","","",""
"","","","","","image-keyboard-response","157","333937","0.0-132.0","628f9ef985fa6d3dc816672c","665500ab8938657b03fbdba8","66579267ec2b45982c0cd3fb","162","stimuli/20010012.jpg"," ","","feedback_trial","2","","","","","","","","","","","","","","","","","","","","",""
"","","","","","image-keyboard-response","158","334942","0.0-133.0","628f9ef985fa6d3dc816672c","665500ab8938657b03fbdba8","66579267ec2b45982c0cd3fb","1005","stimuli/0010010.jpg","0","","prediction_trial","0","","true","","0","true","true","true","true","true","true","[0]","010","010","1","","","","","","",""
"","","","","","image-keyboard-response","159","335073","0.0-134.0","628f9ef985fa6d3dc816672c","665500ab8938657b03fbdba8","66579267ec2b45982c0cd3fb","131","stimuli/00100100.jpg"," ","","feedback_trial","0","","","","","","","","","","","","","","","","","","","","",""
"","","","","","image-keyboard-response","160","335964","0.0-135.0","628f9ef985fa6d3dc816672c","665500ab8938657b03fbdba8","66579267ec2b45982c0cd3fb","891","stimuli/1000000.jpg","1","","prediction_trial","1","","true","","1","true","true","true","true","true","true","[1]","000","000","1","","","","","","",""
"","","","","","image-keyboard-response","161","336078","0.0-136.0","628f9ef985fa6d3dc816672c","665500ab8938657b03fbdba8","66579267ec2b45982c0cd3fb","114","stimuli/10000001.jpg"," ","","feedback_trial","1","","","","","","","","","","","","","","","","","","","","",""
"","","","","","image-keyboard-response","162","338656","0.0-137.0","628f9ef985fa6d3dc816672c","665500ab8938657b03fbdba8","66579267ec2b45982c0cd3fb","2578","stimuli/1110100.jpg","1","","prediction_trial","0","","false","","1","true","true","false","false","false","false","[1,0]","110","100","0","","","","","","",""
"","","","","","image-keyboard-response","163","339161","0.0-138.0","628f9ef985fa6d3dc816672c","665500ab8938657b03fbdba8","66579267ec2b45982c0cd3fb","505","stimuli/11101000.jpg"," ","","feedback_trial","1","","","","","","","","","","","","","","","","","","","","",""
"","","","","","image-keyboard-response","164","341388","0.0-139.0","628f9ef985fa6d3dc816672c","665500ab8938657b03fbdba8","66579267ec2b45982c0cd3fb","2227","stimuli/1100011.jpg","1","","prediction_trial","1","","true","","1","false","false","true","true","false","false","[1]","100","011","1","","","","","","",""
"","","","","","image-keyboard-response","165","341834","0.0-140.0","628f9ef985fa6d3dc816672c","665500ab8938657b03fbdba8","66579267ec2b45982c0cd3fb","446","stimuli/11000111.jpg"," ","","feedback_trial","1","","","","","","","","","","","","","","","","","","","","",""
"","","","","","image-keyboard-response","166","343162","0.0-141.0","628f9ef985fa6d3dc816672c","665500ab8938657b03fbdba8","66579267ec2b45982c0cd3fb","1328","stimuli/2000111.jpg","1","","prediction_trial","2","","false","","2","false","false","true","true","false","false","[2]","000","111","0","","","","","","",""
"","","","","","image-keyboard-response","167","343613","0.0-142.0","628f9ef985fa6d3dc816672c","665500ab8938657b03fbdba8","66579267ec2b45982c0cd3fb","451","stimuli/20001112.jpg"," ","","feedback_trial","2","","","","","","","","","","","","","","","","","","","","",""
"","","","","","image-keyboard-response","168","344381","0.0-143.0","628f9ef985fa6d3dc816672c","665500ab8938657b03fbdba8","66579267ec2b45982c0cd3fb","768","stimuli/2000110.jpg","2","","prediction_trial","2","","true","","2","true","true","true","true","true","true","[2]","000","110","1","","","","","","",""
"","","","","","image-keyboard-response","169","344598","0.0-144.0","628f9ef985fa6d3dc816672c","665500ab8938657b03fbdba8","66579267ec2b45982c0cd3fb","217","stimuli/20001102.jpg"," ","","feedback_trial","2","","","","","","","","","","","","","","","","","","","","",""
"","","","","","image-keyboard-response","170","346117","0.0-145.0","628f9ef985fa6d3dc816672c","665500ab8938657b03fbdba8","66579267ec2b45982c0cd3fb","1519","stimuli/0110101.jpg","2","","prediction_trial","1","","false","","0","false","false","false","false","false","false","[0,1]","110","101","0","","","","","","",""
"","","","","","image-keyboard-response","171","346550","0.0-146.0","628f9ef985fa6d3dc816672c","665500ab8938657b03fbdba8","66579267ec2b45982c0cd3fb","433","stimuli/01101011.jpg"," ","","feedback_trial","0","","","","","","","","","","","","","","","","","","","","",""
"","","","","","image-keyboard-response","172","349858","0.0-147.0","628f9ef985fa6d3dc816672c","665500ab8938657b03fbdba8","66579267ec2b45982c0cd3fb","3309","stimuli/0100101.jpg","2","","prediction_trial","0","","false","","0","false","false","false","true","false","false","[0]","100","101","0","","","","","","",""
"","","","","","image-keyboard-response","173","350300","0.0-148.0","628f9ef985fa6d3dc816672c","665500ab8938657b03fbdba8","66579267ec2b45982c0cd3fb","441","stimuli/01001010.jpg"," ","","feedback_trial","0","","","","","","","","","","","","","","","","","","","","",""
"","","","","","image-keyboard-response","174","351414","0.0-149.0","628f9ef985fa6d3dc816672c","665500ab8938657b03fbdba8","66579267ec2b45982c0cd3fb","1115","stimuli/2000010.jpg","2","","prediction_trial","2","","true","","2","true","true","true","true","true","true","[2]","000","010","1","","","","","","",""
"","","","","","image-keyboard-response","175","351656","0.0-150.0","628f9ef985fa6d3dc816672c","665500ab8938657b03fbdba8","66579267ec2b45982c0cd3fb","242","stimuli/20000102.jpg"," ","","feedback_trial","2","","","","","","","","","","","","","","","","","","","","",""
"","","","","","image-keyboard-response","176","352396","0.0-151.0","628f9ef985fa6d3dc816672c","665500ab8938657b03fbdba8","66579267ec2b45982c0cd3fb","739","stimuli/1100100.jpg","1","","prediction_trial","1","","true","","1","true","true","true","true","true","true","[1]","100","100","1","","","","","","",""
"","","","","","image-keyboard-response","177","352728","0.0-152.0","628f9ef985fa6d3dc816672c","665500ab8938657b03fbdba8","66579267ec2b45982c0cd3fb","333","stimuli/11001001.jpg"," ","","feedback_trial","1","","","","","","","","","","","","","","","","","","","","",""
"","","","","","image-keyboard-response","178","353410","0.0-153.0","628f9ef985fa6d3dc816672c","665500ab8938657b03fbdba8","66579267ec2b45982c0cd3fb","681","stimuli/0010001.jpg","0","","prediction_trial","0","","true","","0","true","true","true","true","true","true","[0]","010","001","1","","","","","","",""
"","","","","","image-keyboard-response","179","353735","0.0-154.0","628f9ef985fa6d3dc816672c","665500ab8938657b03fbdba8","66579267ec2b45982c0cd3fb","326","stimuli/00100010.jpg"," ","","feedback_trial","0","","","","","","","","","","","","","","","","","","","","",""
"","","","","","image-keyboard-response","180","354478","0.0-155.0","628f9ef985fa6d3dc816672c","665500ab8938657b03fbdba8","66579267ec2b45982c0cd3fb","743","stimuli/1001001.jpg","1","","prediction_trial","1","","true","","1","true","true","true","true","true","true","[1]","001","001","1","","","","","","",""
"","","","","","image-keyboard-response","181","354858","0.0-156.0","628f9ef985fa6d3dc816672c","665500ab8938657b03fbdba8","66579267ec2b45982c0cd3fb","380","stimuli/10010011.jpg"," ","","feedback_trial","1","","","","","","","","","","","","","","","","","","","","",""
"","","","","","image-keyboard-response","182","356334","0.0-157.0","628f9ef985fa6d3dc816672c","665500ab8938657b03fbdba8","66579267ec2b45982c0cd3fb","1476","stimuli/2011000.jpg","2","","prediction_trial","1","","false","","2","true","true","false","false","false","false","[2,1]","011","000","0","","","","","","",""
"","","","","","image-keyboard-response","183","356595","0.0-158.0","628f9ef985fa6d3dc816672c","665500ab8938657b03fbdba8","66579267ec2b45982c0cd3fb","260","stimuli/20110001.jpg"," ","","feedback_trial","2","","","","","","","","","","","","","","","","","","","","",""
"","","","","","image-keyboard-response","184","357805","0.0-159.0","628f9ef985fa6d3dc816672c","665500ab8938657b03fbdba8","66579267ec2b45982c0cd3fb","1211","stimuli/1100110.jpg","1","","prediction_trial","1","","true","","1","false","false","true","true","false","false","[1]","100","110","1","","","","","","",""
"","","","","","image-keyboard-response","185","358140","0.0-160.0","628f9ef985fa6d3dc816672c","665500ab8938657b03fbdba8","66579267ec2b45982c0cd3fb","335","stimuli/11001101.jpg"," ","","feedback_trial","1","","","","","","","","","","","","","","","","","","","","",""
"","","","","","image-keyboard-response","186","360309","0.0-161.0","628f9ef985fa6d3dc816672c","665500ab8938657b03fbdba8","66579267ec2b45982c0cd3fb","2169","stimuli/0101011.jpg","0","","prediction_trial","2","","false","","0","true","true","false","false","false","false","[2,0]","101","011","0","","","","","","",""
"","","","","","image-keyboard-response","187","360552","0.0-162.0","628f9ef985fa6d3dc816672c","665500ab8938657b03fbdba8","66579267ec2b45982c0cd3fb","243","stimuli/01010112.jpg"," ","","feedback_trial","2","","","","","","","","","","","","","","","","","","","","",""
"","","","","","image-keyboard-response","188","362763","0.0-163.0","628f9ef985fa6d3dc816672c","665500ab8938657b03fbdba8","66579267ec2b45982c0cd3fb","2211","stimuli/1011100.jpg","1","","prediction_trial","2","","false","","1","true","true","false","false","false","false","[2,1]","011","100","0","","","","","","",""
"","","","","","image-keyboard-response","189","363043","0.0-164.0","628f9ef985fa6d3dc816672c","665500ab8938657b03fbdba8","66579267ec2b45982c0cd3fb","280","stimuli/10111002.jpg"," ","","feedback_trial","2","","","","","","","","","","","","","","","","","","","","",""
"","","","","","image-keyboard-response","190","364810","0.0-165.0","628f9ef985fa6d3dc816672c","665500ab8938657b03fbdba8","66579267ec2b45982c0cd3fb","1767","stimuli/2000011.jpg","1","","prediction_trial","2","","false","","2","false","false","true","true","false","false","[2]","000","011","0","","","","","","",""
"","","","","","image-keyboard-response","191","365243","0.0-166.0","628f9ef985fa6d3dc816672c","665500ab8938657b03fbdba8","66579267ec2b45982c0cd3fb","433","stimuli/20000112.jpg"," ","","feedback_trial","2","","","","","","","","","","","","","","","","","","","","",""
"","","","","","image-keyboard-response","192","367517","0.0-167.0","628f9ef985fa6d3dc816672c","665500ab8938657b03fbdba8","66579267ec2b45982c0cd3fb","2274","stimuli/1011010.jpg","1","","prediction_trial","1","","true","","1","false","true","false","false","false","false","[2,1]","011","010","1","","","","","","",""
"","","","","","image-keyboard-response","193","367939","0.0-168.0","628f9ef985fa6d3dc816672c","665500ab8938657b03fbdba8","66579267ec2b45982c0cd3fb","422","stimuli/10110101.jpg"," ","","feedback_trial","2","","","","","","","","","","","","","","","","","","","","",""
"","","","","","image-keyboard-response","194","371264","0.0-169.0","628f9ef985fa6d3dc816672c","665500ab8938657b03fbdba8","66579267ec2b45982c0cd3fb","3325","stimuli/1000011.jpg","1","","prediction_trial","1","","true","","1","false","false","true","true","false","false","[1]","000","011","1","","","","","","",""
"","","","","","image-keyboard-response","195","371829","0.0-170.0","628f9ef985fa6d3dc816672c","665500ab8938657b03fbdba8","66579267ec2b45982c0cd3fb","565","stimuli/10000111.jpg"," ","","feedback_trial","1","","","","","","","","","","","","","","","","","","","","",""
"","","","","","image-keyboard-response","196","372824","0.0-171.0","628f9ef985fa6d3dc816672c","665500ab8938657b03fbdba8","66579267ec2b45982c0cd3fb","995","stimuli/2111000.jpg","2","","prediction_trial","0","","false","","2","true","true","false","false","false","false","[2,1,0]","111","000","0","","","","","","",""
"","","","","","image-keyboard-response","197","373157","0.0-172.0","628f9ef985fa6d3dc816672c","665500ab8938657b03fbdba8","66579267ec2b45982c0cd3fb","333","stimuli/21110000.jpg"," ","","feedback_trial","2","","","","","","","","","","","","","","","","","","","","",""
"","","","","","image-keyboard-response","198","374993","0.0-173.0","628f9ef985fa6d3dc816672c","665500ab8938657b03fbdba8","66579267ec2b45982c0cd3fb","1836","stimuli/1010101.jpg","1","","prediction_trial","1","","true","","1","true","true","false","true","false","true","[1]","010","101","1","","","","","","",""
"","","","","","image-keyboard-response","199","375368","0.0-174.0","628f9ef985fa6d3dc816672c","665500ab8938657b03fbdba8","66579267ec2b45982c0cd3fb","375","stimuli/10101011.jpg"," ","","feedback_trial","1","","","","","","","","","","","","","","","","","","","","",""
"","","","","","image-keyboard-response","200","377925","0.0-175.0","628f9ef985fa6d3dc816672c","665500ab8938657b03fbdba8","66579267ec2b45982c0cd3fb","2557","stimuli/1001011.jpg","1","","prediction_trial","1","","true","","1","false","false","true","true","false","false","[1]","001","011","1","","","","","","",""
"","","","","","image-keyboard-response","201","378357","0.0-176.0","628f9ef985fa6d3dc816672c","665500ab8938657b03fbdba8","66579267ec2b45982c0cd3fb","431","stimuli/10010111.jpg"," ","","feedback_trial","1","","","","","","","","","","","","","","","","","","","","",""
"","","","","","image-keyboard-response","202","379706","0.0-177.0","628f9ef985fa6d3dc816672c","665500ab8938657b03fbdba8","66579267ec2b45982c0cd3fb","1349","stimuli/1111001.jpg","1","","prediction_trial","1","","true","","1","true","true","false","false","false","false","[1,0,2]","111","001","1","","","","","","",""
"","","","","","image-keyboard-response","203","380017","0.0-178.0","628f9ef985fa6d3dc816672c","665500ab8938657b03fbdba8","66579267ec2b45982c0cd3fb","311","stimuli/11110011.jpg"," ","","feedback_trial","1","","","","","","","","","","","","","","","","","","","","",""
"","","","","","image-keyboard-response","204","381066","0.0-179.0","628f9ef985fa6d3dc816672c","665500ab8938657b03fbdba8","66579267ec2b45982c0cd3fb","1049","stimuli/1111101.jpg","1","","prediction_trial","0","","false","","1","true","true","false","false","false","false","[0,1,2]","111","101","0","","","","","","",""
"","","","","","image-keyboard-response","205","381472","0.0-180.0","628f9ef985fa6d3dc816672c","665500ab8938657b03fbdba8","66579267ec2b45982c0cd3fb","406","stimuli/11111010.jpg"," ","","feedback_trial","0","","","","","","","","","","","","","","","","","","","","",""
"","","","","","image-keyboard-response","206","382611","0.0-181.0","628f9ef985fa6d3dc816672c","665500ab8938657b03fbdba8","66579267ec2b45982c0cd3fb","1139","stimuli/1100101.jpg","1","","prediction_trial","1","","true","","1","true","true","true","true","true","true","[1]","100","101","1","","","","","","",""
"","","","","","image-keyboard-response","207","382888","0.0-182.0","628f9ef985fa6d3dc816672c","665500ab8938657b03fbdba8","66579267ec2b45982c0cd3fb","276","stimuli/11001011.jpg"," ","","feedback_trial","1","","","","","","","","","","","","","","","","","","","","",""
"","","","","","image-keyboard-response","208","383767","0.0-183.0","628f9ef985fa6d3dc816672c","665500ab8938657b03fbdba8","66579267ec2b45982c0cd3fb","879","stimuli/1000100.jpg","1","","prediction_trial","1","","true","","1","true","true","true","true","true","true","[1]","000","100","1","","","","","","",""
"","","","","","image-keyboard-response","209","384021","0.0-184.0","628f9ef985fa6d3dc816672c","665500ab8938657b03fbdba8","66579267ec2b45982c0cd3fb","254","stimuli/10001001.jpg"," ","","feedback_trial","1","","","","","","","","","","","","","","","","","","","","",""
"","","","","","image-keyboard-response","210","386187","0.0-185.0","628f9ef985fa6d3dc816672c","665500ab8938657b03fbdba8","66579267ec2b45982c0cd3fb","2166","stimuli/0101101.jpg","2","","prediction_trial","2","","true","","0","false","false","false","false","false","false","[2,0]","101","101","1","","","","","","",""
"","","","","","image-keyboard-response","211","386718","0.0-186.0","628f9ef985fa6d3dc816672c","665500ab8938657b03fbdba8","66579267ec2b45982c0cd3fb","531","stimuli/01011012.jpg"," ","","feedback_trial","2","","","","","","","","","","","","","","","","","","","","",""
"","","","","","image-keyboard-response","212","387619","0.0-187.0","628f9ef985fa6d3dc816672c","665500ab8938657b03fbdba8","66579267ec2b45982c0cd3fb","901","stimuli/0011011.jpg","0","","prediction_trial","0","","true","","0","true","true","true","true","true","true","[0]","011","011","1","","","","","","",""
"","","","","","image-keyboard-response","213","387930","0.0-188.0","628f9ef985fa6d3dc816672c","665500ab8938657b03fbdba8","66579267ec2b45982c0cd3fb","311","stimuli/00110110.jpg"," ","","feedback_trial","0","","","","","","","","","","","","","","","","","","","","",""
"","","","","","image-keyboard-response","214","389266","0.0-189.0","628f9ef985fa6d3dc816672c","665500ab8938657b03fbdba8","66579267ec2b45982c0cd3fb","1336","stimuli/2001100.jpg","2","","prediction_trial","2","","true","","2","true","true","false","true","false","true","[2]","001","100","1","","","","","","",""
"","","","","","image-keyboard-response","215","389761","0.0-190.0","628f9ef985fa6d3dc816672c","665500ab8938657b03fbdba8","66579267ec2b45982c0cd3fb","495","stimuli/20011002.jpg"," ","","feedback_trial","2","","","","","","","","","","","","","","","","","","","","",""
"","","","","","image-keyboard-response","216","391026","0.0-191.0","628f9ef985fa6d3dc816672c","665500ab8938657b03fbdba8","66579267ec2b45982c0cd3fb","1265","stimuli/0111100.jpg","0","","prediction_trial","1","","false","","0","false","true","false","false","false","false","[1,2,0]","111","100","0","","","","","","",""
"","","","","","image-keyboard-response","217","391437","0.0-192.0","628f9ef985fa6d3dc816672c","665500ab8938657b03fbdba8","66579267ec2b45982c0cd3fb","411","stimuli/01111001.jpg"," ","","feedback_trial","1","","","","","","","","","","","","","","","","","","","","",""
"","","","","","image-keyboard-response","218","394120","0.0-193.0","628f9ef985fa6d3dc816672c","665500ab8938657b03fbdba8","66579267ec2b45982c0cd3fb","2683","stimuli/0001001.jpg","0","","prediction_trial","0","","true","","0","true","true","true","true","true","true","[0]","001","001","1","","","","","","",""
"","","","","","image-keyboard-response","219","394347","0.0-194.0","628f9ef985fa6d3dc816672c","665500ab8938657b03fbdba8","66579267ec2b45982c0cd3fb","227","stimuli/00010010.jpg"," ","","feedback_trial","0","","","","","","","","","","","","","","","","","","","","",""
"","","","","","image-keyboard-response","220","395089","0.0-195.0","628f9ef985fa6d3dc816672c","665500ab8938657b03fbdba8","66579267ec2b45982c0cd3fb","742","stimuli/0001011.jpg","0","","prediction_trial","0","","true","","0","true","true","true","true","true","true","[0]","001","011","1","","","","","","",""
"","","","","","image-keyboard-response","221","395289","0.0-196.0","628f9ef985fa6d3dc816672c","665500ab8938657b03fbdba8","66579267ec2b45982c0cd3fb","200","stimuli/00010110.jpg"," ","","feedback_trial","0","","","","","","","","","","","","","","","","","","","","",""
"","","","","","image-keyboard-response","222","396087","0.0-197.0","628f9ef985fa6d3dc816672c","665500ab8938657b03fbdba8","66579267ec2b45982c0cd3fb","798","stimuli/1001101.jpg","1","","prediction_trial","1","","true","","1","true","true","true","true","true","true","[1]","001","101","1","","","","","","",""
"","","","","","image-keyboard-response","223","396289","0.0-198.0","628f9ef985fa6d3dc816672c","665500ab8938657b03fbdba8","66579267ec2b45982c0cd3fb","202","stimuli/10011011.jpg"," ","","feedback_trial","1","","","","","","","","","","","","","","","","","","","","",""
"","","","","","image-keyboard-response","224","397803","0.0-199.0","628f9ef985fa6d3dc816672c","665500ab8938657b03fbdba8","66579267ec2b45982c0cd3fb","1514","stimuli/2101100.jpg","2","","prediction_trial","2","","true","","2","true","true","false","false","false","false","[0,2]","101","100","1","","","","","","",""
"","","","","","image-keyboard-response","225","398038","0.0-200.0","628f9ef985fa6d3dc816672c","665500ab8938657b03fbdba8","66579267ec2b45982c0cd3fb","235","stimuli/21011002.jpg"," ","","feedback_trial","0","","","","","","","","","","","","","","","","","","","","",""
"","","","","","image-keyboard-response","226","401748","0.0-201.0","628f9ef985fa6d3dc816672c","665500ab8938657b03fbdba8","66579267ec2b45982c0cd3fb","3710","stimuli/0000110.jpg","1","","prediction_trial","0","","false","","0","false","false","true","true","false","false","[0]","000","110","0","","","","","","",""
"","","","","","image-keyboard-response","227","402121","0.0-202.0","628f9ef985fa6d3dc816672c","665500ab8938657b03fbdba8","66579267ec2b45982c0cd3fb","373","stimuli/00001100.jpg"," ","","feedback_trial","0","","","","","","","","","","","","","","","","","","","","",""
"","","","","","image-keyboard-response","228","404710","0.0-203.0","628f9ef985fa6d3dc816672c","665500ab8938657b03fbdba8","66579267ec2b45982c0cd3fb","2589","stimuli/2111110.jpg","2","","prediction_trial","1","","false","","2","true","true","false","false","false","false","[1,0,2]","111","110","0","","","","","","",""
"","","","","","image-keyboard-response","229","405028","0.0-204.0","628f9ef985fa6d3dc816672c","665500ab8938657b03fbdba8","66579267ec2b45982c0cd3fb","318","stimuli/21111101.jpg"," ","","feedback_trial","1","","","","","","","","","","","","","","","","","","","","",""
"","","","","","image-keyboard-response","230","405919","0.0-205.0","628f9ef985fa6d3dc816672c","665500ab8938657b03fbdba8","66579267ec2b45982c0cd3fb","891","stimuli/0011001.jpg","0","","prediction_trial","0","","true","","0","true","true","true","true","true","true","[0]","011","001","1","","","","","","",""
"","","","","","image-keyboard-response","231","406170","0.0-206.0","628f9ef985fa6d3dc816672c","665500ab8938657b03fbdba8","66579267ec2b45982c0cd3fb","251","stimuli/00110010.jpg"," ","","feedback_trial","0","","","","","","","","","","","","","","","","","","","","",""
"","","","","","image-keyboard-response","232","407099","0.0-207.0","628f9ef985fa6d3dc816672c","665500ab8938657b03fbdba8","66579267ec2b45982c0cd3fb","929","stimuli/1010001.jpg","1","","prediction_trial","1","","true","","1","true","true","false","true","false","true","[1]","010","001","1","","","","","","",""
"","","","","","image-keyboard-response","233","407366","0.0-208.0","628f9ef985fa6d3dc816672c","665500ab8938657b03fbdba8","66579267ec2b45982c0cd3fb","266","stimuli/10100011.jpg"," ","","feedback_trial","1","","","","","","","","","","","","","","","","","","","","",""
"","","","","","image-keyboard-response","234","409051","0.0-209.0","628f9ef985fa6d3dc816672c","665500ab8938657b03fbdba8","66579267ec2b45982c0cd3fb","1685","stimuli/2110110.jpg","2","","prediction_trial","2","","true","","2","true","true","true","true","true","true","[2]","110","110","1","","","","","","",""
"","","","","","image-keyboard-response","235","409301","0.0-210.0","628f9ef985fa6d3dc816672c","665500ab8938657b03fbdba8","66579267ec2b45982c0cd3fb","250","stimuli/21101102.jpg"," ","","feedback_trial","2","","","","","","","","","","","","","","","","","","","","",""
"","","","","","image-keyboard-response","236","410454","0.0-211.0","628f9ef985fa6d3dc816672c","665500ab8938657b03fbdba8","66579267ec2b45982c0cd3fb","1153","stimuli/1000010.jpg","1","","prediction_trial","1","","true","","1","false","true","true","true","false","true","[1]","000","010","1","","","","","","",""
"","","","","","image-keyboard-response","237","410771","0.0-212.0","628f9ef985fa6d3dc816672c","665500ab8938657b03fbdba8","66579267ec2b45982c0cd3fb","317","stimuli/10000101.jpg"," ","","feedback_trial","1","","","","","","","","","","","","","","","","","","","","",""
"","","","","","image-keyboard-response","238","412545","0.0-213.0","628f9ef985fa6d3dc816672c","665500ab8938657b03fbdba8","66579267ec2b45982c0cd3fb","1774","stimuli/2100011.jpg","1","","prediction_trial","2","","false","","2","false","false","true","true","false","false","[2]","100","011","0","","","","","","",""
"","","","","","image-keyboard-response","239","412795","0.0-214.0","628f9ef985fa6d3dc816672c","665500ab8938657b03fbdba8","66579267ec2b45982c0cd3fb","250","stimuli/21000112.jpg"," ","","feedback_trial","2","","","","","","","","","","","","","","","","","","","","",""
"","","","","","image-keyboard-response","240","414244","0.0-215.0","628f9ef985fa6d3dc816672c","665500ab8938657b03fbdba8","66579267ec2b45982c0cd3fb","1449","stimuli/2100111.jpg","1","","prediction_trial","2","","false","","2","false","false","true","true","false","false","[2]","100","111","0","","","","","","",""
"","","","","","image-keyboard-response","241","414453","0.0-216.0","628f9ef985fa6d3dc816672c","665500ab8938657b03fbdba8","66579267ec2b45982c0cd3fb","209","stimuli/21001112.jpg"," ","","feedback_trial","2","","","","","","","","","","","","","","","","","","","","",""
"","","","","","image-keyboard-response","242","417388","0.0-217.0","628f9ef985fa6d3dc816672c","665500ab8938657b03fbdba8","66579267ec2b45982c0cd3fb","2935","stimuli/1011110.jpg","0","","prediction_trial","1","","false","","1","false","false","false","false","false","false","[2,1]","011","110","0","","","","","","",""
"","","","","","image-keyboard-response","243","417719","0.0-218.0","628f9ef985fa6d3dc816672c","665500ab8938657b03fbdba8","66579267ec2b45982c0cd3fb","331","stimuli/10111101.jpg"," ","","feedback_trial","2","","","","","","","","","","","","","","","","","","","","",""
"","","","","","image-keyboard-response","244","419870","0.0-219.0","628f9ef985fa6d3dc816672c","665500ab8938657b03fbdba8","66579267ec2b45982c0cd3fb","2151","stimuli/2010010.jpg","2","","prediction_trial","2","","true","","2","true","true","true","true","true","true","[2]","010","010","1","","","","","","",""
"","","","","","image-keyboard-response","245","420099","0.0-220.0","628f9ef985fa6d3dc816672c","665500ab8938657b03fbdba8","66579267ec2b45982c0cd3fb","229","stimuli/20100102.jpg"," ","","feedback_trial","2","","","","","","","","","","","","","","","","","","","","",""
"","","","","","image-keyboard-response","246","421998","0.0-221.0","628f9ef985fa6d3dc816672c","665500ab8938657b03fbdba8","66579267ec2b45982c0cd3fb","1899","stimuli/1101011.jpg","1","","prediction_trial","1","","true","","1","false","false","true","true","false","false","[1]","101","011","1","","","","","","",""
"","","","","","image-keyboard-response","247","422315","0.0-222.0","628f9ef985fa6d3dc816672c","665500ab8938657b03fbdba8","66579267ec2b45982c0cd3fb","316","stimuli/11010111.jpg"," ","","feedback_trial","1","","","","","","","","","","","","","","","","","","","","",""
"","","","","","image-keyboard-response","248","424529","0.0-223.0","628f9ef985fa6d3dc816672c","665500ab8938657b03fbdba8","66579267ec2b45982c0cd3fb","2214","stimuli/2001101.jpg","0","","prediction_trial","2","","false","","2","false","false","false","true","false","false","[2]","001","101","0","","","","","","",""
"","","","","","image-keyboard-response","249","425561","0.0-224.0","628f9ef985fa6d3dc816672c","665500ab8938657b03fbdba8","66579267ec2b45982c0cd3fb","1032","stimuli/20011012.jpg"," ","","feedback_trial","2","","","","","","","","","","","","","","","","","","","","",""
"","","","","","image-keyboard-response","250","428636","0.0-225.0","628f9ef985fa6d3dc816672c","665500ab8938657b03fbdba8","66579267ec2b45982c0cd3fb","3075","stimuli/2111001.jpg","2","","prediction_trial","1","","false","","2","false","true","false","false","false","false","[0,2,1]","111","001","0","","","","","","",""
"","","","","","image-keyboard-response","251","428967","0.0-226.0","628f9ef985fa6d3dc816672c","665500ab8938657b03fbdba8","66579267ec2b45982c0cd3fb","331","stimuli/21110011.jpg"," ","","feedback_trial","0","","","","","","","","","","","","","","","","","","","","",""
"","","","","","image-keyboard-response","252","429829","0.0-227.0","628f9ef985fa6d3dc816672c","665500ab8938657b03fbdba8","66579267ec2b45982c0cd3fb","862","stimuli/0000000.jpg","0","","prediction_trial","0","","true","","0","true","true","true","true","true","true","[0]","000","000","1","","","","","","",""
"","","","","","image-keyboard-response","253","430116","0.0-228.0","628f9ef985fa6d3dc816672c","665500ab8938657b03fbdba8","66579267ec2b45982c0cd3fb","287","stimuli/00000000.jpg"," ","","feedback_trial","0","","","","","","","","","","","","","","","","","","","","",""
"","","","","","image-keyboard-response","254","431703","0.0-229.0","628f9ef985fa6d3dc816672c","665500ab8938657b03fbdba8","66579267ec2b45982c0cd3fb","1587","stimuli/2011001.jpg","2","","prediction_trial","2","","true","","2","false","true","false","false","false","false","[1,2]","011","001","1","","","","","","",""
"","","","","","image-keyboard-response","255","432029","0.0-230.0","628f9ef985fa6d3dc816672c","665500ab8938657b03fbdba8","66579267ec2b45982c0cd3fb","326","stimuli/20110012.jpg"," ","","feedback_trial","1","","","","","","","","","","","","","","","","","","","","",""
"","","","","","image-keyboard-response","256","433978","0.0-231.0","628f9ef985fa6d3dc816672c","665500ab8938657b03fbdba8","66579267ec2b45982c0cd3fb","1949","stimuli/0111111.jpg","1","","prediction_trial","2","","false","","0","false","false","false","false","false","false","[2,1,0]","111","111","0","","","","","","",""
"","","","","","image-keyboard-response","257","434426","0.0-232.0","628f9ef985fa6d3dc816672c","665500ab8938657b03fbdba8","66579267ec2b45982c0cd3fb","448","stimuli/01111112.jpg"," ","","feedback_trial","2","","","","","","","","","","","","","","","","","","","","",""
"","","","","","image-keyboard-response","258","436561","0.0-233.0","628f9ef985fa6d3dc816672c","665500ab8938657b03fbdba8","66579267ec2b45982c0cd3fb","2135","stimuli/1110001.jpg","1","","prediction_trial","0","","false","","1","true","true","false","false","false","false","[0,1]","110","001","0","","","","","","",""
"","","","","","image-keyboard-response","259","436914","0.0-234.0","628f9ef985fa6d3dc816672c","665500ab8938657b03fbdba8","66579267ec2b45982c0cd3fb","353","stimuli/11100010.jpg"," ","","feedback_trial","0","","","","","","","","","","","","","","","","","","","","",""
"","","","","","image-keyboard-response","260","438011","0.0-235.0","628f9ef985fa6d3dc816672c","665500ab8938657b03fbdba8","66579267ec2b45982c0cd3fb","1097","stimuli/0100001.jpg","0","","prediction_trial","0","","true","","0","true","true","false","true","false","true","[0]","100","001","1","","","","","","",""
"","","","","","image-keyboard-response","261","438312","0.0-236.0","628f9ef985fa6d3dc816672c","665500ab8938657b03fbdba8","66579267ec2b45982c0cd3fb","301","stimuli/01000010.jpg"," ","","feedback_trial","0","","","","","","","","","","","","","","","","","","","","",""
"","","","","","image-keyboard-response","262","440237","0.0-237.0","628f9ef985fa6d3dc816672c","665500ab8938657b03fbdba8","66579267ec2b45982c0cd3fb","1925","stimuli/2011010.jpg","2","","prediction_trial","1","","false","","2","true","true","false","false","false","false","[1,2]","011","010","0","","","","","","",""
"","","","","","image-keyboard-response","263","440452","0.0-238.0","628f9ef985fa6d3dc816672c","665500ab8938657b03fbdba8","66579267ec2b45982c0cd3fb","214","stimuli/20110101.jpg"," ","","feedback_trial","1","","","","","","","","","","","","","","","","","","","","",""
"","","","","","image-keyboard-response","264","441761","0.0-239.0","628f9ef985fa6d3dc816672c","665500ab8938657b03fbdba8","66579267ec2b45982c0cd3fb","1309","stimuli/1000101.jpg","1","","prediction_trial","1","","true","","1","true","true","true","true","true","true","[1]","000","101","1","","","","","","",""
"","","","","","image-keyboard-response","265","441987","0.0-240.0","628f9ef985fa6d3dc816672c","665500ab8938657b03fbdba8","66579267ec2b45982c0cd3fb","226","stimuli/10001011.jpg"," ","","feedback_trial","1","","","","","","","","","","","","","","","","","","","","",""
"","","","","","image-keyboard-response","266","444067","0.0-241.0","628f9ef985fa6d3dc816672c","665500ab8938657b03fbdba8","66579267ec2b45982c0cd3fb","2080","stimuli/1101111.jpg","1","","prediction_trial","1","","true","","1","false","false","true","true","false","false","[1]","101","111","1","","","","","","",""
"","","","","","image-keyboard-response","267","444448","0.0-242.0","628f9ef985fa6d3dc816672c","665500ab8938657b03fbdba8","66579267ec2b45982c0cd3fb","381","stimuli/11011111.jpg"," ","","feedback_trial","1","","","","","","","","","","","","","","","","","","","","",""
"","","","","","image-keyboard-response","268","445768","0.0-243.0","628f9ef985fa6d3dc816672c","665500ab8938657b03fbdba8","66579267ec2b45982c0cd3fb","1320","stimuli/0100110.jpg","1","","prediction_trial","0","","false","","0","false","false","false","true","false","false","[0]","100","110","0","","","","","","",""
"","","","","","image-keyboard-response","269","446121","0.0-244.0","628f9ef985fa6d3dc816672c","665500ab8938657b03fbdba8","66579267ec2b45982c0cd3fb","352","stimuli/01001100.jpg"," ","","feedback_trial","0","","","","","","","","","","","","","","","","","","","","",""
"","","","","","image-keyboard-response","270","449748","0.0-245.0","628f9ef985fa6d3dc816672c","665500ab8938657b03fbdba8","66579267ec2b45982c0cd3fb","3627","stimuli/0011100.jpg","0","","prediction_trial","0","","true","","0","false","true","true","true","false","true","[0]","011","100","1","","","","","","",""
"","","","","","image-keyboard-response","271","450443","0.0-246.0","628f9ef985fa6d3dc816672c","665500ab8938657b03fbdba8","66579267ec2b45982c0cd3fb","695","stimuli/00111000.jpg"," ","","feedback_trial","0","","","","","","","","","","","","","","","","","","","","",""
"","","","","","image-keyboard-response","272","451929","0.0-247.0","628f9ef985fa6d3dc816672c","665500ab8938657b03fbdba8","66579267ec2b45982c0cd3fb","1486","stimuli/0000010.jpg","0","","prediction_trial","0","","true","","0","true","true","true","true","true","true","[0]","000","010","1","","","","","","",""
"","","","","","image-keyboard-response","273","452187","0.0-248.0","628f9ef985fa6d3dc816672c","665500ab8938657b03fbdba8","66579267ec2b45982c0cd3fb","258","stimuli/00000100.jpg"," ","","feedback_trial","0","","","","","","","","","","","","","","","","","","","","",""
"","","","","","image-keyboard-response","274","453517","0.0-249.0","628f9ef985fa6d3dc816672c","665500ab8938657b03fbdba8","66579267ec2b45982c0cd3fb","1330","stimuli/2001000.jpg","2","","prediction_trial","2","","true","","2","true","true","false","true","false","true","[2]","001","000","1","","","","","","",""
"","","","","","image-keyboard-response","275","453976","0.0-250.0","628f9ef985fa6d3dc816672c","665500ab8938657b03fbdba8","66579267ec2b45982c0cd3fb","459","stimuli/20010002.jpg"," ","","feedback_trial","2","","","","","","","","","","","","","","","","","","","","",""
"","","","","","image-keyboard-response","276","455068","0.0-251.0","628f9ef985fa6d3dc816672c","665500ab8938657b03fbdba8","66579267ec2b45982c0cd3fb","1092","stimuli/2111010.jpg","2","","prediction_trial","0","","false","","2","true","true","false","false","false","false","[2,1,0]","111","010","0","","","","","","",""
"","","","","","image-keyboard-response","277","455620","0.0-252.0","628f9ef985fa6d3dc816672c","665500ab8938657b03fbdba8","66579267ec2b45982c0cd3fb","552","stimuli/21110100.jpg"," ","","feedback_trial","2","","","","","","","","","","","","","","","","","","","","",""
"","","","","","image-keyboard-response","278","456779","0.0-253.0","628f9ef985fa6d3dc816672c","665500ab8938657b03fbdba8","66579267ec2b45982c0cd3fb","1159","stimuli/0111011.jpg","0","","prediction_trial","0","","true","","0","true","true","false","false","false","false","[0,2,1]","111","011","1","","","","","","",""
"","","","","","image-keyboard-response","279","457179","0.0-254.0","628f9ef985fa6d3dc816672c","665500ab8938657b03fbdba8","66579267ec2b45982c0cd3fb","400","stimuli/01110110.jpg"," ","","feedback_trial","0","","","","","","","","","","","","","","","","","","","","",""
"","","","","","image-keyboard-response","280","458574","0.0-255.0","628f9ef985fa6d3dc816672c","665500ab8938657b03fbdba8","66579267ec2b45982c0cd3fb","1395","stimuli/2000001.jpg","2","","prediction_trial","2","","true","","2","false","true","true","true","false","true","[2]","000","001","1","","","","","","",""
"","","","","","image-keyboard-response","281","458896","0.0-256.0","628f9ef985fa6d3dc816672c","665500ab8938657b03fbdba8","66579267ec2b45982c0cd3fb","322","stimuli/20000012.jpg"," ","","feedback_trial","2","","","","","","","","","","","","","","","","","","","","",""
"","","","","","image-keyboard-response","282","460745","0.0-257.0","628f9ef985fa6d3dc816672c","665500ab8938657b03fbdba8","66579267ec2b45982c0cd3fb","1849","stimuli/2011100.jpg","2","","prediction_trial","2","","true","","2","true","true","false","false","false","false","[1,2]","011","100","1","","","","","","",""
"","","","","","image-keyboard-response","283","461012","0.0-258.0","628f9ef985fa6d3dc816672c","665500ab8938657b03fbdba8","66579267ec2b45982c0cd3fb","267","stimuli/20111002.jpg"," ","","feedback_trial","1","","","","","","","","","","","","","","","","","","","","",""
"","","","","","image-keyboard-response","284","462615","0.0-259.0","628f9ef985fa6d3dc816672c","665500ab8938657b03fbdba8","66579267ec2b45982c0cd3fb","1603","stimuli/2010011.jpg","2","","prediction_trial","2","","true","","2","false","false","true","true","false","false","[2]","010","011","1","","","","","","",""
"","","","","","image-keyboard-response","285","463039","0.0-260.0","628f9ef985fa6d3dc816672c","665500ab8938657b03fbdba8","66579267ec2b45982c0cd3fb","424","stimuli/20100112.jpg"," ","","feedback_trial","2","","","","","","","","","","","","","","","","","","","","",""
"","","","","","image-keyboard-response","286","463880","0.0-261.0","628f9ef985fa6d3dc816672c","665500ab8938657b03fbdba8","66579267ec2b45982c0cd3fb","841","stimuli/1000001.jpg","1","","prediction_trial","1","","true","","1","true","true","true","true","true","true","[1]","000","001","1","","","","","","",""
"","","","","","image-keyboard-response","287","464187","0.0-262.0","628f9ef985fa6d3dc816672c","665500ab8938657b03fbdba8","66579267ec2b45982c0cd3fb","307","stimuli/10000011.jpg"," ","","feedback_trial","1","","","","","","","","","","","","","","","","","","","","",""
"","","","","","image-keyboard-response","288","466432","0.0-263.0","628f9ef985fa6d3dc816672c","665500ab8938657b03fbdba8","66579267ec2b45982c0cd3fb","2245","stimuli/2010110.jpg","2","","prediction_trial","2","","true","","2","true","true","true","true","true","true","[2]","010","110","1","","","","","","",""
"","","","","","image-keyboard-response","289","466742","0.0-264.0","628f9ef985fa6d3dc816672c","665500ab8938657b03fbdba8","66579267ec2b45982c0cd3fb","310","stimuli/20101102.jpg"," ","","feedback_trial","2","","","","","","","","","","","","","","","","","","","","",""
"","","","","","image-keyboard-response","290","467866","0.0-265.0","628f9ef985fa6d3dc816672c","665500ab8938657b03fbdba8","66579267ec2b45982c0cd3fb","1124","stimuli/1100001.jpg","1","","prediction_trial","1","","true","","1","true","true","true","true","true","true","[1]","100","001","1","","","","","","",""
"","","","","","image-keyboard-response","291","468174","0.0-266.0","628f9ef985fa6d3dc816672c","665500ab8938657b03fbdba8","66579267ec2b45982c0cd3fb","308","stimuli/11000011.jpg"," ","","feedback_trial","1","","","","","","","","","","","","","","","","","","","","",""
"","","","","","image-keyboard-response","292","469701","0.0-267.0","628f9ef985fa6d3dc816672c","665500ab8938657b03fbdba8","66579267ec2b45982c0cd3fb","1527","stimuli/0101110.jpg","1","","prediction_trial","2","","false","","0","false","false","false","false","false","false","[0,2]","101","110","0","","","","","","",""
"","","","","","image-keyboard-response","293","470079","0.0-268.0","628f9ef985fa6d3dc816672c","665500ab8938657b03fbdba8","66579267ec2b45982c0cd3fb","377","stimuli/01011102.jpg"," ","","feedback_trial","0","","","","","","","","","","","","","","","","","","","","",""
"","","","","","image-keyboard-response","294","473145","0.0-269.0","628f9ef985fa6d3dc816672c","665500ab8938657b03fbdba8","66579267ec2b45982c0cd3fb","3066","stimuli/0111001.jpg","0","","prediction_trial","1","","false","","0","true","true","false","false","false","false","[0,2,1]","111","001","0","","","","","","",""
"","","","","","image-keyboard-response","295","473467","0.0-270.0","628f9ef985fa6d3dc816672c","665500ab8938657b03fbdba8","66579267ec2b45982c0cd3fb","322","stimuli/01110011.jpg"," ","","feedback_trial","0","","","","","","","","","","","","","","","","","","","","",""
"","","","","","image-keyboard-response","296","474218","0.0-271.0","628f9ef985fa6d3dc816672c","665500ab8938657b03fbdba8","66579267ec2b45982c0cd3fb","751","stimuli/0000011.jpg","0","","prediction_trial","0","","true","","0","true","true","true","true","true","true","[0]","000","011","1","","","","","","",""
"","","","","","image-keyboard-response","297","474495","0.0-272.0","628f9ef985fa6d3dc816672c","665500ab8938657b03fbdba8","66579267ec2b45982c0cd3fb","277","stimuli/00000110.jpg"," ","","feedback_trial","0","","","","","","","","","","","","","","","","","","","","",""
"","","","","","image-keyboard-response","298","475839","0.0-273.0","628f9ef985fa6d3dc816672c","665500ab8938657b03fbdba8","66579267ec2b45982c0cd3fb","1345","stimuli/2001010.jpg","2","","prediction_trial","2","","true","","2","true","true","false","true","false","true","[2]","001","010","1","","","","","","",""
"","","","","","image-keyboard-response","299","476136","0.0-274.0","628f9ef985fa6d3dc816672c","665500ab8938657b03fbdba8","66579267ec2b45982c0cd3fb","296","stimuli/20010102.jpg"," ","","feedback_trial","2","","","","","","","","","","","","","","","","","","","","",""
"","","","","","image-keyboard-response","300","479127","0.0-275.0","628f9ef985fa6d3dc816672c","665500ab8938657b03fbdba8","66579267ec2b45982c0cd3fb","2991","stimuli/1110010.jpg","1","","prediction_trial","1","","true","","1","false","true","false","false","false","false","[0,1]","110","010","1","","","","","","",""
"","","","","","image-keyboard-response","301","479469","0.0-276.0","628f9ef985fa6d3dc816672c","665500ab8938657b03fbdba8","66579267ec2b45982c0cd3fb","343","stimuli/11100101.jpg"," ","","feedback_trial","0","","","","","","","","","","","","","","","","","","","","",""
"","","","","","image-keyboard-response","302","481334","0.0-277.0","628f9ef985fa6d3dc816672c","665500ab8938657b03fbdba8","66579267ec2b45982c0cd3fb","1864","stimuli/0100011.jpg","0","","prediction_trial","0","","true","","0","true","true","false","true","false","true","[0]","100","011","1","","","","","","",""
"","","","","","image-keyboard-response","303","481662","0.0-278.0","628f9ef985fa6d3dc816672c","665500ab8938657b03fbdba8","66579267ec2b45982c0cd3fb","329","stimuli/01000110.jpg"," ","","feedback_trial","0","","","","","","","","","","","","","","","","","","","","",""
"","","","","","image-keyboard-response","304","484903","0.0-279.0","628f9ef985fa6d3dc816672c","665500ab8938657b03fbdba8","66579267ec2b45982c0cd3fb","3240","stimuli/2001110.jpg","2","","prediction_trial","2","","true","","2","true","true","false","true","false","true","[2]","001","110","1","","","","","","",""
"","","","","","image-keyboard-response","305","485169","0.0-280.0","628f9ef985fa6d3dc816672c","665500ab8938657b03fbdba8","66579267ec2b45982c0cd3fb","267","stimuli/20011102.jpg"," ","","feedback_trial","2","","","","","","","","","","","","","","","","","","","","",""
"","","","","","image-keyboard-response","306","488062","0.0-281.0","628f9ef985fa6d3dc816672c","665500ab8938657b03fbdba8","66579267ec2b45982c0cd3fb","2893","stimuli/1110000.jpg","1","","prediction_trial","0","","false","","1","true","true","false","false","false","false","[0,1]","110","000","0","","","","","","",""
"","","","","","image-keyboard-response","307","488497","0.0-282.0","628f9ef985fa6d3dc816672c","665500ab8938657b03fbdba8","66579267ec2b45982c0cd3fb","434","stimuli/11100000.jpg"," ","","feedback_trial","0","","","","","","","","","","","","","","","","","","","","",""
"","","","","","image-keyboard-response","308","489314","0.0-283.0","628f9ef985fa6d3dc816672c","665500ab8938657b03fbdba8","66579267ec2b45982c0cd3fb","817","stimuli/0001000.jpg","0","","prediction_trial","0","","true","","0","true","true","true","true","true","true","[0]","001","000","1","","","","","","",""
"","","","","","image-keyboard-response","309","489563","0.0-284.0","628f9ef985fa6d3dc816672c","665500ab8938657b03fbdba8","66579267ec2b45982c0cd3fb","249","stimuli/00010000.jpg"," ","","feedback_trial","0","","","","","","","","","","","","","","","","","","","","",""
"","","","","","image-keyboard-response","310","490319","0.0-285.0","628f9ef985fa6d3dc816672c","665500ab8938657b03fbdba8","66579267ec2b45982c0cd3fb","756","stimuli/1100000.jpg","1","","prediction_trial","1","","true","","1","true","true","true","true","true","true","[1]","100","000","1","","","","","","",""
"","","","","","image-keyboard-response","311","490588","0.0-286.0","628f9ef985fa6d3dc816672c","665500ab8938657b03fbdba8","66579267ec2b45982c0cd3fb","269","stimuli/11000001.jpg"," ","","feedback_trial","1","","","","","","","","","","","","","","","","","","","","",""
"","","","","","image-keyboard-response","312","493122","0.0-287.0","628f9ef985fa6d3dc816672c","665500ab8938657b03fbdba8","66579267ec2b45982c0cd3fb","2535","stimuli/0010111.jpg","1","","prediction_trial","0","","false","","0","false","false","true","true","false","false","[0]","010","111","0","","","","","","",""
"","","","","","image-keyboard-response","313","493603","0.0-288.0","628f9ef985fa6d3dc816672c","665500ab8938657b03fbdba8","66579267ec2b45982c0cd3fb","480","stimuli/00101110.jpg"," ","","feedback_trial","0","","","","","","","","","","","","","","","","","","","","",""
"","","","","","image-keyboard-response","314","495753","0.0-289.0","628f9ef985fa6d3dc816672c","665500ab8938657b03fbdba8","66579267ec2b45982c0cd3fb","2150","stimuli/0110110.jpg","1","","prediction_trial","0","","false","","0","false","false","false","false","false","false","[0,1]","110","110","0","","","","","","",""
"","","","","","image-keyboard-response","315","496170","0.0-290.0","628f9ef985fa6d3dc816672c","665500ab8938657b03fbdba8","66579267ec2b45982c0cd3fb","417","stimuli/01101100.jpg"," ","","feedback_trial","0","","","","","","","","","","","","","","","","","","","","",""
"","","","","","image-keyboard-response","316","499452","0.0-291.0","628f9ef985fa6d3dc816672c","665500ab8938657b03fbdba8","66579267ec2b45982c0cd3fb","3283","stimuli/2010111.jpg","0","","prediction_trial","2","","false","","2","false","false","true","true","false","false","[2]","010","111","0","","","","","","",""
"","","","","","image-keyboard-response","317","499893","0.0-292.0","628f9ef985fa6d3dc816672c","665500ab8938657b03fbdba8","66579267ec2b45982c0cd3fb","441","stimuli/20101112.jpg"," ","","feedback_trial","2","","","","","","","","","","","","","","","","","","","","",""
"","","","","","survey-html-form","318","665914","0.0-293.0","628f9ef985fa6d3dc816672c","665500ab8938657b03fbdba8","66579267ec2b45982c0cd3fb","166020","","{""feedback"":""I broke it down to whether he could see the basket and whether if I could see the basket, I put myself in Sam's shoes and my own and viewed each scenario from both points of view and chose accordingly. A lot of reasoning and deduction took place."",""age"":""32"",""gender"":""Male"",""other_gender"":"""",""race"":""Multiracial"",""other_race"":"""",""ethnicity"":""Non-Hispanic""}","","exit_survey","","","","","","","","","","","","","","","","I broke it down to whether he could see the basket and whether if I could see the basket, I put myself in Sam's shoes and my own and viewed each scenario from both points of view and chose accordingly. A lot of reasoning and deduction took place.","32","Non-Hispanic","Male","Multiracial","0.6388888888888888","0.6388888888888888"
