"success","timeout","failed_images","failed_audio","failed_video","trial_type","trial_index","time_elapsed","internal_node_id","prolific_id","prolific_study_id","prolific_session_id","rt","stimulus","response","view_history","trial","character_choice","stimulus_dict","accuracy","correct_response","ball_pos","ego_ball_visible","ego_can_infer","alter_ball_visible","alter_can_infer","collective_ball_visible","collective_can_infer","search_locations","alter_occluders","ego_occluders","accuracy_bool","feedback","age","ethnicity","gender","race","overall_accuracy","bonus"
"true","false","[]","[]","[]","preload","0","5340","0.0-0.0","57210674951c9b0011d3eaaa","665500ab8938657b03fbdba8","665792aa94beed4f44ddd55c","","","","","","","","","","","","","","","","","","","","","","","","","","",""
"true","","","","","fullscreen","1","734656","0.0-1.0","57210674951c9b0011d3eaaa","665500ab8938657b03fbdba8","665792aa94beed4f44ddd55c","","","","","","","","","","","","","","","","","","","","","","","","","","",""
"","","","","","html-button-response","2","748597","0.0-2.0","57210674951c9b0011d3eaaa","665500ab8938657b03fbdba8","665792aa94beed4f44ddd55c","13936","<p><b>Consent Form</b></p> <div style=""text-align:left;background-color:lightgrey; padding:20px; max-width:900px;""><p>Please consider this information carefully before deciding whether to participate in this research.</p> <p>The purpose of this research is to examine which factors influence social judgment and decision-making. You will be asked to make judgements about individuals and actions in social scenarios. We are simply interested in your judgement. The study will take less than 1 hour to complete, and you will receive less than $20 on Prolific. Your compensation and time commitment are specified in the study description. There are no anticipated risks associated with participating in this study. The effects of participating should be comparable to those you would ordinarily experience from viewing a computer monitor and using a mouse or keyboard for a similar amount of time. At the end of the study, we will provide an explanation of the questions that motivate this line of research and will describe the potential implications. </p><p> Your participation in this study is completely voluntary and you may refuse to participate or you may choose to withdraw at any time without penalty or loss of benefits to you which are otherwise entitled. Your participation in this study will remain confidential. No personally identifiable information will be associated with your data. Also, all analyses of the data will be averaged across all the participants, so your individual responses will never be specifically analyzed. </p><p> If you have questions or concerns about your participation or payment, or want to request a summary of research findings, please contact Dr. Jonathan Phillips at Jonathan.S.Phillips@dartmouth.edu. </p><p> Please save a copy of this form for your records. </p><p><b>Agreement: </b>The nature and purpose of this research have been sufficiently explained and I agree to participate in this study. I understand that I am free to withdraw at any time without incurring any penalty. Please consent by clicking the button below to continue. Otherwise, please exit the study at any time. </p>","0","","","","","","","","","","","","","","","","","","","","","","","",""
"","","","","","instructions","3","1044253","0.0-3.0-0.0","57210674951c9b0011d3eaaa","665500ab8938657b03fbdba8","665792aa94beed4f44ddd55c","295655","","","[{""page_index"":0,""viewing_time"":2471},{""page_index"":1,""viewing_time"":172991},{""page_index"":2,""viewing_time"":4768},{""page_index"":3,""viewing_time"":7976},{""page_index"":4,""viewing_time"":2928},{""page_index"":5,""viewing_time"":5921},{""page_index"":6,""viewing_time"":9143},{""page_index"":7,""viewing_time"":5896},{""page_index"":8,""viewing_time"":7272},{""page_index"":9,""viewing_time"":4633},{""page_index"":10,""viewing_time"":43327},{""page_index"":11,""viewing_time"":12616},{""page_index"":12,""viewing_time"":13592},{""page_index"":13,""viewing_time"":2120}]","intro","","","","","","","","","","","","","","","","","","","","","",""
"","","","","","image-keyboard-response","4","1049544","0.0-3.0-1.0","57210674951c9b0011d3eaaa","665500ab8938657b03fbdba8","665792aa94beed4f44ddd55c","5289","stimuli/1101100.jpg","1","","prediction_practice","1","{""filepath"":""stimuli/1101100.jpg"",""ball_pos"":1,""ego_ball_visible"":true,""ego_can_infer"":true,""alter_ball_visible"":true,""alter_can_infer"":true,""collective_ball_visible"":true,""collective_can_infer"":true,""search_locations"":[1],""alter_occluders"":""101"",""ego_occluders"":""100""}","true","","","","","","","","","","","","","","","","","","",""
"","","","","","image-keyboard-response","5","1051773","0.0-3.0-2.0","57210674951c9b0011d3eaaa","665500ab8938657b03fbdba8","665792aa94beed4f44ddd55c","2226","stimuli/11011001.jpg"," ","","practrice_feedback","1","","","","","","","","","","","","","","","","","","","","",""
"","","","","","image-keyboard-response","6","1054963","0.0-3.0-3.0","57210674951c9b0011d3eaaa","665500ab8938657b03fbdba8","665792aa94beed4f44ddd55c","3189","stimuli/1111011.jpg","1","","prediction_practice","2","{""filepath"":""stimuli/1111011.jpg"",""ball_pos"":1,""ego_ball_visible"":false,""ego_can_infer"":false,""alter_ball_visible"":false,""alter_can_infer"":false,""collective_ball_visible"":false,""collective_can_infer"":false,""search_locations"":[0,1,2],""alter_occluders"":""111"",""ego_occluders"":""011""}","false","","","","","","","","","","","","","","","","","","",""
"","","","","","image-keyboard-response","7","1056813","0.0-3.0-4.0","57210674951c9b0011d3eaaa","665500ab8938657b03fbdba8","665792aa94beed4f44ddd55c","1848","stimuli/11110112.jpg"," ","","practrice_feedback","0","","","","","","","","","","","","","","","","","","","","",""
"","","","","","image-keyboard-response","8","1061052","0.0-3.0-5.0","57210674951c9b0011d3eaaa","665500ab8938657b03fbdba8","665792aa94beed4f44ddd55c","4238","stimuli/2111101.jpg","0","","prediction_practice","2","{""filepath"":""stimuli/2111101.jpg"",""ball_pos"":2,""ego_ball_visible"":false,""ego_can_infer"":false,""alter_ball_visible"":false,""alter_can_infer"":false,""collective_ball_visible"":false,""collective_can_infer"":false,""search_locations"":[1,0,2],""alter_occluders"":""111"",""ego_occluders"":""101""}","false","","","","","","","","","","","","","","","","","","",""
"","","","","","image-keyboard-response","9","1062989","0.0-3.0-6.0","57210674951c9b0011d3eaaa","665500ab8938657b03fbdba8","665792aa94beed4f44ddd55c","1934","stimuli/21111012.jpg"," ","","practrice_feedback","1","","","","","","","","","","","","","","","","","","","","",""
"","","","","","image-keyboard-response","10","1064461","0.0-3.0-7.0","57210674951c9b0011d3eaaa","665500ab8938657b03fbdba8","665792aa94beed4f44ddd55c","1471","stimuli/1000101.jpg","0","","prediction_practice","1","{""filepath"":""stimuli/1000101.jpg"",""ball_pos"":1,""ego_ball_visible"":true,""ego_can_infer"":true,""alter_ball_visible"":true,""alter_can_infer"":true,""collective_ball_visible"":true,""collective_can_infer"":true,""search_locations"":[1],""alter_occluders"":""000"",""ego_occluders"":""101""}","false","","","","","","","","","","","","","","","","","","",""
"","","","","","image-keyboard-response","11","1066277","0.0-3.0-8.0","57210674951c9b0011d3eaaa","665500ab8938657b03fbdba8","665792aa94beed4f44ddd55c","1814","stimuli/10001011.jpg"," ","","practrice_feedback","1","","","","","","","","","","","","","","","","","","","","",""
"","","","","","image-keyboard-response","12","1068900","0.0-3.0-9.0","57210674951c9b0011d3eaaa","665500ab8938657b03fbdba8","665792aa94beed4f44ddd55c","2622","stimuli/1011000.jpg","1","","prediction_practice","1","{""filepath"":""stimuli/1011000.jpg"",""ball_pos"":1,""ego_ball_visible"":true,""ego_can_infer"":true,""alter_ball_visible"":false,""alter_can_infer"":false,""collective_ball_visible"":false,""collective_can_infer"":false,""search_locations"":[2,1],""alter_occluders"":""011"",""ego_occluders"":""000""}","true","","","","","","","","","","","","","","","","","","",""
"","","","","","image-keyboard-response","13","1071486","0.0-3.0-10.0","57210674951c9b0011d3eaaa","665500ab8938657b03fbdba8","665792aa94beed4f44ddd55c","2583","stimuli/10110001.jpg"," ","","practrice_feedback","2","","","","","","","","","","","","","","","","","","","","",""
"","","","","","image-keyboard-response","14","1073503","0.0-3.0-11.0","57210674951c9b0011d3eaaa","665500ab8938657b03fbdba8","665792aa94beed4f44ddd55c","2021","stimuli/2000100.jpg","2","","prediction_practice","2","{""filepath"":""stimuli/2000100.jpg"",""ball_pos"":2,""ego_ball_visible"":true,""ego_can_infer"":true,""alter_ball_visible"":true,""alter_can_infer"":true,""collective_ball_visible"":true,""collective_can_infer"":true,""search_locations"":[2],""alter_occluders"":""000"",""ego_occluders"":""100""}","true","","","","","","","","","","","","","","","","","","",""
"","","","","","image-keyboard-response","15","1074767","0.0-3.0-12.0","57210674951c9b0011d3eaaa","665500ab8938657b03fbdba8","665792aa94beed4f44ddd55c","1262","stimuli/20001002.jpg"," ","","practrice_feedback","2","","","","","","","","","","","","","","","","","","","","",""
"","","","","","image-keyboard-response","16","1076551","0.0-3.0-13.0","57210674951c9b0011d3eaaa","665500ab8938657b03fbdba8","665792aa94beed4f44ddd55c","1783","stimuli/0010000.jpg","0","","prediction_practice","0","{""filepath"":""stimuli/0010000.jpg"",""ball_pos"":0,""ego_ball_visible"":true,""ego_can_infer"":true,""alter_ball_visible"":true,""alter_can_infer"":true,""collective_ball_visible"":true,""collective_can_infer"":true,""search_locations"":[0],""alter_occluders"":""010"",""ego_occluders"":""000""}","true","","","","","","","","","","","","","","","","","","",""
"","","","","","image-keyboard-response","17","1077487","0.0-3.0-14.0","57210674951c9b0011d3eaaa","665500ab8938657b03fbdba8","665792aa94beed4f44ddd55c","934","stimuli/00100000.jpg"," ","","practrice_feedback","0","","","","","","","","","","","","","","","","","","","","",""
"","","","","","image-keyboard-response","18","1079591","0.0-3.0-15.0","57210674951c9b0011d3eaaa","665500ab8938657b03fbdba8","665792aa94beed4f44ddd55c","2102","stimuli/2101101.jpg","0","","prediction_practice","0","{""filepath"":""stimuli/2101101.jpg"",""ball_pos"":2,""ego_ball_visible"":false,""ego_can_infer"":false,""alter_ball_visible"":false,""alter_can_infer"":false,""collective_ball_visible"":false,""collective_can_infer"":false,""search_locations"":[2,0],""alter_occluders"":""101"",""ego_occluders"":""101""}","true","","","","","","","","","","","","","","","","","","",""
"","","","","","image-keyboard-response","19","1081431","0.0-3.0-16.0","57210674951c9b0011d3eaaa","665500ab8938657b03fbdba8","665792aa94beed4f44ddd55c","1838","stimuli/21011010.jpg"," ","","practrice_feedback","2","","","","","","","","","","","","","","","","","","","","",""
"","","","","","image-keyboard-response","20","1084159","0.0-3.0-17.0","57210674951c9b0011d3eaaa","665500ab8938657b03fbdba8","665792aa94beed4f44ddd55c","2727","stimuli/0010110.jpg","0","","prediction_practice","0","{""filepath"":""stimuli/0010110.jpg"",""ball_pos"":0,""ego_ball_visible"":false,""ego_can_infer"":false,""alter_ball_visible"":true,""alter_can_infer"":true,""collective_ball_visible"":false,""collective_can_infer"":false,""search_locations"":[0],""alter_occluders"":""010"",""ego_occluders"":""110""}","true","","","","","","","","","","","","","","","","","","",""
"","","","","","image-keyboard-response","21","1085567","0.0-3.0-18.0","57210674951c9b0011d3eaaa","665500ab8938657b03fbdba8","665792aa94beed4f44ddd55c","1406","stimuli/00101100.jpg"," ","","practrice_feedback","0","","","","","","","","","","","","","","","","","","","","",""
"","","","","","image-keyboard-response","22","1086855","0.0-3.0-19.0","57210674951c9b0011d3eaaa","665500ab8938657b03fbdba8","665792aa94beed4f44ddd55c","1287","stimuli/1100001.jpg","1","","prediction_practice","1","{""filepath"":""stimuli/1100001.jpg"",""ball_pos"":1,""ego_ball_visible"":true,""ego_can_infer"":true,""alter_ball_visible"":true,""alter_can_infer"":true,""collective_ball_visible"":true,""collective_can_infer"":true,""search_locations"":[1],""alter_occluders"":""100"",""ego_occluders"":""001""}","true","","","","","","","","","","","","","","","","","","",""
"","","","","","image-keyboard-response","23","1087711","0.0-3.0-20.0","57210674951c9b0011d3eaaa","665500ab8938657b03fbdba8","665792aa94beed4f44ddd55c","855","stimuli/11000011.jpg"," ","","practrice_feedback","1","","","","","","","","","","","","","","","","","","","","",""
"","","","","","html-button-response","24","1097807","0.0-3.0-21.0","57210674951c9b0011d3eaaa","665500ab8938657b03fbdba8","665792aa94beed4f44ddd55c","10095","Now that you've had some practice, you'll be tested with a couple of easy trials. If you correctly predict Sam's choice, you'll move on to complete the experiment!","0","","","","","","","","","","","","","","","","","","","","","","","",""
"","","","","","image-keyboard-response","25","1100703","0.0-3.0-22.0-0.0","57210674951c9b0011d3eaaa","665500ab8938657b03fbdba8","665792aa94beed4f44ddd55c","2895","stimuli/0000011.jpg","arrowleft","","comprehension_quiz","","","true","arrowleft","","","","","","","","","","","","","","","","","",""
"","","","","","image-keyboard-response","26","1101935","0.0-3.0-22.0-1.0","57210674951c9b0011d3eaaa","665500ab8938657b03fbdba8","665792aa94beed4f44ddd55c","1229","stimuli/00000110.jpg"," ","","comprehension_quiz","","","true"," ","","","","","","","","","","","","","","","","","",""
"","","","","","image-keyboard-response","27","1104223","0.0-3.0-22.0-2.0","57210674951c9b0011d3eaaa","665500ab8938657b03fbdba8","665792aa94beed4f44ddd55c","2286","stimuli/1010010.jpg","arrowdown","","comprehension_quiz","","","true","arrowdown","","","","","","","","","","","","","","","","","",""
"","","","","","image-keyboard-response","28","1105262","0.0-3.0-22.0-3.0","57210674951c9b0011d3eaaa","665500ab8938657b03fbdba8","665792aa94beed4f44ddd55c","1037","stimuli/10100101.jpg"," ","","comprehension_quiz","","","true"," ","","","","","","","","","","","","","","","","","",""
"","","","","","html-button-response","29","1114742","0.0-4.0","57210674951c9b0011d3eaaa","665500ab8938657b03fbdba8","665792aa94beed4f44ddd55c","9479","The experiment will now begin.","0","","","","","","","","","","","","","","","","","","","","","","","",""
"","","","","","image-keyboard-response","30","1121822","0.0-5.0","57210674951c9b0011d3eaaa","665500ab8938657b03fbdba8","665792aa94beed4f44ddd55c","7079","stimuli/2111110.jpg","2","","prediction_trial","0","","false","","2","true","true","false","false","false","false","[0,2,1]","111","110","0","","","","","","",""
"","","","","","image-keyboard-response","31","1125870","0.0-6.0","57210674951c9b0011d3eaaa","665500ab8938657b03fbdba8","665792aa94beed4f44ddd55c","4045","stimuli/21111100.jpg"," ","","feedback_trial","0","","","","","","","","","","","","","","","","","","","","",""
"","","","","","image-keyboard-response","32","1127558","0.0-7.0","57210674951c9b0011d3eaaa","665500ab8938657b03fbdba8","665792aa94beed4f44ddd55c","1687","stimuli/0001010.jpg","0","","prediction_trial","0","","true","","0","true","true","true","true","true","true","[0]","001","010","1","","","","","","",""
"","","","","","image-keyboard-response","33","1128749","0.0-8.0","57210674951c9b0011d3eaaa","665500ab8938657b03fbdba8","665792aa94beed4f44ddd55c","1191","stimuli/00010100.jpg"," ","","feedback_trial","0","","","","","","","","","","","","","","","","","","","","",""
"","","","","","image-keyboard-response","34","1130406","0.0-9.0","57210674951c9b0011d3eaaa","665500ab8938657b03fbdba8","665792aa94beed4f44ddd55c","1657","stimuli/2100101.jpg","0","","prediction_trial","2","","false","","2","false","false","true","true","false","false","[2]","100","101","0","","","","","","",""
"","","","","","image-keyboard-response","35","1131703","0.0-10.0","57210674951c9b0011d3eaaa","665500ab8938657b03fbdba8","665792aa94beed4f44ddd55c","1294","stimuli/21001012.jpg"," ","","feedback_trial","2","","","","","","","","","","","","","","","","","","","","",""
"","","","","","image-keyboard-response","36","1134914","0.0-11.0","57210674951c9b0011d3eaaa","665500ab8938657b03fbdba8","665792aa94beed4f44ddd55c","3206","stimuli/2011101.jpg","2","","prediction_trial","1","","false","","2","false","false","false","false","false","false","[1,2]","011","101","0","","","","","","",""
"","","","","","image-keyboard-response","37","1137011","0.0-12.0","57210674951c9b0011d3eaaa","665500ab8938657b03fbdba8","665792aa94beed4f44ddd55c","2095","stimuli/20111011.jpg"," ","","feedback_trial","1","","","","","","","","","","","","","","","","","","","","",""
"","","","","","image-keyboard-response","38","1141322","0.0-13.0","57210674951c9b0011d3eaaa","665500ab8938657b03fbdba8","665792aa94beed4f44ddd55c","4310","stimuli/1001010.jpg","1","","prediction_trial","1","","true","","1","false","true","true","true","false","true","[1]","001","010","1","","","","","","",""
"","","","","","image-keyboard-response","39","1142579","0.0-14.0","57210674951c9b0011d3eaaa","665500ab8938657b03fbdba8","665792aa94beed4f44ddd55c","1255","stimuli/10010101.jpg"," ","","feedback_trial","1","","","","","","","","","","","","","","","","","","","","",""
"","","","","","image-keyboard-response","40","1144954","0.0-15.0","57210674951c9b0011d3eaaa","665500ab8938657b03fbdba8","665792aa94beed4f44ddd55c","2374","stimuli/0001111.jpg","1","","prediction_trial","0","","false","","0","false","false","true","true","false","false","[0]","001","111","0","","","","","","",""
"","","","","","image-keyboard-response","41","1146267","0.0-16.0","57210674951c9b0011d3eaaa","665500ab8938657b03fbdba8","665792aa94beed4f44ddd55c","1311","stimuli/00011110.jpg"," ","","feedback_trial","0","","","","","","","","","","","","","","","","","","","","",""
"","","","","","image-keyboard-response","42","1148930","0.0-17.0","57210674951c9b0011d3eaaa","665500ab8938657b03fbdba8","665792aa94beed4f44ddd55c","2662","stimuli/2001110.jpg","2","","prediction_trial","2","","true","","2","true","true","false","true","false","true","[2]","001","110","1","","","","","","",""
"","","","","","image-keyboard-response","43","1150691","0.0-18.0","57210674951c9b0011d3eaaa","665500ab8938657b03fbdba8","665792aa94beed4f44ddd55c","1759","stimuli/20011102.jpg"," ","","feedback_trial","2","","","","","","","","","","","","","","","","","","","","",""
"","","","","","image-keyboard-response","44","1154891","0.0-19.0","57210674951c9b0011d3eaaa","665500ab8938657b03fbdba8","665792aa94beed4f44ddd55c","4199","stimuli/2001111.jpg","0","","prediction_trial","2","","false","","2","false","false","false","true","false","false","[2]","001","111","0","","","","","","",""
"","","","","","image-keyboard-response","45","1155969","0.0-20.0","57210674951c9b0011d3eaaa","665500ab8938657b03fbdba8","665792aa94beed4f44ddd55c","1077","stimuli/20011112.jpg"," ","","feedback_trial","2","","","","","","","","","","","","","","","","","","","","",""
"","","","","","image-keyboard-response","46","1158290","0.0-21.0","57210674951c9b0011d3eaaa","665500ab8938657b03fbdba8","665792aa94beed4f44ddd55c","2320","stimuli/1110010.jpg","1","","prediction_trial","1","","true","","1","false","true","false","false","false","false","[0,1]","110","010","1","","","","","","",""
"","","","","","image-keyboard-response","47","1159411","0.0-22.0","57210674951c9b0011d3eaaa","665500ab8938657b03fbdba8","665792aa94beed4f44ddd55c","1120","stimuli/11100101.jpg"," ","","feedback_trial","0","","","","","","","","","","","","","","","","","","","","",""
"","","","","","image-keyboard-response","48","1160793","0.0-23.0","57210674951c9b0011d3eaaa","665500ab8938657b03fbdba8","665792aa94beed4f44ddd55c","1381","stimuli/0111001.jpg","0","","prediction_trial","1","","false","","0","true","true","false","false","false","false","[1,2,0]","111","001","0","","","","","","",""
"","","","","","image-keyboard-response","49","1162145","0.0-24.0","57210674951c9b0011d3eaaa","665500ab8938657b03fbdba8","665792aa94beed4f44ddd55c","1351","stimuli/01110011.jpg"," ","","feedback_trial","1","","","","","","","","","","","","","","","","","","","","",""
"","","","","","image-keyboard-response","50","1163369","0.0-25.0","57210674951c9b0011d3eaaa","665500ab8938657b03fbdba8","665792aa94beed4f44ddd55c","1223","stimuli/2110000.jpg","2","","prediction_trial","2","","true","","2","true","true","true","true","true","true","[2]","110","000","1","","","","","","",""
"","","","","","image-keyboard-response","51","1164617","0.0-26.0","57210674951c9b0011d3eaaa","665500ab8938657b03fbdba8","665792aa94beed4f44ddd55c","1248","stimuli/21100002.jpg"," ","","feedback_trial","2","","","","","","","","","","","","","","","","","","","","",""
"","","","","","image-keyboard-response","52","1168858","0.0-27.0","57210674951c9b0011d3eaaa","665500ab8938657b03fbdba8","665792aa94beed4f44ddd55c","4240","stimuli/0111000.jpg","2","","prediction_trial","0","","false","","0","true","true","false","false","false","false","[2,1,0]","111","000","0","","","","","","",""
"","","","","","image-keyboard-response","53","1170115","0.0-28.0","57210674951c9b0011d3eaaa","665500ab8938657b03fbdba8","665792aa94beed4f44ddd55c","1255","stimuli/01110000.jpg"," ","","feedback_trial","2","","","","","","","","","","","","","","","","","","","","",""
"","","","","","image-keyboard-response","54","1171753","0.0-29.0","57210674951c9b0011d3eaaa","665500ab8938657b03fbdba8","665792aa94beed4f44ddd55c","1637","stimuli/1001001.jpg","1","","prediction_trial","1","","true","","1","true","true","true","true","true","true","[1]","001","001","1","","","","","","",""
"","","","","","image-keyboard-response","55","1172602","0.0-30.0","57210674951c9b0011d3eaaa","665500ab8938657b03fbdba8","665792aa94beed4f44ddd55c","848","stimuli/10010011.jpg"," ","","feedback_trial","1","","","","","","","","","","","","","","","","","","","","",""
"","","","","","image-keyboard-response","56","1174594","0.0-31.0","57210674951c9b0011d3eaaa","665500ab8938657b03fbdba8","665792aa94beed4f44ddd55c","1991","stimuli/0000110.jpg","1","","prediction_trial","0","","false","","0","false","false","true","true","false","false","[0]","000","110","0","","","","","","",""
"","","","","","image-keyboard-response","57","1175707","0.0-32.0","57210674951c9b0011d3eaaa","665500ab8938657b03fbdba8","665792aa94beed4f44ddd55c","1111","stimuli/00001100.jpg"," ","","feedback_trial","0","","","","","","","","","","","","","","","","","","","","",""
"","","","","","image-keyboard-response","58","1176938","0.0-33.0","57210674951c9b0011d3eaaa","665500ab8938657b03fbdba8","665792aa94beed4f44ddd55c","1230","stimuli/2000000.jpg","2","","prediction_trial","2","","true","","2","true","true","true","true","true","true","[2]","000","000","1","","","","","","",""
"","","","","","image-keyboard-response","59","1177867","0.0-34.0","57210674951c9b0011d3eaaa","665500ab8938657b03fbdba8","665792aa94beed4f44ddd55c","927","stimuli/20000002.jpg"," ","","feedback_trial","2","","","","","","","","","","","","","","","","","","","","",""
"","","","","","image-keyboard-response","60","1179554","0.0-35.0","57210674951c9b0011d3eaaa","665500ab8938657b03fbdba8","665792aa94beed4f44ddd55c","1686","stimuli/0100111.jpg","2","","prediction_trial","0","","false","","0","false","false","false","true","false","false","[0]","100","111","0","","","","","","",""
"","","","","","image-keyboard-response","61","1180561","0.0-36.0","57210674951c9b0011d3eaaa","665500ab8938657b03fbdba8","665792aa94beed4f44ddd55c","1006","stimuli/01001110.jpg"," ","","feedback_trial","0","","","","","","","","","","","","","","","","","","","","",""
"","","","","","image-keyboard-response","62","1181890","0.0-37.0","57210674951c9b0011d3eaaa","665500ab8938657b03fbdba8","665792aa94beed4f44ddd55c","1328","stimuli/1100101.jpg","1","","prediction_trial","1","","true","","1","true","true","true","true","true","true","[1]","100","101","1","","","","","","",""
"","","","","","image-keyboard-response","63","1182643","0.0-38.0","57210674951c9b0011d3eaaa","665500ab8938657b03fbdba8","665792aa94beed4f44ddd55c","751","stimuli/11001011.jpg"," ","","feedback_trial","1","","","","","","","","","","","","","","","","","","","","",""
"","","","","","image-keyboard-response","64","1183690","0.0-39.0","57210674951c9b0011d3eaaa","665500ab8938657b03fbdba8","665792aa94beed4f44ddd55c","1046","stimuli/2110110.jpg","2","","prediction_trial","2","","true","","2","true","true","true","true","true","true","[2]","110","110","1","","","","","","",""
"","","","","","image-keyboard-response","65","1184563","0.0-40.0","57210674951c9b0011d3eaaa","665500ab8938657b03fbdba8","665792aa94beed4f44ddd55c","871","stimuli/21101102.jpg"," ","","feedback_trial","2","","","","","","","","","","","","","","","","","","","","",""
"","","","","","image-keyboard-response","66","1186296","0.0-41.0","57210674951c9b0011d3eaaa","665500ab8938657b03fbdba8","665792aa94beed4f44ddd55c","1731","stimuli/1100010.jpg","1","","prediction_trial","1","","true","","1","false","true","true","true","false","true","[1]","100","010","1","","","","","","",""
"","","","","","image-keyboard-response","67","1186874","0.0-42.0","57210674951c9b0011d3eaaa","665500ab8938657b03fbdba8","665792aa94beed4f44ddd55c","576","stimuli/11000101.jpg"," ","","feedback_trial","1","","","","","","","","","","","","","","","","","","","","",""
"","","","","","image-keyboard-response","68","1190795","0.0-43.0","57210674951c9b0011d3eaaa","665500ab8938657b03fbdba8","665792aa94beed4f44ddd55c","3919","stimuli/1010110.jpg","0","","prediction_trial","1","","false","","1","false","false","false","true","false","false","[1]","010","110","0","","","","","","",""
"","","","","","image-keyboard-response","69","1191641","0.0-44.0","57210674951c9b0011d3eaaa","665500ab8938657b03fbdba8","665792aa94beed4f44ddd55c","845","stimuli/10101101.jpg"," ","","feedback_trial","1","","","","","","","","","","","","","","","","","","","","",""
"","","","","","image-keyboard-response","70","1192923","0.0-45.0","57210674951c9b0011d3eaaa","665500ab8938657b03fbdba8","665792aa94beed4f44ddd55c","1280","stimuli/2011000.jpg","2","","prediction_trial","2","","true","","2","true","true","false","false","false","false","[1,2]","011","000","1","","","","","","",""
"","","","","","image-keyboard-response","71","1194034","0.0-46.0","57210674951c9b0011d3eaaa","665500ab8938657b03fbdba8","665792aa94beed4f44ddd55c","1111","stimuli/20110002.jpg"," ","","feedback_trial","1","","","","","","","","","","","","","","","","","","","","",""
"","","","","","image-keyboard-response","72","1195383","0.0-47.0","57210674951c9b0011d3eaaa","665500ab8938657b03fbdba8","665792aa94beed4f44ddd55c","1349","stimuli/0101011.jpg","0","","prediction_trial","0","","true","","0","true","true","false","false","false","false","[2,0]","101","011","1","","","","","","",""
"","","","","","image-keyboard-response","73","1196608","0.0-48.0","57210674951c9b0011d3eaaa","665500ab8938657b03fbdba8","665792aa94beed4f44ddd55c","1224","stimuli/01010110.jpg"," ","","feedback_trial","2","","","","","","","","","","","","","","","","","","","","",""
"","","","","","image-keyboard-response","74","1199760","0.0-49.0","57210674951c9b0011d3eaaa","665500ab8938657b03fbdba8","665792aa94beed4f44ddd55c","3151","stimuli/2110011.jpg","1","","prediction_trial","2","","false","","2","false","false","true","true","false","false","[2]","110","011","0","","","","","","",""
"","","","","","image-keyboard-response","75","1200768","0.0-50.0","57210674951c9b0011d3eaaa","665500ab8938657b03fbdba8","665792aa94beed4f44ddd55c","1007","stimuli/21100112.jpg"," ","","feedback_trial","2","","","","","","","","","","","","","","","","","","","","",""
"","","","","","image-keyboard-response","76","1203280","0.0-51.0","57210674951c9b0011d3eaaa","665500ab8938657b03fbdba8","665792aa94beed4f44ddd55c","2511","stimuli/2111011.jpg","1","","prediction_trial","2","","false","","2","false","false","false","false","false","false","[2,1,0]","111","011","0","","","","","","",""
"","","","","","image-keyboard-response","77","1205584","0.0-52.0","57210674951c9b0011d3eaaa","665500ab8938657b03fbdba8","665792aa94beed4f44ddd55c","2302","stimuli/21110112.jpg"," ","","feedback_trial","2","","","","","","","","","","","","","","","","","","","","",""
"","","","","","image-keyboard-response","78","1206968","0.0-53.0","57210674951c9b0011d3eaaa","665500ab8938657b03fbdba8","665792aa94beed4f44ddd55c","1382","stimuli/0010001.jpg","0","","prediction_trial","0","","true","","0","true","true","true","true","true","true","[0]","010","001","1","","","","","","",""
"","","","","","image-keyboard-response","79","1208024","0.0-54.0","57210674951c9b0011d3eaaa","665500ab8938657b03fbdba8","665792aa94beed4f44ddd55c","1055","stimuli/00100010.jpg"," ","","feedback_trial","0","","","","","","","","","","","","","","","","","","","","",""
"","","","","","image-keyboard-response","80","1209240","0.0-55.0","57210674951c9b0011d3eaaa","665500ab8938657b03fbdba8","665792aa94beed4f44ddd55c","1214","stimuli/2000100.jpg","2","","prediction_trial","2","","true","","2","true","true","true","true","true","true","[2]","000","100","1","","","","","","",""
"","","","","","image-keyboard-response","81","1210176","0.0-56.0","57210674951c9b0011d3eaaa","665500ab8938657b03fbdba8","665792aa94beed4f44ddd55c","935","stimuli/20001002.jpg"," ","","feedback_trial","2","","","","","","","","","","","","","","","","","","","","",""
"","","","","","image-keyboard-response","82","1213400","0.0-57.0","57210674951c9b0011d3eaaa","665500ab8938657b03fbdba8","665792aa94beed4f44ddd55c","3222","stimuli/1000101.jpg","1","","prediction_trial","1","","true","","1","true","true","true","true","true","true","[1]","000","101","1","","","","","","",""
"","","","","","image-keyboard-response","83","1214552","0.0-58.0","57210674951c9b0011d3eaaa","665500ab8938657b03fbdba8","665792aa94beed4f44ddd55c","1151","stimuli/10001011.jpg"," ","","feedback_trial","1","","","","","","","","","","","","","","","","","","","","",""
"","","","","","image-keyboard-response","84","1216832","0.0-59.0","57210674951c9b0011d3eaaa","665500ab8938657b03fbdba8","665792aa94beed4f44ddd55c","2278","stimuli/2111010.jpg","2","","prediction_trial","2","","true","","2","true","true","false","false","false","false","[2,1,0]","111","010","1","","","","","","",""
"","","","","","image-keyboard-response","85","1218024","0.0-60.0","57210674951c9b0011d3eaaa","665500ab8938657b03fbdba8","665792aa94beed4f44ddd55c","1190","stimuli/21110102.jpg"," ","","feedback_trial","2","","","","","","","","","","","","","","","","","","","","",""
"","","","","","image-keyboard-response","86","1279937","0.0-61.0","57210674951c9b0011d3eaaa","665500ab8938657b03fbdba8","665792aa94beed4f44ddd55c","61910","stimuli/2101100.jpg","2","","prediction_trial","0","","false","","2","true","true","false","false","false","false","[0,2]","101","100","0","","","","","","",""
"","","","","","image-keyboard-response","87","1280897","0.0-62.0","57210674951c9b0011d3eaaa","665500ab8938657b03fbdba8","665792aa94beed4f44ddd55c","959","stimuli/21011000.jpg"," ","","feedback_trial","0","","","","","","","","","","","","","","","","","","","","",""
"","","","","","image-keyboard-response","88","1282072","0.0-63.0","57210674951c9b0011d3eaaa","665500ab8938657b03fbdba8","665792aa94beed4f44ddd55c","1174","stimuli/0011001.jpg","0","","prediction_trial","0","","true","","0","true","true","true","true","true","true","[0]","011","001","1","","","","","","",""
"","","","","","image-keyboard-response","89","1282905","0.0-64.0","57210674951c9b0011d3eaaa","665500ab8938657b03fbdba8","665792aa94beed4f44ddd55c","830","stimuli/00110010.jpg"," ","","feedback_trial","0","","","","","","","","","","","","","","","","","","","","",""
"","","","","","image-keyboard-response","90","1285984","0.0-65.0","57210674951c9b0011d3eaaa","665500ab8938657b03fbdba8","665792aa94beed4f44ddd55c","3078","stimuli/1001110.jpg","0","","prediction_trial","1","","false","","1","false","false","true","true","false","false","[1]","001","110","0","","","","","","",""
"","","","","","image-keyboard-response","91","1286745","0.0-66.0","57210674951c9b0011d3eaaa","665500ab8938657b03fbdba8","665792aa94beed4f44ddd55c","758","stimuli/10011101.jpg"," ","","feedback_trial","1","","","","","","","","","","","","","","","","","","","","",""
"","","","","","image-keyboard-response","92","1290473","0.0-67.0","57210674951c9b0011d3eaaa","665500ab8938657b03fbdba8","665792aa94beed4f44ddd55c","3728","stimuli/0101010.jpg","0","","prediction_trial","2","","false","","0","true","true","false","false","false","false","[2,0]","101","010","0","","","","","","",""
"","","","","","image-keyboard-response","93","1291217","0.0-68.0","57210674951c9b0011d3eaaa","665500ab8938657b03fbdba8","665792aa94beed4f44ddd55c","741","stimuli/01010102.jpg"," ","","feedback_trial","2","","","","","","","","","","","","","","","","","","","","",""
"","","","","","image-keyboard-response","94","1293009","0.0-69.0","57210674951c9b0011d3eaaa","665500ab8938657b03fbdba8","665792aa94beed4f44ddd55c","1790","stimuli/0001100.jpg","0","","prediction_trial","0","","true","","0","false","true","true","true","false","true","[0]","001","100","1","","","","","","",""
"","","","","","image-keyboard-response","95","1293785","0.0-70.0","57210674951c9b0011d3eaaa","665500ab8938657b03fbdba8","665792aa94beed4f44ddd55c","774","stimuli/00011000.jpg"," ","","feedback_trial","0","","","","","","","","","","","","","","","","","","","","",""
"","","","","","image-keyboard-response","96","1296608","0.0-71.0","57210674951c9b0011d3eaaa","665500ab8938657b03fbdba8","665792aa94beed4f44ddd55c","2822","stimuli/1101111.jpg","1","","prediction_trial","1","","true","","1","false","false","true","true","false","false","[1]","101","111","1","","","","","","",""
"","","","","","image-keyboard-response","97","1297584","0.0-72.0","57210674951c9b0011d3eaaa","665500ab8938657b03fbdba8","665792aa94beed4f44ddd55c","974","stimuli/11011111.jpg"," ","","feedback_trial","1","","","","","","","","","","","","","","","","","","","","",""
"","","","","","image-keyboard-response","98","1299193","0.0-73.0","57210674951c9b0011d3eaaa","665500ab8938657b03fbdba8","665792aa94beed4f44ddd55c","1606","stimuli/0111110.jpg","1","","prediction_trial","1","","true","","0","false","false","false","false","false","false","[0,2,1]","111","110","1","","","","","","",""
"","","","","","image-keyboard-response","99","1299921","0.0-74.0","57210674951c9b0011d3eaaa","665500ab8938657b03fbdba8","665792aa94beed4f44ddd55c","726","stimuli/01111101.jpg"," ","","feedback_trial","0","","","","","","","","","","","","","","","","","","","","",""
"","","","","","image-keyboard-response","100","1302008","0.0-75.0","57210674951c9b0011d3eaaa","665500ab8938657b03fbdba8","665792aa94beed4f44ddd55c","2086","stimuli/2100111.jpg","2","","prediction_trial","2","","true","","2","false","false","true","true","false","false","[2]","100","111","1","","","","","","",""
"","","","","","image-keyboard-response","101","1303008","0.0-76.0","57210674951c9b0011d3eaaa","665500ab8938657b03fbdba8","665792aa94beed4f44ddd55c","998","stimuli/21001112.jpg"," ","","feedback_trial","2","","","","","","","","","","","","","","","","","","","","",""
"","","","","","image-keyboard-response","102","1304727","0.0-77.0","57210674951c9b0011d3eaaa","665500ab8938657b03fbdba8","665792aa94beed4f44ddd55c","1719","stimuli/1110001.jpg","1","","prediction_trial","1","","true","","1","true","true","false","false","false","false","[0,1]","110","001","1","","","","","","",""
"","","","","","image-keyboard-response","103","1305560","0.0-78.0","57210674951c9b0011d3eaaa","665500ab8938657b03fbdba8","665792aa94beed4f44ddd55c","832","stimuli/11100011.jpg"," ","","feedback_trial","0","","","","","","","","","","","","","","","","","","","","",""
"","","","","","image-keyboard-response","104","1306960","0.0-79.0","57210674951c9b0011d3eaaa","665500ab8938657b03fbdba8","665792aa94beed4f44ddd55c","1399","stimuli/0110001.jpg","0","","prediction_trial","0","","true","","0","true","true","false","false","false","false","[1,0]","110","001","1","","","","","","",""
"","","","","","image-keyboard-response","105","1307992","0.0-80.0","57210674951c9b0011d3eaaa","665500ab8938657b03fbdba8","665792aa94beed4f44ddd55c","1030","stimuli/01100010.jpg"," ","","feedback_trial","1","","","","","","","","","","","","","","","","","","","","",""
"","","","","","image-keyboard-response","106","1309304","0.0-81.0","57210674951c9b0011d3eaaa","665500ab8938657b03fbdba8","665792aa94beed4f44ddd55c","1311","stimuli/2100001.jpg","2","","prediction_trial","2","","true","","2","false","true","true","true","false","true","[2]","100","001","1","","","","","","",""
"","","","","","image-keyboard-response","107","1310447","0.0-82.0","57210674951c9b0011d3eaaa","665500ab8938657b03fbdba8","665792aa94beed4f44ddd55c","1141","stimuli/21000012.jpg"," ","","feedback_trial","2","","","","","","","","","","","","","","","","","","","","",""
"","","","","","image-keyboard-response","108","1312207","0.0-83.0","57210674951c9b0011d3eaaa","665500ab8938657b03fbdba8","665792aa94beed4f44ddd55c","1760","stimuli/1010001.jpg","1","","prediction_trial","1","","true","","1","true","true","false","true","false","true","[1]","010","001","1","","","","","","",""
"","","","","","image-keyboard-response","109","1312969","0.0-84.0","57210674951c9b0011d3eaaa","665500ab8938657b03fbdba8","665792aa94beed4f44ddd55c","760","stimuli/10100011.jpg"," ","","feedback_trial","1","","","","","","","","","","","","","","","","","","","","",""
"","","","","","image-keyboard-response","110","1316920","0.0-85.0","57210674951c9b0011d3eaaa","665500ab8938657b03fbdba8","665792aa94beed4f44ddd55c","3950","stimuli/1010011.jpg","2","","prediction_trial","1","","false","","1","false","false","false","true","false","false","[1]","010","011","0","","","","","","",""
"","","","","","image-keyboard-response","111","1317865","0.0-86.0","57210674951c9b0011d3eaaa","665500ab8938657b03fbdba8","665792aa94beed4f44ddd55c","942","stimuli/10100111.jpg"," ","","feedback_trial","1","","","","","","","","","","","","","","","","","","","","",""
"","","","","","image-keyboard-response","112","1319952","0.0-87.0","57210674951c9b0011d3eaaa","665500ab8938657b03fbdba8","665792aa94beed4f44ddd55c","2086","stimuli/1111111.jpg","1","","prediction_trial","2","","false","","1","false","false","false","false","false","false","[1,2,0]","111","111","0","","","","","","",""
"","","","","","image-keyboard-response","113","1320881","0.0-88.0","57210674951c9b0011d3eaaa","665500ab8938657b03fbdba8","665792aa94beed4f44ddd55c","926","stimuli/11111112.jpg"," ","","feedback_trial","1","","","","","","","","","","","","","","","","","","","","",""
"","","","","","image-keyboard-response","114","1322192","0.0-89.0","57210674951c9b0011d3eaaa","665500ab8938657b03fbdba8","665792aa94beed4f44ddd55c","1310","stimuli/1011001.jpg","1","","prediction_trial","2","","false","","1","true","true","false","false","false","false","[2,1]","011","001","0","","","","","","",""
"","","","","","image-keyboard-response","115","1323218","0.0-90.0","57210674951c9b0011d3eaaa","665500ab8938657b03fbdba8","665792aa94beed4f44ddd55c","1023","stimuli/10110012.jpg"," ","","feedback_trial","2","","","","","","","","","","","","","","","","","","","","",""
"","","","","","image-keyboard-response","116","1325247","0.0-91.0","57210674951c9b0011d3eaaa","665500ab8938657b03fbdba8","665792aa94beed4f44ddd55c","2028","stimuli/2111101.jpg","0","","prediction_trial","1","","false","","2","false","false","false","false","false","false","[1,0,2]","111","101","0","","","","","","",""
"","","","","","image-keyboard-response","117","1326169","0.0-92.0","57210674951c9b0011d3eaaa","665500ab8938657b03fbdba8","665792aa94beed4f44ddd55c","921","stimuli/21111011.jpg"," ","","feedback_trial","1","","","","","","","","","","","","","","","","","","","","",""
"","","","","","image-keyboard-response","118","1327184","0.0-93.0","57210674951c9b0011d3eaaa","665500ab8938657b03fbdba8","665792aa94beed4f44ddd55c","1014","stimuli/1000000.jpg","1","","prediction_trial","1","","true","","1","true","true","true","true","true","true","[1]","000","000","1","","","","","","",""
"","","","","","image-keyboard-response","119","1327975","0.0-94.0","57210674951c9b0011d3eaaa","665500ab8938657b03fbdba8","665792aa94beed4f44ddd55c","789","stimuli/10000001.jpg"," ","","feedback_trial","1","","","","","","","","","","","","","","","","","","","","",""
"","","","","","image-keyboard-response","120","1330921","0.0-95.0","57210674951c9b0011d3eaaa","665500ab8938657b03fbdba8","665792aa94beed4f44ddd55c","2944","stimuli/0001110.jpg","1","","prediction_trial","0","","false","","0","false","false","true","true","false","false","[0]","001","110","0","","","","","","",""
"","","","","","image-keyboard-response","121","1331721","0.0-96.0","57210674951c9b0011d3eaaa","665500ab8938657b03fbdba8","665792aa94beed4f44ddd55c","798","stimuli/00011100.jpg"," ","","feedback_trial","0","","","","","","","","","","","","","","","","","","","","",""
"","","","","","image-keyboard-response","122","1334064","0.0-97.0","57210674951c9b0011d3eaaa","665500ab8938657b03fbdba8","665792aa94beed4f44ddd55c","2343","stimuli/0100100.jpg","0","","prediction_trial","0","","true","","0","false","true","false","true","false","true","[0]","100","100","1","","","","","","",""
"","","","","","image-keyboard-response","123","1335000","0.0-98.0","57210674951c9b0011d3eaaa","665500ab8938657b03fbdba8","665792aa94beed4f44ddd55c","934","stimuli/01001000.jpg"," ","","feedback_trial","0","","","","","","","","","","","","","","","","","","","","",""
"","","","","","image-keyboard-response","124","1336184","0.0-99.0","57210674951c9b0011d3eaaa","665500ab8938657b03fbdba8","665792aa94beed4f44ddd55c","1183","stimuli/1010000.jpg","1","","prediction_trial","1","","true","","1","true","true","false","true","false","true","[1]","010","000","1","","","","","","",""
"","","","","","image-keyboard-response","125","1336881","0.0-100.0","57210674951c9b0011d3eaaa","665500ab8938657b03fbdba8","665792aa94beed4f44ddd55c","695","stimuli/10100001.jpg"," ","","feedback_trial","1","","","","","","","","","","","","","","","","","","","","",""
"","","","","","image-keyboard-response","126","1337841","0.0-101.0","57210674951c9b0011d3eaaa","665500ab8938657b03fbdba8","665792aa94beed4f44ddd55c","959","stimuli/2101010.jpg","2","","prediction_trial","0","","false","","2","true","true","false","false","false","false","[0,2]","101","010","0","","","","","","",""
"","","","","","image-keyboard-response","127","1338945","0.0-102.0","57210674951c9b0011d3eaaa","665500ab8938657b03fbdba8","665792aa94beed4f44ddd55c","1102","stimuli/21010100.jpg"," ","","feedback_trial","0","","","","","","","","","","","","","","","","","","","","",""
"","","","","","image-keyboard-response","128","1341227","0.0-103.0","57210674951c9b0011d3eaaa","665500ab8938657b03fbdba8","665792aa94beed4f44ddd55c","2286","stimuli/1101011.jpg","1","","prediction_trial","1","","true","","1","false","false","true","true","false","false","[1]","101","011","1","","","","","","",""
"","","","","","image-keyboard-response","129","1341843","0.0-104.0","57210674951c9b0011d3eaaa","665500ab8938657b03fbdba8","665792aa94beed4f44ddd55c","615","stimuli/11010111.jpg"," ","","feedback_trial","1","","","","","","","","","","","","","","","","","","","","",""
"","","","","","image-keyboard-response","130","1343307","0.0-105.0","57210674951c9b0011d3eaaa","665500ab8938657b03fbdba8","665792aa94beed4f44ddd55c","1462","stimuli/0011111.jpg","0","","prediction_trial","0","","true","","0","false","false","true","true","false","false","[0]","011","111","1","","","","","","",""
"","","","","","image-keyboard-response","131","1344220","0.0-106.0","57210674951c9b0011d3eaaa","665500ab8938657b03fbdba8","665792aa94beed4f44ddd55c","911","stimuli/00111110.jpg"," ","","feedback_trial","0","","","","","","","","","","","","","","","","","","","","",""
"","","","","","image-keyboard-response","132","1345219","0.0-107.0","57210674951c9b0011d3eaaa","665500ab8938657b03fbdba8","665792aa94beed4f44ddd55c","998","stimuli/1011100.jpg","1","","prediction_trial","1","","true","","1","true","true","false","false","false","false","[2,1]","011","100","1","","","","","","",""
"","","","","","image-keyboard-response","133","1345931","0.0-108.0","57210674951c9b0011d3eaaa","665500ab8938657b03fbdba8","665792aa94beed4f44ddd55c","711","stimuli/10111001.jpg"," ","","feedback_trial","2","","","","","","","","","","","","","","","","","","","","",""
"","","","","","image-keyboard-response","134","1347019","0.0-109.0","57210674951c9b0011d3eaaa","665500ab8938657b03fbdba8","665792aa94beed4f44ddd55c","1086","stimuli/1011101.jpg","1","","prediction_trial","2","","false","","1","true","true","false","false","false","false","[2,1]","011","101","0","","","","","","",""
"","","","","","image-keyboard-response","135","1348035","0.0-110.0","57210674951c9b0011d3eaaa","665500ab8938657b03fbdba8","665792aa94beed4f44ddd55c","1015","stimuli/10111012.jpg"," ","","feedback_trial","2","","","","","","","","","","","","","","","","","","","","",""
"","","","","","image-keyboard-response","136","1350987","0.0-111.0","57210674951c9b0011d3eaaa","665500ab8938657b03fbdba8","665792aa94beed4f44ddd55c","2950","stimuli/0100101.jpg","2","","prediction_trial","0","","false","","0","false","false","false","true","false","false","[0]","100","101","0","","","","","","",""
"","","","","","image-keyboard-response","137","1352115","0.0-112.0","57210674951c9b0011d3eaaa","665500ab8938657b03fbdba8","665792aa94beed4f44ddd55c","1127","stimuli/01001010.jpg"," ","","feedback_trial","0","","","","","","","","","","","","","","","","","","","","",""
"","","","","","image-keyboard-response","138","1353371","0.0-113.0","57210674951c9b0011d3eaaa","665500ab8938657b03fbdba8","665792aa94beed4f44ddd55c","1254","stimuli/0000010.jpg","0","","prediction_trial","0","","true","","0","true","true","true","true","true","true","[0]","000","010","1","","","","","","",""
"","","","","","image-keyboard-response","139","1354203","0.0-114.0","57210674951c9b0011d3eaaa","665500ab8938657b03fbdba8","665792aa94beed4f44ddd55c","830","stimuli/00000100.jpg"," ","","feedback_trial","0","","","","","","","","","","","","","","","","","","","","",""
"","","","","","image-keyboard-response","140","1355211","0.0-115.0","57210674951c9b0011d3eaaa","665500ab8938657b03fbdba8","665792aa94beed4f44ddd55c","1006","stimuli/0100000.jpg","0","","prediction_trial","0","","true","","0","true","true","false","true","false","true","[0]","100","000","1","","","","","","",""
"","","","","","image-keyboard-response","141","1355874","0.0-116.0","57210674951c9b0011d3eaaa","665500ab8938657b03fbdba8","665792aa94beed4f44ddd55c","661","stimuli/01000000.jpg"," ","","feedback_trial","0","","","","","","","","","","","","","","","","","","","","",""
"","","","","","image-keyboard-response","142","1357291","0.0-117.0","57210674951c9b0011d3eaaa","665500ab8938657b03fbdba8","665792aa94beed4f44ddd55c","1416","stimuli/1100111.jpg","1","","prediction_trial","1","","true","","1","false","false","true","true","false","false","[1]","100","111","1","","","","","","",""
"","","","","","image-keyboard-response","143","1358219","0.0-118.0","57210674951c9b0011d3eaaa","665500ab8938657b03fbdba8","665792aa94beed4f44ddd55c","927","stimuli/11001111.jpg"," ","","feedback_trial","1","","","","","","","","","","","","","","","","","","","","",""
"","","","","","image-keyboard-response","144","1359612","0.0-119.0","57210674951c9b0011d3eaaa","665500ab8938657b03fbdba8","665792aa94beed4f44ddd55c","1392","stimuli/1101100.jpg","1","","prediction_trial","1","","true","","1","true","true","true","true","true","true","[1]","101","100","1","","","","","","",""
"","","","","","image-keyboard-response","145","1360355","0.0-120.0","57210674951c9b0011d3eaaa","665500ab8938657b03fbdba8","665792aa94beed4f44ddd55c","741","stimuli/11011001.jpg"," ","","feedback_trial","1","","","","","","","","","","","","","","","","","","","","",""
"","","","","","image-keyboard-response","146","1361315","0.0-121.0","57210674951c9b0011d3eaaa","665500ab8938657b03fbdba8","665792aa94beed4f44ddd55c","958","stimuli/2110100.jpg","2","","prediction_trial","2","","true","","2","true","true","true","true","true","true","[2]","110","100","1","","","","","","",""
"","","","","","image-keyboard-response","147","1362107","0.0-122.0","57210674951c9b0011d3eaaa","665500ab8938657b03fbdba8","665792aa94beed4f44ddd55c","791","stimuli/21101002.jpg"," ","","feedback_trial","2","","","","","","","","","","","","","","","","","","","","",""
"","","","","","image-keyboard-response","148","1363700","0.0-123.0","57210674951c9b0011d3eaaa","665500ab8938657b03fbdba8","665792aa94beed4f44ddd55c","1591","stimuli/0111101.jpg","2","","prediction_trial","1","","false","","0","false","false","false","false","false","false","[0,1,2]","111","101","0","","","","","","",""
"","","","","","image-keyboard-response","149","1365187","0.0-124.0","57210674951c9b0011d3eaaa","665500ab8938657b03fbdba8","665792aa94beed4f44ddd55c","1486","stimuli/01111011.jpg"," ","","feedback_trial","0","","","","","","","","","","","","","","","","","","","","",""
"","","","","","image-keyboard-response","150","1366955","0.0-125.0","57210674951c9b0011d3eaaa","665500ab8938657b03fbdba8","665792aa94beed4f44ddd55c","1767","stimuli/0011110.jpg","0","","prediction_trial","0","","true","","0","false","false","true","true","false","false","[0]","011","110","1","","","","","","",""
"","","","","","image-keyboard-response","151","1367907","0.0-126.0","57210674951c9b0011d3eaaa","665500ab8938657b03fbdba8","665792aa94beed4f44ddd55c","950","stimuli/00111100.jpg"," ","","feedback_trial","0","","","","","","","","","","","","","","","","","","","","",""
"","","","","","image-keyboard-response","152","1369019","0.0-127.0","57210674951c9b0011d3eaaa","665500ab8938657b03fbdba8","665792aa94beed4f44ddd55c","1110","stimuli/1011011.jpg","1","","prediction_trial","2","","false","","1","false","false","false","false","false","false","[2,1]","011","011","0","","","","","","",""
"","","","","","image-keyboard-response","153","1369979","0.0-128.0","57210674951c9b0011d3eaaa","665500ab8938657b03fbdba8","665792aa94beed4f44ddd55c","959","stimuli/10110112.jpg"," ","","feedback_trial","2","","","","","","","","","","","","","","","","","","","","",""
"","","","","","image-keyboard-response","154","1371298","0.0-129.0","57210674951c9b0011d3eaaa","665500ab8938657b03fbdba8","665792aa94beed4f44ddd55c","1318","stimuli/2110001.jpg","2","","prediction_trial","2","","true","","2","false","true","true","true","false","true","[2]","110","001","1","","","","","","",""
"","","","","","image-keyboard-response","155","1372147","0.0-130.0","57210674951c9b0011d3eaaa","665500ab8938657b03fbdba8","665792aa94beed4f44ddd55c","847","stimuli/21100012.jpg"," ","","feedback_trial","2","","","","","","","","","","","","","","","","","","","","",""
"","","","","","image-keyboard-response","156","1373115","0.0-131.0","57210674951c9b0011d3eaaa","665500ab8938657b03fbdba8","665792aa94beed4f44ddd55c","966","stimuli/2000010.jpg","2","","prediction_trial","2","","true","","2","true","true","true","true","true","true","[2]","000","010","1","","","","","","",""
"","","","","","image-keyboard-response","157","1373811","0.0-132.0","57210674951c9b0011d3eaaa","665500ab8938657b03fbdba8","665792aa94beed4f44ddd55c","694","stimuli/20000102.jpg"," ","","feedback_trial","2","","","","","","","","","","","","","","","","","","","","",""
"","","","","","image-keyboard-response","158","1375570","0.0-133.0","57210674951c9b0011d3eaaa","665500ab8938657b03fbdba8","665792aa94beed4f44ddd55c","1757","stimuli/0000100.jpg","0","","prediction_trial","0","","true","","0","false","true","true","true","false","true","[0]","000","100","1","","","","","","",""
"","","","","","image-keyboard-response","159","1376227","0.0-134.0","57210674951c9b0011d3eaaa","665500ab8938657b03fbdba8","665792aa94beed4f44ddd55c","657","stimuli/00001000.jpg"," ","","feedback_trial","0","","","","","","","","","","","","","","","","","","","","",""
"","","","","","image-keyboard-response","160","1377923","0.0-135.0","57210674951c9b0011d3eaaa","665500ab8938657b03fbdba8","665792aa94beed4f44ddd55c","1694","stimuli/1010010.jpg","1","","prediction_trial","1","","true","","1","false","true","false","true","false","true","[1]","010","010","1","","","","","","",""
"","","","","","image-keyboard-response","161","1378433","0.0-136.0","57210674951c9b0011d3eaaa","665500ab8938657b03fbdba8","665792aa94beed4f44ddd55c","509","stimuli/10100101.jpg"," ","","feedback_trial","1","","","","","","","","","","","","","","","","","","","","",""
"","","","","","image-keyboard-response","162","1380211","0.0-137.0","57210674951c9b0011d3eaaa","665500ab8938657b03fbdba8","665792aa94beed4f44ddd55c","1776","stimuli/2011011.jpg","2","","prediction_trial","2","","true","","2","false","false","false","false","false","false","[2,1]","011","011","1","","","","","","",""
"","","","","","image-keyboard-response","163","1380955","0.0-138.0","57210674951c9b0011d3eaaa","665500ab8938657b03fbdba8","665792aa94beed4f44ddd55c","742","stimuli/20110112.jpg"," ","","feedback_trial","2","","","","","","","","","","","","","","","","","","","","",""
"","","","","","image-keyboard-response","164","1382154","0.0-139.0","57210674951c9b0011d3eaaa","665500ab8938657b03fbdba8","665792aa94beed4f44ddd55c","1199","stimuli/2111000.jpg","2","","prediction_trial","1","","false","","2","true","true","false","false","false","false","[1,0,2]","111","000","0","","","","","","",""
"","","","","","image-keyboard-response","165","1383411","0.0-140.0","57210674951c9b0011d3eaaa","665500ab8938657b03fbdba8","665792aa94beed4f44ddd55c","1255","stimuli/21110001.jpg"," ","","feedback_trial","1","","","","","","","","","","","","","","","","","","","","",""
"","","","","","image-keyboard-response","166","1384635","0.0-141.0","57210674951c9b0011d3eaaa","665500ab8938657b03fbdba8","665792aa94beed4f44ddd55c","1222","stimuli/2111001.jpg","2","","prediction_trial","2","","true","","2","false","true","false","false","false","false","[1,2,0]","111","001","1","","","","","","",""
"","","","","","image-keyboard-response","167","1385451","0.0-142.0","57210674951c9b0011d3eaaa","665500ab8938657b03fbdba8","665792aa94beed4f44ddd55c","815","stimuli/21110012.jpg"," ","","feedback_trial","1","","","","","","","","","","","","","","","","","","","","",""
"","","","","","image-keyboard-response","168","1386891","0.0-143.0","57210674951c9b0011d3eaaa","665500ab8938657b03fbdba8","665792aa94beed4f44ddd55c","1439","stimuli/2010111.jpg","0","","prediction_trial","2","","false","","2","false","false","true","true","false","false","[2]","010","111","0","","","","","","",""
"","","","","","image-keyboard-response","169","1387923","0.0-144.0","57210674951c9b0011d3eaaa","665500ab8938657b03fbdba8","665792aa94beed4f44ddd55c","1030","stimuli/20101112.jpg"," ","","feedback_trial","2","","","","","","","","","","","","","","","","","","","","",""
"","","","","","image-keyboard-response","170","1389131","0.0-145.0","57210674951c9b0011d3eaaa","665500ab8938657b03fbdba8","665792aa94beed4f44ddd55c","1206","stimuli/2010110.jpg","2","","prediction_trial","2","","true","","2","true","true","true","true","true","true","[2]","010","110","1","","","","","","",""
"","","","","","image-keyboard-response","171","1389811","0.0-146.0","57210674951c9b0011d3eaaa","665500ab8938657b03fbdba8","665792aa94beed4f44ddd55c","678","stimuli/20101102.jpg"," ","","feedback_trial","2","","","","","","","","","","","","","","","","","","","","",""
"","","","","","image-keyboard-response","172","1391138","0.0-147.0","57210674951c9b0011d3eaaa","665500ab8938657b03fbdba8","665792aa94beed4f44ddd55c","1326","stimuli/1101001.jpg","1","","prediction_trial","1","","true","","1","true","true","true","true","true","true","[1]","101","001","1","","","","","","",""
"","","","","","image-keyboard-response","173","1391795","0.0-148.0","57210674951c9b0011d3eaaa","665500ab8938657b03fbdba8","665792aa94beed4f44ddd55c","655","stimuli/11010011.jpg"," ","","feedback_trial","1","","","","","","","","","","","","","","","","","","","","",""
"","","","","","image-keyboard-response","174","1392714","0.0-149.0","57210674951c9b0011d3eaaa","665500ab8938657b03fbdba8","665792aa94beed4f44ddd55c","918","stimuli/2100000.jpg","2","","prediction_trial","2","","true","","2","true","true","true","true","true","true","[2]","100","000","1","","","","","","",""
"","","","","","image-keyboard-response","175","1393339","0.0-150.0","57210674951c9b0011d3eaaa","665500ab8938657b03fbdba8","665792aa94beed4f44ddd55c","622","stimuli/21000002.jpg"," ","","feedback_trial","2","","","","","","","","","","","","","","","","","","","","",""
"","","","","","image-keyboard-response","176","1394971","0.0-151.0","57210674951c9b0011d3eaaa","665500ab8938657b03fbdba8","665792aa94beed4f44ddd55c","1630","stimuli/1001011.jpg","1","","prediction_trial","1","","true","","1","false","false","true","true","false","false","[1]","001","011","1","","","","","","",""
"","","","","","image-keyboard-response","177","1395707","0.0-152.0","57210674951c9b0011d3eaaa","665500ab8938657b03fbdba8","665792aa94beed4f44ddd55c","734","stimuli/10010111.jpg"," ","","feedback_trial","1","","","","","","","","","","","","","","","","","","","","",""
"","","","","","image-keyboard-response","178","1396706","0.0-153.0","57210674951c9b0011d3eaaa","665500ab8938657b03fbdba8","665792aa94beed4f44ddd55c","998","stimuli/1101101.jpg","1","","prediction_trial","1","","true","","1","true","true","true","true","true","true","[1]","101","101","1","","","","","","",""
"","","","","","image-keyboard-response","179","1397275","0.0-154.0","57210674951c9b0011d3eaaa","665500ab8938657b03fbdba8","665792aa94beed4f44ddd55c","567","stimuli/11011011.jpg"," ","","feedback_trial","1","","","","","","","","","","","","","","","","","","","","",""
"","","","","","image-keyboard-response","180","1398162","0.0-155.0","57210674951c9b0011d3eaaa","665500ab8938657b03fbdba8","665792aa94beed4f44ddd55c","886","stimuli/0001000.jpg","0","","prediction_trial","0","","true","","0","true","true","true","true","true","true","[0]","001","000","1","","","","","","",""
"","","","","","image-keyboard-response","181","1398779","0.0-156.0","57210674951c9b0011d3eaaa","665500ab8938657b03fbdba8","665792aa94beed4f44ddd55c","615","stimuli/00010000.jpg"," ","","feedback_trial","0","","","","","","","","","","","","","","","","","","","","",""
"","","","","","image-keyboard-response","182","1400691","0.0-157.0","57210674951c9b0011d3eaaa","665500ab8938657b03fbdba8","665792aa94beed4f44ddd55c","1910","stimuli/1110000.jpg","1","","prediction_trial","1","","true","","1","true","true","false","false","false","false","[1,0]","110","000","1","","","","","","",""
"","","","","","image-keyboard-response","183","1401321","0.0-158.0","57210674951c9b0011d3eaaa","665500ab8938657b03fbdba8","665792aa94beed4f44ddd55c","623","stimuli/11100001.jpg"," ","","feedback_trial","1","","","","","","","","","","","","","","","","","","","","",""
"","","","","","image-keyboard-response","184","1403520","0.0-159.0","57210674951c9b0011d3eaaa","665500ab8938657b03fbdba8","665792aa94beed4f44ddd55c","2198","stimuli/2000101.jpg","2","","prediction_trial","2","","true","","2","false","false","true","true","false","false","[2]","000","101","1","","","","","","",""
"","","","","","image-keyboard-response","185","1404304","0.0-160.0","57210674951c9b0011d3eaaa","665500ab8938657b03fbdba8","665792aa94beed4f44ddd55c","783","stimuli/20001012.jpg"," ","","feedback_trial","2","","","","","","","","","","","","","","","","","","","","",""
"","","","","","image-keyboard-response","186","1405312","0.0-161.0","57210674951c9b0011d3eaaa","665500ab8938657b03fbdba8","665792aa94beed4f44ddd55c","1006","stimuli/1000001.jpg","1","","prediction_trial","1","","true","","1","true","true","true","true","true","true","[1]","000","001","1","","","","","","",""
"","","","","","image-keyboard-response","187","1406209","0.0-162.0","57210674951c9b0011d3eaaa","665500ab8938657b03fbdba8","665792aa94beed4f44ddd55c","895","stimuli/10000011.jpg"," ","","feedback_trial","1","","","","","","","","","","","","","","","","","","","","",""
"","","","","","image-keyboard-response","188","1407288","0.0-163.0","57210674951c9b0011d3eaaa","665500ab8938657b03fbdba8","665792aa94beed4f44ddd55c","1078","stimuli/0011101.jpg","0","","prediction_trial","0","","true","","0","false","false","true","true","false","false","[0]","011","101","1","","","","","","",""
"","","","","","image-keyboard-response","189","1408096","0.0-164.0","57210674951c9b0011d3eaaa","665500ab8938657b03fbdba8","665792aa94beed4f44ddd55c","807","stimuli/00111010.jpg"," ","","feedback_trial","0","","","","","","","","","","","","","","","","","","","","",""
"","","","","","image-keyboard-response","190","1409632","0.0-165.0","57210674951c9b0011d3eaaa","665500ab8938657b03fbdba8","665792aa94beed4f44ddd55c","1534","stimuli/1101010.jpg","1","","prediction_trial","1","","true","","1","false","true","true","true","false","true","[1]","101","010","1","","","","","","",""
"","","","","","image-keyboard-response","191","1410392","0.0-166.0","57210674951c9b0011d3eaaa","665500ab8938657b03fbdba8","665792aa94beed4f44ddd55c","759","stimuli/11010101.jpg"," ","","feedback_trial","1","","","","","","","","","","","","","","","","","","","","",""
"","","","","","image-keyboard-response","192","1411785","0.0-167.0","57210674951c9b0011d3eaaa","665500ab8938657b03fbdba8","665792aa94beed4f44ddd55c","1390","stimuli/1000111.jpg","1","","prediction_trial","1","","true","","1","false","false","true","true","false","false","[1]","000","111","1","","","","","","",""
"","","","","","image-keyboard-response","193","1412576","0.0-168.0","57210674951c9b0011d3eaaa","665500ab8938657b03fbdba8","665792aa94beed4f44ddd55c","790","stimuli/10001111.jpg"," ","","feedback_trial","1","","","","","","","","","","","","","","","","","","","","",""
"","","","","","image-keyboard-response","194","1413320","0.0-169.0","57210674951c9b0011d3eaaa","665500ab8938657b03fbdba8","665792aa94beed4f44ddd55c","742","stimuli/2000111.jpg","2","","prediction_trial","2","","true","","2","false","false","true","true","false","false","[2]","000","111","1","","","","","","",""
"","","","","","image-keyboard-response","195","1414240","0.0-170.0","57210674951c9b0011d3eaaa","665500ab8938657b03fbdba8","665792aa94beed4f44ddd55c","919","stimuli/20001112.jpg"," ","","feedback_trial","2","","","","","","","","","","","","","","","","","","","","",""
"","","","","","image-keyboard-response","196","1416287","0.0-171.0","57210674951c9b0011d3eaaa","665500ab8938657b03fbdba8","665792aa94beed4f44ddd55c","2045","stimuli/2011110.jpg","2","","prediction_trial","1","","false","","2","true","true","false","false","false","false","[1,2]","011","110","0","","","","","","",""
"","","","","","image-keyboard-response","197","1417304","0.0-172.0","57210674951c9b0011d3eaaa","665500ab8938657b03fbdba8","665792aa94beed4f44ddd55c","1017","stimuli/20111101.jpg"," ","","feedback_trial","1","","","","","","","","","","","","","","","","","","","","",""
"","","","","","image-keyboard-response","198","1418544","0.0-173.0","57210674951c9b0011d3eaaa","665500ab8938657b03fbdba8","665792aa94beed4f44ddd55c","1238","stimuli/0100011.jpg","0","","prediction_trial","0","","true","","0","true","true","false","true","false","true","[0]","100","011","1","","","","","","",""
"","","","","","image-keyboard-response","199","1419441","0.0-174.0","57210674951c9b0011d3eaaa","665500ab8938657b03fbdba8","665792aa94beed4f44ddd55c","895","stimuli/01000110.jpg"," ","","feedback_trial","0","","","","","","","","","","","","","","","","","","","","",""
"","","","","","image-keyboard-response","200","1420952","0.0-175.0","57210674951c9b0011d3eaaa","665500ab8938657b03fbdba8","665792aa94beed4f44ddd55c","1510","stimuli/0110111.jpg","2","","prediction_trial","1","","false","","0","false","false","false","false","false","false","[1,0]","110","111","0","","","","","","",""
"","","","","","image-keyboard-response","201","1422193","0.0-176.0","57210674951c9b0011d3eaaa","665500ab8938657b03fbdba8","665792aa94beed4f44ddd55c","1239","stimuli/01101111.jpg"," ","","feedback_trial","1","","","","","","","","","","","","","","","","","","","","",""
"","","","","","image-keyboard-response","202","1423384","0.0-177.0","57210674951c9b0011d3eaaa","665500ab8938657b03fbdba8","665792aa94beed4f44ddd55c","1190","stimuli/1111101.jpg","1","","prediction_trial","2","","false","","1","true","true","false","false","false","false","[2,0,1]","111","101","0","","","","","","",""
"","","","","","image-keyboard-response","203","1424656","0.0-178.0","57210674951c9b0011d3eaaa","665500ab8938657b03fbdba8","665792aa94beed4f44ddd55c","1271","stimuli/11111012.jpg"," ","","feedback_trial","2","","","","","","","","","","","","","","","","","","","","",""
"","","","","","image-keyboard-response","204","1426088","0.0-179.0","57210674951c9b0011d3eaaa","665500ab8938657b03fbdba8","665792aa94beed4f44ddd55c","1430","stimuli/0000001.jpg","0","","prediction_trial","0","","true","","0","true","true","true","true","true","true","[0]","000","001","1","","","","","","",""
"","","","","","image-keyboard-response","205","1426824","0.0-180.0","57210674951c9b0011d3eaaa","665500ab8938657b03fbdba8","665792aa94beed4f44ddd55c","734","stimuli/00000010.jpg"," ","","feedback_trial","0","","","","","","","","","","","","","","","","","","","","",""
"","","","","","image-keyboard-response","206","1428912","0.0-181.0","57210674951c9b0011d3eaaa","665500ab8938657b03fbdba8","665792aa94beed4f44ddd55c","2086","stimuli/1111010.jpg","1","","prediction_trial","0","","false","","1","false","true","false","false","false","false","[2,1,0]","111","010","0","","","","","","",""
"","","","","","image-keyboard-response","207","1429840","0.0-182.0","57210674951c9b0011d3eaaa","665500ab8938657b03fbdba8","665792aa94beed4f44ddd55c","927","stimuli/11110100.jpg"," ","","feedback_trial","2","","","","","","","","","","","","","","","","","","","","",""
"","","","","","image-keyboard-response","208","1433185","0.0-183.0","57210674951c9b0011d3eaaa","665500ab8938657b03fbdba8","665792aa94beed4f44ddd55c","3343","stimuli/0101100.jpg","2","","prediction_trial","0","","false","","0","false","true","false","false","false","false","[0,2]","101","100","0","","","","","","",""
"","","","","","image-keyboard-response","209","1434432","0.0-184.0","57210674951c9b0011d3eaaa","665500ab8938657b03fbdba8","665792aa94beed4f44ddd55c","1246","stimuli/01011000.jpg"," ","","feedback_trial","0","","","","","","","","","","","","","","","","","","","","",""
"","","","","","image-keyboard-response","210","1436495","0.0-185.0","57210674951c9b0011d3eaaa","665500ab8938657b03fbdba8","665792aa94beed4f44ddd55c","2061","stimuli/0000111.jpg","1","","prediction_trial","0","","false","","0","false","false","true","true","false","false","[0]","000","111","0","","","","","","",""
"","","","","","image-keyboard-response","211","1437464","0.0-186.0","57210674951c9b0011d3eaaa","665500ab8938657b03fbdba8","665792aa94beed4f44ddd55c","968","stimuli/00001110.jpg"," ","","feedback_trial","0","","","","","","","","","","","","","","","","","","","","",""
"","","","","","image-keyboard-response","212","1438992","0.0-187.0","57210674951c9b0011d3eaaa","665500ab8938657b03fbdba8","665792aa94beed4f44ddd55c","1526","stimuli/1010111.jpg","2","","prediction_trial","1","","false","","1","false","false","false","true","false","false","[1]","010","111","0","","","","","","",""
"","","","","","image-keyboard-response","213","1439776","0.0-188.0","57210674951c9b0011d3eaaa","665500ab8938657b03fbdba8","665792aa94beed4f44ddd55c","783","stimuli/10101111.jpg"," ","","feedback_trial","1","","","","","","","","","","","","","","","","","","","","",""
"","","","","","image-keyboard-response","214","1441848","0.0-189.0","57210674951c9b0011d3eaaa","665500ab8938657b03fbdba8","665792aa94beed4f44ddd55c","2070","stimuli/0000000.jpg","0","","prediction_trial","0","","true","","0","true","true","true","true","true","true","[0]","000","000","1","","","","","","",""
"","","","","","image-keyboard-response","215","1442960","0.0-190.0","57210674951c9b0011d3eaaa","665500ab8938657b03fbdba8","665792aa94beed4f44ddd55c","1111","stimuli/00000000.jpg"," ","","feedback_trial","0","","","","","","","","","","","","","","","","","","","","",""
"","","","","","image-keyboard-response","216","1444281","0.0-191.0","57210674951c9b0011d3eaaa","665500ab8938657b03fbdba8","665792aa94beed4f44ddd55c","1319","stimuli/1110111.jpg","2","","prediction_trial","1","","false","","1","false","false","false","false","false","false","[1,0]","110","111","0","","","","","","",""
"","","","","","image-keyboard-response","217","1445136","0.0-192.0","57210674951c9b0011d3eaaa","665500ab8938657b03fbdba8","665792aa94beed4f44ddd55c","854","stimuli/11101111.jpg"," ","","feedback_trial","1","","","","","","","","","","","","","","","","","","","","",""
"","","","","","image-keyboard-response","218","1446287","0.0-193.0","57210674951c9b0011d3eaaa","665500ab8938657b03fbdba8","665792aa94beed4f44ddd55c","1149","stimuli/2010101.jpg","2","","prediction_trial","2","","true","","2","false","false","true","true","false","false","[2]","010","101","1","","","","","","",""
"","","","","","image-keyboard-response","219","1447074","0.0-194.0","57210674951c9b0011d3eaaa","665500ab8938657b03fbdba8","665792aa94beed4f44ddd55c","786","stimuli/20101012.jpg"," ","","feedback_trial","2","","","","","","","","","","","","","","","","","","","","",""
"","","","","","image-keyboard-response","220","1449137","0.0-195.0","57210674951c9b0011d3eaaa","665500ab8938657b03fbdba8","665792aa94beed4f44ddd55c","2061","stimuli/2101101.jpg","0","","prediction_trial","0","","true","","2","false","false","false","false","false","false","[2,0]","101","101","1","","","","","","",""
"","","","","","image-keyboard-response","221","1449849","0.0-196.0","57210674951c9b0011d3eaaa","665500ab8938657b03fbdba8","665792aa94beed4f44ddd55c","711","stimuli/21011010.jpg"," ","","feedback_trial","2","","","","","","","","","","","","","","","","","","","","",""
"","","","","","image-keyboard-response","222","1451264","0.0-197.0","57210674951c9b0011d3eaaa","665500ab8938657b03fbdba8","665792aa94beed4f44ddd55c","1413","stimuli/1000100.jpg","1","","prediction_trial","1","","true","","1","true","true","true","true","true","true","[1]","000","100","1","","","","","","",""
"","","","","","image-keyboard-response","223","1451928","0.0-198.0","57210674951c9b0011d3eaaa","665500ab8938657b03fbdba8","665792aa94beed4f44ddd55c","663","stimuli/10001001.jpg"," ","","feedback_trial","1","","","","","","","","","","","","","","","","","","","","",""
"","","","","","image-keyboard-response","224","1453000","0.0-199.0","57210674951c9b0011d3eaaa","665500ab8938657b03fbdba8","665792aa94beed4f44ddd55c","1070","stimuli/2111100.jpg","2","","prediction_trial","2","","true","","2","true","true","false","false","false","false","[2,1,0]","111","100","1","","","","","","",""
"","","","","","image-keyboard-response","225","1454128","0.0-200.0","57210674951c9b0011d3eaaa","665500ab8938657b03fbdba8","665792aa94beed4f44ddd55c","1127","stimuli/21111002.jpg"," ","","feedback_trial","2","","","","","","","","","","","","","","","","","","","","",""
"","","","","","image-keyboard-response","226","1455208","0.0-201.0","57210674951c9b0011d3eaaa","665500ab8938657b03fbdba8","665792aa94beed4f44ddd55c","1078","stimuli/2010010.jpg","2","","prediction_trial","2","","true","","2","true","true","true","true","true","true","[2]","010","010","1","","","","","","",""
"","","","","","image-keyboard-response","227","1455968","0.0-202.0","57210674951c9b0011d3eaaa","665500ab8938657b03fbdba8","665792aa94beed4f44ddd55c","759","stimuli/20100102.jpg"," ","","feedback_trial","2","","","","","","","","","","","","","","","","","","","","",""
"","","","","","image-keyboard-response","228","1458432","0.0-203.0","57210674951c9b0011d3eaaa","665500ab8938657b03fbdba8","665792aa94beed4f44ddd55c","2462","stimuli/2001101.jpg","0","","prediction_trial","2","","false","","2","false","false","false","true","false","false","[2]","001","101","0","","","","","","",""
"","","","","","image-keyboard-response","229","1459512","0.0-204.0","57210674951c9b0011d3eaaa","665500ab8938657b03fbdba8","665792aa94beed4f44ddd55c","1079","stimuli/20011012.jpg"," ","","feedback_trial","2","","","","","","","","","","","","","","","","","","","","",""
"","","","","","image-keyboard-response","230","1460520","0.0-205.0","57210674951c9b0011d3eaaa","665500ab8938657b03fbdba8","665792aa94beed4f44ddd55c","1006","stimuli/1101000.jpg","1","","prediction_trial","1","","true","","1","true","true","true","true","true","true","[1]","101","000","1","","","","","","",""
"","","","","","image-keyboard-response","231","1461120","0.0-206.0","57210674951c9b0011d3eaaa","665500ab8938657b03fbdba8","665792aa94beed4f44ddd55c","599","stimuli/11010001.jpg"," ","","feedback_trial","1","","","","","","","","","","","","","","","","","","","","",""
"","","","","","image-keyboard-response","232","1461989","0.0-207.0","57210674951c9b0011d3eaaa","665500ab8938657b03fbdba8","665792aa94beed4f44ddd55c","870","stimuli/1110101.jpg","1","","prediction_trial","1","","true","","1","true","true","false","false","false","false","[0,1]","110","101","1","","","","","","",""
"","","","","","image-keyboard-response","233","1462597","0.0-208.0","57210674951c9b0011d3eaaa","665500ab8938657b03fbdba8","665792aa94beed4f44ddd55c","607","stimuli/11101011.jpg"," ","","feedback_trial","0","","","","","","","","","","","","","","","","","","","","",""
"","","","","","image-keyboard-response","234","1463957","0.0-209.0","57210674951c9b0011d3eaaa","665500ab8938657b03fbdba8","665792aa94beed4f44ddd55c","1358","stimuli/0101111.jpg","0","","prediction_trial","0","","true","","0","false","false","false","false","false","false","[2,0]","101","111","1","","","","","","",""
"","","","","","image-keyboard-response","235","1464677","0.0-210.0","57210674951c9b0011d3eaaa","665500ab8938657b03fbdba8","665792aa94beed4f44ddd55c","719","stimuli/01011110.jpg"," ","","feedback_trial","2","","","","","","","","","","","","","","","","","","","","",""
"","","","","","image-keyboard-response","236","1466390","0.0-211.0","57210674951c9b0011d3eaaa","665500ab8938657b03fbdba8","665792aa94beed4f44ddd55c","1710","stimuli/1001101.jpg","1","","prediction_trial","1","","true","","1","true","true","true","true","true","true","[1]","001","101","1","","","","","","",""
"","","","","","image-keyboard-response","237","1467581","0.0-212.0","57210674951c9b0011d3eaaa","665500ab8938657b03fbdba8","665792aa94beed4f44ddd55c","1190","stimuli/10011011.jpg"," ","","feedback_trial","1","","","","","","","","","","","","","","","","","","","","",""
"","","","","","image-keyboard-response","238","1470125","0.0-213.0","57210674951c9b0011d3eaaa","665500ab8938657b03fbdba8","665792aa94beed4f44ddd55c","2542","stimuli/1011110.jpg","0","","prediction_trial","2","","false","","1","false","false","false","false","false","false","[2,1]","011","110","0","","","","","","",""
"","","","","","image-keyboard-response","239","1471157","0.0-214.0","57210674951c9b0011d3eaaa","665500ab8938657b03fbdba8","665792aa94beed4f44ddd55c","1031","stimuli/10111102.jpg"," ","","feedback_trial","2","","","","","","","","","","","","","","","","","","","","",""
"","","","","","image-keyboard-response","240","1472237","0.0-215.0","57210674951c9b0011d3eaaa","665500ab8938657b03fbdba8","665792aa94beed4f44ddd55c","1078","stimuli/1011111.jpg","2","","prediction_trial","2","","true","","1","false","false","false","false","false","false","[1,2]","011","111","1","","","","","","",""
"","","","","","image-keyboard-response","241","1473318","0.0-216.0","57210674951c9b0011d3eaaa","665500ab8938657b03fbdba8","665792aa94beed4f44ddd55c","1079","stimuli/10111112.jpg"," ","","feedback_trial","1","","","","","","","","","","","","","","","","","","","","",""
"","","","","","image-keyboard-response","242","1474774","0.0-217.0","57210674951c9b0011d3eaaa","665500ab8938657b03fbdba8","665792aa94beed4f44ddd55c","1454","stimuli/0010111.jpg","1","","prediction_trial","0","","false","","0","false","false","true","true","false","false","[0]","010","111","0","","","","","","",""
"","","","","","image-keyboard-response","243","1475829","0.0-218.0","57210674951c9b0011d3eaaa","665500ab8938657b03fbdba8","665792aa94beed4f44ddd55c","1055","stimuli/00101110.jpg"," ","","feedback_trial","0","","","","","","","","","","","","","","","","","","","","",""
"","","","","","image-keyboard-response","244","1476710","0.0-219.0","57210674951c9b0011d3eaaa","665500ab8938657b03fbdba8","665792aa94beed4f44ddd55c","879","stimuli/1100100.jpg","1","","prediction_trial","1","","true","","1","true","true","true","true","true","true","[1]","100","100","1","","","","","","",""
"","","","","","image-keyboard-response","245","1477367","0.0-220.0","57210674951c9b0011d3eaaa","665500ab8938657b03fbdba8","665792aa94beed4f44ddd55c","656","stimuli/11001001.jpg"," ","","feedback_trial","1","","","","","","","","","","","","","","","","","","","","",""
"","","","","","image-keyboard-response","246","1478773","0.0-221.0","57210674951c9b0011d3eaaa","665500ab8938657b03fbdba8","665792aa94beed4f44ddd55c","1405","stimuli/0111011.jpg","0","","prediction_trial","2","","false","","0","true","true","false","false","false","false","[2,0,1]","111","011","0","","","","","","",""
"","","","","","image-keyboard-response","247","1479893","0.0-222.0","57210674951c9b0011d3eaaa","665500ab8938657b03fbdba8","665792aa94beed4f44ddd55c","1119","stimuli/01110112.jpg"," ","","feedback_trial","2","","","","","","","","","","","","","","","","","","","","",""
"","","","","","image-keyboard-response","248","1482197","0.0-223.0","57210674951c9b0011d3eaaa","665500ab8938657b03fbdba8","665792aa94beed4f44ddd55c","2302","stimuli/2001001.jpg","2","","prediction_trial","2","","true","","2","false","true","false","true","false","true","[2]","001","001","1","","","","","","",""
"","","","","","image-keyboard-response","249","1483069","0.0-224.0","57210674951c9b0011d3eaaa","665500ab8938657b03fbdba8","665792aa94beed4f44ddd55c","871","stimuli/20010012.jpg"," ","","feedback_trial","2","","","","","","","","","","","","","","","","","","","","",""
"","","","","","image-keyboard-response","250","1484501","0.0-225.0","57210674951c9b0011d3eaaa","665500ab8938657b03fbdba8","665792aa94beed4f44ddd55c","1430","stimuli/0010010.jpg","0","","prediction_trial","0","","true","","0","true","true","true","true","true","true","[0]","010","010","1","","","","","","",""
"","","","","","image-keyboard-response","251","1485205","0.0-226.0","57210674951c9b0011d3eaaa","665500ab8938657b03fbdba8","665792aa94beed4f44ddd55c","703","stimuli/00100100.jpg"," ","","feedback_trial","0","","","","","","","","","","","","","","","","","","","","",""
"","","","","","image-keyboard-response","252","1487062","0.0-227.0","57210674951c9b0011d3eaaa","665500ab8938657b03fbdba8","665792aa94beed4f44ddd55c","1854","stimuli/0101001.jpg","0","","prediction_trial","2","","false","","0","true","true","false","false","false","false","[2,0]","101","001","0","","","","","","",""
"","","","","","image-keyboard-response","253","1487909","0.0-228.0","57210674951c9b0011d3eaaa","665500ab8938657b03fbdba8","665792aa94beed4f44ddd55c","846","stimuli/01010012.jpg"," ","","feedback_trial","2","","","","","","","","","","","","","","","","","","","","",""
"","","","","","image-keyboard-response","254","1489685","0.0-229.0","57210674951c9b0011d3eaaa","665500ab8938657b03fbdba8","665792aa94beed4f44ddd55c","1774","stimuli/2011001.jpg","0","","prediction_trial","1","","false","","2","false","true","false","false","false","false","[2,1]","011","001","0","","","","","","",""
"","","","","","image-keyboard-response","255","1491365","0.0-230.0","57210674951c9b0011d3eaaa","665500ab8938657b03fbdba8","665792aa94beed4f44ddd55c","1679","stimuli/20110011.jpg"," ","","feedback_trial","2","","","","","","","","","","","","","","","","","","","","",""
"","","","","","image-keyboard-response","256","1493117","0.0-231.0","57210674951c9b0011d3eaaa","665500ab8938657b03fbdba8","665792aa94beed4f44ddd55c","1750","stimuli/2101011.jpg","1","","prediction_trial","2","","false","","2","false","false","false","false","false","false","[2,0]","101","011","0","","","","","","",""
"","","","","","image-keyboard-response","257","1494109","0.0-232.0","57210674951c9b0011d3eaaa","665500ab8938657b03fbdba8","665792aa94beed4f44ddd55c","991","stimuli/21010112.jpg"," ","","feedback_trial","2","","","","","","","","","","","","","","","","","","","","",""
"","","","","","image-keyboard-response","258","1495757","0.0-233.0","57210674951c9b0011d3eaaa","665500ab8938657b03fbdba8","665792aa94beed4f44ddd55c","1646","stimuli/1110011.jpg","2","","prediction_trial","0","","false","","1","false","false","false","false","false","false","[0,1]","110","011","0","","","","","","",""
"","","","","","image-keyboard-response","259","1496877","0.0-234.0","57210674951c9b0011d3eaaa","665500ab8938657b03fbdba8","665792aa94beed4f44ddd55c","1118","stimuli/11100110.jpg"," ","","feedback_trial","0","","","","","","","","","","","","","","","","","","","","",""
"","","","","","image-keyboard-response","260","1497966","0.0-235.0","57210674951c9b0011d3eaaa","665500ab8938657b03fbdba8","665792aa94beed4f44ddd55c","1086","stimuli/0010011.jpg","0","","prediction_trial","0","","true","","0","true","true","true","true","true","true","[0]","010","011","1","","","","","","",""
"","","","","","image-keyboard-response","261","1498821","0.0-236.0","57210674951c9b0011d3eaaa","665500ab8938657b03fbdba8","665792aa94beed4f44ddd55c","854","stimuli/00100110.jpg"," ","","feedback_trial","0","","","","","","","","","","","","","","","","","","","","",""
"","","","","","image-keyboard-response","262","1500757","0.0-237.0","57210674951c9b0011d3eaaa","665500ab8938657b03fbdba8","665792aa94beed4f44ddd55c","1934","stimuli/0010110.jpg","1","","prediction_trial","0","","false","","0","false","false","true","true","false","false","[0]","010","110","0","","","","","","",""
"","","","","","image-keyboard-response","263","1502429","0.0-238.0","57210674951c9b0011d3eaaa","665500ab8938657b03fbdba8","665792aa94beed4f44ddd55c","1670","stimuli/00101100.jpg"," ","","feedback_trial","0","","","","","","","","","","","","","","","","","","","","",""
"","","","","","image-keyboard-response","264","1503493","0.0-239.0","57210674951c9b0011d3eaaa","665500ab8938657b03fbdba8","665792aa94beed4f44ddd55c","1062","stimuli/0111111.jpg","1","","prediction_trial","2","","false","","0","false","false","false","false","false","false","[1,0,2]","111","111","0","","","","","","",""
"","","","","","image-keyboard-response","265","1504413","0.0-240.0","57210674951c9b0011d3eaaa","665500ab8938657b03fbdba8","665792aa94beed4f44ddd55c","918","stimuli/01111112.jpg"," ","","feedback_trial","1","","","","","","","","","","","","","","","","","","","","",""
"","","","","","image-keyboard-response","266","1505989","0.0-241.0","57210674951c9b0011d3eaaa","665500ab8938657b03fbdba8","665792aa94beed4f44ddd55c","1575","stimuli/0110100.jpg","0","","prediction_trial","0","","true","","0","false","true","false","false","false","false","[1,0]","110","100","1","","","","","","",""
"","","","","","image-keyboard-response","267","1506861","0.0-242.0","57210674951c9b0011d3eaaa","665500ab8938657b03fbdba8","665792aa94beed4f44ddd55c","871","stimuli/01101000.jpg"," ","","feedback_trial","1","","","","","","","","","","","","","","","","","","","","",""
"","","","","","image-keyboard-response","268","1507901","0.0-243.0","57210674951c9b0011d3eaaa","665500ab8938657b03fbdba8","665792aa94beed4f44ddd55c","1038","stimuli/0010100.jpg","0","","prediction_trial","0","","true","","0","false","true","true","true","false","true","[0]","010","100","1","","","","","","",""
"","","","","","image-keyboard-response","269","1508710","0.0-244.0","57210674951c9b0011d3eaaa","665500ab8938657b03fbdba8","665792aa94beed4f44ddd55c","807","stimuli/00101000.jpg"," ","","feedback_trial","0","","","","","","","","","","","","","","","","","","","","",""
"","","","","","image-keyboard-response","270","1509837","0.0-245.0","57210674951c9b0011d3eaaa","665500ab8938657b03fbdba8","665792aa94beed4f44ddd55c","1126","stimuli/0100001.jpg","0","","prediction_trial","0","","true","","0","true","true","false","true","false","true","[0]","100","001","1","","","","","","",""
"","","","","","image-keyboard-response","271","1510565","0.0-246.0","57210674951c9b0011d3eaaa","665500ab8938657b03fbdba8","665792aa94beed4f44ddd55c","726","stimuli/01000010.jpg"," ","","feedback_trial","0","","","","","","","","","","","","","","","","","","","","",""
"","","","","","image-keyboard-response","272","1511532","0.0-247.0","57210674951c9b0011d3eaaa","665500ab8938657b03fbdba8","665792aa94beed4f44ddd55c","965","stimuli/2001100.jpg","2","","prediction_trial","2","","true","","2","true","true","false","true","false","true","[2]","001","100","1","","","","","","",""
"","","","","","image-keyboard-response","273","1512821","0.0-248.0","57210674951c9b0011d3eaaa","665500ab8938657b03fbdba8","665792aa94beed4f44ddd55c","1288","stimuli/20011002.jpg"," ","","feedback_trial","2","","","","","","","","","","","","","","","","","","","","",""
"","","","","","image-keyboard-response","274","1514005","0.0-249.0","57210674951c9b0011d3eaaa","665500ab8938657b03fbdba8","665792aa94beed4f44ddd55c","1182","stimuli/2011111.jpg","2","","prediction_trial","1","","false","","2","false","false","false","false","false","false","[2,1]","011","111","0","","","","","","",""
"","","","","","image-keyboard-response","275","1514853","0.0-250.0","57210674951c9b0011d3eaaa","665500ab8938657b03fbdba8","665792aa94beed4f44ddd55c","846","stimuli/20111111.jpg"," ","","feedback_trial","2","","","","","","","","","","","","","","","","","","","","",""
"","","","","","image-keyboard-response","276","1516445","0.0-251.0","57210674951c9b0011d3eaaa","665500ab8938657b03fbdba8","665792aa94beed4f44ddd55c","1590","stimuli/1011010.jpg","1","","prediction_trial","2","","false","","1","false","true","false","false","false","false","[1,2]","011","010","0","","","","","","",""
"","","","","","image-keyboard-response","277","1517749","0.0-252.0","57210674951c9b0011d3eaaa","665500ab8938657b03fbdba8","665792aa94beed4f44ddd55c","1303","stimuli/10110102.jpg"," ","","feedback_trial","1","","","","","","","","","","","","","","","","","","","","",""
"","","","","","image-keyboard-response","278","1518855","0.0-253.0","57210674951c9b0011d3eaaa","665500ab8938657b03fbdba8","665792aa94beed4f44ddd55c","1103","stimuli/1100001.jpg","1","","prediction_trial","1","","true","","1","true","true","true","true","true","true","[1]","100","001","1","","","","","","",""
"","","","","","image-keyboard-response","279","1519437","0.0-254.0","57210674951c9b0011d3eaaa","665500ab8938657b03fbdba8","665792aa94beed4f44ddd55c","581","stimuli/11000011.jpg"," ","","feedback_trial","1","","","","","","","","","","","","","","","","","","","","",""
"","","","","","image-keyboard-response","280","1521053","0.0-255.0","57210674951c9b0011d3eaaa","665500ab8938657b03fbdba8","665792aa94beed4f44ddd55c","1614","stimuli/0010101.jpg","2","","prediction_trial","0","","false","","0","false","false","true","true","false","false","[0]","010","101","0","","","","","","",""
"","","","","","image-keyboard-response","281","1522005","0.0-256.0","57210674951c9b0011d3eaaa","665500ab8938657b03fbdba8","665792aa94beed4f44ddd55c","951","stimuli/00101010.jpg"," ","","feedback_trial","0","","","","","","","","","","","","","","","","","","","","",""
"","","","","","image-keyboard-response","282","1524038","0.0-257.0","57210674951c9b0011d3eaaa","665500ab8938657b03fbdba8","665792aa94beed4f44ddd55c","2032","stimuli/0111100.jpg","0","","prediction_trial","2","","false","","0","false","true","false","false","false","false","[2,1,0]","111","100","0","","","","","","",""
"","","","","","image-keyboard-response","283","1525012","0.0-258.0","57210674951c9b0011d3eaaa","665500ab8938657b03fbdba8","665792aa94beed4f44ddd55c","973","stimuli/01111002.jpg"," ","","feedback_trial","2","","","","","","","","","","","","","","","","","","","","",""
"","","","","","image-keyboard-response","284","1526444","0.0-259.0","57210674951c9b0011d3eaaa","665500ab8938657b03fbdba8","665792aa94beed4f44ddd55c","1430","stimuli/2111111.jpg","1","","prediction_trial","2","","false","","2","false","false","false","false","false","false","[2,1,0]","111","111","0","","","","","","",""
"","","","","","image-keyboard-response","285","1527476","0.0-260.0","57210674951c9b0011d3eaaa","665500ab8938657b03fbdba8","665792aa94beed4f44ddd55c","1031","stimuli/21111112.jpg"," ","","feedback_trial","2","","","","","","","","","","","","","","","","","","","","",""
"","","","","","image-keyboard-response","286","1528828","0.0-261.0","57210674951c9b0011d3eaaa","665500ab8938657b03fbdba8","665792aa94beed4f44ddd55c","1350","stimuli/2000001.jpg","2","","prediction_trial","2","","true","","2","false","true","true","true","false","true","[2]","000","001","1","","","","","","",""
"","","","","","image-keyboard-response","287","1529620","0.0-262.0","57210674951c9b0011d3eaaa","665500ab8938657b03fbdba8","665792aa94beed4f44ddd55c","790","stimuli/20000012.jpg"," ","","feedback_trial","2","","","","","","","","","","","","","","","","","","","","",""
"","","","","","image-keyboard-response","288","1531156","0.0-263.0","57210674951c9b0011d3eaaa","665500ab8938657b03fbdba8","665792aa94beed4f44ddd55c","1535","stimuli/0001101.jpg","2","","prediction_trial","0","","false","","0","false","false","true","true","false","false","[0]","001","101","0","","","","","","",""
"","","","","","image-keyboard-response","289","1532108","0.0-264.0","57210674951c9b0011d3eaaa","665500ab8938657b03fbdba8","665792aa94beed4f44ddd55c","951","stimuli/00011010.jpg"," ","","feedback_trial","0","","","","","","","","","","","","","","","","","","","","",""
"","","","","","image-keyboard-response","290","1533164","0.0-265.0","57210674951c9b0011d3eaaa","665500ab8938657b03fbdba8","665792aa94beed4f44ddd55c","1054","stimuli/1111001.jpg","1","","prediction_trial","2","","false","","1","true","true","false","false","false","false","[1,0,2]","111","001","0","","","","","","",""
"","","","","","image-keyboard-response","291","1534156","0.0-266.0","57210674951c9b0011d3eaaa","665500ab8938657b03fbdba8","665792aa94beed4f44ddd55c","991","stimuli/11110012.jpg"," ","","feedback_trial","1","","","","","","","","","","","","","","","","","","","","",""
"","","","","","image-keyboard-response","292","1535116","0.0-267.0","57210674951c9b0011d3eaaa","665500ab8938657b03fbdba8","665792aa94beed4f44ddd55c","958","stimuli/2011100.jpg","2","","prediction_trial","2","","true","","2","true","true","false","false","false","false","[1,2]","011","100","1","","","","","","",""
"","","","","","image-keyboard-response","293","1536092","0.0-268.0","57210674951c9b0011d3eaaa","665500ab8938657b03fbdba8","665792aa94beed4f44ddd55c","975","stimuli/20111002.jpg"," ","","feedback_trial","1","","","","","","","","","","","","","","","","","","","","",""
"","","","","","image-keyboard-response","294","1537180","0.0-269.0","57210674951c9b0011d3eaaa","665500ab8938657b03fbdba8","665792aa94beed4f44ddd55c","1086","stimuli/2001010.jpg","2","","prediction_trial","2","","true","","2","true","true","false","true","false","true","[2]","001","010","1","","","","","","",""
"","","","","","image-keyboard-response","295","1538092","0.0-270.0","57210674951c9b0011d3eaaa","665500ab8938657b03fbdba8","665792aa94beed4f44ddd55c","911","stimuli/20010102.jpg"," ","","feedback_trial","2","","","","","","","","","","","","","","","","","","","","",""
"","","","","","image-keyboard-response","296","1539116","0.0-271.0","57210674951c9b0011d3eaaa","665500ab8938657b03fbdba8","665792aa94beed4f44ddd55c","1022","stimuli/2100011.jpg","2","","prediction_trial","2","","true","","2","false","false","true","true","false","false","[2]","100","011","1","","","","","","",""
"","","","","","image-keyboard-response","297","1539877","0.0-272.0","57210674951c9b0011d3eaaa","665500ab8938657b03fbdba8","665792aa94beed4f44ddd55c","760","stimuli/21000112.jpg"," ","","feedback_trial","2","","","","","","","","","","","","","","","","","","","","",""
"","","","","","image-keyboard-response","298","1541500","0.0-273.0","57210674951c9b0011d3eaaa","665500ab8938657b03fbdba8","665792aa94beed4f44ddd55c","1622","stimuli/0110010.jpg","0","","prediction_trial","1","","false","","0","true","true","false","false","false","false","[0,1]","110","010","0","","","","","","",""
"","","","","","image-keyboard-response","299","1542652","0.0-274.0","57210674951c9b0011d3eaaa","665500ab8938657b03fbdba8","665792aa94beed4f44ddd55c","1150","stimuli/01100101.jpg"," ","","feedback_trial","0","","","","","","","","","","","","","","","","","","","","",""
"","","","","","image-keyboard-response","300","1543692","0.0-275.0","57210674951c9b0011d3eaaa","665500ab8938657b03fbdba8","665792aa94beed4f44ddd55c","1038","stimuli/2100010.jpg","2","","prediction_trial","2","","true","","2","true","true","true","true","true","true","[2]","100","010","1","","","","","","",""
"","","","","","image-keyboard-response","301","1544508","0.0-276.0","57210674951c9b0011d3eaaa","665500ab8938657b03fbdba8","665792aa94beed4f44ddd55c","815","stimuli/21000102.jpg"," ","","feedback_trial","2","","","","","","","","","","","","","","","","","","","","",""
"","","","","","image-keyboard-response","302","1545700","0.0-277.0","57210674951c9b0011d3eaaa","665500ab8938657b03fbdba8","665792aa94beed4f44ddd55c","1190","stimuli/1110100.jpg","1","","prediction_trial","0","","false","","1","true","true","false","false","false","false","[1,0]","110","100","0","","","","","","",""
"","","","","","image-keyboard-response","303","1546924","0.0-278.0","57210674951c9b0011d3eaaa","665500ab8938657b03fbdba8","665792aa94beed4f44ddd55c","1222","stimuli/11101000.jpg"," ","","feedback_trial","1","","","","","","","","","","","","","","","","","","","","",""
"","","","","","image-keyboard-response","304","1548101","0.0-279.0","57210674951c9b0011d3eaaa","665500ab8938657b03fbdba8","665792aa94beed4f44ddd55c","1175","stimuli/1001111.jpg","0","","prediction_trial","1","","false","","1","false","false","true","true","false","false","[1]","001","111","0","","","","","","",""
"","","","","","image-keyboard-response","305","1549396","0.0-280.0","57210674951c9b0011d3eaaa","665500ab8938657b03fbdba8","665792aa94beed4f44ddd55c","1294","stimuli/10011111.jpg"," ","","feedback_trial","1","","","","","","","","","","","","","","","","","","","","",""
"","","","","","image-keyboard-response","306","1550868","0.0-281.0","57210674951c9b0011d3eaaa","665500ab8938657b03fbdba8","665792aa94beed4f44ddd55c","1470","stimuli/2010100.jpg","1","","prediction_trial","2","","false","","2","true","true","true","true","true","true","[2]","010","100","0","","","","","","",""
"","","","","","image-keyboard-response","307","1553756","0.0-282.0","57210674951c9b0011d3eaaa","665500ab8938657b03fbdba8","665792aa94beed4f44ddd55c","2886","stimuli/20101002.jpg"," ","","feedback_trial","2","","","","","","","","","","","","","","","","","","","","",""
"","","","","","image-keyboard-response","308","1555460","0.0-283.0","57210674951c9b0011d3eaaa","665500ab8938657b03fbdba8","665792aa94beed4f44ddd55c","1702","stimuli/2000110.jpg","2","","prediction_trial","2","","true","","2","true","true","true","true","true","true","[2]","000","110","1","","","","","","",""
"","","","","","image-keyboard-response","309","1556788","0.0-284.0","57210674951c9b0011d3eaaa","665500ab8938657b03fbdba8","665792aa94beed4f44ddd55c","1327","stimuli/20001102.jpg"," ","","feedback_trial","2","","","","","","","","","","","","","","","","","","","","",""
"","","","","","image-keyboard-response","310","1557668","0.0-285.0","57210674951c9b0011d3eaaa","665500ab8938657b03fbdba8","665792aa94beed4f44ddd55c","878","stimuli/2100100.jpg","2","","prediction_trial","2","","true","","2","true","true","true","true","true","true","[2]","100","100","1","","","","","","",""
"","","","","","image-keyboard-response","311","1558388","0.0-286.0","57210674951c9b0011d3eaaa","665500ab8938657b03fbdba8","665792aa94beed4f44ddd55c","719","stimuli/21001002.jpg"," ","","feedback_trial","2","","","","","","","","","","","","","","","","","","","","",""
"","","","","","image-keyboard-response","312","1559988","0.0-287.0","57210674951c9b0011d3eaaa","665500ab8938657b03fbdba8","665792aa94beed4f44ddd55c","1598","stimuli/1100110.jpg","1","","prediction_trial","1","","true","","1","false","false","true","true","false","false","[1]","100","110","1","","","","","","",""
"","","","","","image-keyboard-response","313","1560636","0.0-288.0","57210674951c9b0011d3eaaa","665500ab8938657b03fbdba8","665792aa94beed4f44ddd55c","647","stimuli/11001101.jpg"," ","","feedback_trial","1","","","","","","","","","","","","","","","","","","","","",""
"","","","","","image-keyboard-response","314","1561572","0.0-289.0","57210674951c9b0011d3eaaa","665500ab8938657b03fbdba8","665792aa94beed4f44ddd55c","934","stimuli/1000110.jpg","1","","prediction_trial","1","","true","","1","false","false","true","true","false","false","[1]","000","110","1","","","","","","",""
"","","","","","image-keyboard-response","315","1562404","0.0-290.0","57210674951c9b0011d3eaaa","665500ab8938657b03fbdba8","665792aa94beed4f44ddd55c","831","stimuli/10001101.jpg"," ","","feedback_trial","1","","","","","","","","","","","","","","","","","","","","",""
"","","","","","image-keyboard-response","316","1563548","0.0-291.0","57210674951c9b0011d3eaaa","665500ab8938657b03fbdba8","665792aa94beed4f44ddd55c","1142","stimuli/0101000.jpg","0","","prediction_trial","0","","true","","0","true","true","false","false","false","false","[0,2]","101","000","1","","","","","","",""
"","","","","","image-keyboard-response","317","1564428","0.0-292.0","57210674951c9b0011d3eaaa","665500ab8938657b03fbdba8","665792aa94beed4f44ddd55c","880","stimuli/01010000.jpg"," ","","feedback_trial","0","","","","","","","","","","","","","","","","","","","","",""
"","","","","","survey-html-form","318","1592347","0.0-293.0","57210674951c9b0011d3eaaa","665500ab8938657b03fbdba8","665792aa94beed4f44ddd55c","27908","","{""feedback"":""Attempted to find a pattern"",""age"":""59"",""gender"":""Male"",""other_gender"":"""",""race"":""Black/African American"",""other_race"":"""",""ethnicity"":""Non-Hispanic""}","","exit_survey","","","","","","","","","","","","","","","","Attempted to find a pattern","59","Non-Hispanic","Male","Black/African American","0.6111111111111112","0.6111111111111112"
