"success","timeout","failed_images","failed_audio","failed_video","trial_type","trial_index","time_elapsed","internal_node_id","prolific_id","prolific_study_id","prolific_session_id","rt","stimulus","response","view_history","trial","character_choice","stimulus_dict","accuracy","correct_response","ball_pos","ego_ball_visible","ego_can_infer","alter_ball_visible","alter_can_infer","collective_ball_visible","collective_can_infer","search_locations","alter_occluders","ego_occluders","accuracy_bool","feedback","age","ethnicity","gender","race","overall_accuracy","bonus"
"true","false","[]","[]","[]","preload","0","2788","0.0-0.0","607ec28e6a0bde56a9d69ddc","665500ab8938657b03fbdba8","66577dcf3401833067c68e73","","","","","","","","","","","","","","","","","","","","","","","","","","",""
"true","","","","","fullscreen","1","10049","0.0-1.0","607ec28e6a0bde56a9d69ddc","665500ab8938657b03fbdba8","66577dcf3401833067c68e73","","","","","","","","","","","","","","","","","","","","","","","","","","",""
"","","","","","html-button-response","2","75111","0.0-2.0","607ec28e6a0bde56a9d69ddc","665500ab8938657b03fbdba8","66577dcf3401833067c68e73","65061","<p><b>Consent Form</b></p> <div style=""text-align:left;background-color:lightgrey; padding:20px; max-width:900px;""><p>Please consider this information carefully before deciding whether to participate in this research.</p> <p>The purpose of this research is to examine which factors influence social judgment and decision-making. You will be asked to make judgements about individuals and actions in social scenarios. We are simply interested in your judgement. The study will take less than 1 hour to complete, and you will receive less than $20 on Prolific. Your compensation and time commitment are specified in the study description. There are no anticipated risks associated with participating in this study. The effects of participating should be comparable to those you would ordinarily experience from viewing a computer monitor and using a mouse or keyboard for a similar amount of time. At the end of the study, we will provide an explanation of the questions that motivate this line of research and will describe the potential implications. </p><p> Your participation in this study is completely voluntary and you may refuse to participate or you may choose to withdraw at any time without penalty or loss of benefits to you which are otherwise entitled. Your participation in this study will remain confidential. No personally identifiable information will be associated with your data. Also, all analyses of the data will be averaged across all the participants, so your individual responses will never be specifically analyzed. </p><p> If you have questions or concerns about your participation or payment, or want to request a summary of research findings, please contact Dr. Jonathan Phillips at Jonathan.S.Phillips@dartmouth.edu. </p><p> Please save a copy of this form for your records. </p><p><b>Agreement: </b>The nature and purpose of this research have been sufficiently explained and I agree to participate in this study. I understand that I am free to withdraw at any time without incurring any penalty. Please consent by clicking the button below to continue. Otherwise, please exit the study at any time. </p>","0","","","","","","","","","","","","","","","","","","","","","","","",""
"","","","","","instructions","3","254331","0.0-3.0-0.0","607ec28e6a0bde56a9d69ddc","665500ab8938657b03fbdba8","66577dcf3401833067c68e73","179219","","","[{""page_index"":0,""viewing_time"":3346},{""page_index"":1,""viewing_time"":7520},{""page_index"":2,""viewing_time"":6570},{""page_index"":3,""viewing_time"":17770},{""page_index"":4,""viewing_time"":10202},{""page_index"":5,""viewing_time"":11848},{""page_index"":6,""viewing_time"":11844},{""page_index"":7,""viewing_time"":9690},{""page_index"":8,""viewing_time"":13366},{""page_index"":9,""viewing_time"":6894},{""page_index"":10,""viewing_time"":45440},{""page_index"":11,""viewing_time"":15694},{""page_index"":12,""viewing_time"":16210},{""page_index"":13,""viewing_time"":2825}]","intro","","","","","","","","","","","","","","","","","","","","","",""
"","","","","","image-keyboard-response","4","256488","0.0-3.0-1.0","607ec28e6a0bde56a9d69ddc","665500ab8938657b03fbdba8","66577dcf3401833067c68e73","2007","stimuli/1010110.jpg","1","","prediction_practice","1","{""filepath"":""stimuli/1010110.jpg"",""ball_pos"":1,""ego_ball_visible"":false,""ego_can_infer"":false,""alter_ball_visible"":false,""alter_can_infer"":true,""collective_ball_visible"":false,""collective_can_infer"":false,""search_locations"":[1],""alter_occluders"":""010"",""ego_occluders"":""110""}","true","","","","","","","","","","","","","","","","","","",""
"","","","","","image-keyboard-response","5","259235","0.0-3.0-2.0","607ec28e6a0bde56a9d69ddc","665500ab8938657b03fbdba8","66577dcf3401833067c68e73","2745","stimuli/10101101.jpg"," ","","practrice_feedback","1","","","","","","","","","","","","","","","","","","","","",""
"","","","","","image-keyboard-response","6","260379","0.0-3.0-3.0","607ec28e6a0bde56a9d69ddc","665500ab8938657b03fbdba8","66577dcf3401833067c68e73","1142","stimuli/1011010.jpg","1","","prediction_practice","2","{""filepath"":""stimuli/1011010.jpg"",""ball_pos"":1,""ego_ball_visible"":false,""ego_can_infer"":true,""alter_ball_visible"":false,""alter_can_infer"":false,""collective_ball_visible"":false,""collective_can_infer"":false,""search_locations"":[1,2],""alter_occluders"":""011"",""ego_occluders"":""010""}","false","","","","","","","","","","","","","","","","","","",""
"","","","","","image-keyboard-response","7","265797","0.0-3.0-4.0","607ec28e6a0bde56a9d69ddc","665500ab8938657b03fbdba8","66577dcf3401833067c68e73","5416","stimuli/10110102.jpg"," ","","practrice_feedback","1","","","","","","","","","","","","","","","","","","","","",""
"","","","","","image-keyboard-response","8","267017","0.0-3.0-5.0","607ec28e6a0bde56a9d69ddc","665500ab8938657b03fbdba8","66577dcf3401833067c68e73","1219","stimuli/1110100.jpg","1","","prediction_practice","0","{""filepath"":""stimuli/1110100.jpg"",""ball_pos"":1,""ego_ball_visible"":true,""ego_can_infer"":true,""alter_ball_visible"":false,""alter_can_infer"":false,""collective_ball_visible"":false,""collective_can_infer"":false,""search_locations"":[1,0],""alter_occluders"":""110"",""ego_occluders"":""100""}","false","","","","","","","","","","","","","","","","","","",""
"","","","","","image-keyboard-response","9","270701","0.0-3.0-6.0","607ec28e6a0bde56a9d69ddc","665500ab8938657b03fbdba8","66577dcf3401833067c68e73","3682","stimuli/11101000.jpg"," ","","practrice_feedback","1","","","","","","","","","","","","","","","","","","","","",""
"","","","","","image-keyboard-response","10","272333","0.0-3.0-7.0","607ec28e6a0bde56a9d69ddc","665500ab8938657b03fbdba8","66577dcf3401833067c68e73","1631","stimuli/1101111.jpg","0","","prediction_practice","1","{""filepath"":""stimuli/1101111.jpg"",""ball_pos"":1,""ego_ball_visible"":false,""ego_can_infer"":false,""alter_ball_visible"":true,""alter_can_infer"":true,""collective_ball_visible"":false,""collective_can_infer"":false,""search_locations"":[1],""alter_occluders"":""101"",""ego_occluders"":""111""}","false","","","","","","","","","","","","","","","","","","",""
"","","","","","image-keyboard-response","11","275692","0.0-3.0-8.0","607ec28e6a0bde56a9d69ddc","665500ab8938657b03fbdba8","66577dcf3401833067c68e73","3358","stimuli/11011111.jpg"," ","","practrice_feedback","1","","","","","","","","","","","","","","","","","","","","",""
"","","","","","image-keyboard-response","12","277405","0.0-3.0-9.0","607ec28e6a0bde56a9d69ddc","665500ab8938657b03fbdba8","66577dcf3401833067c68e73","1711","stimuli/1100110.jpg","0","","prediction_practice","1","{""filepath"":""stimuli/1100110.jpg"",""ball_pos"":1,""ego_ball_visible"":false,""ego_can_infer"":false,""alter_ball_visible"":true,""alter_can_infer"":true,""collective_ball_visible"":false,""collective_can_infer"":false,""search_locations"":[1],""alter_occluders"":""100"",""ego_occluders"":""110""}","false","","","","","","","","","","","","","","","","","","",""
"","","","","","image-keyboard-response","13","280171","0.0-3.0-10.0","607ec28e6a0bde56a9d69ddc","665500ab8938657b03fbdba8","66577dcf3401833067c68e73","2765","stimuli/11001101.jpg"," ","","practrice_feedback","1","","","","","","","","","","","","","","","","","","","","",""
"","","","","","image-keyboard-response","14","281688","0.0-3.0-11.0","607ec28e6a0bde56a9d69ddc","665500ab8938657b03fbdba8","66577dcf3401833067c68e73","1516","stimuli/0100001.jpg","1","","prediction_practice","0","{""filepath"":""stimuli/0100001.jpg"",""ball_pos"":0,""ego_ball_visible"":true,""ego_can_infer"":true,""alter_ball_visible"":false,""alter_can_infer"":true,""collective_ball_visible"":false,""collective_can_infer"":true,""search_locations"":[0],""alter_occluders"":""100"",""ego_occluders"":""001""}","false","","","","","","","","","","","","","","","","","","",""
"","","","","","image-keyboard-response","15","285274","0.0-3.0-12.0","607ec28e6a0bde56a9d69ddc","665500ab8938657b03fbdba8","66577dcf3401833067c68e73","3584","stimuli/01000010.jpg"," ","","practrice_feedback","0","","","","","","","","","","","","","","","","","","","","",""
"","","","","","image-keyboard-response","16","286031","0.0-3.0-13.0","607ec28e6a0bde56a9d69ddc","665500ab8938657b03fbdba8","66577dcf3401833067c68e73","755","stimuli/1000100.jpg","2","","prediction_practice","1","{""filepath"":""stimuli/1000100.jpg"",""ball_pos"":1,""ego_ball_visible"":true,""ego_can_infer"":true,""alter_ball_visible"":true,""alter_can_infer"":true,""collective_ball_visible"":true,""collective_can_infer"":true,""search_locations"":[1],""alter_occluders"":""000"",""ego_occluders"":""100""}","false","","","","","","","","","","","","","","","","","","",""
"","","","","","image-keyboard-response","17","291627","0.0-3.0-14.0","607ec28e6a0bde56a9d69ddc","665500ab8938657b03fbdba8","66577dcf3401833067c68e73","5594","stimuli/10001001.jpg"," ","","practrice_feedback","1","","","","","","","","","","","","","","","","","","","","",""
"","","","","","image-keyboard-response","18","293296","0.0-3.0-15.0","607ec28e6a0bde56a9d69ddc","665500ab8938657b03fbdba8","66577dcf3401833067c68e73","1668","stimuli/1101110.jpg","1","","prediction_practice","1","{""filepath"":""stimuli/1101110.jpg"",""ball_pos"":1,""ego_ball_visible"":false,""ego_can_infer"":false,""alter_ball_visible"":true,""alter_can_infer"":true,""collective_ball_visible"":false,""collective_can_infer"":false,""search_locations"":[1],""alter_occluders"":""101"",""ego_occluders"":""110""}","true","","","","","","","","","","","","","","","","","","",""
"","","","","","image-keyboard-response","19","301214","0.0-3.0-16.0","607ec28e6a0bde56a9d69ddc","665500ab8938657b03fbdba8","66577dcf3401833067c68e73","7916","stimuli/11011101.jpg"," ","","practrice_feedback","1","","","","","","","","","","","","","","","","","","","","",""
"","","","","","image-keyboard-response","20","303444","0.0-3.0-17.0","607ec28e6a0bde56a9d69ddc","665500ab8938657b03fbdba8","66577dcf3401833067c68e73","2229","stimuli/2101010.jpg","2","","prediction_practice","2","{""filepath"":""stimuli/2101010.jpg"",""ball_pos"":2,""ego_ball_visible"":true,""ego_can_infer"":true,""alter_ball_visible"":false,""alter_can_infer"":false,""collective_ball_visible"":false,""collective_can_infer"":false,""search_locations"":[2,0],""alter_occluders"":""101"",""ego_occluders"":""010""}","true","","","","","","","","","","","","","","","","","","",""
"","","","","","image-keyboard-response","21","307442","0.0-3.0-18.0","607ec28e6a0bde56a9d69ddc","665500ab8938657b03fbdba8","66577dcf3401833067c68e73","3996","stimuli/21010102.jpg"," ","","practrice_feedback","2","","","","","","","","","","","","","","","","","","","","",""
"","","","","","image-keyboard-response","22","309102","0.0-3.0-19.0","607ec28e6a0bde56a9d69ddc","665500ab8938657b03fbdba8","66577dcf3401833067c68e73","1659","stimuli/0100010.jpg","0","","prediction_practice","0","{""filepath"":""stimuli/0100010.jpg"",""ball_pos"":0,""ego_ball_visible"":true,""ego_can_infer"":true,""alter_ball_visible"":false,""alter_can_infer"":true,""collective_ball_visible"":false,""collective_can_infer"":true,""search_locations"":[0],""alter_occluders"":""100"",""ego_occluders"":""010""}","true","","","","","","","","","","","","","","","","","","",""
"","","","","","image-keyboard-response","23","315015","0.0-3.0-20.0","607ec28e6a0bde56a9d69ddc","665500ab8938657b03fbdba8","66577dcf3401833067c68e73","5911","stimuli/01000100.jpg"," ","","practrice_feedback","0","","","","","","","","","","","","","","","","","","","","",""
"","","","","","html-button-response","24","327529","0.0-3.0-21.0","607ec28e6a0bde56a9d69ddc","665500ab8938657b03fbdba8","66577dcf3401833067c68e73","12513","Now that you've had some practice, you'll be tested with a couple of easy trials. If you correctly predict Sam's choice, you'll move on to complete the experiment!","0","","","","","","","","","","","","","","","","","","","","","","","",""
"","","","","","image-keyboard-response","25","330060","0.0-3.0-22.0-0.0","607ec28e6a0bde56a9d69ddc","665500ab8938657b03fbdba8","66577dcf3401833067c68e73","2530","stimuli/0000011.jpg","arrowleft","","comprehension_quiz","","","true","arrowleft","","","","","","","","","","","","","","","","","",""
"","","","","","image-keyboard-response","26","332188","0.0-3.0-22.0-1.0","607ec28e6a0bde56a9d69ddc","665500ab8938657b03fbdba8","66577dcf3401833067c68e73","2126","stimuli/00000110.jpg"," ","","comprehension_quiz","","","true"," ","","","","","","","","","","","","","","","","","",""
"","","","","","image-keyboard-response","27","334008","0.0-3.0-22.0-2.0","607ec28e6a0bde56a9d69ddc","665500ab8938657b03fbdba8","66577dcf3401833067c68e73","1819","stimuli/1010010.jpg","arrowdown","","comprehension_quiz","","","true","arrowdown","","","","","","","","","","","","","","","","","",""
"","","","","","image-keyboard-response","28","337076","0.0-3.0-22.0-3.0","607ec28e6a0bde56a9d69ddc","665500ab8938657b03fbdba8","66577dcf3401833067c68e73","3066","stimuli/10100101.jpg"," ","","comprehension_quiz","","","true"," ","","","","","","","","","","","","","","","","","",""
"","","","","","html-button-response","29","341365","0.0-4.0","607ec28e6a0bde56a9d69ddc","665500ab8938657b03fbdba8","66577dcf3401833067c68e73","4288","The experiment will now begin.","0","","","","","","","","","","","","","","","","","","","","","","","",""
"","","","","","image-keyboard-response","30","343420","0.0-5.0","607ec28e6a0bde56a9d69ddc","665500ab8938657b03fbdba8","66577dcf3401833067c68e73","2041","stimuli/1010001.jpg","1","","prediction_trial","1","","true","","1","true","true","false","true","false","true","[1]","010","001","1","","","","","","",""
"","","","","","image-keyboard-response","31","345116","0.0-6.0","607ec28e6a0bde56a9d69ddc","665500ab8938657b03fbdba8","66577dcf3401833067c68e73","1694","stimuli/10100011.jpg"," ","","feedback_trial","1","","","","","","","","","","","","","","","","","","","","",""
"","","","","","image-keyboard-response","32","347262","0.0-7.0","607ec28e6a0bde56a9d69ddc","665500ab8938657b03fbdba8","66577dcf3401833067c68e73","2145","stimuli/2110011.jpg","2","","prediction_trial","2","","true","","2","false","false","true","true","false","false","[2]","110","011","1","","","","","","",""
"","","","","","image-keyboard-response","33","351164","0.0-8.0","607ec28e6a0bde56a9d69ddc","665500ab8938657b03fbdba8","66577dcf3401833067c68e73","3900","stimuli/21100112.jpg"," ","","feedback_trial","2","","","","","","","","","","","","","","","","","","","","",""
"","","","","","image-keyboard-response","34","352649","0.0-9.0","607ec28e6a0bde56a9d69ddc","665500ab8938657b03fbdba8","66577dcf3401833067c68e73","1483","stimuli/2000001.jpg","2","","prediction_trial","2","","true","","2","false","true","true","true","false","true","[2]","000","001","1","","","","","","",""
"","","","","","image-keyboard-response","35","355170","0.0-10.0","607ec28e6a0bde56a9d69ddc","665500ab8938657b03fbdba8","66577dcf3401833067c68e73","2520","stimuli/20000012.jpg"," ","","feedback_trial","2","","","","","","","","","","","","","","","","","","","","",""
"","","","","","image-keyboard-response","36","356474","0.0-11.0","607ec28e6a0bde56a9d69ddc","665500ab8938657b03fbdba8","66577dcf3401833067c68e73","1303","stimuli/2000010.jpg","2","","prediction_trial","2","","true","","2","true","true","true","true","true","true","[2]","000","010","1","","","","","","",""
"","","","","","image-keyboard-response","37","358418","0.0-12.0","607ec28e6a0bde56a9d69ddc","665500ab8938657b03fbdba8","66577dcf3401833067c68e73","1942","stimuli/20000102.jpg"," ","","feedback_trial","2","","","","","","","","","","","","","","","","","","","","",""
"","","","","","image-keyboard-response","38","359554","0.0-13.0","607ec28e6a0bde56a9d69ddc","665500ab8938657b03fbdba8","66577dcf3401833067c68e73","1135","stimuli/0010011.jpg","0","","prediction_trial","0","","true","","0","true","true","true","true","true","true","[0]","010","011","1","","","","","","",""
"","","","","","image-keyboard-response","39","361702","0.0-14.0","607ec28e6a0bde56a9d69ddc","665500ab8938657b03fbdba8","66577dcf3401833067c68e73","2147","stimuli/00100110.jpg"," ","","feedback_trial","0","","","","","","","","","","","","","","","","","","","","",""
"","","","","","image-keyboard-response","40","363029","0.0-15.0","607ec28e6a0bde56a9d69ddc","665500ab8938657b03fbdba8","66577dcf3401833067c68e73","1325","stimuli/1011111.jpg","0","","prediction_trial","2","","false","","1","false","false","false","false","false","false","[2,1]","011","111","0","","","","","","",""
"","","","","","image-keyboard-response","41","366832","0.0-16.0","607ec28e6a0bde56a9d69ddc","665500ab8938657b03fbdba8","66577dcf3401833067c68e73","3802","stimuli/10111112.jpg"," ","","feedback_trial","2","","","","","","","","","","","","","","","","","","","","",""
"","","","","","image-keyboard-response","42","367706","0.0-17.0","607ec28e6a0bde56a9d69ddc","665500ab8938657b03fbdba8","66577dcf3401833067c68e73","872","stimuli/0011000.jpg","0","","prediction_trial","0","","true","","0","true","true","true","true","true","true","[0]","011","000","1","","","","","","",""
"","","","","","image-keyboard-response","43","369774","0.0-18.0","607ec28e6a0bde56a9d69ddc","665500ab8938657b03fbdba8","66577dcf3401833067c68e73","2067","stimuli/00110000.jpg"," ","","feedback_trial","0","","","","","","","","","","","","","","","","","","","","",""
"","","","","","image-keyboard-response","44","371250","0.0-19.0","607ec28e6a0bde56a9d69ddc","665500ab8938657b03fbdba8","66577dcf3401833067c68e73","1475","stimuli/2010001.jpg","2","","prediction_trial","2","","true","","2","false","true","true","true","false","true","[2]","010","001","1","","","","","","",""
"","","","","","image-keyboard-response","45","373850","0.0-20.0","607ec28e6a0bde56a9d69ddc","665500ab8938657b03fbdba8","66577dcf3401833067c68e73","2599","stimuli/20100012.jpg"," ","","feedback_trial","2","","","","","","","","","","","","","","","","","","","","",""
"","","","","","image-keyboard-response","46","375280","0.0-21.0","607ec28e6a0bde56a9d69ddc","665500ab8938657b03fbdba8","66577dcf3401833067c68e73","1428","stimuli/1110111.jpg","2","","prediction_trial","1","","false","","1","false","false","false","false","false","false","[0,1]","110","111","0","","","","","","",""
"","","","","","image-keyboard-response","47","377634","0.0-22.0","607ec28e6a0bde56a9d69ddc","665500ab8938657b03fbdba8","66577dcf3401833067c68e73","2353","stimuli/11101111.jpg"," ","","feedback_trial","0","","","","","","","","","","","","","","","","","","","","",""
"","","","","","image-keyboard-response","48","379062","0.0-23.0","607ec28e6a0bde56a9d69ddc","665500ab8938657b03fbdba8","66577dcf3401833067c68e73","1427","stimuli/0101101.jpg","2","","prediction_trial","2","","true","","0","false","false","false","false","false","false","[2,0]","101","101","1","","","","","","",""
"","","","","","image-keyboard-response","49","381368","0.0-24.0","607ec28e6a0bde56a9d69ddc","665500ab8938657b03fbdba8","66577dcf3401833067c68e73","2305","stimuli/01011012.jpg"," ","","feedback_trial","2","","","","","","","","","","","","","","","","","","","","",""
"","","","","","image-keyboard-response","50","382576","0.0-25.0","607ec28e6a0bde56a9d69ddc","665500ab8938657b03fbdba8","66577dcf3401833067c68e73","1206","stimuli/0110101.jpg","2","","prediction_trial","0","","false","","0","false","false","false","false","false","false","[1,0]","110","101","0","","","","","","",""
"","","","","","image-keyboard-response","51","385940","0.0-26.0","607ec28e6a0bde56a9d69ddc","665500ab8938657b03fbdba8","66577dcf3401833067c68e73","3363","stimuli/01101010.jpg"," ","","feedback_trial","1","","","","","","","","","","","","","","","","","","","","",""
"","","","","","image-keyboard-response","52","387590","0.0-27.0","607ec28e6a0bde56a9d69ddc","665500ab8938657b03fbdba8","66577dcf3401833067c68e73","1632","stimuli/0100000.jpg","0","","prediction_trial","0","","true","","0","true","true","false","true","false","true","[0]","100","000","1","","","","","","",""
"","","","","","image-keyboard-response","53","389632","0.0-28.0","607ec28e6a0bde56a9d69ddc","665500ab8938657b03fbdba8","66577dcf3401833067c68e73","2040","stimuli/01000000.jpg"," ","","feedback_trial","0","","","","","","","","","","","","","","","","","","","","",""
"","","","","","image-keyboard-response","54","390548","0.0-29.0","607ec28e6a0bde56a9d69ddc","665500ab8938657b03fbdba8","66577dcf3401833067c68e73","915","stimuli/2001110.jpg","2","","prediction_trial","2","","true","","2","true","true","false","true","false","true","[2]","001","110","1","","","","","","",""
"","","","","","image-keyboard-response","55","393620","0.0-30.0","607ec28e6a0bde56a9d69ddc","665500ab8938657b03fbdba8","66577dcf3401833067c68e73","3071","stimuli/20011102.jpg"," ","","feedback_trial","2","","","","","","","","","","","","","","","","","","","","",""
"","","","","","image-keyboard-response","56","394925","0.0-31.0","607ec28e6a0bde56a9d69ddc","665500ab8938657b03fbdba8","66577dcf3401833067c68e73","1304","stimuli/0110011.jpg","0","","prediction_trial","0","","true","","0","true","true","false","false","false","false","[1,0]","110","011","1","","","","","","",""
"","","","","","image-keyboard-response","57","396902","0.0-32.0","607ec28e6a0bde56a9d69ddc","665500ab8938657b03fbdba8","66577dcf3401833067c68e73","1977","stimuli/01100110.jpg"," ","","feedback_trial","1","","","","","","","","","","","","","","","","","","","","",""
"","","","","","image-keyboard-response","58","398218","0.0-33.0","607ec28e6a0bde56a9d69ddc","665500ab8938657b03fbdba8","66577dcf3401833067c68e73","1315","stimuli/1101011.jpg","1","","prediction_trial","1","","true","","1","false","false","true","true","false","false","[1]","101","011","1","","","","","","",""
"","","","","","image-keyboard-response","59","400786","0.0-34.0","607ec28e6a0bde56a9d69ddc","665500ab8938657b03fbdba8","66577dcf3401833067c68e73","2567","stimuli/11010111.jpg"," ","","feedback_trial","1","","","","","","","","","","","","","","","","","","","","",""
"","","","","","image-keyboard-response","60","402002","0.0-35.0","607ec28e6a0bde56a9d69ddc","665500ab8938657b03fbdba8","66577dcf3401833067c68e73","1221","stimuli/1011001.jpg","1","","prediction_trial","1","","true","","1","true","true","false","false","false","false","[1,2]","011","001","1","","","","","","",""
"","","","","","image-keyboard-response","61","404391","0.0-36.0","607ec28e6a0bde56a9d69ddc","665500ab8938657b03fbdba8","66577dcf3401833067c68e73","2389","stimuli/10110011.jpg"," ","","feedback_trial","1","","","","","","","","","","","","","","","","","","","","",""
"","","","","","image-keyboard-response","62","405690","0.0-37.0","607ec28e6a0bde56a9d69ddc","665500ab8938657b03fbdba8","66577dcf3401833067c68e73","1298","stimuli/2010011.jpg","2","","prediction_trial","2","","true","","2","false","false","true","true","false","false","[2]","010","011","1","","","","","","",""
"","","","","","image-keyboard-response","63","408618","0.0-38.0","607ec28e6a0bde56a9d69ddc","665500ab8938657b03fbdba8","66577dcf3401833067c68e73","2928","stimuli/20100112.jpg"," ","","feedback_trial","2","","","","","","","","","","","","","","","","","","","","",""
"","","","","","image-keyboard-response","64","409754","0.0-39.0","607ec28e6a0bde56a9d69ddc","665500ab8938657b03fbdba8","66577dcf3401833067c68e73","1135","stimuli/1010000.jpg","1","","prediction_trial","1","","true","","1","true","true","false","true","false","true","[1]","010","000","1","","","","","","",""
"","","","","","image-keyboard-response","65","411818","0.0-40.0","607ec28e6a0bde56a9d69ddc","665500ab8938657b03fbdba8","66577dcf3401833067c68e73","2063","stimuli/10100001.jpg"," ","","feedback_trial","1","","","","","","","","","","","","","","","","","","","","",""
"","","","","","image-keyboard-response","66","412901","0.0-41.0","607ec28e6a0bde56a9d69ddc","665500ab8938657b03fbdba8","66577dcf3401833067c68e73","1083","stimuli/0001111.jpg","1","","prediction_trial","0","","false","","0","false","false","true","true","false","false","[0]","001","111","0","","","","","","",""
"","","","","","image-keyboard-response","67","415868","0.0-42.0","607ec28e6a0bde56a9d69ddc","665500ab8938657b03fbdba8","66577dcf3401833067c68e73","2966","stimuli/00011110.jpg"," ","","feedback_trial","0","","","","","","","","","","","","","","","","","","","","",""
"","","","","","image-keyboard-response","68","417320","0.0-43.0","607ec28e6a0bde56a9d69ddc","665500ab8938657b03fbdba8","66577dcf3401833067c68e73","1451","stimuli/1100110.jpg","1","","prediction_trial","1","","true","","1","false","false","true","true","false","false","[1]","100","110","1","","","","","","",""
"","","","","","image-keyboard-response","69","418998","0.0-44.0","607ec28e6a0bde56a9d69ddc","665500ab8938657b03fbdba8","66577dcf3401833067c68e73","1677","stimuli/11001101.jpg"," ","","feedback_trial","1","","","","","","","","","","","","","","","","","","","","",""
"","","","","","image-keyboard-response","70","420152","0.0-45.0","607ec28e6a0bde56a9d69ddc","665500ab8938657b03fbdba8","66577dcf3401833067c68e73","1153","stimuli/0011110.jpg","0","","prediction_trial","0","","true","","0","false","false","true","true","false","false","[0]","011","110","1","","","","","","",""
"","","","","","image-keyboard-response","71","421519","0.0-46.0","607ec28e6a0bde56a9d69ddc","665500ab8938657b03fbdba8","66577dcf3401833067c68e73","1367","stimuli/00111100.jpg"," ","","feedback_trial","0","","","","","","","","","","","","","","","","","","","","",""
"","","","","","image-keyboard-response","72","422658","0.0-47.0","607ec28e6a0bde56a9d69ddc","665500ab8938657b03fbdba8","66577dcf3401833067c68e73","1138","stimuli/2110010.jpg","2","","prediction_trial","2","","true","","2","true","true","true","true","true","true","[2]","110","010","1","","","","","","",""
"","","","","","image-keyboard-response","73","424237","0.0-48.0","607ec28e6a0bde56a9d69ddc","665500ab8938657b03fbdba8","66577dcf3401833067c68e73","1578","stimuli/21100102.jpg"," ","","feedback_trial","2","","","","","","","","","","","","","","","","","","","","",""
"","","","","","image-keyboard-response","74","425872","0.0-49.0","607ec28e6a0bde56a9d69ddc","665500ab8938657b03fbdba8","66577dcf3401833067c68e73","1633","stimuli/0001101.jpg","0","","prediction_trial","0","","true","","0","false","false","true","true","false","false","[0]","001","101","1","","","","","","",""
"","","","","","image-keyboard-response","75","427786","0.0-50.0","607ec28e6a0bde56a9d69ddc","665500ab8938657b03fbdba8","66577dcf3401833067c68e73","1913","stimuli/00011010.jpg"," ","","feedback_trial","0","","","","","","","","","","","","","","","","","","","","",""
"","","","","","image-keyboard-response","76","429330","0.0-51.0","607ec28e6a0bde56a9d69ddc","665500ab8938657b03fbdba8","66577dcf3401833067c68e73","1543","stimuli/2000011.jpg","2","","prediction_trial","2","","true","","2","false","false","true","true","false","false","[2]","000","011","1","","","","","","",""
"","","","","","image-keyboard-response","77","431883","0.0-52.0","607ec28e6a0bde56a9d69ddc","665500ab8938657b03fbdba8","66577dcf3401833067c68e73","2552","stimuli/20000112.jpg"," ","","feedback_trial","2","","","","","","","","","","","","","","","","","","","","",""
"","","","","","image-keyboard-response","78","433289","0.0-53.0","607ec28e6a0bde56a9d69ddc","665500ab8938657b03fbdba8","66577dcf3401833067c68e73","1406","stimuli/2001100.jpg","2","","prediction_trial","2","","true","","2","true","true","false","true","false","true","[2]","001","100","1","","","","","","",""
"","","","","","image-keyboard-response","79","436648","0.0-54.0","607ec28e6a0bde56a9d69ddc","665500ab8938657b03fbdba8","66577dcf3401833067c68e73","3358","stimuli/20011002.jpg"," ","","feedback_trial","2","","","","","","","","","","","","","","","","","","","","",""
"","","","","","image-keyboard-response","80","437860","0.0-55.0","607ec28e6a0bde56a9d69ddc","665500ab8938657b03fbdba8","66577dcf3401833067c68e73","1211","stimuli/0010010.jpg","0","","prediction_trial","0","","true","","0","true","true","true","true","true","true","[0]","010","010","1","","","","","","",""
"","","","","","image-keyboard-response","81","439870","0.0-56.0","607ec28e6a0bde56a9d69ddc","665500ab8938657b03fbdba8","66577dcf3401833067c68e73","2009","stimuli/00100100.jpg"," ","","feedback_trial","0","","","","","","","","","","","","","","","","","","","","",""
"","","","","","image-keyboard-response","82","440766","0.0-57.0","607ec28e6a0bde56a9d69ddc","665500ab8938657b03fbdba8","66577dcf3401833067c68e73","895","stimuli/1000000.jpg","1","","prediction_trial","1","","true","","1","true","true","true","true","true","true","[1]","000","000","1","","","","","","",""
"","","","","","image-keyboard-response","83","442951","0.0-58.0","607ec28e6a0bde56a9d69ddc","665500ab8938657b03fbdba8","66577dcf3401833067c68e73","2185","stimuli/10000001.jpg"," ","","feedback_trial","1","","","","","","","","","","","","","","","","","","","","",""
"","","","","","image-keyboard-response","84","444181","0.0-59.0","607ec28e6a0bde56a9d69ddc","665500ab8938657b03fbdba8","66577dcf3401833067c68e73","1229","stimuli/2101011.jpg","1","","prediction_trial","0","","false","","2","false","false","false","false","false","false","[2,0]","101","011","0","","","","","","",""
"","","","","","image-keyboard-response","85","451408","0.0-60.0","607ec28e6a0bde56a9d69ddc","665500ab8938657b03fbdba8","66577dcf3401833067c68e73","7226","stimuli/21010110.jpg"," ","","feedback_trial","2","","","","","","","","","","","","","","","","","","","","",""
"","","","","","image-keyboard-response","86","452565","0.0-61.0","607ec28e6a0bde56a9d69ddc","665500ab8938657b03fbdba8","66577dcf3401833067c68e73","1157","stimuli/1000111.jpg","1","","prediction_trial","1","","true","","1","false","false","true","true","false","false","[1]","000","111","1","","","","","","",""
"","","","","","image-keyboard-response","87","454776","0.0-62.0","607ec28e6a0bde56a9d69ddc","665500ab8938657b03fbdba8","66577dcf3401833067c68e73","2209","stimuli/10001111.jpg"," ","","feedback_trial","1","","","","","","","","","","","","","","","","","","","","",""
"","","","","","image-keyboard-response","88","455901","0.0-63.0","607ec28e6a0bde56a9d69ddc","665500ab8938657b03fbdba8","66577dcf3401833067c68e73","1125","stimuli/1011101.jpg","1","","prediction_trial","2","","false","","1","true","true","false","false","false","false","[1,2]","011","101","0","","","","","","",""
"","","","","","image-keyboard-response","89","460540","0.0-64.0","607ec28e6a0bde56a9d69ddc","665500ab8938657b03fbdba8","66577dcf3401833067c68e73","4638","stimuli/10111012.jpg"," ","","feedback_trial","1","","","","","","","","","","","","","","","","","","","","",""
"","","","","","image-keyboard-response","90","461778","0.0-65.0","607ec28e6a0bde56a9d69ddc","665500ab8938657b03fbdba8","66577dcf3401833067c68e73","1237","stimuli/0001011.jpg","0","","prediction_trial","0","","true","","0","true","true","true","true","true","true","[0]","001","011","1","","","","","","",""
"","","","","","image-keyboard-response","91","463346","0.0-66.0","607ec28e6a0bde56a9d69ddc","665500ab8938657b03fbdba8","66577dcf3401833067c68e73","1559","stimuli/00010110.jpg"," ","","feedback_trial","0","","","","","","","","","","","","","","","","","","","","",""
"","","","","","image-keyboard-response","92","465075","0.0-67.0","607ec28e6a0bde56a9d69ddc","665500ab8938657b03fbdba8","66577dcf3401833067c68e73","1729","stimuli/1110110.jpg","1","","prediction_trial","1","","true","","1","false","false","false","false","false","false","[0,1]","110","110","1","","","","","","",""
"","","","","","image-keyboard-response","93","467517","0.0-68.0","607ec28e6a0bde56a9d69ddc","665500ab8938657b03fbdba8","66577dcf3401833067c68e73","2441","stimuli/11101101.jpg"," ","","feedback_trial","0","","","","","","","","","","","","","","","","","","","","",""
"","","","","","image-keyboard-response","94","468921","0.0-69.0","607ec28e6a0bde56a9d69ddc","665500ab8938657b03fbdba8","66577dcf3401833067c68e73","1403","stimuli/2101111.jpg","1","","prediction_trial","2","","false","","2","false","false","false","false","false","false","[2,0]","101","111","0","","","","","","",""
"","","","","","image-keyboard-response","95","472665","0.0-70.0","607ec28e6a0bde56a9d69ddc","665500ab8938657b03fbdba8","66577dcf3401833067c68e73","3743","stimuli/21011112.jpg"," ","","feedback_trial","2","","","","","","","","","","","","","","","","","","","","",""
"","","","","","image-keyboard-response","96","474207","0.0-71.0","607ec28e6a0bde56a9d69ddc","665500ab8938657b03fbdba8","66577dcf3401833067c68e73","1541","stimuli/2011111.jpg","1","","prediction_trial","2","","false","","2","false","false","false","false","false","false","[1,2]","011","111","0","","","","","","",""
"","","","","","image-keyboard-response","97","476333","0.0-72.0","607ec28e6a0bde56a9d69ddc","665500ab8938657b03fbdba8","66577dcf3401833067c68e73","2125","stimuli/20111112.jpg"," ","","feedback_trial","1","","","","","","","","","","","","","","","","","","","","",""
"","","","","","image-keyboard-response","98","478037","0.0-73.0","607ec28e6a0bde56a9d69ddc","665500ab8938657b03fbdba8","66577dcf3401833067c68e73","1703","stimuli/2110101.jpg","0","","prediction_trial","2","","false","","2","false","false","true","true","false","false","[2]","110","101","0","","","","","","",""
"","","","","","image-keyboard-response","99","482840","0.0-74.0","607ec28e6a0bde56a9d69ddc","665500ab8938657b03fbdba8","66577dcf3401833067c68e73","4802","stimuli/21101012.jpg"," ","","feedback_trial","2","","","","","","","","","","","","","","","","","","","","",""
"","","","","","image-keyboard-response","100","484710","0.0-75.0","607ec28e6a0bde56a9d69ddc","665500ab8938657b03fbdba8","66577dcf3401833067c68e73","1869","stimuli/2001111.jpg","0","","prediction_trial","2","","false","","2","false","false","false","true","false","false","[2]","001","111","0","","","","","","",""
"","","","","","image-keyboard-response","101","490594","0.0-76.0","607ec28e6a0bde56a9d69ddc","665500ab8938657b03fbdba8","66577dcf3401833067c68e73","5884","stimuli/20011112.jpg"," ","","feedback_trial","2","","","","","","","","","","","","","","","","","","","","",""
"","","","","","image-keyboard-response","102","492321","0.0-77.0","607ec28e6a0bde56a9d69ddc","665500ab8938657b03fbdba8","66577dcf3401833067c68e73","1726","stimuli/0100101.jpg","2","","prediction_trial","0","","false","","0","false","false","false","true","false","false","[0]","100","101","0","","","","","","",""
"","","","","","image-keyboard-response","103","495359","0.0-78.0","607ec28e6a0bde56a9d69ddc","665500ab8938657b03fbdba8","66577dcf3401833067c68e73","3037","stimuli/01001010.jpg"," ","","feedback_trial","0","","","","","","","","","","","","","","","","","","","","",""
"","","","","","image-keyboard-response","104","497019","0.0-79.0","607ec28e6a0bde56a9d69ddc","665500ab8938657b03fbdba8","66577dcf3401833067c68e73","1659","stimuli/2101110.jpg","2","","prediction_trial","0","","false","","2","true","true","false","false","false","false","[2,0]","101","110","0","","","","","","",""
"","","","","","image-keyboard-response","105","500773","0.0-80.0","607ec28e6a0bde56a9d69ddc","665500ab8938657b03fbdba8","66577dcf3401833067c68e73","3753","stimuli/21011100.jpg"," ","","feedback_trial","2","","","","","","","","","","","","","","","","","","","","",""
"","","","","","image-keyboard-response","106","502649","0.0-81.0","607ec28e6a0bde56a9d69ddc","665500ab8938657b03fbdba8","66577dcf3401833067c68e73","1875","stimuli/0110100.jpg","0","","prediction_trial","0","","true","","0","false","true","false","false","false","false","[1,0]","110","100","1","","","","","","",""
"","","","","","image-keyboard-response","107","505497","0.0-82.0","607ec28e6a0bde56a9d69ddc","665500ab8938657b03fbdba8","66577dcf3401833067c68e73","2847","stimuli/01101000.jpg"," ","","feedback_trial","1","","","","","","","","","","","","","","","","","","","","",""
"","","","","","image-keyboard-response","108","506679","0.0-83.0","607ec28e6a0bde56a9d69ddc","665500ab8938657b03fbdba8","66577dcf3401833067c68e73","1181","stimuli/1100011.jpg","1","","prediction_trial","1","","true","","1","false","false","true","true","false","false","[1]","100","011","1","","","","","","",""
"","","","","","image-keyboard-response","109","508657","0.0-84.0","607ec28e6a0bde56a9d69ddc","665500ab8938657b03fbdba8","66577dcf3401833067c68e73","1977","stimuli/11000111.jpg"," ","","feedback_trial","1","","","","","","","","","","","","","","","","","","","","",""
"","","","","","image-keyboard-response","110","509939","0.0-85.0","607ec28e6a0bde56a9d69ddc","665500ab8938657b03fbdba8","66577dcf3401833067c68e73","1281","stimuli/1000101.jpg","1","","prediction_trial","1","","true","","1","true","true","true","true","true","true","[1]","000","101","1","","","","","","",""
"","","","","","image-keyboard-response","111","511977","0.0-86.0","607ec28e6a0bde56a9d69ddc","665500ab8938657b03fbdba8","66577dcf3401833067c68e73","2037","stimuli/10001011.jpg"," ","","feedback_trial","1","","","","","","","","","","","","","","","","","","","","",""
"","","","","","image-keyboard-response","112","514507","0.0-87.0","607ec28e6a0bde56a9d69ddc","665500ab8938657b03fbdba8","66577dcf3401833067c68e73","2529","stimuli/2111110.jpg","0","","prediction_trial","1","","false","","2","true","true","false","false","false","false","[2,1,0]","111","110","0","","","","","","",""
"","","","","","image-keyboard-response","113","516995","0.0-88.0","607ec28e6a0bde56a9d69ddc","665500ab8938657b03fbdba8","66577dcf3401833067c68e73","2487","stimuli/21111101.jpg"," ","","feedback_trial","2","","","","","","","","","","","","","","","","","","","","",""
"","","","","","image-keyboard-response","114","518225","0.0-89.0","607ec28e6a0bde56a9d69ddc","665500ab8938657b03fbdba8","66577dcf3401833067c68e73","1229","stimuli/1101000.jpg","1","","prediction_trial","1","","true","","1","true","true","true","true","true","true","[1]","101","000","1","","","","","","",""
"","","","","","image-keyboard-response","115","519899","0.0-90.0","607ec28e6a0bde56a9d69ddc","665500ab8938657b03fbdba8","66577dcf3401833067c68e73","1673","stimuli/11010001.jpg"," ","","feedback_trial","1","","","","","","","","","","","","","","","","","","","","",""
"","","","","","image-keyboard-response","116","521315","0.0-91.0","607ec28e6a0bde56a9d69ddc","665500ab8938657b03fbdba8","66577dcf3401833067c68e73","1415","stimuli/0000100.jpg","0","","prediction_trial","0","","true","","0","false","true","true","true","false","true","[0]","000","100","1","","","","","","",""
"","","","","","image-keyboard-response","117","523377","0.0-92.0","607ec28e6a0bde56a9d69ddc","665500ab8938657b03fbdba8","66577dcf3401833067c68e73","2061","stimuli/00001000.jpg"," ","","feedback_trial","0","","","","","","","","","","","","","","","","","","","","",""
"","","","","","image-keyboard-response","118","524678","0.0-93.0","607ec28e6a0bde56a9d69ddc","665500ab8938657b03fbdba8","66577dcf3401833067c68e73","1300","stimuli/0001001.jpg","0","","prediction_trial","0","","true","","0","true","true","true","true","true","true","[0]","001","001","1","","","","","","",""
"","","","","","image-keyboard-response","119","526107","0.0-94.0","607ec28e6a0bde56a9d69ddc","665500ab8938657b03fbdba8","66577dcf3401833067c68e73","1428","stimuli/00010010.jpg"," ","","feedback_trial","0","","","","","","","","","","","","","","","","","","","","",""
"","","","","","image-keyboard-response","120","528067","0.0-95.0","607ec28e6a0bde56a9d69ddc","665500ab8938657b03fbdba8","66577dcf3401833067c68e73","1959","stimuli/1110010.jpg","1","","prediction_trial","0","","false","","1","false","true","false","false","false","false","[0,1]","110","010","0","","","","","","",""
"","","","","","image-keyboard-response","121","531412","0.0-96.0","607ec28e6a0bde56a9d69ddc","665500ab8938657b03fbdba8","66577dcf3401833067c68e73","3344","stimuli/11100100.jpg"," ","","feedback_trial","0","","","","","","","","","","","","","","","","","","","","",""
"","","","","","image-keyboard-response","122","533721","0.0-97.0","607ec28e6a0bde56a9d69ddc","665500ab8938657b03fbdba8","66577dcf3401833067c68e73","2309","stimuli/1111110.jpg","0","","prediction_trial","2","","false","","1","false","false","false","false","false","false","[1,0,2]","111","110","0","","","","","","",""
"","","","","","image-keyboard-response","123","537815","0.0-98.0","607ec28e6a0bde56a9d69ddc","665500ab8938657b03fbdba8","66577dcf3401833067c68e73","4093","stimuli/11111102.jpg"," ","","feedback_trial","1","","","","","","","","","","","","","","","","","","","","",""
"","","","","","image-keyboard-response","124","539351","0.0-99.0","607ec28e6a0bde56a9d69ddc","665500ab8938657b03fbdba8","66577dcf3401833067c68e73","1536","stimuli/0010100.jpg","0","","prediction_trial","0","","true","","0","false","true","true","true","false","true","[0]","010","100","1","","","","","","",""
"","","","","","image-keyboard-response","125","541479","0.0-100.0","607ec28e6a0bde56a9d69ddc","665500ab8938657b03fbdba8","66577dcf3401833067c68e73","2127","stimuli/00101000.jpg"," ","","feedback_trial","0","","","","","","","","","","","","","","","","","","","","",""
"","","","","","image-keyboard-response","126","543511","0.0-101.0","607ec28e6a0bde56a9d69ddc","665500ab8938657b03fbdba8","66577dcf3401833067c68e73","2031","stimuli/0000111.jpg","2","","prediction_trial","0","","false","","0","false","false","true","true","false","false","[0]","000","111","0","","","","","","",""
"","","","","","image-keyboard-response","127","545518","0.0-102.0","607ec28e6a0bde56a9d69ddc","665500ab8938657b03fbdba8","66577dcf3401833067c68e73","2006","stimuli/00001110.jpg"," ","","feedback_trial","0","","","","","","","","","","","","","","","","","","","","",""
"","","","","","image-keyboard-response","128","548297","0.0-103.0","607ec28e6a0bde56a9d69ddc","665500ab8938657b03fbdba8","66577dcf3401833067c68e73","2779","stimuli/2011110.jpg","1","","prediction_trial","2","","false","","2","true","true","false","false","false","false","[2,1]","011","110","0","","","","","","",""
"","","","","","image-keyboard-response","129","550357","0.0-104.0","607ec28e6a0bde56a9d69ddc","665500ab8938657b03fbdba8","66577dcf3401833067c68e73","2059","stimuli/20111102.jpg"," ","","feedback_trial","2","","","","","","","","","","","","","","","","","","","","",""
"","","","","","image-keyboard-response","130","552163","0.0-105.0","607ec28e6a0bde56a9d69ddc","665500ab8938657b03fbdba8","66577dcf3401833067c68e73","1805","stimuli/0010101.jpg","0","","prediction_trial","0","","true","","0","false","false","true","true","false","false","[0]","010","101","1","","","","","","",""
"","","","","","image-keyboard-response","131","554215","0.0-106.0","607ec28e6a0bde56a9d69ddc","665500ab8938657b03fbdba8","66577dcf3401833067c68e73","2051","stimuli/00101010.jpg"," ","","feedback_trial","0","","","","","","","","","","","","","","","","","","","","",""
"","","","","","image-keyboard-response","132","556426","0.0-107.0","607ec28e6a0bde56a9d69ddc","665500ab8938657b03fbdba8","66577dcf3401833067c68e73","2210","stimuli/2101000.jpg","2","","prediction_trial","2","","true","","2","true","true","false","false","false","false","[2,0]","101","000","1","","","","","","",""
"","","","","","image-keyboard-response","133","557981","0.0-108.0","607ec28e6a0bde56a9d69ddc","665500ab8938657b03fbdba8","66577dcf3401833067c68e73","1554","stimuli/21010002.jpg"," ","","feedback_trial","2","","","","","","","","","","","","","","","","","","","","",""
"","","","","","image-keyboard-response","134","559582","0.0-109.0","607ec28e6a0bde56a9d69ddc","665500ab8938657b03fbdba8","66577dcf3401833067c68e73","1600","stimuli/2001000.jpg","2","","prediction_trial","2","","true","","2","true","true","false","true","false","true","[2]","001","000","1","","","","","","",""
"","","","","","image-keyboard-response","135","561373","0.0-110.0","607ec28e6a0bde56a9d69ddc","665500ab8938657b03fbdba8","66577dcf3401833067c68e73","1791","stimuli/20010002.jpg"," ","","feedback_trial","2","","","","","","","","","","","","","","","","","","","","",""
"","","","","","image-keyboard-response","136","563245","0.0-111.0","607ec28e6a0bde56a9d69ddc","665500ab8938657b03fbdba8","66577dcf3401833067c68e73","1871","stimuli/1001111.jpg","0","","prediction_trial","1","","false","","1","false","false","true","true","false","false","[1]","001","111","0","","","","","","",""
"","","","","","image-keyboard-response","137","565417","0.0-112.0","607ec28e6a0bde56a9d69ddc","665500ab8938657b03fbdba8","66577dcf3401833067c68e73","2171","stimuli/10011111.jpg"," ","","feedback_trial","1","","","","","","","","","","","","","","","","","","","","",""
"","","","","","image-keyboard-response","138","566689","0.0-113.0","607ec28e6a0bde56a9d69ddc","665500ab8938657b03fbdba8","66577dcf3401833067c68e73","1271","stimuli/1101001.jpg","1","","prediction_trial","1","","true","","1","true","true","true","true","true","true","[1]","101","001","1","","","","","","",""
"","","","","","image-keyboard-response","139","568497","0.0-114.0","607ec28e6a0bde56a9d69ddc","665500ab8938657b03fbdba8","66577dcf3401833067c68e73","1807","stimuli/11010011.jpg"," ","","feedback_trial","1","","","","","","","","","","","","","","","","","","","","",""
"","","","","","image-keyboard-response","140","569563","0.0-115.0","607ec28e6a0bde56a9d69ddc","665500ab8938657b03fbdba8","66577dcf3401833067c68e73","1066","stimuli/1001001.jpg","1","","prediction_trial","1","","true","","1","true","true","true","true","true","true","[1]","001","001","1","","","","","","",""
"","","","","","image-keyboard-response","141","570995","0.0-116.0","607ec28e6a0bde56a9d69ddc","665500ab8938657b03fbdba8","66577dcf3401833067c68e73","1430","stimuli/10010011.jpg"," ","","feedback_trial","1","","","","","","","","","","","","","","","","","","","","",""
"","","","","","image-keyboard-response","142","572167","0.0-117.0","607ec28e6a0bde56a9d69ddc","665500ab8938657b03fbdba8","66577dcf3401833067c68e73","1171","stimuli/1100000.jpg","1","","prediction_trial","1","","true","","1","true","true","true","true","true","true","[1]","100","000","1","","","","","","",""
"","","","","","image-keyboard-response","143","574659","0.0-118.0","607ec28e6a0bde56a9d69ddc","665500ab8938657b03fbdba8","66577dcf3401833067c68e73","2491","stimuli/11000001.jpg"," ","","feedback_trial","1","","","","","","","","","","","","","","","","","","","","",""
"","","","","","image-keyboard-response","144","576385","0.0-119.0","607ec28e6a0bde56a9d69ddc","665500ab8938657b03fbdba8","66577dcf3401833067c68e73","1725","stimuli/2110001.jpg","2","","prediction_trial","2","","true","","2","false","true","true","true","false","true","[2]","110","001","1","","","","","","",""
"","","","","","image-keyboard-response","145","579765","0.0-120.0","607ec28e6a0bde56a9d69ddc","665500ab8938657b03fbdba8","66577dcf3401833067c68e73","3379","stimuli/21100012.jpg"," ","","feedback_trial","2","","","","","","","","","","","","","","","","","","","","",""
"","","","","","image-keyboard-response","146","582841","0.0-121.0","607ec28e6a0bde56a9d69ddc","665500ab8938657b03fbdba8","66577dcf3401833067c68e73","3076","stimuli/0101011.jpg","0","","prediction_trial","2","","false","","0","true","true","false","false","false","false","[0,2]","101","011","0","","","","","","",""
"","","","","","image-keyboard-response","147","584939","0.0-122.0","607ec28e6a0bde56a9d69ddc","665500ab8938657b03fbdba8","66577dcf3401833067c68e73","2099","stimuli/01010112.jpg"," ","","feedback_trial","0","","","","","","","","","","","","","","","","","","","","",""
"","","","","","image-keyboard-response","148","587536","0.0-123.0","607ec28e6a0bde56a9d69ddc","665500ab8938657b03fbdba8","66577dcf3401833067c68e73","2596","stimuli/0010110.jpg","1","","prediction_trial","0","","false","","0","false","false","true","true","false","false","[0]","010","110","0","","","","","","",""
"","","","","","image-keyboard-response","149","589099","0.0-124.0","607ec28e6a0bde56a9d69ddc","665500ab8938657b03fbdba8","66577dcf3401833067c68e73","1562","stimuli/00101100.jpg"," ","","feedback_trial","0","","","","","","","","","","","","","","","","","","","","",""
"","","","","","image-keyboard-response","150","591143","0.0-125.0","607ec28e6a0bde56a9d69ddc","665500ab8938657b03fbdba8","66577dcf3401833067c68e73","2044","stimuli/1010011.jpg","1","","prediction_trial","1","","true","","1","false","false","false","true","false","false","[1]","010","011","1","","","","","","",""
"","","","","","image-keyboard-response","151","592917","0.0-126.0","607ec28e6a0bde56a9d69ddc","665500ab8938657b03fbdba8","66577dcf3401833067c68e73","1773","stimuli/10100111.jpg"," ","","feedback_trial","1","","","","","","","","","","","","","","","","","","","","",""
"","","","","","image-keyboard-response","152","594165","0.0-127.0","607ec28e6a0bde56a9d69ddc","665500ab8938657b03fbdba8","66577dcf3401833067c68e73","1247","stimuli/2000110.jpg","2","","prediction_trial","2","","true","","2","true","true","true","true","true","true","[2]","000","110","1","","","","","","",""
"","","","","","image-keyboard-response","153","596203","0.0-128.0","607ec28e6a0bde56a9d69ddc","665500ab8938657b03fbdba8","66577dcf3401833067c68e73","2037","stimuli/20001102.jpg"," ","","feedback_trial","2","","","","","","","","","","","","","","","","","","","","",""
"","","","","","image-keyboard-response","154","597294","0.0-129.0","607ec28e6a0bde56a9d69ddc","665500ab8938657b03fbdba8","66577dcf3401833067c68e73","1090","stimuli/2100110.jpg","2","","prediction_trial","2","","true","","2","true","true","true","true","true","true","[2]","100","110","1","","","","","","",""
"","","","","","image-keyboard-response","155","598965","0.0-130.0","607ec28e6a0bde56a9d69ddc","665500ab8938657b03fbdba8","66577dcf3401833067c68e73","1671","stimuli/21001102.jpg"," ","","feedback_trial","2","","","","","","","","","","","","","","","","","","","","",""
"","","","","","image-keyboard-response","156","600721","0.0-131.0","607ec28e6a0bde56a9d69ddc","665500ab8938657b03fbdba8","66577dcf3401833067c68e73","1756","stimuli/1111000.jpg","1","","prediction_trial","0","","false","","1","true","true","false","false","false","false","[2,0,1]","111","000","0","","","","","","",""
"","","","","","image-keyboard-response","157","602245","0.0-132.0","607ec28e6a0bde56a9d69ddc","665500ab8938657b03fbdba8","66577dcf3401833067c68e73","1523","stimuli/11110000.jpg"," ","","feedback_trial","2","","","","","","","","","","","","","","","","","","","","",""
"","","","","","image-keyboard-response","158","603875","0.0-133.0","607ec28e6a0bde56a9d69ddc","665500ab8938657b03fbdba8","66577dcf3401833067c68e73","1630","stimuli/1010010.jpg","1","","prediction_trial","1","","true","","1","false","true","false","true","false","true","[1]","010","010","1","","","","","","",""
"","","","","","image-keyboard-response","159","605181","0.0-134.0","607ec28e6a0bde56a9d69ddc","665500ab8938657b03fbdba8","66577dcf3401833067c68e73","1305","stimuli/10100101.jpg"," ","","feedback_trial","1","","","","","","","","","","","","","","","","","","","","",""
"","","","","","image-keyboard-response","160","606499","0.0-135.0","607ec28e6a0bde56a9d69ddc","665500ab8938657b03fbdba8","66577dcf3401833067c68e73","1317","stimuli/0000011.jpg","0","","prediction_trial","0","","true","","0","true","true","true","true","true","true","[0]","000","011","1","","","","","","",""
"","","","","","image-keyboard-response","161","607956","0.0-136.0","607ec28e6a0bde56a9d69ddc","665500ab8938657b03fbdba8","66577dcf3401833067c68e73","1456","stimuli/00000110.jpg"," ","","feedback_trial","0","","","","","","","","","","","","","","","","","","","","",""
"","","","","","image-keyboard-response","162","609189","0.0-137.0","607ec28e6a0bde56a9d69ddc","665500ab8938657b03fbdba8","66577dcf3401833067c68e73","1232","stimuli/2110110.jpg","2","","prediction_trial","2","","true","","2","true","true","true","true","true","true","[2]","110","110","1","","","","","","",""
"","","","","","image-keyboard-response","163","610575","0.0-138.0","607ec28e6a0bde56a9d69ddc","665500ab8938657b03fbdba8","66577dcf3401833067c68e73","1385","stimuli/21101102.jpg"," ","","feedback_trial","2","","","","","","","","","","","","","","","","","","","","",""
"","","","","","image-keyboard-response","164","613121","0.0-139.0","607ec28e6a0bde56a9d69ddc","665500ab8938657b03fbdba8","66577dcf3401833067c68e73","2545","stimuli/2101010.jpg","2","","prediction_trial","2","","true","","2","true","true","false","false","false","false","[2,0]","101","010","1","","","","","","",""
"","","","","","image-keyboard-response","165","614426","0.0-140.0","607ec28e6a0bde56a9d69ddc","665500ab8938657b03fbdba8","66577dcf3401833067c68e73","1304","stimuli/21010102.jpg"," ","","feedback_trial","2","","","","","","","","","","","","","","","","","","","","",""
"","","","","","image-keyboard-response","166","616361","0.0-141.0","607ec28e6a0bde56a9d69ddc","665500ab8938657b03fbdba8","66577dcf3401833067c68e73","1935","stimuli/2110111.jpg","2","","prediction_trial","2","","true","","2","false","false","true","true","false","false","[2]","110","111","1","","","","","","",""
"","","","","","image-keyboard-response","167","617636","0.0-142.0","607ec28e6a0bde56a9d69ddc","665500ab8938657b03fbdba8","66577dcf3401833067c68e73","1274","stimuli/21101112.jpg"," ","","feedback_trial","2","","","","","","","","","","","","","","","","","","","","",""
"","","","","","image-keyboard-response","168","619187","0.0-143.0","607ec28e6a0bde56a9d69ddc","665500ab8938657b03fbdba8","66577dcf3401833067c68e73","1551","stimuli/1010101.jpg","1","","prediction_trial","1","","true","","1","true","true","false","true","false","true","[1]","010","101","1","","","","","","",""
"","","","","","image-keyboard-response","169","620825","0.0-144.0","607ec28e6a0bde56a9d69ddc","665500ab8938657b03fbdba8","66577dcf3401833067c68e73","1637","stimuli/10101011.jpg"," ","","feedback_trial","1","","","","","","","","","","","","","","","","","","","","",""
"","","","","","image-keyboard-response","170","621897","0.0-145.0","607ec28e6a0bde56a9d69ddc","665500ab8938657b03fbdba8","66577dcf3401833067c68e73","1071","stimuli/0010001.jpg","0","","prediction_trial","0","","true","","0","true","true","true","true","true","true","[0]","010","001","1","","","","","","",""
"","","","","","image-keyboard-response","171","623757","0.0-146.0","607ec28e6a0bde56a9d69ddc","665500ab8938657b03fbdba8","66577dcf3401833067c68e73","1859","stimuli/00100010.jpg"," ","","feedback_trial","0","","","","","","","","","","","","","","","","","","","","",""
"","","","","","image-keyboard-response","172","625799","0.0-147.0","607ec28e6a0bde56a9d69ddc","665500ab8938657b03fbdba8","66577dcf3401833067c68e73","2041","stimuli/0111110.jpg","1","","prediction_trial","0","","false","","0","false","false","false","false","false","false","[0,1,2]","111","110","0","","","","","","",""
"","","","","","image-keyboard-response","173","628059","0.0-148.0","607ec28e6a0bde56a9d69ddc","665500ab8938657b03fbdba8","66577dcf3401833067c68e73","2260","stimuli/01111100.jpg"," ","","feedback_trial","0","","","","","","","","","","","","","","","","","","","","",""
"","","","","","image-keyboard-response","174","630097","0.0-149.0","607ec28e6a0bde56a9d69ddc","665500ab8938657b03fbdba8","66577dcf3401833067c68e73","2037","stimuli/1001110.jpg","0","","prediction_trial","1","","false","","1","false","false","true","true","false","false","[1]","001","110","0","","","","","","",""
"","","","","","image-keyboard-response","175","631775","0.0-150.0","607ec28e6a0bde56a9d69ddc","665500ab8938657b03fbdba8","66577dcf3401833067c68e73","1676","stimuli/10011101.jpg"," ","","feedback_trial","1","","","","","","","","","","","","","","","","","","","","",""
"","","","","","image-keyboard-response","176","634241","0.0-151.0","607ec28e6a0bde56a9d69ddc","665500ab8938657b03fbdba8","66577dcf3401833067c68e73","2465","stimuli/0101000.jpg","2","","prediction_trial","0","","false","","0","true","true","false","false","false","false","[2,0]","101","000","0","","","","","","",""
"","","","","","image-keyboard-response","177","635827","0.0-152.0","607ec28e6a0bde56a9d69ddc","665500ab8938657b03fbdba8","66577dcf3401833067c68e73","1585","stimuli/01010000.jpg"," ","","feedback_trial","2","","","","","","","","","","","","","","","","","","","","",""
"","","","","","image-keyboard-response","178","637647","0.0-153.0","607ec28e6a0bde56a9d69ddc","665500ab8938657b03fbdba8","66577dcf3401833067c68e73","1819","stimuli/1110000.jpg","1","","prediction_trial","0","","false","","1","true","true","false","false","false","false","[1,0]","110","000","0","","","","","","",""
"","","","","","image-keyboard-response","179","638821","0.0-154.0","607ec28e6a0bde56a9d69ddc","665500ab8938657b03fbdba8","66577dcf3401833067c68e73","1173","stimuli/11100000.jpg"," ","","feedback_trial","1","","","","","","","","","","","","","","","","","","","","",""
"","","","","","image-keyboard-response","180","640005","0.0-155.0","607ec28e6a0bde56a9d69ddc","665500ab8938657b03fbdba8","66577dcf3401833067c68e73","1183","stimuli/0011011.jpg","0","","prediction_trial","0","","true","","0","true","true","true","true","true","true","[0]","011","011","1","","","","","","",""
"","","","","","image-keyboard-response","181","641165","0.0-156.0","607ec28e6a0bde56a9d69ddc","665500ab8938657b03fbdba8","66577dcf3401833067c68e73","1159","stimuli/00110110.jpg"," ","","feedback_trial","0","","","","","","","","","","","","","","","","","","","","",""
"","","","","","image-keyboard-response","182","643299","0.0-157.0","607ec28e6a0bde56a9d69ddc","665500ab8938657b03fbdba8","66577dcf3401833067c68e73","2133","stimuli/0101010.jpg","0","","prediction_trial","0","","true","","0","true","true","false","false","false","false","[0,2]","101","010","1","","","","","","",""
"","","","","","image-keyboard-response","183","644661","0.0-158.0","607ec28e6a0bde56a9d69ddc","665500ab8938657b03fbdba8","66577dcf3401833067c68e73","1361","stimuli/01010100.jpg"," ","","feedback_trial","0","","","","","","","","","","","","","","","","","","","","",""
"","","","","","image-keyboard-response","184","645721","0.0-159.0","607ec28e6a0bde56a9d69ddc","665500ab8938657b03fbdba8","66577dcf3401833067c68e73","1067","stimuli/2000000.jpg","2","","prediction_trial","2","","true","","2","true","true","true","true","true","true","[2]","000","000","1","","","","","","",""
"","","","","","image-keyboard-response","185","647701","0.0-160.0","607ec28e6a0bde56a9d69ddc","665500ab8938657b03fbdba8","66577dcf3401833067c68e73","1979","stimuli/20000002.jpg"," ","","feedback_trial","2","","","","","","","","","","","","","","","","","","","","",""
"","","","","","image-keyboard-response","186","649340","0.0-161.0","607ec28e6a0bde56a9d69ddc","665500ab8938657b03fbdba8","66577dcf3401833067c68e73","1639","stimuli/1111001.jpg","1","","prediction_trial","0","","false","","1","true","true","false","false","false","false","[2,1,0]","111","001","0","","","","","","",""
"","","","","","image-keyboard-response","187","650564","0.0-162.0","607ec28e6a0bde56a9d69ddc","665500ab8938657b03fbdba8","66577dcf3401833067c68e73","1223","stimuli/11110010.jpg"," ","","feedback_trial","2","","","","","","","","","","","","","","","","","","","","",""
"","","","","","image-keyboard-response","188","652539","0.0-163.0","607ec28e6a0bde56a9d69ddc","665500ab8938657b03fbdba8","66577dcf3401833067c68e73","1974","stimuli/2111010.jpg","2","","prediction_trial","2","","true","","2","true","true","false","false","false","false","[0,1,2]","111","010","1","","","","","","",""
"","","","","","image-keyboard-response","189","653940","0.0-164.0","607ec28e6a0bde56a9d69ddc","665500ab8938657b03fbdba8","66577dcf3401833067c68e73","1401","stimuli/21110102.jpg"," ","","feedback_trial","0","","","","","","","","","","","","","","","","","","","","",""
"","","","","","image-keyboard-response","190","656964","0.0-165.0","607ec28e6a0bde56a9d69ddc","665500ab8938657b03fbdba8","66577dcf3401833067c68e73","3023","stimuli/0110001.jpg","0","","prediction_trial","0","","true","","0","true","true","false","false","false","false","[0,1]","110","001","1","","","","","","",""
"","","","","","image-keyboard-response","191","658031","0.0-166.0","607ec28e6a0bde56a9d69ddc","665500ab8938657b03fbdba8","66577dcf3401833067c68e73","1066","stimuli/01100010.jpg"," ","","feedback_trial","0","","","","","","","","","","","","","","","","","","","","",""
"","","","","","image-keyboard-response","192","660722","0.0-167.0","607ec28e6a0bde56a9d69ddc","665500ab8938657b03fbdba8","66577dcf3401833067c68e73","2690","stimuli/2010101.jpg","2","","prediction_trial","2","","true","","2","false","false","true","true","false","false","[2]","010","101","1","","","","","","",""
"","","","","","image-keyboard-response","193","661888","0.0-168.0","607ec28e6a0bde56a9d69ddc","665500ab8938657b03fbdba8","66577dcf3401833067c68e73","1165","stimuli/20101012.jpg"," ","","feedback_trial","2","","","","","","","","","","","","","","","","","","","","",""
"","","","","","image-keyboard-response","194","664170","0.0-169.0","607ec28e6a0bde56a9d69ddc","665500ab8938657b03fbdba8","66577dcf3401833067c68e73","2282","stimuli/1111010.jpg","1","","prediction_trial","0","","false","","1","false","true","false","false","false","false","[1,0,2]","111","010","0","","","","","","",""
"","","","","","image-keyboard-response","195","666024","0.0-170.0","607ec28e6a0bde56a9d69ddc","665500ab8938657b03fbdba8","66577dcf3401833067c68e73","1853","stimuli/11110100.jpg"," ","","feedback_trial","1","","","","","","","","","","","","","","","","","","","","",""
"","","","","","image-keyboard-response","196","667764","0.0-171.0","607ec28e6a0bde56a9d69ddc","665500ab8938657b03fbdba8","66577dcf3401833067c68e73","1739","stimuli/1010100.jpg","1","","prediction_trial","1","","true","","1","true","true","false","true","false","true","[1]","010","100","1","","","","","","",""
"","","","","","image-keyboard-response","197","669615","0.0-172.0","607ec28e6a0bde56a9d69ddc","665500ab8938657b03fbdba8","66577dcf3401833067c68e73","1849","stimuli/10101001.jpg"," ","","feedback_trial","1","","","","","","","","","","","","","","","","","","","","",""
"","","","","","image-keyboard-response","198","671080","0.0-173.0","607ec28e6a0bde56a9d69ddc","665500ab8938657b03fbdba8","66577dcf3401833067c68e73","1465","stimuli/0000000.jpg","0","","prediction_trial","0","","true","","0","true","true","true","true","true","true","[0]","000","000","1","","","","","","",""
"","","","","","image-keyboard-response","199","672396","0.0-174.0","607ec28e6a0bde56a9d69ddc","665500ab8938657b03fbdba8","66577dcf3401833067c68e73","1315","stimuli/00000000.jpg"," ","","feedback_trial","0","","","","","","","","","","","","","","","","","","","","",""
"","","","","","image-keyboard-response","200","674651","0.0-175.0","607ec28e6a0bde56a9d69ddc","665500ab8938657b03fbdba8","66577dcf3401833067c68e73","2254","stimuli/0110110.jpg","0","","prediction_trial","1","","false","","0","false","false","false","false","false","false","[0,1]","110","110","0","","","","","","",""
"","","","","","image-keyboard-response","201","676017","0.0-176.0","607ec28e6a0bde56a9d69ddc","665500ab8938657b03fbdba8","66577dcf3401833067c68e73","1365","stimuli/01101101.jpg"," ","","feedback_trial","0","","","","","","","","","","","","","","","","","","","","",""
"","","","","","image-keyboard-response","202","678530","0.0-177.0","607ec28e6a0bde56a9d69ddc","665500ab8938657b03fbdba8","66577dcf3401833067c68e73","2513","stimuli/0111011.jpg","1","","prediction_trial","0","","false","","0","true","true","false","false","false","false","[1,2,0]","111","011","0","","","","","","",""
"","","","","","image-keyboard-response","203","679630","0.0-178.0","607ec28e6a0bde56a9d69ddc","665500ab8938657b03fbdba8","66577dcf3401833067c68e73","1099","stimuli/01110110.jpg"," ","","feedback_trial","1","","","","","","","","","","","","","","","","","","","","",""
"","","","","","image-keyboard-response","204","681647","0.0-179.0","607ec28e6a0bde56a9d69ddc","665500ab8938657b03fbdba8","66577dcf3401833067c68e73","2015","stimuli/0111111.jpg","2","","prediction_trial","0","","false","","0","false","false","false","false","false","false","[0,1,2]","111","111","0","","","","","","",""
"","","","","","image-keyboard-response","205","682849","0.0-180.0","607ec28e6a0bde56a9d69ddc","665500ab8938657b03fbdba8","66577dcf3401833067c68e73","1201","stimuli/01111110.jpg"," ","","feedback_trial","0","","","","","","","","","","","","","","","","","","","","",""
"","","","","","image-keyboard-response","206","684986","0.0-181.0","607ec28e6a0bde56a9d69ddc","665500ab8938657b03fbdba8","66577dcf3401833067c68e73","2137","stimuli/2011000.jpg","2","","prediction_trial","2","","true","","2","true","true","false","false","false","false","[2,1]","011","000","1","","","","","","",""
"","","","","","image-keyboard-response","207","686492","0.0-182.0","607ec28e6a0bde56a9d69ddc","665500ab8938657b03fbdba8","66577dcf3401833067c68e73","1505","stimuli/20110002.jpg"," ","","feedback_trial","2","","","","","","","","","","","","","","","","","","","","",""
"","","","","","image-keyboard-response","208","690599","0.0-183.0","607ec28e6a0bde56a9d69ddc","665500ab8938657b03fbdba8","66577dcf3401833067c68e73","4107","stimuli/0111010.jpg","1","","prediction_trial","2","","false","","0","true","true","false","false","false","false","[0,1,2]","111","010","0","","","","","","",""
"","","","","","image-keyboard-response","209","691934","0.0-184.0","607ec28e6a0bde56a9d69ddc","665500ab8938657b03fbdba8","66577dcf3401833067c68e73","1334","stimuli/01110102.jpg"," ","","feedback_trial","0","","","","","","","","","","","","","","","","","","","","",""
"","","","","","image-keyboard-response","210","693911","0.0-185.0","607ec28e6a0bde56a9d69ddc","665500ab8938657b03fbdba8","66577dcf3401833067c68e73","1976","stimuli/0101111.jpg","1","","prediction_trial","0","","false","","0","false","false","false","false","false","false","[0,2]","101","111","0","","","","","","",""
"","","","","","image-keyboard-response","211","695270","0.0-186.0","607ec28e6a0bde56a9d69ddc","665500ab8938657b03fbdba8","66577dcf3401833067c68e73","1358","stimuli/01011110.jpg"," ","","feedback_trial","0","","","","","","","","","","","","","","","","","","","","",""
"","","","","","image-keyboard-response","212","698532","0.0-187.0","607ec28e6a0bde56a9d69ddc","665500ab8938657b03fbdba8","66577dcf3401833067c68e73","3262","stimuli/0100010.jpg","0","","prediction_trial","0","","true","","0","true","true","false","true","false","true","[0]","100","010","1","","","","","","",""
"","","","","","image-keyboard-response","213","700056","0.0-188.0","607ec28e6a0bde56a9d69ddc","665500ab8938657b03fbdba8","66577dcf3401833067c68e73","1523","stimuli/01000100.jpg"," ","","feedback_trial","0","","","","","","","","","","","","","","","","","","","","",""
"","","","","","image-keyboard-response","214","701312","0.0-189.0","607ec28e6a0bde56a9d69ddc","665500ab8938657b03fbdba8","66577dcf3401833067c68e73","1256","stimuli/2000100.jpg","2","","prediction_trial","2","","true","","2","true","true","true","true","true","true","[2]","000","100","1","","","","","","",""
"","","","","","image-keyboard-response","215","702720","0.0-190.0","607ec28e6a0bde56a9d69ddc","665500ab8938657b03fbdba8","66577dcf3401833067c68e73","1407","stimuli/20001002.jpg"," ","","feedback_trial","2","","","","","","","","","","","","","","","","","","","","",""
"","","","","","image-keyboard-response","216","704737","0.0-191.0","607ec28e6a0bde56a9d69ddc","665500ab8938657b03fbdba8","66577dcf3401833067c68e73","2015","stimuli/2011101.jpg","0","","prediction_trial","1","","false","","2","false","false","false","false","false","false","[1,2]","011","101","0","","","","","","",""
"","","","","","image-keyboard-response","217","707471","0.0-192.0","607ec28e6a0bde56a9d69ddc","665500ab8938657b03fbdba8","66577dcf3401833067c68e73","2727","stimuli/20111011.jpg"," ","","feedback_trial","1","","","","","","","","","","","","","","","","","","","","",""
"","","","","","image-keyboard-response","218","710284","0.0-193.0","607ec28e6a0bde56a9d69ddc","665500ab8938657b03fbdba8","66577dcf3401833067c68e73","2812","stimuli/1110101.jpg","1","","prediction_trial","1","","true","","1","true","true","false","false","false","false","[0,1]","110","101","1","","","","","","",""
"","","","","","image-keyboard-response","219","711332","0.0-194.0","607ec28e6a0bde56a9d69ddc","665500ab8938657b03fbdba8","66577dcf3401833067c68e73","1047","stimuli/11101011.jpg"," ","","feedback_trial","0","","","","","","","","","","","","","","","","","","","","",""
"","","","","","image-keyboard-response","220","714532","0.0-195.0","607ec28e6a0bde56a9d69ddc","665500ab8938657b03fbdba8","66577dcf3401833067c68e73","3199","stimuli/0100110.jpg","1","","prediction_trial","0","","false","","0","false","false","false","true","false","false","[0]","100","110","0","","","","","","",""
"","","","","","image-keyboard-response","221","715756","0.0-196.0","607ec28e6a0bde56a9d69ddc","665500ab8938657b03fbdba8","66577dcf3401833067c68e73","1223","stimuli/01001100.jpg"," ","","feedback_trial","0","","","","","","","","","","","","","","","","","","","","",""
"","","","","","image-keyboard-response","222","719120","0.0-197.0","607ec28e6a0bde56a9d69ddc","665500ab8938657b03fbdba8","66577dcf3401833067c68e73","3363","stimuli/2011011.jpg","2","","prediction_trial","1","","false","","2","false","false","false","false","false","false","[2,1]","011","011","0","","","","","","",""
"","","","","","image-keyboard-response","223","720154","0.0-198.0","607ec28e6a0bde56a9d69ddc","665500ab8938657b03fbdba8","66577dcf3401833067c68e73","1033","stimuli/20110111.jpg"," ","","feedback_trial","2","","","","","","","","","","","","","","","","","","","","",""
"","","","","","image-keyboard-response","224","722136","0.0-199.0","607ec28e6a0bde56a9d69ddc","665500ab8938657b03fbdba8","66577dcf3401833067c68e73","1981","stimuli/2101001.jpg","2","","prediction_trial","2","","true","","2","false","true","false","false","false","false","[2,0]","101","001","1","","","","","","",""
"","","","","","image-keyboard-response","225","724408","0.0-200.0","607ec28e6a0bde56a9d69ddc","665500ab8938657b03fbdba8","66577dcf3401833067c68e73","2271","stimuli/21010012.jpg"," ","","feedback_trial","2","","","","","","","","","","","","","","","","","","","","",""
"","","","","","image-keyboard-response","226","728173","0.0-201.0","607ec28e6a0bde56a9d69ddc","665500ab8938657b03fbdba8","66577dcf3401833067c68e73","3764","stimuli/0010111.jpg","0","","prediction_trial","0","","true","","0","false","false","true","true","false","false","[0]","010","111","1","","","","","","",""
"","","","","","image-keyboard-response","227","729340","0.0-202.0","607ec28e6a0bde56a9d69ddc","665500ab8938657b03fbdba8","66577dcf3401833067c68e73","1166","stimuli/00101110.jpg"," ","","feedback_trial","0","","","","","","","","","","","","","","","","","","","","",""
"","","","","","image-keyboard-response","228","731620","0.0-203.0","607ec28e6a0bde56a9d69ddc","665500ab8938657b03fbdba8","66577dcf3401833067c68e73","2280","stimuli/2111101.jpg","0","","prediction_trial","1","","false","","2","false","false","false","false","false","false","[0,1,2]","111","101","0","","","","","","",""
"","","","","","image-keyboard-response","229","733671","0.0-204.0","607ec28e6a0bde56a9d69ddc","665500ab8938657b03fbdba8","66577dcf3401833067c68e73","2049","stimuli/21111011.jpg"," ","","feedback_trial","0","","","","","","","","","","","","","","","","","","","","",""
"","","","","","image-keyboard-response","230","736022","0.0-205.0","607ec28e6a0bde56a9d69ddc","665500ab8938657b03fbdba8","66577dcf3401833067c68e73","2350","stimuli/2011010.jpg","1","","prediction_trial","2","","false","","2","true","true","false","false","false","false","[2,1]","011","010","0","","","","","","",""
"","","","","","image-keyboard-response","231","737395","0.0-206.0","607ec28e6a0bde56a9d69ddc","665500ab8938657b03fbdba8","66577dcf3401833067c68e73","1372","stimuli/20110102.jpg"," ","","feedback_trial","2","","","","","","","","","","","","","","","","","","","","",""
"","","","","","image-keyboard-response","232","738898","0.0-207.0","607ec28e6a0bde56a9d69ddc","665500ab8938657b03fbdba8","66577dcf3401833067c68e73","1502","stimuli/1111111.jpg","2","","prediction_trial","0","","false","","1","false","false","false","false","false","false","[1,0,2]","111","111","0","","","","","","",""
"","","","","","image-keyboard-response","233","740088","0.0-208.0","607ec28e6a0bde56a9d69ddc","665500ab8938657b03fbdba8","66577dcf3401833067c68e73","1190","stimuli/11111110.jpg"," ","","feedback_trial","1","","","","","","","","","","","","","","","","","","","","",""
"","","","","","image-keyboard-response","234","741404","0.0-209.0","607ec28e6a0bde56a9d69ddc","665500ab8938657b03fbdba8","66577dcf3401833067c68e73","1315","stimuli/1101100.jpg","1","","prediction_trial","1","","true","","1","true","true","true","true","true","true","[1]","101","100","1","","","","","","",""
"","","","","","image-keyboard-response","235","742810","0.0-210.0","607ec28e6a0bde56a9d69ddc","665500ab8938657b03fbdba8","66577dcf3401833067c68e73","1405","stimuli/11011001.jpg"," ","","feedback_trial","1","","","","","","","","","","","","","","","","","","","","",""
"","","","","","image-keyboard-response","236","744962","0.0-211.0","607ec28e6a0bde56a9d69ddc","665500ab8938657b03fbdba8","66577dcf3401833067c68e73","2151","stimuli/1000011.jpg","2","","prediction_trial","1","","false","","1","false","false","true","true","false","false","[1]","000","011","0","","","","","","",""
"","","","","","image-keyboard-response","237","746205","0.0-212.0","607ec28e6a0bde56a9d69ddc","665500ab8938657b03fbdba8","66577dcf3401833067c68e73","1242","stimuli/10000111.jpg"," ","","feedback_trial","1","","","","","","","","","","","","","","","","","","","","",""
"","","","","","image-keyboard-response","238","749360","0.0-213.0","607ec28e6a0bde56a9d69ddc","665500ab8938657b03fbdba8","66577dcf3401833067c68e73","3154","stimuli/2011100.jpg","2","","prediction_trial","1","","false","","2","true","true","false","false","false","false","[1,2]","011","100","0","","","","","","",""
"","","","","","image-keyboard-response","239","750574","0.0-214.0","607ec28e6a0bde56a9d69ddc","665500ab8938657b03fbdba8","66577dcf3401833067c68e73","1213","stimuli/20111001.jpg"," ","","feedback_trial","1","","","","","","","","","","","","","","","","","","","","",""
"","","","","","image-keyboard-response","240","752962","0.0-215.0","607ec28e6a0bde56a9d69ddc","665500ab8938657b03fbdba8","66577dcf3401833067c68e73","2387","stimuli/1011011.jpg","1","","prediction_trial","2","","false","","1","false","false","false","false","false","false","[1,2]","011","011","0","","","","","","",""
"","","","","","image-keyboard-response","241","754065","0.0-216.0","607ec28e6a0bde56a9d69ddc","665500ab8938657b03fbdba8","66577dcf3401833067c68e73","1102","stimuli/10110112.jpg"," ","","feedback_trial","1","","","","","","","","","","","","","","","","","","","","",""
"","","","","","image-keyboard-response","242","755259","0.0-217.0","607ec28e6a0bde56a9d69ddc","665500ab8938657b03fbdba8","66577dcf3401833067c68e73","1193","stimuli/1000100.jpg","1","","prediction_trial","1","","true","","1","true","true","true","true","true","true","[1]","000","100","1","","","","","","",""
"","","","","","image-keyboard-response","243","757026","0.0-218.0","607ec28e6a0bde56a9d69ddc","665500ab8938657b03fbdba8","66577dcf3401833067c68e73","1767","stimuli/10001001.jpg"," ","","feedback_trial","1","","","","","","","","","","","","","","","","","","","","",""
"","","","","","image-keyboard-response","244","758550","0.0-219.0","607ec28e6a0bde56a9d69ddc","665500ab8938657b03fbdba8","66577dcf3401833067c68e73","1523","stimuli/1101010.jpg","1","","prediction_trial","1","","true","","1","false","true","true","true","false","true","[1]","101","010","1","","","","","","",""
"","","","","","image-keyboard-response","245","759808","0.0-220.0","607ec28e6a0bde56a9d69ddc","665500ab8938657b03fbdba8","66577dcf3401833067c68e73","1257","stimuli/11010101.jpg"," ","","feedback_trial","1","","","","","","","","","","","","","","","","","","","","",""
"","","","","","image-keyboard-response","246","761911","0.0-221.0","607ec28e6a0bde56a9d69ddc","665500ab8938657b03fbdba8","66577dcf3401833067c68e73","2102","stimuli/0110111.jpg","2","","prediction_trial","0","","false","","0","false","false","false","false","false","false","[0,1]","110","111","0","","","","","","",""
"","","","","","image-keyboard-response","247","763216","0.0-222.0","607ec28e6a0bde56a9d69ddc","665500ab8938657b03fbdba8","66577dcf3401833067c68e73","1304","stimuli/01101110.jpg"," ","","feedback_trial","0","","","","","","","","","","","","","","","","","","","","",""
"","","","","","image-keyboard-response","248","765076","0.0-223.0","607ec28e6a0bde56a9d69ddc","665500ab8938657b03fbdba8","66577dcf3401833067c68e73","1860","stimuli/1111100.jpg","1","","prediction_trial","0","","false","","1","true","true","false","false","false","false","[1,2,0]","111","100","0","","","","","","",""
"","","","","","image-keyboard-response","249","766320","0.0-224.0","607ec28e6a0bde56a9d69ddc","665500ab8938657b03fbdba8","66577dcf3401833067c68e73","1243","stimuli/11111000.jpg"," ","","feedback_trial","1","","","","","","","","","","","","","","","","","","","","",""
"","","","","","image-keyboard-response","250","769095","0.0-225.0","607ec28e6a0bde56a9d69ddc","665500ab8938657b03fbdba8","66577dcf3401833067c68e73","2771","stimuli/2100111.jpg","0","","prediction_trial","2","","false","","2","false","false","true","true","false","false","[2]","100","111","0","","","","","","",""
"","","","","","image-keyboard-response","251","770563","0.0-226.0","607ec28e6a0bde56a9d69ddc","665500ab8938657b03fbdba8","66577dcf3401833067c68e73","1467","stimuli/21001112.jpg"," ","","feedback_trial","2","","","","","","","","","","","","","","","","","","","","",""
"","","","","","image-keyboard-response","252","774187","0.0-227.0","607ec28e6a0bde56a9d69ddc","665500ab8938657b03fbdba8","66577dcf3401833067c68e73","3623","stimuli/0111100.jpg","1","","prediction_trial","0","","false","","0","false","true","false","false","false","false","[1,2,0]","111","100","0","","","","","","",""
"","","","","","image-keyboard-response","253","775277","0.0-228.0","607ec28e6a0bde56a9d69ddc","665500ab8938657b03fbdba8","66577dcf3401833067c68e73","1089","stimuli/01111000.jpg"," ","","feedback_trial","1","","","","","","","","","","","","","","","","","","","","",""
"","","","","","image-keyboard-response","254","776625","0.0-229.0","607ec28e6a0bde56a9d69ddc","665500ab8938657b03fbdba8","66577dcf3401833067c68e73","1348","stimuli/2010000.jpg","2","","prediction_trial","2","","true","","2","true","true","true","true","true","true","[2]","010","000","1","","","","","","",""
"","","","","","image-keyboard-response","255","778083","0.0-230.0","607ec28e6a0bde56a9d69ddc","665500ab8938657b03fbdba8","66577dcf3401833067c68e73","1457","stimuli/20100002.jpg"," ","","feedback_trial","2","","","","","","","","","","","","","","","","","","","","",""
"","","","","","image-keyboard-response","256","779244","0.0-231.0","607ec28e6a0bde56a9d69ddc","665500ab8938657b03fbdba8","66577dcf3401833067c68e73","1160","stimuli/1001101.jpg","1","","prediction_trial","1","","true","","1","true","true","true","true","true","true","[1]","001","101","1","","","","","","",""
"","","","","","image-keyboard-response","257","780505","0.0-232.0","607ec28e6a0bde56a9d69ddc","665500ab8938657b03fbdba8","66577dcf3401833067c68e73","1260","stimuli/10011011.jpg"," ","","feedback_trial","1","","","","","","","","","","","","","","","","","","","","",""
"","","","","","image-keyboard-response","258","782555","0.0-233.0","607ec28e6a0bde56a9d69ddc","665500ab8938657b03fbdba8","66577dcf3401833067c68e73","2049","stimuli/2011001.jpg","2","","prediction_trial","2","","true","","2","false","true","false","false","false","false","[2,1]","011","001","1","","","","","","",""
"","","","","","image-keyboard-response","259","783655","0.0-234.0","607ec28e6a0bde56a9d69ddc","665500ab8938657b03fbdba8","66577dcf3401833067c68e73","1100","stimuli/20110012.jpg"," ","","feedback_trial","2","","","","","","","","","","","","","","","","","","","","",""
"","","","","","image-keyboard-response","260","784831","0.0-235.0","607ec28e6a0bde56a9d69ddc","665500ab8938657b03fbdba8","66577dcf3401833067c68e73","1175","stimuli/0001010.jpg","0","","prediction_trial","0","","true","","0","true","true","true","true","true","true","[0]","001","010","1","","","","","","",""
"","","","","","image-keyboard-response","261","786557","0.0-236.0","607ec28e6a0bde56a9d69ddc","665500ab8938657b03fbdba8","66577dcf3401833067c68e73","1725","stimuli/00010100.jpg"," ","","feedback_trial","0","","","","","","","","","","","","","","","","","","","","",""
"","","","","","image-keyboard-response","262","788278","0.0-237.0","607ec28e6a0bde56a9d69ddc","665500ab8938657b03fbdba8","66577dcf3401833067c68e73","1720","stimuli/2111000.jpg","2","","prediction_trial","2","","true","","2","true","true","false","false","false","false","[2,0,1]","111","000","1","","","","","","",""
"","","","","","image-keyboard-response","263","789521","0.0-238.0","607ec28e6a0bde56a9d69ddc","665500ab8938657b03fbdba8","66577dcf3401833067c68e73","1243","stimuli/21110002.jpg"," ","","feedback_trial","2","","","","","","","","","","","","","","","","","","","","",""
"","","","","","image-keyboard-response","264","791723","0.0-239.0","607ec28e6a0bde56a9d69ddc","665500ab8938657b03fbdba8","66577dcf3401833067c68e73","2201","stimuli/2000101.jpg","0","","prediction_trial","2","","false","","2","false","false","true","true","false","false","[2]","000","101","0","","","","","","",""
"","","","","","image-keyboard-response","265","793695","0.0-240.0","607ec28e6a0bde56a9d69ddc","665500ab8938657b03fbdba8","66577dcf3401833067c68e73","1971","stimuli/20001012.jpg"," ","","feedback_trial","2","","","","","","","","","","","","","","","","","","","","",""
"","","","","","image-keyboard-response","266","794723","0.0-241.0","607ec28e6a0bde56a9d69ddc","665500ab8938657b03fbdba8","66577dcf3401833067c68e73","1027","stimuli/0000010.jpg","0","","prediction_trial","0","","true","","0","true","true","true","true","true","true","[0]","000","010","1","","","","","","",""
"","","","","","image-keyboard-response","267","795979","0.0-242.0","607ec28e6a0bde56a9d69ddc","665500ab8938657b03fbdba8","66577dcf3401833067c68e73","1255","stimuli/00000100.jpg"," ","","feedback_trial","0","","","","","","","","","","","","","","","","","","","","",""
"","","","","","image-keyboard-response","268","798003","0.0-243.0","607ec28e6a0bde56a9d69ddc","665500ab8938657b03fbdba8","66577dcf3401833067c68e73","2023","stimuli/0001110.jpg","1","","prediction_trial","0","","false","","0","false","false","true","true","false","false","[0]","001","110","0","","","","","","",""
"","","","","","image-keyboard-response","269","798920","0.0-244.0","607ec28e6a0bde56a9d69ddc","665500ab8938657b03fbdba8","66577dcf3401833067c68e73","916","stimuli/00011100.jpg"," ","","feedback_trial","0","","","","","","","","","","","","","","","","","","","","",""
"","","","","","image-keyboard-response","270","801125","0.0-245.0","607ec28e6a0bde56a9d69ddc","665500ab8938657b03fbdba8","66577dcf3401833067c68e73","2205","stimuli/0111101.jpg","0","","prediction_trial","1","","false","","0","false","false","false","false","false","false","[0,1,2]","111","101","0","","","","","","",""
"","","","","","image-keyboard-response","271","802579","0.0-246.0","607ec28e6a0bde56a9d69ddc","665500ab8938657b03fbdba8","66577dcf3401833067c68e73","1453","stimuli/01111011.jpg"," ","","feedback_trial","0","","","","","","","","","","","","","","","","","","","","",""
"","","","","","image-keyboard-response","272","805441","0.0-247.0","607ec28e6a0bde56a9d69ddc","665500ab8938657b03fbdba8","66577dcf3401833067c68e73","2861","stimuli/2100011.jpg","1","","prediction_trial","2","","false","","2","false","false","true","true","false","false","[2]","100","011","0","","","","","","",""
"","","","","","image-keyboard-response","273","806511","0.0-248.0","607ec28e6a0bde56a9d69ddc","665500ab8938657b03fbdba8","66577dcf3401833067c68e73","1069","stimuli/21000112.jpg"," ","","feedback_trial","2","","","","","","","","","","","","","","","","","","","","",""
"","","","","","image-keyboard-response","274","807719","0.0-249.0","607ec28e6a0bde56a9d69ddc","665500ab8938657b03fbdba8","66577dcf3401833067c68e73","1207","stimuli/1001000.jpg","1","","prediction_trial","1","","true","","1","true","true","true","true","true","true","[1]","001","000","1","","","","","","",""
"","","","","","image-keyboard-response","275","809025","0.0-250.0","607ec28e6a0bde56a9d69ddc","665500ab8938657b03fbdba8","66577dcf3401833067c68e73","1305","stimuli/10010001.jpg"," ","","feedback_trial","1","","","","","","","","","","","","","","","","","","","","",""
"","","","","","image-keyboard-response","276","810285","0.0-251.0","607ec28e6a0bde56a9d69ddc","665500ab8938657b03fbdba8","66577dcf3401833067c68e73","1259","stimuli/2010010.jpg","2","","prediction_trial","2","","true","","2","true","true","true","true","true","true","[2]","010","010","1","","","","","","",""
"","","","","","image-keyboard-response","277","811477","0.0-252.0","607ec28e6a0bde56a9d69ddc","665500ab8938657b03fbdba8","66577dcf3401833067c68e73","1191","stimuli/20100102.jpg"," ","","feedback_trial","2","","","","","","","","","","","","","","","","","","","","",""
"","","","","","image-keyboard-response","278","814411","0.0-253.0","607ec28e6a0bde56a9d69ddc","665500ab8938657b03fbdba8","66577dcf3401833067c68e73","2934","stimuli/0011100.jpg","0","","prediction_trial","0","","true","","0","false","true","true","true","false","true","[0]","011","100","1","","","","","","",""
"","","","","","image-keyboard-response","279","815431","0.0-254.0","607ec28e6a0bde56a9d69ddc","665500ab8938657b03fbdba8","66577dcf3401833067c68e73","1019","stimuli/00111000.jpg"," ","","feedback_trial","0","","","","","","","","","","","","","","","","","","","","",""
"","","","","","image-keyboard-response","280","816631","0.0-255.0","607ec28e6a0bde56a9d69ddc","665500ab8938657b03fbdba8","66577dcf3401833067c68e73","1200","stimuli/2110100.jpg","2","","prediction_trial","2","","true","","2","true","true","true","true","true","true","[2]","110","100","1","","","","","","",""
"","","","","","image-keyboard-response","281","818019","0.0-256.0","607ec28e6a0bde56a9d69ddc","665500ab8938657b03fbdba8","66577dcf3401833067c68e73","1387","stimuli/21101002.jpg"," ","","feedback_trial","2","","","","","","","","","","","","","","","","","","","","",""
"","","","","","image-keyboard-response","282","820481","0.0-257.0","607ec28e6a0bde56a9d69ddc","665500ab8938657b03fbdba8","66577dcf3401833067c68e73","2461","stimuli/1100010.jpg","1","","prediction_trial","1","","true","","1","false","true","true","true","false","true","[1]","100","010","1","","","","","","",""
"","","","","","image-keyboard-response","283","822103","0.0-258.0","607ec28e6a0bde56a9d69ddc","665500ab8938657b03fbdba8","66577dcf3401833067c68e73","1621","stimuli/11000101.jpg"," ","","feedback_trial","1","","","","","","","","","","","","","","","","","","","","",""
"","","","","","image-keyboard-response","284","825233","0.0-259.0","607ec28e6a0bde56a9d69ddc","665500ab8938657b03fbdba8","66577dcf3401833067c68e73","3130","stimuli/0100111.jpg","2","","prediction_trial","0","","false","","0","false","false","false","true","false","false","[0]","100","111","0","","","","","","",""
"","","","","","image-keyboard-response","285","826623","0.0-260.0","607ec28e6a0bde56a9d69ddc","665500ab8938657b03fbdba8","66577dcf3401833067c68e73","1389","stimuli/01001110.jpg"," ","","feedback_trial","0","","","","","","","","","","","","","","","","","","","","",""
"","","","","","image-keyboard-response","286","829394","0.0-261.0","607ec28e6a0bde56a9d69ddc","665500ab8938657b03fbdba8","66577dcf3401833067c68e73","2769","stimuli/1110001.jpg","1","","prediction_trial","0","","false","","1","true","true","false","false","false","false","[1,0]","110","001","0","","","","","","",""
"","","","","","image-keyboard-response","287","830520","0.0-262.0","607ec28e6a0bde56a9d69ddc","665500ab8938657b03fbdba8","66577dcf3401833067c68e73","1125","stimuli/11100010.jpg"," ","","feedback_trial","1","","","","","","","","","","","","","","","","","","","","",""
"","","","","","image-keyboard-response","288","832282","0.0-263.0","607ec28e6a0bde56a9d69ddc","665500ab8938657b03fbdba8","66577dcf3401833067c68e73","1761","stimuli/2100001.jpg","2","","prediction_trial","2","","true","","2","false","true","true","true","false","true","[2]","100","001","1","","","","","","",""
"","","","","","image-keyboard-response","289","833752","0.0-264.0","607ec28e6a0bde56a9d69ddc","665500ab8938657b03fbdba8","66577dcf3401833067c68e73","1469","stimuli/21000012.jpg"," ","","feedback_trial","2","","","","","","","","","","","","","","","","","","","","",""
"","","","","","image-keyboard-response","290","837648","0.0-265.0","607ec28e6a0bde56a9d69ddc","665500ab8938657b03fbdba8","66577dcf3401833067c68e73","3895","stimuli/2111100.jpg","2","","prediction_trial","1","","false","","2","true","true","false","false","false","false","[0,1,2]","111","100","0","","","","","","",""
"","","","","","image-keyboard-response","291","838728","0.0-266.0","607ec28e6a0bde56a9d69ddc","665500ab8938657b03fbdba8","66577dcf3401833067c68e73","1079","stimuli/21111001.jpg"," ","","feedback_trial","0","","","","","","","","","","","","","","","","","","","","",""
"","","","","","image-keyboard-response","292","840138","0.0-267.0","607ec28e6a0bde56a9d69ddc","665500ab8938657b03fbdba8","66577dcf3401833067c68e73","1410","stimuli/0010000.jpg","0","","prediction_trial","0","","true","","0","true","true","true","true","true","true","[0]","010","000","1","","","","","","",""
"","","","","","image-keyboard-response","293","841446","0.0-268.0","607ec28e6a0bde56a9d69ddc","665500ab8938657b03fbdba8","66577dcf3401833067c68e73","1307","stimuli/00100000.jpg"," ","","feedback_trial","0","","","","","","","","","","","","","","","","","","","","",""
"","","","","","image-keyboard-response","294","842660","0.0-269.0","607ec28e6a0bde56a9d69ddc","665500ab8938657b03fbdba8","66577dcf3401833067c68e73","1213","stimuli/0011010.jpg","0","","prediction_trial","0","","true","","0","true","true","true","true","true","true","[0]","011","010","1","","","","","","",""
"","","","","","image-keyboard-response","295","843753","0.0-270.0","607ec28e6a0bde56a9d69ddc","665500ab8938657b03fbdba8","66577dcf3401833067c68e73","1092","stimuli/00110100.jpg"," ","","feedback_trial","0","","","","","","","","","","","","","","","","","","","","",""
"","","","","","image-keyboard-response","296","845550","0.0-271.0","607ec28e6a0bde56a9d69ddc","665500ab8938657b03fbdba8","66577dcf3401833067c68e73","1796","stimuli/2000111.jpg","2","","prediction_trial","2","","true","","2","false","false","true","true","false","false","[2]","000","111","1","","","","","","",""
"","","","","","image-keyboard-response","297","846924","0.0-272.0","607ec28e6a0bde56a9d69ddc","665500ab8938657b03fbdba8","66577dcf3401833067c68e73","1373","stimuli/20001112.jpg"," ","","feedback_trial","2","","","","","","","","","","","","","","","","","","","","",""
"","","","","","image-keyboard-response","298","849452","0.0-273.0","607ec28e6a0bde56a9d69ddc","665500ab8938657b03fbdba8","66577dcf3401833067c68e73","2527","stimuli/2101100.jpg","2","","prediction_trial","2","","true","","2","true","true","false","false","false","false","[2,0]","101","100","1","","","","","","",""
"","","","","","image-keyboard-response","299","850617","0.0-274.0","607ec28e6a0bde56a9d69ddc","665500ab8938657b03fbdba8","66577dcf3401833067c68e73","1164","stimuli/21011002.jpg"," ","","feedback_trial","2","","","","","","","","","","","","","","","","","","","","",""
"","","","","","image-keyboard-response","300","852656","0.0-275.0","607ec28e6a0bde56a9d69ddc","665500ab8938657b03fbdba8","66577dcf3401833067c68e73","2038","stimuli/1000110.jpg","0","","prediction_trial","1","","false","","1","false","false","true","true","false","false","[1]","000","110","0","","","","","","",""
"","","","","","image-keyboard-response","301","854328","0.0-276.0","607ec28e6a0bde56a9d69ddc","665500ab8938657b03fbdba8","66577dcf3401833067c68e73","1671","stimuli/10001101.jpg"," ","","feedback_trial","1","","","","","","","","","","","","","","","","","","","","",""
"","","","","","image-keyboard-response","302","856912","0.0-277.0","607ec28e6a0bde56a9d69ddc","665500ab8938657b03fbdba8","66577dcf3401833067c68e73","2583","stimuli/1001011.jpg","1","","prediction_trial","1","","true","","1","false","false","true","true","false","false","[1]","001","011","1","","","","","","",""
"","","","","","image-keyboard-response","303","858241","0.0-278.0","607ec28e6a0bde56a9d69ddc","665500ab8938657b03fbdba8","66577dcf3401833067c68e73","1329","stimuli/10010111.jpg"," ","","feedback_trial","1","","","","","","","","","","","","","","","","","","","","",""
"","","","","","image-keyboard-response","304","860243","0.0-279.0","607ec28e6a0bde56a9d69ddc","665500ab8938657b03fbdba8","66577dcf3401833067c68e73","2001","stimuli/1110100.jpg","1","","prediction_trial","1","","true","","1","true","true","false","false","false","false","[1,0]","110","100","1","","","","","","",""
"","","","","","image-keyboard-response","305","861386","0.0-280.0","607ec28e6a0bde56a9d69ddc","665500ab8938657b03fbdba8","66577dcf3401833067c68e73","1142","stimuli/11101001.jpg"," ","","feedback_trial","1","","","","","","","","","","","","","","","","","","","","",""
"","","","","","image-keyboard-response","306","862457","0.0-281.0","607ec28e6a0bde56a9d69ddc","665500ab8938657b03fbdba8","66577dcf3401833067c68e73","1071","stimuli/1101101.jpg","1","","prediction_trial","1","","true","","1","true","true","true","true","true","true","[1]","101","101","1","","","","","","",""
"","","","","","image-keyboard-response","307","863406","0.0-282.0","607ec28e6a0bde56a9d69ddc","665500ab8938657b03fbdba8","66577dcf3401833067c68e73","948","stimuli/11011011.jpg"," ","","feedback_trial","1","","","","","","","","","","","","","","","","","","","","",""
"","","","","","image-keyboard-response","308","867904","0.0-283.0","607ec28e6a0bde56a9d69ddc","665500ab8938657b03fbdba8","66577dcf3401833067c68e73","4497","stimuli/1111101.jpg","1","","prediction_trial","2","","false","","1","true","true","false","false","false","false","[1,2,0]","111","101","0","","","","","","",""
"","","","","","image-keyboard-response","309","869205","0.0-284.0","607ec28e6a0bde56a9d69ddc","665500ab8938657b03fbdba8","66577dcf3401833067c68e73","1301","stimuli/11111012.jpg"," ","","feedback_trial","1","","","","","","","","","","","","","","","","","","","","",""
"","","","","","image-keyboard-response","310","870394","0.0-285.0","607ec28e6a0bde56a9d69ddc","665500ab8938657b03fbdba8","66577dcf3401833067c68e73","1188","stimuli/0011001.jpg","0","","prediction_trial","0","","true","","0","true","true","true","true","true","true","[0]","011","001","1","","","","","","",""
"","","","","","image-keyboard-response","311","871350","0.0-286.0","607ec28e6a0bde56a9d69ddc","665500ab8938657b03fbdba8","66577dcf3401833067c68e73","956","stimuli/00110010.jpg"," ","","feedback_trial","0","","","","","","","","","","","","","","","","","","","","",""
"","","","","","image-keyboard-response","312","872816","0.0-287.0","607ec28e6a0bde56a9d69ddc","665500ab8938657b03fbdba8","66577dcf3401833067c68e73","1465","stimuli/2001011.jpg","1","","prediction_trial","2","","false","","2","false","false","false","true","false","false","[2]","001","011","0","","","","","","",""
"","","","","","image-keyboard-response","313","874482","0.0-288.0","607ec28e6a0bde56a9d69ddc","665500ab8938657b03fbdba8","66577dcf3401833067c68e73","1665","stimuli/20010112.jpg"," ","","feedback_trial","2","","","","","","","","","","","","","","","","","","","","",""
"","","","","","image-keyboard-response","314","876425","0.0-289.0","607ec28e6a0bde56a9d69ddc","665500ab8938657b03fbdba8","66577dcf3401833067c68e73","1943","stimuli/0111000.jpg","0","","prediction_trial","1","","false","","0","true","true","false","false","false","false","[2,1,0]","111","000","0","","","","","","",""
"","","","","","image-keyboard-response","315","877424","0.0-290.0","607ec28e6a0bde56a9d69ddc","665500ab8938657b03fbdba8","66577dcf3401833067c68e73","998","stimuli/01110001.jpg"," ","","feedback_trial","2","","","","","","","","","","","","","","","","","","","","",""
"","","","","","image-keyboard-response","316","879156","0.0-291.0","607ec28e6a0bde56a9d69ddc","665500ab8938657b03fbdba8","66577dcf3401833067c68e73","1731","stimuli/2001101.jpg","0","","prediction_trial","2","","false","","2","false","false","false","true","false","false","[2]","001","101","0","","","","","","",""
"","","","","","image-keyboard-response","317","882554","0.0-292.0","607ec28e6a0bde56a9d69ddc","665500ab8938657b03fbdba8","66577dcf3401833067c68e73","3398","stimuli/20011012.jpg"," ","","feedback_trial","2","","","","","","","","","","","","","","","","","","","","",""
"","","","","","survey-html-form","318","1314826","0.0-293.0","607ec28e6a0bde56a9d69ddc","665500ab8938657b03fbdba8","66577dcf3401833067c68e73","432268","","{""feedback"":""Mainly, I was focused on whether the baskets were covered or not, either for me or Sam. Those decisions were easy. On the other hand, when I was not able to see the whole basket, than I gave it a guess. "",""age"":""60"",""gender"":""Male"",""other_gender"":"""",""race"":""White"",""other_race"":"""",""ethnicity"":""Non-Hispanic""}","","exit_survey","","","","","","","","","","","","","","","","Mainly, I was focused on whether the baskets were covered or not, either for me or Sam. Those decisions were easy. On the other hand, when I was not able to see the whole basket, than I gave it a guess. ","60","Non-Hispanic","Male","White","0.6041666666666666","0.6041666666666666"
