"success","timeout","failed_images","failed_audio","failed_video","trial_type","trial_index","time_elapsed","internal_node_id","prolific_id","prolific_study_id","prolific_session_id","rt","stimulus","response","view_history","trial","character_choice","stimulus_dict","accuracy","correct_response","ball_pos","ego_ball_visible","ego_can_infer","alter_ball_visible","alter_can_infer","collective_ball_visible","collective_can_infer","search_locations","alter_occluders","ego_occluders","accuracy_bool","feedback","age","ethnicity","gender","race","overall_accuracy","bonus"
"true","false","[]","[]","[]","preload","0","3364","0.0-0.0","5b22f24c38fc0c0001313ea8","665500ab8938657b03fbdba8","6657932825bf5614f149a301","","","","","","","","","","","","","","","","","","","","","","","","","","",""
"true","","","","","fullscreen","1","11882","0.0-1.0","5b22f24c38fc0c0001313ea8","665500ab8938657b03fbdba8","6657932825bf5614f149a301","","","","","","","","","","","","","","","","","","","","","","","","","","",""
"","","","","","html-button-response","2","19542","0.0-2.0","5b22f24c38fc0c0001313ea8","665500ab8938657b03fbdba8","6657932825bf5614f149a301","7657","<p><b>Consent Form</b></p> <div style=""text-align:left;background-color:lightgrey; padding:20px; max-width:900px;""><p>Please consider this information carefully before deciding whether to participate in this research.</p> <p>The purpose of this research is to examine which factors influence social judgment and decision-making. You will be asked to make judgements about individuals and actions in social scenarios. We are simply interested in your judgement. The study will take less than 1 hour to complete, and you will receive less than $20 on Prolific. Your compensation and time commitment are specified in the study description. There are no anticipated risks associated with participating in this study. The effects of participating should be comparable to those you would ordinarily experience from viewing a computer monitor and using a mouse or keyboard for a similar amount of time. At the end of the study, we will provide an explanation of the questions that motivate this line of research and will describe the potential implications. </p><p> Your participation in this study is completely voluntary and you may refuse to participate or you may choose to withdraw at any time without penalty or loss of benefits to you which are otherwise entitled. Your participation in this study will remain confidential. No personally identifiable information will be associated with your data. Also, all analyses of the data will be averaged across all the participants, so your individual responses will never be specifically analyzed. </p><p> If you have questions or concerns about your participation or payment, or want to request a summary of research findings, please contact Dr. Jonathan Phillips at Jonathan.S.Phillips@dartmouth.edu. </p><p> Please save a copy of this form for your records. </p><p><b>Agreement: </b>The nature and purpose of this research have been sufficiently explained and I agree to participate in this study. I understand that I am free to withdraw at any time without incurring any penalty. Please consent by clicking the button below to continue. Otherwise, please exit the study at any time. </p>","0","","","","","","","","","","","","","","","","","","","","","","","",""
"","","","","","instructions","3","128928","0.0-3.0-0.0","5b22f24c38fc0c0001313ea8","665500ab8938657b03fbdba8","6657932825bf5614f149a301","109382","","","[{""page_index"":0,""viewing_time"":1840},{""page_index"":1,""viewing_time"":3242},{""page_index"":2,""viewing_time"":3994},{""page_index"":3,""viewing_time"":8364},{""page_index"":4,""viewing_time"":4510},{""page_index"":5,""viewing_time"":5498},{""page_index"":6,""viewing_time"":8206},{""page_index"":7,""viewing_time"":5668},{""page_index"":8,""viewing_time"":7740},{""page_index"":9,""viewing_time"":4076},{""page_index"":10,""viewing_time"":23128},{""page_index"":11,""viewing_time"":19142},{""page_index"":12,""viewing_time"":10106},{""page_index"":13,""viewing_time"":3868}]","intro","","","","","","","","","","","","","","","","","","","","","",""
"","","","","","image-keyboard-response","4","134612","0.0-3.0-1.0","5b22f24c38fc0c0001313ea8","665500ab8938657b03fbdba8","6657932825bf5614f149a301","5672","stimuli/2101110.jpg","2","","prediction_practice","0","{""filepath"":""stimuli/2101110.jpg"",""ball_pos"":2,""ego_ball_visible"":true,""ego_can_infer"":true,""alter_ball_visible"":false,""alter_can_infer"":false,""collective_ball_visible"":false,""collective_can_infer"":false,""search_locations"":[0,2],""alter_occluders"":""101"",""ego_occluders"":""110""}","false","","","","","","","","","","","","","","","","","","",""
"","","","","","image-keyboard-response","5","138076","0.0-3.0-2.0","5b22f24c38fc0c0001313ea8","665500ab8938657b03fbdba8","6657932825bf5614f149a301","3463","stimuli/21011100.jpg"," ","","practrice_feedback","0","","","","","","","","","","","","","","","","","","","","",""
"","","","","","image-keyboard-response","6","140164","0.0-3.0-3.0","5b22f24c38fc0c0001313ea8","665500ab8938657b03fbdba8","6657932825bf5614f149a301","2086","stimuli/1110110.jpg","1","","prediction_practice","1","{""filepath"":""stimuli/1110110.jpg"",""ball_pos"":1,""ego_ball_visible"":false,""ego_can_infer"":false,""alter_ball_visible"":false,""alter_can_infer"":false,""collective_ball_visible"":false,""collective_can_infer"":false,""search_locations"":[0,1],""alter_occluders"":""110"",""ego_occluders"":""110""}","true","","","","","","","","","","","","","","","","","","",""
"","","","","","image-keyboard-response","7","142491","0.0-3.0-4.0","5b22f24c38fc0c0001313ea8","665500ab8938657b03fbdba8","6657932825bf5614f149a301","2326","stimuli/11101101.jpg"," ","","practrice_feedback","0","","","","","","","","","","","","","","","","","","","","",""
"","","","","","image-keyboard-response","8","144731","0.0-3.0-5.0","5b22f24c38fc0c0001313ea8","665500ab8938657b03fbdba8","6657932825bf5614f149a301","2240","stimuli/0000101.jpg","2","","prediction_practice","0","{""filepath"":""stimuli/0000101.jpg"",""ball_pos"":0,""ego_ball_visible"":false,""ego_can_infer"":false,""alter_ball_visible"":true,""alter_can_infer"":true,""collective_ball_visible"":false,""collective_can_infer"":false,""search_locations"":[0],""alter_occluders"":""000"",""ego_occluders"":""101""}","false","","","","","","","","","","","","","","","","","","",""
"","","","","","image-keyboard-response","9","145970","0.0-3.0-6.0","5b22f24c38fc0c0001313ea8","665500ab8938657b03fbdba8","6657932825bf5614f149a301","1238","stimuli/00001010.jpg"," ","","practrice_feedback","0","","","","","","","","","","","","","","","","","","","","",""
"","","","","","image-keyboard-response","10","146899","0.0-3.0-7.0","5b22f24c38fc0c0001313ea8","665500ab8938657b03fbdba8","6657932825bf5614f149a301","928","stimuli/1000111.jpg","0","","prediction_practice","1","{""filepath"":""stimuli/1000111.jpg"",""ball_pos"":1,""ego_ball_visible"":false,""ego_can_infer"":false,""alter_ball_visible"":true,""alter_can_infer"":true,""collective_ball_visible"":false,""collective_can_infer"":false,""search_locations"":[1],""alter_occluders"":""000"",""ego_occluders"":""111""}","false","","","","","","","","","","","","","","","","","","",""
"","","","","","image-keyboard-response","11","147691","0.0-3.0-8.0","5b22f24c38fc0c0001313ea8","665500ab8938657b03fbdba8","6657932825bf5614f149a301","791","stimuli/10001111.jpg"," ","","practrice_feedback","1","","","","","","","","","","","","","","","","","","","","",""
"","","","","","image-keyboard-response","12","148341","0.0-3.0-9.0","5b22f24c38fc0c0001313ea8","665500ab8938657b03fbdba8","6657932825bf5614f149a301","650","stimuli/2000101.jpg","2","","prediction_practice","2","{""filepath"":""stimuli/2000101.jpg"",""ball_pos"":2,""ego_ball_visible"":false,""ego_can_infer"":false,""alter_ball_visible"":true,""alter_can_infer"":true,""collective_ball_visible"":false,""collective_can_infer"":false,""search_locations"":[2],""alter_occluders"":""000"",""ego_occluders"":""101""}","true","","","","","","","","","","","","","","","","","","",""
"","","","","","image-keyboard-response","13","150539","0.0-3.0-10.0","5b22f24c38fc0c0001313ea8","665500ab8938657b03fbdba8","6657932825bf5614f149a301","2197","stimuli/20001012.jpg"," ","","practrice_feedback","2","","","","","","","","","","","","","","","","","","","","",""
"","","","","","image-keyboard-response","14","151779","0.0-3.0-11.0","5b22f24c38fc0c0001313ea8","665500ab8938657b03fbdba8","6657932825bf5614f149a301","1240","stimuli/2111000.jpg","2","","prediction_practice","1","{""filepath"":""stimuli/2111000.jpg"",""ball_pos"":2,""ego_ball_visible"":true,""ego_can_infer"":true,""alter_ball_visible"":false,""alter_can_infer"":false,""collective_ball_visible"":false,""collective_can_infer"":false,""search_locations"":[1,2,0],""alter_occluders"":""111"",""ego_occluders"":""000""}","false","","","","","","","","","","","","","","","","","","",""
"","","","","","image-keyboard-response","15","154018","0.0-3.0-12.0","5b22f24c38fc0c0001313ea8","665500ab8938657b03fbdba8","6657932825bf5614f149a301","2238","stimuli/21110001.jpg"," ","","practrice_feedback","1","","","","","","","","","","","","","","","","","","","","",""
"","","","","","image-keyboard-response","16","154819","0.0-3.0-13.0","5b22f24c38fc0c0001313ea8","665500ab8938657b03fbdba8","6657932825bf5614f149a301","794","stimuli/2100111.jpg","1","","prediction_practice","2","{""filepath"":""stimuli/2100111.jpg"",""ball_pos"":2,""ego_ball_visible"":false,""ego_can_infer"":false,""alter_ball_visible"":true,""alter_can_infer"":true,""collective_ball_visible"":false,""collective_can_infer"":false,""search_locations"":[2],""alter_occluders"":""100"",""ego_occluders"":""111""}","false","","","","","","","","","","","","","","","","","","",""
"","","","","","image-keyboard-response","17","155587","0.0-3.0-14.0","5b22f24c38fc0c0001313ea8","665500ab8938657b03fbdba8","6657932825bf5614f149a301","768","stimuli/21001112.jpg"," ","","practrice_feedback","2","","","","","","","","","","","","","","","","","","","","",""
"","","","","","image-keyboard-response","18","157204","0.0-3.0-15.0","5b22f24c38fc0c0001313ea8","665500ab8938657b03fbdba8","6657932825bf5614f149a301","1616","stimuli/0001101.jpg","2","","prediction_practice","0","{""filepath"":""stimuli/0001101.jpg"",""ball_pos"":0,""ego_ball_visible"":false,""ego_can_infer"":false,""alter_ball_visible"":true,""alter_can_infer"":true,""collective_ball_visible"":false,""collective_can_infer"":false,""search_locations"":[0],""alter_occluders"":""001"",""ego_occluders"":""101""}","false","","","","","","","","","","","","","","","","","","",""
"","","","","","image-keyboard-response","19","158171","0.0-3.0-16.0","5b22f24c38fc0c0001313ea8","665500ab8938657b03fbdba8","6657932825bf5614f149a301","966","stimuli/00011010.jpg"," ","","practrice_feedback","0","","","","","","","","","","","","","","","","","","","","",""
"","","","","","image-keyboard-response","20","158789","0.0-3.0-17.0","5b22f24c38fc0c0001313ea8","665500ab8938657b03fbdba8","6657932825bf5614f149a301","618","stimuli/1010000.jpg","2","","prediction_practice","1","{""filepath"":""stimuli/1010000.jpg"",""ball_pos"":1,""ego_ball_visible"":true,""ego_can_infer"":true,""alter_ball_visible"":false,""alter_can_infer"":true,""collective_ball_visible"":false,""collective_can_infer"":true,""search_locations"":[1],""alter_occluders"":""010"",""ego_occluders"":""000""}","false","","","","","","","","","","","","","","","","","","",""
"","","","","","image-keyboard-response","21","159490","0.0-3.0-18.0","5b22f24c38fc0c0001313ea8","665500ab8938657b03fbdba8","6657932825bf5614f149a301","700","stimuli/10100001.jpg"," ","","practrice_feedback","1","","","","","","","","","","","","","","","","","","","","",""
"","","","","","image-keyboard-response","22","161153","0.0-3.0-19.0","5b22f24c38fc0c0001313ea8","665500ab8938657b03fbdba8","6657932825bf5614f149a301","1661","stimuli/2011110.jpg","2","","prediction_practice","1","{""filepath"":""stimuli/2011110.jpg"",""ball_pos"":2,""ego_ball_visible"":true,""ego_can_infer"":true,""alter_ball_visible"":false,""alter_can_infer"":false,""collective_ball_visible"":false,""collective_can_infer"":false,""search_locations"":[1,2],""alter_occluders"":""011"",""ego_occluders"":""110""}","false","","","","","","","","","","","","","","","","","","",""
"","","","","","image-keyboard-response","23","162659","0.0-3.0-20.0","5b22f24c38fc0c0001313ea8","665500ab8938657b03fbdba8","6657932825bf5614f149a301","1505","stimuli/20111101.jpg"," ","","practrice_feedback","1","","","","","","","","","","","","","","","","","","","","",""
"","","","","","html-button-response","24","170963","0.0-3.0-21.0","5b22f24c38fc0c0001313ea8","665500ab8938657b03fbdba8","6657932825bf5614f149a301","8303","Now that you've had some practice, you'll be tested with a couple of easy trials. If you correctly predict Sam's choice, you'll move on to complete the experiment!","0","","","","","","","","","","","","","","","","","","","","","","","",""
"","","","","","image-keyboard-response","25","175172","0.0-3.0-22.0-0.0","5b22f24c38fc0c0001313ea8","665500ab8938657b03fbdba8","6657932825bf5614f149a301","4208","stimuli/0000011.jpg","arrowleft","","comprehension_quiz","","","true","arrowleft","","","","","","","","","","","","","","","","","",""
"","","","","","image-keyboard-response","26","176483","0.0-3.0-22.0-1.0","5b22f24c38fc0c0001313ea8","665500ab8938657b03fbdba8","6657932825bf5614f149a301","1310","stimuli/00000110.jpg"," ","","comprehension_quiz","","","true"," ","","","","","","","","","","","","","","","","","",""
"","","","","","image-keyboard-response","27","179908","0.0-3.0-22.0-2.0","5b22f24c38fc0c0001313ea8","665500ab8938657b03fbdba8","6657932825bf5614f149a301","3424","stimuli/1010010.jpg","arrowdown","","comprehension_quiz","","","true","arrowdown","","","","","","","","","","","","","","","","","",""
"","","","","","image-keyboard-response","28","181893","0.0-3.0-22.0-3.0","5b22f24c38fc0c0001313ea8","665500ab8938657b03fbdba8","6657932825bf5614f149a301","1984","stimuli/10100101.jpg"," ","","comprehension_quiz","","","true"," ","","","","","","","","","","","","","","","","","",""
"","","","","","html-button-response","29","184474","0.0-4.0","5b22f24c38fc0c0001313ea8","665500ab8938657b03fbdba8","6657932825bf5614f149a301","2579","The experiment will now begin.","0","","","","","","","","","","","","","","","","","","","","","","","",""
"","","","","","image-keyboard-response","30","187581","0.0-5.0","5b22f24c38fc0c0001313ea8","665500ab8938657b03fbdba8","6657932825bf5614f149a301","3106","stimuli/2110100.jpg","2","","prediction_trial","2","","true","","2","true","true","true","true","true","true","[2]","110","100","1","","","","","","",""
"","","","","","image-keyboard-response","31","189819","0.0-6.0","5b22f24c38fc0c0001313ea8","665500ab8938657b03fbdba8","6657932825bf5614f149a301","2237","stimuli/21101002.jpg"," ","","feedback_trial","2","","","","","","","","","","","","","","","","","","","","",""
"","","","","","image-keyboard-response","32","192558","0.0-7.0","5b22f24c38fc0c0001313ea8","665500ab8938657b03fbdba8","6657932825bf5614f149a301","2738","stimuli/0100110.jpg","1","","prediction_trial","0","","false","","0","false","false","false","true","false","false","[0]","100","110","0","","","","","","",""
"","","","","","image-keyboard-response","33","194684","0.0-8.0","5b22f24c38fc0c0001313ea8","665500ab8938657b03fbdba8","6657932825bf5614f149a301","2124","stimuli/01001100.jpg"," ","","feedback_trial","0","","","","","","","","","","","","","","","","","","","","",""
"","","","","","image-keyboard-response","34","200077","0.0-9.0","5b22f24c38fc0c0001313ea8","665500ab8938657b03fbdba8","6657932825bf5614f149a301","5392","stimuli/0100010.jpg","0","","prediction_trial","0","","true","","0","true","true","false","true","false","true","[0]","100","010","1","","","","","","",""
"","","","","","image-keyboard-response","35","202460","0.0-10.0","5b22f24c38fc0c0001313ea8","665500ab8938657b03fbdba8","6657932825bf5614f149a301","2383","stimuli/01000100.jpg"," ","","feedback_trial","0","","","","","","","","","","","","","","","","","","","","",""
"","","","","","image-keyboard-response","36","203760","0.0-11.0","5b22f24c38fc0c0001313ea8","665500ab8938657b03fbdba8","6657932825bf5614f149a301","1299","stimuli/0001010.jpg","0","","prediction_trial","0","","true","","0","true","true","true","true","true","true","[0]","001","010","1","","","","","","",""
"","","","","","image-keyboard-response","37","205860","0.0-12.0","5b22f24c38fc0c0001313ea8","665500ab8938657b03fbdba8","6657932825bf5614f149a301","2098","stimuli/00010100.jpg"," ","","feedback_trial","0","","","","","","","","","","","","","","","","","","","","",""
"","","","","","image-keyboard-response","38","207061","0.0-13.0","5b22f24c38fc0c0001313ea8","665500ab8938657b03fbdba8","6657932825bf5614f149a301","1200","stimuli/2100001.jpg","2","","prediction_trial","2","","true","","2","false","true","true","true","false","true","[2]","100","001","1","","","","","","",""
"","","","","","image-keyboard-response","39","209139","0.0-14.0","5b22f24c38fc0c0001313ea8","665500ab8938657b03fbdba8","6657932825bf5614f149a301","2078","stimuli/21000012.jpg"," ","","feedback_trial","2","","","","","","","","","","","","","","","","","","","","",""
"","","","","","image-keyboard-response","40","210404","0.0-15.0","5b22f24c38fc0c0001313ea8","665500ab8938657b03fbdba8","6657932825bf5614f149a301","1264","stimuli/1100101.jpg","1","","prediction_trial","1","","true","","1","true","true","true","true","true","true","[1]","100","101","1","","","","","","",""
"","","","","","image-keyboard-response","41","211411","0.0-16.0","5b22f24c38fc0c0001313ea8","665500ab8938657b03fbdba8","6657932825bf5614f149a301","1006","stimuli/11001011.jpg"," ","","feedback_trial","1","","","","","","","","","","","","","","","","","","","","",""
"","","","","","image-keyboard-response","42","212677","0.0-17.0","5b22f24c38fc0c0001313ea8","665500ab8938657b03fbdba8","6657932825bf5614f149a301","1265","stimuli/2110001.jpg","2","","prediction_trial","2","","true","","2","false","true","true","true","false","true","[2]","110","001","1","","","","","","",""
"","","","","","image-keyboard-response","43","214518","0.0-18.0","5b22f24c38fc0c0001313ea8","665500ab8938657b03fbdba8","6657932825bf5614f149a301","1840","stimuli/21100012.jpg"," ","","feedback_trial","2","","","","","","","","","","","","","","","","","","","","",""
"","","","","","image-keyboard-response","44","217814","0.0-19.0","5b22f24c38fc0c0001313ea8","665500ab8938657b03fbdba8","6657932825bf5614f149a301","3289","stimuli/1011110.jpg","0","","prediction_trial","1","","false","","1","false","false","false","false","false","false","[2,1]","011","110","0","","","","","","",""
"","","","","","image-keyboard-response","45","220196","0.0-20.0","5b22f24c38fc0c0001313ea8","665500ab8938657b03fbdba8","6657932825bf5614f149a301","2382","stimuli/10111101.jpg"," ","","feedback_trial","2","","","","","","","","","","","","","","","","","","","","",""
"","","","","","image-keyboard-response","46","221421","0.0-21.0","5b22f24c38fc0c0001313ea8","665500ab8938657b03fbdba8","6657932825bf5614f149a301","1224","stimuli/1000001.jpg","1","","prediction_trial","1","","true","","1","true","true","true","true","true","true","[1]","000","001","1","","","","","","",""
"","","","","","image-keyboard-response","47","223053","0.0-22.0","5b22f24c38fc0c0001313ea8","665500ab8938657b03fbdba8","6657932825bf5614f149a301","1630","stimuli/10000011.jpg"," ","","feedback_trial","1","","","","","","","","","","","","","","","","","","","","",""
"","","","","","image-keyboard-response","48","224517","0.0-23.0","5b22f24c38fc0c0001313ea8","665500ab8938657b03fbdba8","6657932825bf5614f149a301","1464","stimuli/0111001.jpg","0","","prediction_trial","0","","true","","0","true","true","false","false","false","false","[0,2,1]","111","001","1","","","","","","",""
"","","","","","image-keyboard-response","49","226447","0.0-24.0","5b22f24c38fc0c0001313ea8","665500ab8938657b03fbdba8","6657932825bf5614f149a301","1928","stimuli/01110010.jpg"," ","","feedback_trial","0","","","","","","","","","","","","","","","","","","","","",""
"","","","","","image-keyboard-response","50","228766","0.0-25.0","5b22f24c38fc0c0001313ea8","665500ab8938657b03fbdba8","6657932825bf5614f149a301","2318","stimuli/1110001.jpg","1","","prediction_trial","1","","true","","1","true","true","false","false","false","false","[1,0]","110","001","1","","","","","","",""
"","","","","","image-keyboard-response","51","230797","0.0-26.0","5b22f24c38fc0c0001313ea8","665500ab8938657b03fbdba8","6657932825bf5614f149a301","2030","stimuli/11100011.jpg"," ","","feedback_trial","1","","","","","","","","","","","","","","","","","","","","",""
"","","","","","image-keyboard-response","52","232542","0.0-27.0","5b22f24c38fc0c0001313ea8","665500ab8938657b03fbdba8","6657932825bf5614f149a301","1744","stimuli/0111111.jpg","1","","prediction_trial","2","","false","","0","false","false","false","false","false","false","[0,1,2]","111","111","0","","","","","","",""
"","","","","","image-keyboard-response","53","234173","0.0-28.0","5b22f24c38fc0c0001313ea8","665500ab8938657b03fbdba8","6657932825bf5614f149a301","1630","stimuli/01111112.jpg"," ","","feedback_trial","0","","","","","","","","","","","","","","","","","","","","",""
"","","","","","image-keyboard-response","54","236078","0.0-29.0","5b22f24c38fc0c0001313ea8","665500ab8938657b03fbdba8","6657932825bf5614f149a301","1904","stimuli/1001010.jpg","1","","prediction_trial","1","","true","","1","false","true","true","true","false","true","[1]","001","010","1","","","","","","",""
"","","","","","image-keyboard-response","55","236615","0.0-30.0","5b22f24c38fc0c0001313ea8","665500ab8938657b03fbdba8","6657932825bf5614f149a301","536","stimuli/10010101.jpg"," ","","feedback_trial","1","","","","","","","","","","","","","","","","","","","","",""
"","","","","","image-keyboard-response","56","239414","0.0-31.0","5b22f24c38fc0c0001313ea8","665500ab8938657b03fbdba8","6657932825bf5614f149a301","2799","stimuli/0101011.jpg","0","","prediction_trial","2","","false","","0","true","true","false","false","false","false","[2,0]","101","011","0","","","","","","",""
"","","","","","image-keyboard-response","57","240709","0.0-32.0","5b22f24c38fc0c0001313ea8","665500ab8938657b03fbdba8","6657932825bf5614f149a301","1294","stimuli/01010112.jpg"," ","","feedback_trial","2","","","","","","","","","","","","","","","","","","","","",""
"","","","","","image-keyboard-response","58","244126","0.0-33.0","5b22f24c38fc0c0001313ea8","665500ab8938657b03fbdba8","6657932825bf5614f149a301","3416","stimuli/2100111.jpg","1","","prediction_trial","2","","false","","2","false","false","true","true","false","false","[2]","100","111","0","","","","","","",""
"","","","","","image-keyboard-response","59","245189","0.0-34.0","5b22f24c38fc0c0001313ea8","665500ab8938657b03fbdba8","6657932825bf5614f149a301","1063","stimuli/21001112.jpg"," ","","feedback_trial","2","","","","","","","","","","","","","","","","","","","","",""
"","","","","","image-keyboard-response","60","247960","0.0-35.0","5b22f24c38fc0c0001313ea8","665500ab8938657b03fbdba8","6657932825bf5614f149a301","2770","stimuli/0100000.jpg","0","","prediction_trial","0","","true","","0","true","true","false","true","false","true","[0]","100","000","1","","","","","","",""
"","","","","","image-keyboard-response","61","249629","0.0-36.0","5b22f24c38fc0c0001313ea8","665500ab8938657b03fbdba8","6657932825bf5614f149a301","1669","stimuli/01000000.jpg"," ","","feedback_trial","0","","","","","","","","","","","","","","","","","","","","",""
"","","","","","image-keyboard-response","62","251110","0.0-37.0","5b22f24c38fc0c0001313ea8","665500ab8938657b03fbdba8","6657932825bf5614f149a301","1480","stimuli/2001110.jpg","2","","prediction_trial","2","","true","","2","true","true","false","true","false","true","[2]","001","110","1","","","","","","",""
"","","","","","image-keyboard-response","63","252494","0.0-38.0","5b22f24c38fc0c0001313ea8","665500ab8938657b03fbdba8","6657932825bf5614f149a301","1383","stimuli/20011102.jpg"," ","","feedback_trial","2","","","","","","","","","","","","","","","","","","","","",""
"","","","","","image-keyboard-response","64","253855","0.0-39.0","5b22f24c38fc0c0001313ea8","665500ab8938657b03fbdba8","6657932825bf5614f149a301","1361","stimuli/2111000.jpg","2","","prediction_trial","1","","false","","2","true","true","false","false","false","false","[1,2,0]","111","000","0","","","","","","",""
"","","","","","image-keyboard-response","65","255078","0.0-40.0","5b22f24c38fc0c0001313ea8","665500ab8938657b03fbdba8","6657932825bf5614f149a301","1221","stimuli/21110001.jpg"," ","","feedback_trial","1","","","","","","","","","","","","","","","","","","","","",""
"","","","","","image-keyboard-response","66","256343","0.0-41.0","5b22f24c38fc0c0001313ea8","665500ab8938657b03fbdba8","6657932825bf5614f149a301","1264","stimuli/1101010.jpg","1","","prediction_trial","1","","true","","1","false","true","true","true","false","true","[1]","101","010","1","","","","","","",""
"","","","","","image-keyboard-response","67","257759","0.0-42.0","5b22f24c38fc0c0001313ea8","665500ab8938657b03fbdba8","6657932825bf5614f149a301","1415","stimuli/11010101.jpg"," ","","feedback_trial","1","","","","","","","","","","","","","","","","","","","","",""
"","","","","","image-keyboard-response","68","259817","0.0-43.0","5b22f24c38fc0c0001313ea8","665500ab8938657b03fbdba8","6657932825bf5614f149a301","2056","stimuli/0110001.jpg","1","","prediction_trial","1","","true","","0","true","true","false","false","false","false","[0,1]","110","001","1","","","","","","",""
"","","","","","image-keyboard-response","69","261334","0.0-44.0","5b22f24c38fc0c0001313ea8","665500ab8938657b03fbdba8","6657932825bf5614f149a301","1517","stimuli/01100011.jpg"," ","","feedback_trial","0","","","","","","","","","","","","","","","","","","","","",""
"","","","","","image-keyboard-response","70","263991","0.0-45.0","5b22f24c38fc0c0001313ea8","665500ab8938657b03fbdba8","6657932825bf5614f149a301","2650","stimuli/2101011.jpg","1","","prediction_trial","2","","false","","2","false","false","false","false","false","false","[0,2]","101","011","0","","","","","","",""
"","","","","","image-keyboard-response","71","265222","0.0-46.0","5b22f24c38fc0c0001313ea8","665500ab8938657b03fbdba8","6657932825bf5614f149a301","1230","stimuli/21010112.jpg"," ","","feedback_trial","0","","","","","","","","","","","","","","","","","","","","",""
"","","","","","image-keyboard-response","72","266831","0.0-47.0","5b22f24c38fc0c0001313ea8","665500ab8938657b03fbdba8","6657932825bf5614f149a301","1608","stimuli/2001001.jpg","2","","prediction_trial","2","","true","","2","false","true","false","true","false","true","[2]","001","001","1","","","","","","",""
"","","","","","image-keyboard-response","73","267982","0.0-48.0","5b22f24c38fc0c0001313ea8","665500ab8938657b03fbdba8","6657932825bf5614f149a301","1150","stimuli/20010012.jpg"," ","","feedback_trial","2","","","","","","","","","","","","","","","","","","","","",""
"","","","","","image-keyboard-response","74","269119","0.0-49.0","5b22f24c38fc0c0001313ea8","665500ab8938657b03fbdba8","6657932825bf5614f149a301","1136","stimuli/2001000.jpg","2","","prediction_trial","2","","true","","2","true","true","false","true","false","true","[2]","001","000","1","","","","","","",""
"","","","","","image-keyboard-response","75","269968","0.0-50.0","5b22f24c38fc0c0001313ea8","665500ab8938657b03fbdba8","6657932825bf5614f149a301","848","stimuli/20010002.jpg"," ","","feedback_trial","2","","","","","","","","","","","","","","","","","","","","",""
"","","","","","image-keyboard-response","76","271079","0.0-51.0","5b22f24c38fc0c0001313ea8","665500ab8938657b03fbdba8","6657932825bf5614f149a301","1111","stimuli/1111110.jpg","1","","prediction_trial","0","","false","","1","false","false","false","false","false","false","[1,2,0]","111","110","0","","","","","","",""
"","","","","","image-keyboard-response","77","272214","0.0-52.0","5b22f24c38fc0c0001313ea8","665500ab8938657b03fbdba8","6657932825bf5614f149a301","1134","stimuli/11111100.jpg"," ","","feedback_trial","1","","","","","","","","","","","","","","","","","","","","",""
"","","","","","image-keyboard-response","78","273511","0.0-53.0","5b22f24c38fc0c0001313ea8","665500ab8938657b03fbdba8","6657932825bf5614f149a301","1296","stimuli/1001111.jpg","2","","prediction_trial","1","","false","","1","false","false","true","true","false","false","[1]","001","111","0","","","","","","",""
"","","","","","image-keyboard-response","79","274366","0.0-54.0","5b22f24c38fc0c0001313ea8","665500ab8938657b03fbdba8","6657932825bf5614f149a301","854","stimuli/10011111.jpg"," ","","feedback_trial","1","","","","","","","","","","","","","","","","","","","","",""
"","","","","","image-keyboard-response","80","275255","0.0-55.0","5b22f24c38fc0c0001313ea8","665500ab8938657b03fbdba8","6657932825bf5614f149a301","888","stimuli/0101110.jpg","1","","prediction_trial","0","","false","","0","false","false","false","false","false","false","[2,0]","101","110","0","","","","","","",""
"","","","","","image-keyboard-response","81","276118","0.0-56.0","5b22f24c38fc0c0001313ea8","665500ab8938657b03fbdba8","6657932825bf5614f149a301","862","stimuli/01011100.jpg"," ","","feedback_trial","2","","","","","","","","","","","","","","","","","","","","",""
"","","","","","image-keyboard-response","82","277423","0.0-57.0","5b22f24c38fc0c0001313ea8","665500ab8938657b03fbdba8","6657932825bf5614f149a301","1304","stimuli/2110101.jpg","2","","prediction_trial","2","","true","","2","false","false","true","true","false","false","[2]","110","101","1","","","","","","",""
"","","","","","image-keyboard-response","83","278806","0.0-58.0","5b22f24c38fc0c0001313ea8","665500ab8938657b03fbdba8","6657932825bf5614f149a301","1382","stimuli/21101012.jpg"," ","","feedback_trial","2","","","","","","","","","","","","","","","","","","","","",""
"","","","","","image-keyboard-response","84","281777","0.0-59.0","5b22f24c38fc0c0001313ea8","665500ab8938657b03fbdba8","6657932825bf5614f149a301","2970","stimuli/1100111.jpg","1","","prediction_trial","1","","true","","1","false","false","true","true","false","false","[1]","100","111","1","","","","","","",""
"","","","","","image-keyboard-response","85","282974","0.0-60.0","5b22f24c38fc0c0001313ea8","665500ab8938657b03fbdba8","6657932825bf5614f149a301","1196","stimuli/11001111.jpg"," ","","feedback_trial","1","","","","","","","","","","","","","","","","","","","","",""
"","","","","","image-keyboard-response","86","283775","0.0-61.0","5b22f24c38fc0c0001313ea8","665500ab8938657b03fbdba8","6657932825bf5614f149a301","800","stimuli/2000010.jpg","2","","prediction_trial","2","","true","","2","true","true","true","true","true","true","[2]","000","010","1","","","","","","",""
"","","","","","image-keyboard-response","87","284655","0.0-62.0","5b22f24c38fc0c0001313ea8","665500ab8938657b03fbdba8","6657932825bf5614f149a301","879","stimuli/20000102.jpg"," ","","feedback_trial","2","","","","","","","","","","","","","","","","","","","","",""
"","","","","","image-keyboard-response","88","287112","0.0-63.0","5b22f24c38fc0c0001313ea8","665500ab8938657b03fbdba8","6657932825bf5614f149a301","2456","stimuli/1000011.jpg","1","","prediction_trial","1","","true","","1","false","false","true","true","false","false","[1]","000","011","1","","","","","","",""
"","","","","","image-keyboard-response","89","288350","0.0-64.0","5b22f24c38fc0c0001313ea8","665500ab8938657b03fbdba8","6657932825bf5614f149a301","1238","stimuli/10000111.jpg"," ","","feedback_trial","1","","","","","","","","","","","","","","","","","","","","",""
"","","","","","image-keyboard-response","90","289951","0.0-65.0","5b22f24c38fc0c0001313ea8","665500ab8938657b03fbdba8","6657932825bf5614f149a301","1600","stimuli/1010010.jpg","1","","prediction_trial","1","","true","","1","false","true","false","true","false","true","[1]","010","010","1","","","","","","",""
"","","","","","image-keyboard-response","91","290983","0.0-66.0","5b22f24c38fc0c0001313ea8","665500ab8938657b03fbdba8","6657932825bf5614f149a301","1030","stimuli/10100101.jpg"," ","","feedback_trial","1","","","","","","","","","","","","","","","","","","","","",""
"","","","","","image-keyboard-response","92","292298","0.0-67.0","5b22f24c38fc0c0001313ea8","665500ab8938657b03fbdba8","6657932825bf5614f149a301","1314","stimuli/0101100.jpg","0","","prediction_trial","2","","false","","0","false","true","false","false","false","false","[0,2]","101","100","0","","","","","","",""
"","","","","","image-keyboard-response","93","293511","0.0-68.0","5b22f24c38fc0c0001313ea8","665500ab8938657b03fbdba8","6657932825bf5614f149a301","1212","stimuli/01011002.jpg"," ","","feedback_trial","0","","","","","","","","","","","","","","","","","","","","",""
"","","","","","image-keyboard-response","94","295856","0.0-69.0","5b22f24c38fc0c0001313ea8","665500ab8938657b03fbdba8","6657932825bf5614f149a301","2344","stimuli/1100010.jpg","1","","prediction_trial","1","","true","","1","false","true","true","true","false","true","[1]","100","010","1","","","","","","",""
"","","","","","image-keyboard-response","95","297319","0.0-70.0","5b22f24c38fc0c0001313ea8","665500ab8938657b03fbdba8","6657932825bf5614f149a301","1462","stimuli/11000101.jpg"," ","","feedback_trial","1","","","","","","","","","","","","","","","","","","","","",""
"","","","","","image-keyboard-response","96","298184","0.0-71.0","5b22f24c38fc0c0001313ea8","665500ab8938657b03fbdba8","6657932825bf5614f149a301","858","stimuli/2001010.jpg","2","","prediction_trial","2","","true","","2","true","true","false","true","false","true","[2]","001","010","1","","","","","","",""
"","","","","","image-keyboard-response","97","299111","0.0-72.0","5b22f24c38fc0c0001313ea8","665500ab8938657b03fbdba8","6657932825bf5614f149a301","927","stimuli/20010102.jpg"," ","","feedback_trial","2","","","","","","","","","","","","","","","","","","","","",""
"","","","","","image-keyboard-response","98","300064","0.0-73.0","5b22f24c38fc0c0001313ea8","665500ab8938657b03fbdba8","6657932825bf5614f149a301","952","stimuli/0010011.jpg","0","","prediction_trial","0","","true","","0","true","true","true","true","true","true","[0]","010","011","1","","","","","","",""
"","","","","","image-keyboard-response","99","301119","0.0-74.0","5b22f24c38fc0c0001313ea8","665500ab8938657b03fbdba8","6657932825bf5614f149a301","1054","stimuli/00100110.jpg"," ","","feedback_trial","0","","","","","","","","","","","","","","","","","","","","",""
"","","","","","image-keyboard-response","100","301960","0.0-75.0","5b22f24c38fc0c0001313ea8","665500ab8938657b03fbdba8","6657932825bf5614f149a301","840","stimuli/1101100.jpg","1","","prediction_trial","1","","true","","1","true","true","true","true","true","true","[1]","101","100","1","","","","","","",""
"","","","","","image-keyboard-response","101","302609","0.0-76.0","5b22f24c38fc0c0001313ea8","665500ab8938657b03fbdba8","6657932825bf5614f149a301","648","stimuli/11011001.jpg"," ","","feedback_trial","1","","","","","","","","","","","","","","","","","","","","",""
"","","","","","image-keyboard-response","102","304440","0.0-77.0","5b22f24c38fc0c0001313ea8","665500ab8938657b03fbdba8","6657932825bf5614f149a301","1831","stimuli/0010101.jpg","2","","prediction_trial","0","","false","","0","false","false","true","true","false","false","[0]","010","101","0","","","","","","",""
"","","","","","image-keyboard-response","103","305423","0.0-78.0","5b22f24c38fc0c0001313ea8","665500ab8938657b03fbdba8","6657932825bf5614f149a301","982","stimuli/00101010.jpg"," ","","feedback_trial","0","","","","","","","","","","","","","","","","","","","","",""
"","","","","","image-keyboard-response","104","307024","0.0-79.0","5b22f24c38fc0c0001313ea8","665500ab8938657b03fbdba8","6657932825bf5614f149a301","1600","stimuli/0101001.jpg","0","","prediction_trial","2","","false","","0","true","true","false","false","false","false","[0,2]","101","001","0","","","","","","",""
"","","","","","image-keyboard-response","105","307935","0.0-80.0","5b22f24c38fc0c0001313ea8","665500ab8938657b03fbdba8","6657932825bf5614f149a301","910","stimuli/01010012.jpg"," ","","feedback_trial","0","","","","","","","","","","","","","","","","","","","","",""
"","","","","","image-keyboard-response","106","309328","0.0-81.0","5b22f24c38fc0c0001313ea8","665500ab8938657b03fbdba8","6657932825bf5614f149a301","1392","stimuli/2111011.jpg","1","","prediction_trial","1","","true","","2","false","false","false","false","false","false","[2,1,0]","111","011","1","","","","","","",""
"","","","","","image-keyboard-response","107","310751","0.0-82.0","5b22f24c38fc0c0001313ea8","665500ab8938657b03fbdba8","6657932825bf5614f149a301","1422","stimuli/21110111.jpg"," ","","feedback_trial","2","","","","","","","","","","","","","","","","","","","","",""
"","","","","","image-keyboard-response","108","311704","0.0-83.0","5b22f24c38fc0c0001313ea8","665500ab8938657b03fbdba8","6657932825bf5614f149a301","952","stimuli/0000100.jpg","0","","prediction_trial","0","","true","","0","false","true","true","true","false","true","[0]","000","100","1","","","","","","",""
"","","","","","image-keyboard-response","109","312769","0.0-84.0","5b22f24c38fc0c0001313ea8","665500ab8938657b03fbdba8","6657932825bf5614f149a301","1064","stimuli/00001000.jpg"," ","","feedback_trial","0","","","","","","","","","","","","","","","","","","","","",""
"","","","","","image-keyboard-response","110","314817","0.0-85.0","5b22f24c38fc0c0001313ea8","665500ab8938657b03fbdba8","6657932825bf5614f149a301","2047","stimuli/1010110.jpg","0","","prediction_trial","1","","false","","1","false","false","false","true","false","false","[1]","010","110","0","","","","","","",""
"","","","","","image-keyboard-response","111","316031","0.0-86.0","5b22f24c38fc0c0001313ea8","665500ab8938657b03fbdba8","6657932825bf5614f149a301","1214","stimuli/10101101.jpg"," ","","feedback_trial","1","","","","","","","","","","","","","","","","","","","","",""
"","","","","","image-keyboard-response","112","316888","0.0-87.0","5b22f24c38fc0c0001313ea8","665500ab8938657b03fbdba8","6657932825bf5614f149a301","856","stimuli/1101001.jpg","1","","prediction_trial","1","","true","","1","true","true","true","true","true","true","[1]","101","001","1","","","","","","",""
"","","","","","image-keyboard-response","113","317991","0.0-88.0","5b22f24c38fc0c0001313ea8","665500ab8938657b03fbdba8","6657932825bf5614f149a301","1103","stimuli/11010011.jpg"," ","","feedback_trial","1","","","","","","","","","","","","","","","","","","","","",""
"","","","","","image-keyboard-response","114","319032","0.0-89.0","5b22f24c38fc0c0001313ea8","665500ab8938657b03fbdba8","6657932825bf5614f149a301","1040","stimuli/1100011.jpg","1","","prediction_trial","1","","true","","1","false","false","true","true","false","false","[1]","100","011","1","","","","","","",""
"","","","","","image-keyboard-response","115","320648","0.0-90.0","5b22f24c38fc0c0001313ea8","665500ab8938657b03fbdba8","6657932825bf5614f149a301","1614","stimuli/11000111.jpg"," ","","feedback_trial","1","","","","","","","","","","","","","","","","","","","","",""
"","","","","","image-keyboard-response","116","322890","0.0-91.0","5b22f24c38fc0c0001313ea8","665500ab8938657b03fbdba8","6657932825bf5614f149a301","2242","stimuli/0110010.jpg","1","","prediction_trial","1","","true","","0","true","true","false","false","false","false","[1,0]","110","010","1","","","","","","",""
"","","","","","image-keyboard-response","117","324120","0.0-92.0","5b22f24c38fc0c0001313ea8","665500ab8938657b03fbdba8","6657932825bf5614f149a301","1229","stimuli/01100101.jpg"," ","","feedback_trial","1","","","","","","","","","","","","","","","","","","","","",""
"","","","","","image-keyboard-response","118","326176","0.0-93.0","5b22f24c38fc0c0001313ea8","665500ab8938657b03fbdba8","6657932825bf5614f149a301","2056","stimuli/0110011.jpg","0","","prediction_trial","0","","true","","0","true","true","false","false","false","false","[0,1]","110","011","1","","","","","","",""
"","","","","","image-keyboard-response","119","327488","0.0-94.0","5b22f24c38fc0c0001313ea8","665500ab8938657b03fbdba8","6657932825bf5614f149a301","1311","stimuli/01100110.jpg"," ","","feedback_trial","0","","","","","","","","","","","","","","","","","","","","",""
"","","","","","image-keyboard-response","120","328544","0.0-95.0","5b22f24c38fc0c0001313ea8","665500ab8938657b03fbdba8","6657932825bf5614f149a301","1056","stimuli/1111101.jpg","1","","prediction_trial","0","","false","","1","true","true","false","false","false","false","[0,1,2]","111","101","0","","","","","","",""
"","","","","","image-keyboard-response","121","329448","0.0-96.0","5b22f24c38fc0c0001313ea8","665500ab8938657b03fbdba8","6657932825bf5614f149a301","902","stimuli/11111010.jpg"," ","","feedback_trial","0","","","","","","","","","","","","","","","","","","","","",""
"","","","","","image-keyboard-response","122","330617","0.0-97.0","5b22f24c38fc0c0001313ea8","665500ab8938657b03fbdba8","6657932825bf5614f149a301","1162","stimuli/2111100.jpg","2","","prediction_trial","0","","false","","2","true","true","false","false","false","false","[2,0,1]","111","100","0","","","","","","",""
"","","","","","image-keyboard-response","123","331456","0.0-98.0","5b22f24c38fc0c0001313ea8","665500ab8938657b03fbdba8","6657932825bf5614f149a301","839","stimuli/21111000.jpg"," ","","feedback_trial","2","","","","","","","","","","","","","","","","","","","","",""
"","","","","","image-keyboard-response","124","332297","0.0-99.0","5b22f24c38fc0c0001313ea8","665500ab8938657b03fbdba8","6657932825bf5614f149a301","840","stimuli/2011011.jpg","2","","prediction_trial","2","","true","","2","false","false","false","false","false","false","[1,2]","011","011","1","","","","","","",""
"","","","","","image-keyboard-response","125","333738","0.0-100.0","5b22f24c38fc0c0001313ea8","665500ab8938657b03fbdba8","6657932825bf5614f149a301","1440","stimuli/20110112.jpg"," ","","feedback_trial","1","","","","","","","","","","","","","","","","","","","","",""
"","","","","","image-keyboard-response","126","335337","0.0-101.0","5b22f24c38fc0c0001313ea8","665500ab8938657b03fbdba8","6657932825bf5614f149a301","1599","stimuli/1111011.jpg","1","","prediction_trial","0","","false","","1","false","false","false","false","false","false","[1,2,0]","111","011","0","","","","","","",""
"","","","","","image-keyboard-response","127","336424","0.0-102.0","5b22f24c38fc0c0001313ea8","665500ab8938657b03fbdba8","6657932825bf5614f149a301","1086","stimuli/11110110.jpg"," ","","feedback_trial","1","","","","","","","","","","","","","","","","","","","","",""
"","","","","","image-keyboard-response","128","337409","0.0-103.0","5b22f24c38fc0c0001313ea8","665500ab8938657b03fbdba8","6657932825bf5614f149a301","984","stimuli/0011001.jpg","0","","prediction_trial","0","","true","","0","true","true","true","true","true","true","[0]","011","001","1","","","","","","",""
"","","","","","image-keyboard-response","129","337992","0.0-104.0","5b22f24c38fc0c0001313ea8","665500ab8938657b03fbdba8","6657932825bf5614f149a301","583","stimuli/00110010.jpg"," ","","feedback_trial","0","","","","","","","","","","","","","","","","","","","","",""
"","","","","","image-keyboard-response","130","340833","0.0-105.0","5b22f24c38fc0c0001313ea8","665500ab8938657b03fbdba8","6657932825bf5614f149a301","2840","stimuli/0011101.jpg","0","","prediction_trial","0","","true","","0","false","false","true","true","false","false","[0]","011","101","1","","","","","","",""
"","","","","","image-keyboard-response","131","342688","0.0-106.0","5b22f24c38fc0c0001313ea8","665500ab8938657b03fbdba8","6657932825bf5614f149a301","1854","stimuli/00111010.jpg"," ","","feedback_trial","0","","","","","","","","","","","","","","","","","","","","",""
"","","","","","image-keyboard-response","132","343755","0.0-107.0","5b22f24c38fc0c0001313ea8","665500ab8938657b03fbdba8","6657932825bf5614f149a301","1066","stimuli/2000011.jpg","1","","prediction_trial","2","","false","","2","false","false","true","true","false","false","[2]","000","011","0","","","","","","",""
"","","","","","image-keyboard-response","133","344800","0.0-108.0","5b22f24c38fc0c0001313ea8","665500ab8938657b03fbdba8","6657932825bf5614f149a301","1044","stimuli/20000112.jpg"," ","","feedback_trial","2","","","","","","","","","","","","","","","","","","","","",""
"","","","","","image-keyboard-response","134","346385","0.0-109.0","5b22f24c38fc0c0001313ea8","665500ab8938657b03fbdba8","6657932825bf5614f149a301","1584","stimuli/2001100.jpg","2","","prediction_trial","2","","true","","2","true","true","false","true","false","true","[2]","001","100","1","","","","","","",""
"","","","","","image-keyboard-response","135","346968","0.0-110.0","5b22f24c38fc0c0001313ea8","665500ab8938657b03fbdba8","6657932825bf5614f149a301","582","stimuli/20011002.jpg"," ","","feedback_trial","2","","","","","","","","","","","","","","","","","","","","",""
"","","","","","image-keyboard-response","136","348753","0.0-111.0","5b22f24c38fc0c0001313ea8","665500ab8938657b03fbdba8","6657932825bf5614f149a301","1784","stimuli/0010110.jpg","1","","prediction_trial","0","","false","","0","false","false","true","true","false","false","[0]","010","110","0","","","","","","",""
"","","","","","image-keyboard-response","137","349776","0.0-112.0","5b22f24c38fc0c0001313ea8","665500ab8938657b03fbdba8","6657932825bf5614f149a301","1022","stimuli/00101100.jpg"," ","","feedback_trial","0","","","","","","","","","","","","","","","","","","","","",""
"","","","","","image-keyboard-response","138","350626","0.0-113.0","5b22f24c38fc0c0001313ea8","665500ab8938657b03fbdba8","6657932825bf5614f149a301","848","stimuli/1101110.jpg","1","","prediction_trial","1","","true","","1","false","false","true","true","false","false","[1]","101","110","1","","","","","","",""
"","","","","","image-keyboard-response","139","351761","0.0-114.0","5b22f24c38fc0c0001313ea8","665500ab8938657b03fbdba8","6657932825bf5614f149a301","1134","stimuli/11011101.jpg"," ","","feedback_trial","1","","","","","","","","","","","","","","","","","","","","",""
"","","","","","image-keyboard-response","140","353482","0.0-115.0","5b22f24c38fc0c0001313ea8","665500ab8938657b03fbdba8","6657932825bf5614f149a301","1720","stimuli/2000111.jpg","1","","prediction_trial","2","","false","","2","false","false","true","true","false","false","[2]","000","111","0","","","","","","",""
"","","","","","image-keyboard-response","141","354578","0.0-116.0","5b22f24c38fc0c0001313ea8","665500ab8938657b03fbdba8","6657932825bf5614f149a301","1096","stimuli/20001112.jpg"," ","","feedback_trial","2","","","","","","","","","","","","","","","","","","","","",""
"","","","","","image-keyboard-response","142","356618","0.0-117.0","5b22f24c38fc0c0001313ea8","665500ab8938657b03fbdba8","6657932825bf5614f149a301","2039","stimuli/0101111.jpg","0","","prediction_trial","0","","true","","0","false","false","false","false","false","false","[0,2]","101","111","1","","","","","","",""
"","","","","","image-keyboard-response","143","357905","0.0-118.0","5b22f24c38fc0c0001313ea8","665500ab8938657b03fbdba8","6657932825bf5614f149a301","1286","stimuli/01011110.jpg"," ","","feedback_trial","0","","","","","","","","","","","","","","","","","","","","",""
"","","","","","image-keyboard-response","144","358666","0.0-119.0","5b22f24c38fc0c0001313ea8","665500ab8938657b03fbdba8","6657932825bf5614f149a301","760","stimuli/0011011.jpg","0","","prediction_trial","0","","true","","0","true","true","true","true","true","true","[0]","011","011","1","","","","","","",""
"","","","","","image-keyboard-response","145","359353","0.0-120.0","5b22f24c38fc0c0001313ea8","665500ab8938657b03fbdba8","6657932825bf5614f149a301","686","stimuli/00110110.jpg"," ","","feedback_trial","0","","","","","","","","","","","","","","","","","","","","",""
"","","","","","image-keyboard-response","146","360393","0.0-121.0","5b22f24c38fc0c0001313ea8","665500ab8938657b03fbdba8","6657932825bf5614f149a301","1040","stimuli/0001110.jpg","1","","prediction_trial","0","","false","","0","false","false","true","true","false","false","[0]","001","110","0","","","","","","",""
"","","","","","image-keyboard-response","147","362017","0.0-122.0","5b22f24c38fc0c0001313ea8","665500ab8938657b03fbdba8","6657932825bf5614f149a301","1622","stimuli/00011100.jpg"," ","","feedback_trial","0","","","","","","","","","","","","","","","","","","","","",""
"","","","","","image-keyboard-response","148","362994","0.0-123.0","5b22f24c38fc0c0001313ea8","665500ab8938657b03fbdba8","6657932825bf5614f149a301","976","stimuli/1011010.jpg","1","","prediction_trial","2","","false","","1","false","true","false","false","false","false","[1,2]","011","010","0","","","","","","",""
"","","","","","image-keyboard-response","149","364225","0.0-124.0","5b22f24c38fc0c0001313ea8","665500ab8938657b03fbdba8","6657932825bf5614f149a301","1231","stimuli/10110102.jpg"," ","","feedback_trial","1","","","","","","","","","","","","","","","","","","","","",""
"","","","","","image-keyboard-response","150","365507","0.0-125.0","5b22f24c38fc0c0001313ea8","665500ab8938657b03fbdba8","6657932825bf5614f149a301","1282","stimuli/1100110.jpg","1","","prediction_trial","1","","true","","1","false","false","true","true","false","false","[1]","100","110","1","","","","","","",""
"","","","","","image-keyboard-response","151","366593","0.0-126.0","5b22f24c38fc0c0001313ea8","665500ab8938657b03fbdba8","6657932825bf5614f149a301","1085","stimuli/11001101.jpg"," ","","feedback_trial","1","","","","","","","","","","","","","","","","","","","","",""
"","","","","","image-keyboard-response","152","368170","0.0-127.0","5b22f24c38fc0c0001313ea8","665500ab8938657b03fbdba8","6657932825bf5614f149a301","1576","stimuli/2010101.jpg","2","","prediction_trial","2","","true","","2","false","false","true","true","false","false","[2]","010","101","1","","","","","","",""
"","","","","","image-keyboard-response","153","369505","0.0-128.0","5b22f24c38fc0c0001313ea8","665500ab8938657b03fbdba8","6657932825bf5614f149a301","1334","stimuli/20101012.jpg"," ","","feedback_trial","2","","","","","","","","","","","","","","","","","","","","",""
"","","","","","image-keyboard-response","154","370810","0.0-129.0","5b22f24c38fc0c0001313ea8","665500ab8938657b03fbdba8","6657932825bf5614f149a301","1304","stimuli/1010111.jpg","2","","prediction_trial","1","","false","","1","false","false","false","true","false","false","[1]","010","111","0","","","","","","",""
"","","","","","image-keyboard-response","155","372217","0.0-130.0","5b22f24c38fc0c0001313ea8","665500ab8938657b03fbdba8","6657932825bf5614f149a301","1406","stimuli/10101111.jpg"," ","","feedback_trial","1","","","","","","","","","","","","","","","","","","","","",""
"","","","","","image-keyboard-response","156","372953","0.0-131.0","5b22f24c38fc0c0001313ea8","665500ab8938657b03fbdba8","6657932825bf5614f149a301","735","stimuli/1101101.jpg","1","","prediction_trial","1","","true","","1","true","true","true","true","true","true","[1]","101","101","1","","","","","","",""
"","","","","","image-keyboard-response","157","374273","0.0-132.0","5b22f24c38fc0c0001313ea8","665500ab8938657b03fbdba8","6657932825bf5614f149a301","1319","stimuli/11011011.jpg"," ","","feedback_trial","1","","","","","","","","","","","","","","","","","","","","",""
"","","","","","image-keyboard-response","158","375026","0.0-133.0","5b22f24c38fc0c0001313ea8","665500ab8938657b03fbdba8","6657932825bf5614f149a301","752","stimuli/2010100.jpg","2","","prediction_trial","2","","true","","2","true","true","true","true","true","true","[2]","010","100","1","","","","","","",""
"","","","","","image-keyboard-response","159","375843","0.0-134.0","5b22f24c38fc0c0001313ea8","665500ab8938657b03fbdba8","6657932825bf5614f149a301","816","stimuli/20101002.jpg"," ","","feedback_trial","2","","","","","","","","","","","","","","","","","","","","",""
"","","","","","image-keyboard-response","160","376546","0.0-135.0","5b22f24c38fc0c0001313ea8","665500ab8938657b03fbdba8","6657932825bf5614f149a301","702","stimuli/1100100.jpg","1","","prediction_trial","1","","true","","1","true","true","true","true","true","true","[1]","100","100","1","","","","","","",""
"","","","","","image-keyboard-response","161","377185","0.0-136.0","5b22f24c38fc0c0001313ea8","665500ab8938657b03fbdba8","6657932825bf5614f149a301","638","stimuli/11001001.jpg"," ","","feedback_trial","1","","","","","","","","","","","","","","","","","","","","",""
"","","","","","image-keyboard-response","162","377842","0.0-137.0","5b22f24c38fc0c0001313ea8","665500ab8938657b03fbdba8","6657932825bf5614f149a301","656","stimuli/2100100.jpg","2","","prediction_trial","2","","true","","2","true","true","true","true","true","true","[2]","100","100","1","","","","","","",""
"","","","","","image-keyboard-response","163","378913","0.0-138.0","5b22f24c38fc0c0001313ea8","665500ab8938657b03fbdba8","6657932825bf5614f149a301","1071","stimuli/21001002.jpg"," ","","feedback_trial","2","","","","","","","","","","","","","","","","","","","","",""
"","","","","","image-keyboard-response","164","380210","0.0-139.0","5b22f24c38fc0c0001313ea8","665500ab8938657b03fbdba8","6657932825bf5614f149a301","1296","stimuli/2011100.jpg","0","","prediction_trial","1","","false","","2","true","true","false","false","false","false","[2,1]","011","100","0","","","","","","",""
"","","","","","image-keyboard-response","165","382170","0.0-140.0","5b22f24c38fc0c0001313ea8","665500ab8938657b03fbdba8","6657932825bf5614f149a301","1959","stimuli/20111001.jpg"," ","","feedback_trial","2","","","","","","","","","","","","","","","","","","","","",""
"","","","","","image-keyboard-response","166","384834","0.0-141.0","5b22f24c38fc0c0001313ea8","665500ab8938657b03fbdba8","6657932825bf5614f149a301","2664","stimuli/1001011.jpg","1","","prediction_trial","1","","true","","1","false","false","true","true","false","false","[1]","001","011","1","","","","","","",""
"","","","","","image-keyboard-response","167","385698","0.0-142.0","5b22f24c38fc0c0001313ea8","665500ab8938657b03fbdba8","6657932825bf5614f149a301","863","stimuli/10010111.jpg"," ","","feedback_trial","1","","","","","","","","","","","","","","","","","","","","",""
"","","","","","image-keyboard-response","168","386644","0.0-143.0","5b22f24c38fc0c0001313ea8","665500ab8938657b03fbdba8","6657932825bf5614f149a301","946","stimuli/0111000.jpg","0","","prediction_trial","0","","true","","0","true","true","false","false","false","false","[1,0,2]","111","000","1","","","","","","",""
"","","","","","image-keyboard-response","169","387065","0.0-144.0","5b22f24c38fc0c0001313ea8","665500ab8938657b03fbdba8","6657932825bf5614f149a301","420","stimuli/01110000.jpg"," ","","feedback_trial","1","","","","","","","","","","","","","","","","","","","","",""
"","","","","","image-keyboard-response","170","388002","0.0-145.0","5b22f24c38fc0c0001313ea8","665500ab8938657b03fbdba8","6657932825bf5614f149a301","936","stimuli/1100000.jpg","1","","prediction_trial","1","","true","","1","true","true","true","true","true","true","[1]","100","000","1","","","","","","",""
"","","","","","image-keyboard-response","171","388458","0.0-146.0","5b22f24c38fc0c0001313ea8","665500ab8938657b03fbdba8","6657932825bf5614f149a301","454","stimuli/11000001.jpg"," ","","feedback_trial","1","","","","","","","","","","","","","","","","","","","","",""
"","","","","","image-keyboard-response","172","389579","0.0-147.0","5b22f24c38fc0c0001313ea8","665500ab8938657b03fbdba8","6657932825bf5614f149a301","1120","stimuli/2101110.jpg","2","","prediction_trial","0","","false","","2","true","true","false","false","false","false","[0,2]","101","110","0","","","","","","",""
"","","","","","image-keyboard-response","173","390705","0.0-148.0","5b22f24c38fc0c0001313ea8","665500ab8938657b03fbdba8","6657932825bf5614f149a301","1126","stimuli/21011100.jpg"," ","","feedback_trial","0","","","","","","","","","","","","","","","","","","","","",""
"","","","","","image-keyboard-response","174","392171","0.0-149.0","5b22f24c38fc0c0001313ea8","665500ab8938657b03fbdba8","6657932825bf5614f149a301","1464","stimuli/2101101.jpg","2","","prediction_trial","2","","true","","2","false","false","false","false","false","false","[2,0]","101","101","1","","","","","","",""
"","","","","","image-keyboard-response","175","393186","0.0-150.0","5b22f24c38fc0c0001313ea8","665500ab8938657b03fbdba8","6657932825bf5614f149a301","1014","stimuli/21011012.jpg"," ","","feedback_trial","2","","","","","","","","","","","","","","","","","","","","",""
"","","","","","image-keyboard-response","176","393995","0.0-151.0","5b22f24c38fc0c0001313ea8","665500ab8938657b03fbdba8","6657932825bf5614f149a301","808","stimuli/2100010.jpg","2","","prediction_trial","2","","true","","2","true","true","true","true","true","true","[2]","100","010","1","","","","","","",""
"","","","","","image-keyboard-response","177","394570","0.0-152.0","5b22f24c38fc0c0001313ea8","665500ab8938657b03fbdba8","6657932825bf5614f149a301","574","stimuli/21000102.jpg"," ","","feedback_trial","2","","","","","","","","","","","","","","","","","","","","",""
"","","","","","image-keyboard-response","178","395811","0.0-153.0","5b22f24c38fc0c0001313ea8","665500ab8938657b03fbdba8","6657932825bf5614f149a301","1240","stimuli/1001110.jpg","1","","prediction_trial","1","","true","","1","false","false","true","true","false","false","[1]","001","110","1","","","","","","",""
"","","","","","image-keyboard-response","179","396716","0.0-154.0","5b22f24c38fc0c0001313ea8","665500ab8938657b03fbdba8","6657932825bf5614f149a301","904","stimuli/10011101.jpg"," ","","feedback_trial","1","","","","","","","","","","","","","","","","","","","","",""
"","","","","","image-keyboard-response","180","398187","0.0-155.0","5b22f24c38fc0c0001313ea8","665500ab8938657b03fbdba8","6657932825bf5614f149a301","1470","stimuli/1111010.jpg","1","","prediction_trial","1","","true","","1","false","true","false","false","false","false","[1,0,2]","111","010","1","","","","","","",""
"","","","","","image-keyboard-response","181","399330","0.0-156.0","5b22f24c38fc0c0001313ea8","665500ab8938657b03fbdba8","6657932825bf5614f149a301","1142","stimuli/11110101.jpg"," ","","feedback_trial","1","","","","","","","","","","","","","","","","","","","","",""
"","","","","","image-keyboard-response","182","400274","0.0-157.0","5b22f24c38fc0c0001313ea8","665500ab8938657b03fbdba8","6657932825bf5614f149a301","944","stimuli/2101010.jpg","2","","prediction_trial","2","","true","","2","true","true","false","false","false","false","[0,2]","101","010","1","","","","","","",""
"","","","","","image-keyboard-response","183","401026","0.0-158.0","5b22f24c38fc0c0001313ea8","665500ab8938657b03fbdba8","6657932825bf5614f149a301","751","stimuli/21010102.jpg"," ","","feedback_trial","0","","","","","","","","","","","","","","","","","","","","",""
"","","","","","image-keyboard-response","184","402283","0.0-159.0","5b22f24c38fc0c0001313ea8","665500ab8938657b03fbdba8","6657932825bf5614f149a301","1256","stimuli/1011011.jpg","1","","prediction_trial","2","","false","","1","false","false","false","false","false","false","[1,2]","011","011","0","","","","","","",""
"","","","","","image-keyboard-response","185","403306","0.0-160.0","5b22f24c38fc0c0001313ea8","665500ab8938657b03fbdba8","6657932825bf5614f149a301","1022","stimuli/10110112.jpg"," ","","feedback_trial","1","","","","","","","","","","","","","","","","","","","","",""
"","","","","","image-keyboard-response","186","405595","0.0-161.0","5b22f24c38fc0c0001313ea8","665500ab8938657b03fbdba8","6657932825bf5614f149a301","2288","stimuli/0101101.jpg","0","","prediction_trial","0","","true","","0","false","false","false","false","false","false","[0,2]","101","101","1","","","","","","",""
"","","","","","image-keyboard-response","187","406610","0.0-162.0","5b22f24c38fc0c0001313ea8","665500ab8938657b03fbdba8","6657932825bf5614f149a301","1014","stimuli/01011010.jpg"," ","","feedback_trial","0","","","","","","","","","","","","","","","","","","","","",""
"","","","","","image-keyboard-response","188","407581","0.0-163.0","5b22f24c38fc0c0001313ea8","665500ab8938657b03fbdba8","6657932825bf5614f149a301","970","stimuli/1101011.jpg","2","","prediction_trial","1","","false","","1","false","false","true","true","false","false","[1]","101","011","0","","","","","","",""
"","","","","","image-keyboard-response","189","409746","0.0-164.0","5b22f24c38fc0c0001313ea8","665500ab8938657b03fbdba8","6657932825bf5614f149a301","2165","stimuli/11010111.jpg"," ","","feedback_trial","1","","","","","","","","","","","","","","","","","","","","",""
"","","","","","image-keyboard-response","190","411611","0.0-165.0","5b22f24c38fc0c0001313ea8","665500ab8938657b03fbdba8","6657932825bf5614f149a301","1864","stimuli/1001100.jpg","1","","prediction_trial","1","","true","","1","true","true","true","true","true","true","[1]","001","100","1","","","","","","",""
"","","","","","image-keyboard-response","191","412418","0.0-166.0","5b22f24c38fc0c0001313ea8","665500ab8938657b03fbdba8","6657932825bf5614f149a301","806","stimuli/10011001.jpg"," ","","feedback_trial","1","","","","","","","","","","","","","","","","","","","","",""
"","","","","","image-keyboard-response","192","413635","0.0-167.0","5b22f24c38fc0c0001313ea8","665500ab8938657b03fbdba8","6657932825bf5614f149a301","1216","stimuli/1011101.jpg","1","","prediction_trial","1","","true","","1","true","true","false","false","false","false","[1,2]","011","101","1","","","","","","",""
"","","","","","image-keyboard-response","193","414178","0.0-168.0","5b22f24c38fc0c0001313ea8","665500ab8938657b03fbdba8","6657932825bf5614f149a301","542","stimuli/10111011.jpg"," ","","feedback_trial","1","","","","","","","","","","","","","","","","","","","","",""
"","","","","","image-keyboard-response","194","415675","0.0-169.0","5b22f24c38fc0c0001313ea8","665500ab8938657b03fbdba8","6657932825bf5614f149a301","1496","stimuli/1010001.jpg","1","","prediction_trial","1","","true","","1","true","true","false","true","false","true","[1]","010","001","1","","","","","","",""
"","","","","","image-keyboard-response","195","416074","0.0-170.0","5b22f24c38fc0c0001313ea8","665500ab8938657b03fbdba8","6657932825bf5614f149a301","398","stimuli/10100011.jpg"," ","","feedback_trial","1","","","","","","","","","","","","","","","","","","","","",""
"","","","","","image-keyboard-response","196","417717","0.0-171.0","5b22f24c38fc0c0001313ea8","665500ab8938657b03fbdba8","6657932825bf5614f149a301","1642","stimuli/0011110.jpg","1","","prediction_trial","0","","false","","0","false","false","true","true","false","false","[0]","011","110","0","","","","","","",""
"","","","","","image-keyboard-response","197","418658","0.0-172.0","5b22f24c38fc0c0001313ea8","665500ab8938657b03fbdba8","6657932825bf5614f149a301","941","stimuli/00111100.jpg"," ","","feedback_trial","0","","","","","","","","","","","","","","","","","","","","",""
"","","","","","image-keyboard-response","198","419516","0.0-173.0","5b22f24c38fc0c0001313ea8","665500ab8938657b03fbdba8","6657932825bf5614f149a301","856","stimuli/0010000.jpg","0","","prediction_trial","0","","true","","0","true","true","true","true","true","true","[0]","010","000","1","","","","","","",""
"","","","","","image-keyboard-response","199","419819","0.0-174.0","5b22f24c38fc0c0001313ea8","665500ab8938657b03fbdba8","6657932825bf5614f149a301","302","stimuli/00100000.jpg"," ","","feedback_trial","0","","","","","","","","","","","","","","","","","","","","",""
"","","","","","image-keyboard-response","200","422116","0.0-175.0","5b22f24c38fc0c0001313ea8","665500ab8938657b03fbdba8","6657932825bf5614f149a301","2296","stimuli/2011010.jpg","1","","prediction_trial","2","","false","","2","true","true","false","false","false","false","[2,1]","011","010","0","","","","","","",""
"","","","","","image-keyboard-response","201","422819","0.0-176.0","5b22f24c38fc0c0001313ea8","665500ab8938657b03fbdba8","6657932825bf5614f149a301","702","stimuli/20110102.jpg"," ","","feedback_trial","2","","","","","","","","","","","","","","","","","","","","",""
"","","","","","image-keyboard-response","202","424132","0.0-177.0","5b22f24c38fc0c0001313ea8","665500ab8938657b03fbdba8","6657932825bf5614f149a301","1312","stimuli/2110011.jpg","2","","prediction_trial","2","","true","","2","false","false","true","true","false","false","[2]","110","011","1","","","","","","",""
"","","","","","image-keyboard-response","203","425539","0.0-178.0","5b22f24c38fc0c0001313ea8","665500ab8938657b03fbdba8","6657932825bf5614f149a301","1406","stimuli/21100112.jpg"," ","","feedback_trial","2","","","","","","","","","","","","","","","","","","","","",""
"","","","","","image-keyboard-response","204","426500","0.0-179.0","5b22f24c38fc0c0001313ea8","665500ab8938657b03fbdba8","6657932825bf5614f149a301","960","stimuli/1000010.jpg","1","","prediction_trial","1","","true","","1","false","true","true","true","false","true","[1]","000","010","1","","","","","","",""
"","","","","","image-keyboard-response","205","427362","0.0-180.0","5b22f24c38fc0c0001313ea8","665500ab8938657b03fbdba8","6657932825bf5614f149a301","861","stimuli/10000101.jpg"," ","","feedback_trial","1","","","","","","","","","","","","","","","","","","","","",""
"","","","","","image-keyboard-response","206","428517","0.0-181.0","5b22f24c38fc0c0001313ea8","665500ab8938657b03fbdba8","6657932825bf5614f149a301","1155","stimuli/2001011.jpg","1","","prediction_trial","2","","false","","2","false","false","false","true","false","false","[2]","001","011","0","","","","","","",""
"","","","","","image-keyboard-response","207","429355","0.0-182.0","5b22f24c38fc0c0001313ea8","665500ab8938657b03fbdba8","6657932825bf5614f149a301","837","stimuli/20010112.jpg"," ","","feedback_trial","2","","","","","","","","","","","","","","","","","","","","",""
"","","","","","image-keyboard-response","208","430044","0.0-183.0","5b22f24c38fc0c0001313ea8","665500ab8938657b03fbdba8","6657932825bf5614f149a301","687","stimuli/1001001.jpg","1","","prediction_trial","1","","true","","1","true","true","true","true","true","true","[1]","001","001","1","","","","","","",""
"","","","","","image-keyboard-response","209","430427","0.0-184.0","5b22f24c38fc0c0001313ea8","665500ab8938657b03fbdba8","6657932825bf5614f149a301","382","stimuli/10010011.jpg"," ","","feedback_trial","1","","","","","","","","","","","","","","","","","","","","",""
"","","","","","image-keyboard-response","210","431692","0.0-185.0","5b22f24c38fc0c0001313ea8","665500ab8938657b03fbdba8","6657932825bf5614f149a301","1264","stimuli/0110101.jpg","0","","prediction_trial","1","","false","","0","false","false","false","false","false","false","[0,1]","110","101","0","","","","","","",""
"","","","","","image-keyboard-response","211","432811","0.0-186.0","5b22f24c38fc0c0001313ea8","665500ab8938657b03fbdba8","6657932825bf5614f149a301","1118","stimuli/01101011.jpg"," ","","feedback_trial","0","","","","","","","","","","","","","","","","","","","","",""
"","","","","","image-keyboard-response","212","436780","0.0-187.0","5b22f24c38fc0c0001313ea8","665500ab8938657b03fbdba8","6657932825bf5614f149a301","3969","stimuli/2100000.jpg","2","","prediction_trial","2","","true","","2","true","true","true","true","true","true","[2]","100","000","1","","","","","","",""
"","","","","","image-keyboard-response","213","437467","0.0-188.0","5b22f24c38fc0c0001313ea8","665500ab8938657b03fbdba8","6657932825bf5614f149a301","685","stimuli/21000002.jpg"," ","","feedback_trial","2","","","","","","","","","","","","","","","","","","","","",""
"","","","","","image-keyboard-response","214","439438","0.0-189.0","5b22f24c38fc0c0001313ea8","665500ab8938657b03fbdba8","6657932825bf5614f149a301","1970","stimuli/2010001.jpg","2","","prediction_trial","2","","true","","2","false","true","true","true","false","true","[2]","010","001","1","","","","","","",""
"","","","","","image-keyboard-response","215","440299","0.0-190.0","5b22f24c38fc0c0001313ea8","665500ab8938657b03fbdba8","6657932825bf5614f149a301","861","stimuli/20100012.jpg"," ","","feedback_trial","2","","","","","","","","","","","","","","","","","","","","",""
"","","","","","image-keyboard-response","216","441388","0.0-191.0","5b22f24c38fc0c0001313ea8","665500ab8938657b03fbdba8","6657932825bf5614f149a301","1088","stimuli/0110111.jpg","1","","prediction_trial","1","","true","","0","false","false","false","false","false","false","[0,1]","110","111","1","","","","","","",""
"","","","","","image-keyboard-response","217","442571","0.0-192.0","5b22f24c38fc0c0001313ea8","665500ab8938657b03fbdba8","6657932825bf5614f149a301","1182","stimuli/01101111.jpg"," ","","feedback_trial","0","","","","","","","","","","","","","","","","","","","","",""
"","","","","","image-keyboard-response","218","444140","0.0-193.0","5b22f24c38fc0c0001313ea8","665500ab8938657b03fbdba8","6657932825bf5614f149a301","1568","stimuli/2011000.jpg","2","","prediction_trial","1","","false","","2","true","true","false","false","false","false","[1,2]","011","000","0","","","","","","",""
"","","","","","image-keyboard-response","219","445131","0.0-194.0","5b22f24c38fc0c0001313ea8","665500ab8938657b03fbdba8","6657932825bf5614f149a301","990","stimuli/20110001.jpg"," ","","feedback_trial","1","","","","","","","","","","","","","","","","","","","","",""
"","","","","","image-keyboard-response","220","446300","0.0-195.0","5b22f24c38fc0c0001313ea8","665500ab8938657b03fbdba8","6657932825bf5614f149a301","1168","stimuli/1011001.jpg","1","","prediction_trial","2","","false","","1","true","true","false","false","false","false","[1,2]","011","001","0","","","","","","",""
"","","","","","image-keyboard-response","221","447059","0.0-196.0","5b22f24c38fc0c0001313ea8","665500ab8938657b03fbdba8","6657932825bf5614f149a301","758","stimuli/10110012.jpg"," ","","feedback_trial","1","","","","","","","","","","","","","","","","","","","","",""
"","","","","","image-keyboard-response","222","447780","0.0-197.0","5b22f24c38fc0c0001313ea8","665500ab8938657b03fbdba8","6657932825bf5614f149a301","720","stimuli/0110110.jpg","1","","prediction_trial","0","","false","","0","false","false","false","false","false","false","[1,0]","110","110","0","","","","","","",""
"","","","","","image-keyboard-response","223","449027","0.0-198.0","5b22f24c38fc0c0001313ea8","665500ab8938657b03fbdba8","6657932825bf5614f149a301","1246","stimuli/01101100.jpg"," ","","feedback_trial","1","","","","","","","","","","","","","","","","","","","","",""
"","","","","","image-keyboard-response","224","450270","0.0-199.0","5b22f24c38fc0c0001313ea8","665500ab8938657b03fbdba8","6657932825bf5614f149a301","1242","stimuli/0100101.jpg","0","","prediction_trial","0","","true","","0","false","false","false","true","false","false","[0]","100","101","1","","","","","","",""
"","","","","","image-keyboard-response","225","451418","0.0-200.0","5b22f24c38fc0c0001313ea8","665500ab8938657b03fbdba8","6657932825bf5614f149a301","1148","stimuli/01001010.jpg"," ","","feedback_trial","0","","","","","","","","","","","","","","","","","","","","",""
"","","","","","image-keyboard-response","226","452356","0.0-201.0","5b22f24c38fc0c0001313ea8","665500ab8938657b03fbdba8","6657932825bf5614f149a301","931","stimuli/1110000.jpg","1","","prediction_trial","0","","false","","1","true","true","false","false","false","false","[0,1]","110","000","0","","","","","","",""
"","","","","","image-keyboard-response","227","453211","0.0-202.0","5b22f24c38fc0c0001313ea8","665500ab8938657b03fbdba8","6657932825bf5614f149a301","854","stimuli/11100000.jpg"," ","","feedback_trial","0","","","","","","","","","","","","","","","","","","","","",""
"","","","","","image-keyboard-response","228","454579","0.0-203.0","5b22f24c38fc0c0001313ea8","665500ab8938657b03fbdba8","6657932825bf5614f149a301","1367","stimuli/0110100.jpg","0","","prediction_trial","1","","false","","0","false","true","false","false","false","false","[1,0]","110","100","0","","","","","","",""
"","","","","","image-keyboard-response","229","455538","0.0-204.0","5b22f24c38fc0c0001313ea8","665500ab8938657b03fbdba8","6657932825bf5614f149a301","958","stimuli/01101001.jpg"," ","","feedback_trial","1","","","","","","","","","","","","","","","","","","","","",""
"","","","","","image-keyboard-response","230","456467","0.0-205.0","5b22f24c38fc0c0001313ea8","665500ab8938657b03fbdba8","6657932825bf5614f149a301","928","stimuli/1111000.jpg","1","","prediction_trial","2","","false","","1","true","true","false","false","false","false","[2,0,1]","111","000","0","","","","","","",""
"","","","","","image-keyboard-response","231","457267","0.0-206.0","5b22f24c38fc0c0001313ea8","665500ab8938657b03fbdba8","6657932825bf5614f149a301","798","stimuli/11110002.jpg"," ","","feedback_trial","2","","","","","","","","","","","","","","","","","","","","",""
"","","","","","image-keyboard-response","232","459757","0.0-207.0","5b22f24c38fc0c0001313ea8","665500ab8938657b03fbdba8","6657932825bf5614f149a301","2489","stimuli/2100011.jpg","1","","prediction_trial","2","","false","","2","false","false","true","true","false","false","[2]","100","011","0","","","","","","",""
"","","","","","image-keyboard-response","233","460813","0.0-208.0","5b22f24c38fc0c0001313ea8","665500ab8938657b03fbdba8","6657932825bf5614f149a301","1056","stimuli/21000112.jpg"," ","","feedback_trial","2","","","","","","","","","","","","","","","","","","","","",""
"","","","","","image-keyboard-response","234","461796","0.0-209.0","5b22f24c38fc0c0001313ea8","665500ab8938657b03fbdba8","6657932825bf5614f149a301","982","stimuli/2101000.jpg","2","","prediction_trial","2","","true","","2","true","true","false","false","false","false","[0,2]","101","000","1","","","","","","",""
"","","","","","image-keyboard-response","235","462276","0.0-210.0","5b22f24c38fc0c0001313ea8","665500ab8938657b03fbdba8","6657932825bf5614f149a301","479","stimuli/21010002.jpg"," ","","feedback_trial","0","","","","","","","","","","","","","","","","","","","","",""
"","","","","","image-keyboard-response","236","463452","0.0-211.0","5b22f24c38fc0c0001313ea8","665500ab8938657b03fbdba8","6657932825bf5614f149a301","1176","stimuli/1100001.jpg","1","","prediction_trial","1","","true","","1","true","true","true","true","true","true","[1]","100","001","1","","","","","","",""
"","","","","","image-keyboard-response","237","463915","0.0-212.0","5b22f24c38fc0c0001313ea8","665500ab8938657b03fbdba8","6657932825bf5614f149a301","462","stimuli/11000011.jpg"," ","","feedback_trial","1","","","","","","","","","","","","","","","","","","","","",""
"","","","","","image-keyboard-response","238","465557","0.0-213.0","5b22f24c38fc0c0001313ea8","665500ab8938657b03fbdba8","6657932825bf5614f149a301","1641","stimuli/2110111.jpg","1","","prediction_trial","2","","false","","2","false","false","true","true","false","false","[2]","110","111","0","","","","","","",""
"","","","","","image-keyboard-response","239","466804","0.0-214.0","5b22f24c38fc0c0001313ea8","665500ab8938657b03fbdba8","6657932825bf5614f149a301","1246","stimuli/21101112.jpg"," ","","feedback_trial","2","","","","","","","","","","","","","","","","","","","","",""
"","","","","","image-keyboard-response","240","468149","0.0-215.0","5b22f24c38fc0c0001313ea8","665500ab8938657b03fbdba8","6657932825bf5614f149a301","1344","stimuli/0110000.jpg","0","","prediction_trial","1","","false","","0","true","true","false","false","false","false","[0,1]","110","000","0","","","","","","",""
"","","","","","image-keyboard-response","241","468884","0.0-216.0","5b22f24c38fc0c0001313ea8","665500ab8938657b03fbdba8","6657932825bf5614f149a301","734","stimuli/01100001.jpg"," ","","feedback_trial","0","","","","","","","","","","","","","","","","","","","","",""
"","","","","","image-keyboard-response","242","470533","0.0-217.0","5b22f24c38fc0c0001313ea8","665500ab8938657b03fbdba8","6657932825bf5614f149a301","1648","stimuli/1111111.jpg","1","","prediction_trial","2","","false","","1","false","false","false","false","false","false","[1,2,0]","111","111","0","","","","","","",""
"","","","","","image-keyboard-response","243","471302","0.0-218.0","5b22f24c38fc0c0001313ea8","665500ab8938657b03fbdba8","6657932825bf5614f149a301","768","stimuli/11111112.jpg"," ","","feedback_trial","1","","","","","","","","","","","","","","","","","","","","",""
"","","","","","image-keyboard-response","244","472253","0.0-219.0","5b22f24c38fc0c0001313ea8","665500ab8938657b03fbdba8","6657932825bf5614f149a301","950","stimuli/2000110.jpg","2","","prediction_trial","2","","true","","2","true","true","true","true","true","true","[2]","000","110","1","","","","","","",""
"","","","","","image-keyboard-response","245","472644","0.0-220.0","5b22f24c38fc0c0001313ea8","665500ab8938657b03fbdba8","6657932825bf5614f149a301","390","stimuli/20001102.jpg"," ","","feedback_trial","2","","","","","","","","","","","","","","","","","","","","",""
"","","","","","image-keyboard-response","246","473725","0.0-221.0","5b22f24c38fc0c0001313ea8","665500ab8938657b03fbdba8","6657932825bf5614f149a301","1080","stimuli/2011110.jpg","2","","prediction_trial","2","","true","","2","true","true","false","false","false","false","[1,2]","011","110","1","","","","","","",""
"","","","","","image-keyboard-response","247","474172","0.0-222.0","5b22f24c38fc0c0001313ea8","665500ab8938657b03fbdba8","6657932825bf5614f149a301","446","stimuli/20111102.jpg"," ","","feedback_trial","1","","","","","","","","","","","","","","","","","","","","",""
"","","","","","image-keyboard-response","248","475413","0.0-223.0","5b22f24c38fc0c0001313ea8","665500ab8938657b03fbdba8","6657932825bf5614f149a301","1241","stimuli/2010011.jpg","2","","prediction_trial","2","","true","","2","false","false","true","true","false","false","[2]","010","011","1","","","","","","",""
"","","","","","image-keyboard-response","249","476284","0.0-224.0","5b22f24c38fc0c0001313ea8","665500ab8938657b03fbdba8","6657932825bf5614f149a301","870","stimuli/20100112.jpg"," ","","feedback_trial","2","","","","","","","","","","","","","","","","","","","","",""
"","","","","","image-keyboard-response","250","478349","0.0-225.0","5b22f24c38fc0c0001313ea8","665500ab8938657b03fbdba8","6657932825bf5614f149a301","2064","stimuli/1000111.jpg","1","","prediction_trial","1","","true","","1","false","false","true","true","false","false","[1]","000","111","1","","","","","","",""
"","","","","","image-keyboard-response","251","480644","0.0-226.0","5b22f24c38fc0c0001313ea8","665500ab8938657b03fbdba8","6657932825bf5614f149a301","2294","stimuli/10001111.jpg"," ","","feedback_trial","1","","","","","","","","","","","","","","","","","","","","",""
"","","","","","image-keyboard-response","252","481639","0.0-227.0","5b22f24c38fc0c0001313ea8","665500ab8938657b03fbdba8","6657932825bf5614f149a301","989","stimuli/1011111.jpg","1","","prediction_trial","2","","false","","1","false","false","false","false","false","false","[1,2]","011","111","0","","","","","","",""
"","","","","","image-keyboard-response","253","482572","0.0-228.0","5b22f24c38fc0c0001313ea8","665500ab8938657b03fbdba8","6657932825bf5614f149a301","933","stimuli/10111112.jpg"," ","","feedback_trial","1","","","","","","","","","","","","","","","","","","","","",""
"","","","","","image-keyboard-response","254","484110","0.0-229.0","5b22f24c38fc0c0001313ea8","665500ab8938657b03fbdba8","6657932825bf5614f149a301","1536","stimuli/0011010.jpg","0","","prediction_trial","0","","true","","0","true","true","true","true","true","true","[0]","011","010","1","","","","","","",""
"","","","","","image-keyboard-response","255","484620","0.0-230.0","5b22f24c38fc0c0001313ea8","665500ab8938657b03fbdba8","6657932825bf5614f149a301","510","stimuli/00110100.jpg"," ","","feedback_trial","0","","","","","","","","","","","","","","","","","","","","",""
"","","","","","image-keyboard-response","256","486077","0.0-231.0","5b22f24c38fc0c0001313ea8","665500ab8938657b03fbdba8","6657932825bf5614f149a301","1456","stimuli/1010011.jpg","2","","prediction_trial","1","","false","","1","false","false","false","true","false","false","[1]","010","011","0","","","","","","",""
"","","","","","image-keyboard-response","257","487581","0.0-232.0","5b22f24c38fc0c0001313ea8","665500ab8938657b03fbdba8","6657932825bf5614f149a301","1502","stimuli/10100111.jpg"," ","","feedback_trial","1","","","","","","","","","","","","","","","","","","","","",""
"","","","","","image-keyboard-response","258","489438","0.0-233.0","5b22f24c38fc0c0001313ea8","665500ab8938657b03fbdba8","6657932825bf5614f149a301","1856","stimuli/2111111.jpg","1","","prediction_trial","0","","false","","2","false","false","false","false","false","false","[1,2,0]","111","111","0","","","","","","",""
"","","","","","image-keyboard-response","259","490636","0.0-234.0","5b22f24c38fc0c0001313ea8","665500ab8938657b03fbdba8","6657932825bf5614f149a301","1198","stimuli/21111110.jpg"," ","","feedback_trial","1","","","","","","","","","","","","","","","","","","","","",""
"","","","","","image-keyboard-response","260","491357","0.0-235.0","5b22f24c38fc0c0001313ea8","665500ab8938657b03fbdba8","6657932825bf5614f149a301","720","stimuli/1101111.jpg","2","","prediction_trial","1","","false","","1","false","false","true","true","false","false","[1]","101","111","0","","","","","","",""
"","","","","","image-keyboard-response","261","492687","0.0-236.0","5b22f24c38fc0c0001313ea8","665500ab8938657b03fbdba8","6657932825bf5614f149a301","1329","stimuli/11011111.jpg"," ","","feedback_trial","1","","","","","","","","","","","","","","","","","","","","",""
"","","","","","image-keyboard-response","262","494326","0.0-237.0","5b22f24c38fc0c0001313ea8","665500ab8938657b03fbdba8","6657932825bf5614f149a301","1638","stimuli/1110010.jpg","1","","prediction_trial","1","","true","","1","false","true","false","false","false","false","[0,1]","110","010","1","","","","","","",""
"","","","","","image-keyboard-response","263","495181","0.0-238.0","5b22f24c38fc0c0001313ea8","665500ab8938657b03fbdba8","6657932825bf5614f149a301","854","stimuli/11100101.jpg"," ","","feedback_trial","0","","","","","","","","","","","","","","","","","","","","",""
"","","","","","image-keyboard-response","264","496134","0.0-239.0","5b22f24c38fc0c0001313ea8","665500ab8938657b03fbdba8","6657932825bf5614f149a301","952","stimuli/1010100.jpg","1","","prediction_trial","1","","true","","1","true","true","false","true","false","true","[1]","010","100","1","","","","","","",""
"","","","","","image-keyboard-response","265","496845","0.0-240.0","5b22f24c38fc0c0001313ea8","665500ab8938657b03fbdba8","6657932825bf5614f149a301","710","stimuli/10101001.jpg"," ","","feedback_trial","1","","","","","","","","","","","","","","","","","","","","",""
"","","","","","image-keyboard-response","266","497854","0.0-241.0","5b22f24c38fc0c0001313ea8","665500ab8938657b03fbdba8","6657932825bf5614f149a301","1008","stimuli/2111010.jpg","2","","prediction_trial","1","","false","","2","true","true","false","false","false","false","[1,2,0]","111","010","0","","","","","","",""
"","","","","","image-keyboard-response","267","498781","0.0-242.0","5b22f24c38fc0c0001313ea8","665500ab8938657b03fbdba8","6657932825bf5614f149a301","926","stimuli/21110101.jpg"," ","","feedback_trial","1","","","","","","","","","","","","","","","","","","","","",""
"","","","","","image-keyboard-response","268","499566","0.0-243.0","5b22f24c38fc0c0001313ea8","665500ab8938657b03fbdba8","6657932825bf5614f149a301","784","stimuli/1001101.jpg","1","","prediction_trial","1","","true","","1","true","true","true","true","true","true","[1]","001","101","1","","","","","","",""
"","","","","","image-keyboard-response","269","500219","0.0-244.0","5b22f24c38fc0c0001313ea8","665500ab8938657b03fbdba8","6657932825bf5614f149a301","653","stimuli/10011011.jpg"," ","","feedback_trial","1","","","","","","","","","","","","","","","","","","","","",""
"","","","","","image-keyboard-response","270","501086","0.0-245.0","5b22f24c38fc0c0001313ea8","665500ab8938657b03fbdba8","6657932825bf5614f149a301","866","stimuli/2000000.jpg","2","","prediction_trial","2","","true","","2","true","true","true","true","true","true","[2]","000","000","1","","","","","","",""
"","","","","","image-keyboard-response","271","501557","0.0-246.0","5b22f24c38fc0c0001313ea8","665500ab8938657b03fbdba8","6657932825bf5614f149a301","470","stimuli/20000002.jpg"," ","","feedback_trial","2","","","","","","","","","","","","","","","","","","","","",""
"","","","","","image-keyboard-response","272","502771","0.0-247.0","5b22f24c38fc0c0001313ea8","665500ab8938657b03fbdba8","6657932825bf5614f149a301","1213","stimuli/2111101.jpg","0","","prediction_trial","0","","true","","2","false","false","false","false","false","false","[1,0,2]","111","101","1","","","","","","",""
"","","","","","image-keyboard-response","273","503277","0.0-248.0","5b22f24c38fc0c0001313ea8","665500ab8938657b03fbdba8","6657932825bf5614f149a301","506","stimuli/21111010.jpg"," ","","feedback_trial","1","","","","","","","","","","","","","","","","","","","","",""
"","","","","","image-keyboard-response","274","504222","0.0-249.0","5b22f24c38fc0c0001313ea8","665500ab8938657b03fbdba8","6657932825bf5614f149a301","944","stimuli/0010010.jpg","0","","prediction_trial","0","","true","","0","true","true","true","true","true","true","[0]","010","010","1","","","","","","",""
"","","","","","image-keyboard-response","275","504573","0.0-250.0","5b22f24c38fc0c0001313ea8","665500ab8938657b03fbdba8","6657932825bf5614f149a301","350","stimuli/00100100.jpg"," ","","feedback_trial","0","","","","","","","","","","","","","","","","","","","","",""
"","","","","","image-keyboard-response","276","505718","0.0-251.0","5b22f24c38fc0c0001313ea8","665500ab8938657b03fbdba8","6657932825bf5614f149a301","1144","stimuli/1010101.jpg","1","","prediction_trial","1","","true","","1","true","true","false","true","false","true","[1]","010","101","1","","","","","","",""
"","","","","","image-keyboard-response","277","506269","0.0-252.0","5b22f24c38fc0c0001313ea8","665500ab8938657b03fbdba8","6657932825bf5614f149a301","550","stimuli/10101011.jpg"," ","","feedback_trial","1","","","","","","","","","","","","","","","","","","","","",""
"","","","","","image-keyboard-response","278","507350","0.0-253.0","5b22f24c38fc0c0001313ea8","665500ab8938657b03fbdba8","6657932825bf5614f149a301","1074","stimuli/0101010.jpg","0","","prediction_trial","2","","false","","0","true","true","false","false","false","false","[2,0]","101","010","0","","","","","","",""
"","","","","","image-keyboard-response","279","508045","0.0-254.0","5b22f24c38fc0c0001313ea8","665500ab8938657b03fbdba8","6657932825bf5614f149a301","694","stimuli/01010102.jpg"," ","","feedback_trial","2","","","","","","","","","","","","","","","","","","","","",""
"","","","","","image-keyboard-response","280","509518","0.0-255.0","5b22f24c38fc0c0001313ea8","665500ab8938657b03fbdba8","6657932825bf5614f149a301","1472","stimuli/0010100.jpg","0","","prediction_trial","0","","true","","0","false","true","true","true","false","true","[0]","010","100","1","","","","","","",""
"","","","","","image-keyboard-response","281","509797","0.0-256.0","5b22f24c38fc0c0001313ea8","665500ab8938657b03fbdba8","6657932825bf5614f149a301","279","stimuli/00101000.jpg"," ","","feedback_trial","0","","","","","","","","","","","","","","","","","","","","",""
"","","","","","image-keyboard-response","282","511390","0.0-257.0","5b22f24c38fc0c0001313ea8","665500ab8938657b03fbdba8","6657932825bf5614f149a301","1592","stimuli/1110100.jpg","1","","prediction_trial","1","","true","","1","true","true","false","false","false","false","[0,1]","110","100","1","","","","","","",""
"","","","","","image-keyboard-response","283","512492","0.0-258.0","5b22f24c38fc0c0001313ea8","665500ab8938657b03fbdba8","6657932825bf5614f149a301","1101","stimuli/11101001.jpg"," ","","feedback_trial","0","","","","","","","","","","","","","","","","","","","","",""
"","","","","","image-keyboard-response","284","513759","0.0-259.0","5b22f24c38fc0c0001313ea8","665500ab8938657b03fbdba8","6657932825bf5614f149a301","1266","stimuli/2111110.jpg","2","","prediction_trial","2","","true","","2","true","true","false","false","false","false","[2,0,1]","111","110","1","","","","","","",""
"","","","","","image-keyboard-response","285","514486","0.0-260.0","5b22f24c38fc0c0001313ea8","665500ab8938657b03fbdba8","6657932825bf5614f149a301","726","stimuli/21111102.jpg"," ","","feedback_trial","2","","","","","","","","","","","","","","","","","","","","",""
"","","","","","image-keyboard-response","286","515190","0.0-261.0","5b22f24c38fc0c0001313ea8","665500ab8938657b03fbdba8","6657932825bf5614f149a301","704","stimuli/0000001.jpg","0","","prediction_trial","0","","true","","0","true","true","true","true","true","true","[0]","000","001","1","","","","","","",""
"","","","","","image-keyboard-response","287","515661","0.0-262.0","5b22f24c38fc0c0001313ea8","665500ab8938657b03fbdba8","6657932825bf5614f149a301","470","stimuli/00000010.jpg"," ","","feedback_trial","0","","","","","","","","","","","","","","","","","","","","",""
"","","","","","image-keyboard-response","288","516422","0.0-263.0","5b22f24c38fc0c0001313ea8","665500ab8938657b03fbdba8","6657932825bf5614f149a301","760","stimuli/2110000.jpg","2","","prediction_trial","2","","true","","2","true","true","true","true","true","true","[2]","110","000","1","","","","","","",""
"","","","","","image-keyboard-response","289","516918","0.0-264.0","5b22f24c38fc0c0001313ea8","665500ab8938657b03fbdba8","6657932825bf5614f149a301","494","stimuli/21100002.jpg"," ","","feedback_trial","2","","","","","","","","","","","","","","","","","","","","",""
"","","","","","image-keyboard-response","290","517630","0.0-265.0","5b22f24c38fc0c0001313ea8","665500ab8938657b03fbdba8","6657932825bf5614f149a301","712","stimuli/0001011.jpg","0","","prediction_trial","0","","true","","0","true","true","true","true","true","true","[0]","001","011","1","","","","","","",""
"","","","","","image-keyboard-response","291","518165","0.0-266.0","5b22f24c38fc0c0001313ea8","665500ab8938657b03fbdba8","6657932825bf5614f149a301","534","stimuli/00010110.jpg"," ","","feedback_trial","0","","","","","","","","","","","","","","","","","","","","",""
"","","","","","image-keyboard-response","292","519814","0.0-267.0","5b22f24c38fc0c0001313ea8","665500ab8938657b03fbdba8","6657932825bf5614f149a301","1648","stimuli/2011101.jpg","2","","prediction_trial","1","","false","","2","false","false","false","false","false","false","[2,1]","011","101","0","","","","","","",""
"","","","","","image-keyboard-response","293","520909","0.0-268.0","5b22f24c38fc0c0001313ea8","665500ab8938657b03fbdba8","6657932825bf5614f149a301","1094","stimuli/20111011.jpg"," ","","feedback_trial","2","","","","","","","","","","","","","","","","","","","","",""
"","","","","","image-keyboard-response","294","522303","0.0-269.0","5b22f24c38fc0c0001313ea8","665500ab8938657b03fbdba8","6657932825bf5614f149a301","1392","stimuli/2000001.jpg","2","","prediction_trial","2","","true","","2","false","true","true","true","false","true","[2]","000","001","1","","","","","","",""
"","","","","","image-keyboard-response","295","523118","0.0-270.0","5b22f24c38fc0c0001313ea8","665500ab8938657b03fbdba8","6657932825bf5614f149a301","814","stimuli/20000012.jpg"," ","","feedback_trial","2","","","","","","","","","","","","","","","","","","","","",""
"","","","","","image-keyboard-response","296","524048","0.0-271.0","5b22f24c38fc0c0001313ea8","665500ab8938657b03fbdba8","6657932825bf5614f149a301","930","stimuli/1010000.jpg","1","","prediction_trial","1","","true","","1","true","true","false","true","false","true","[1]","010","000","1","","","","","","",""
"","","","","","image-keyboard-response","297","524606","0.0-272.0","5b22f24c38fc0c0001313ea8","665500ab8938657b03fbdba8","6657932825bf5614f149a301","557","stimuli/10100001.jpg"," ","","feedback_trial","1","","","","","","","","","","","","","","","","","","","","",""
"","","","","","image-keyboard-response","298","525327","0.0-273.0","5b22f24c38fc0c0001313ea8","665500ab8938657b03fbdba8","6657932825bf5614f149a301","720","stimuli/0101000.jpg","0","","prediction_trial","2","","false","","0","true","true","false","false","false","false","[0,2]","101","000","0","","","","","","",""
"","","","","","image-keyboard-response","299","526070","0.0-274.0","5b22f24c38fc0c0001313ea8","665500ab8938657b03fbdba8","6657932825bf5614f149a301","742","stimuli/01010002.jpg"," ","","feedback_trial","0","","","","","","","","","","","","","","","","","","","","",""
"","","","","","image-keyboard-response","300","526775","0.0-275.0","5b22f24c38fc0c0001313ea8","665500ab8938657b03fbdba8","6657932825bf5614f149a301","704","stimuli/0100011.jpg","0","","prediction_trial","0","","true","","0","true","true","false","true","false","true","[0]","100","011","1","","","","","","",""
"","","","","","image-keyboard-response","301","527446","0.0-276.0","5b22f24c38fc0c0001313ea8","665500ab8938657b03fbdba8","6657932825bf5614f149a301","670","stimuli/01000110.jpg"," ","","feedback_trial","0","","","","","","","","","","","","","","","","","","","","",""
"","","","","","image-keyboard-response","302","528327","0.0-277.0","5b22f24c38fc0c0001313ea8","665500ab8938657b03fbdba8","6657932825bf5614f149a301","881","stimuli/2110110.jpg","2","","prediction_trial","2","","true","","2","true","true","true","true","true","true","[2]","110","110","1","","","","","","",""
"","","","","","image-keyboard-response","303","528774","0.0-278.0","5b22f24c38fc0c0001313ea8","665500ab8938657b03fbdba8","6657932825bf5614f149a301","446","stimuli/21101102.jpg"," ","","feedback_trial","2","","","","","","","","","","","","","","","","","","","","",""
"","","","","","image-keyboard-response","304","529623","0.0-279.0","5b22f24c38fc0c0001313ea8","665500ab8938657b03fbdba8","6657932825bf5614f149a301","848","stimuli/2010010.jpg","2","","prediction_trial","2","","true","","2","true","true","true","true","true","true","[2]","010","010","1","","","","","","",""
"","","","","","image-keyboard-response","305","530030","0.0-280.0","5b22f24c38fc0c0001313ea8","665500ab8938657b03fbdba8","6657932825bf5614f149a301","406","stimuli/20100102.jpg"," ","","feedback_trial","2","","","","","","","","","","","","","","","","","","","","",""
"","","","","","image-keyboard-response","306","530599","0.0-281.0","5b22f24c38fc0c0001313ea8","665500ab8938657b03fbdba8","6657932825bf5614f149a301","568","stimuli/2110010.jpg","2","","prediction_trial","2","","true","","2","true","true","true","true","true","true","[2]","110","010","1","","","","","","",""
"","","","","","image-keyboard-response","307","531046","0.0-282.0","5b22f24c38fc0c0001313ea8","665500ab8938657b03fbdba8","6657932825bf5614f149a301","446","stimuli/21100102.jpg"," ","","feedback_trial","2","","","","","","","","","","","","","","","","","","","","",""
"","","","","","image-keyboard-response","308","532305","0.0-283.0","5b22f24c38fc0c0001313ea8","665500ab8938657b03fbdba8","6657932825bf5614f149a301","1259","stimuli/0001101.jpg","2","","prediction_trial","0","","false","","0","false","false","true","true","false","false","[0]","001","101","0","","","","","","",""
"","","","","","image-keyboard-response","309","533182","0.0-284.0","5b22f24c38fc0c0001313ea8","665500ab8938657b03fbdba8","6657932825bf5614f149a301","876","stimuli/00011010.jpg"," ","","feedback_trial","0","","","","","","","","","","","","","","","","","","","","",""
"","","","","","image-keyboard-response","310","534352","0.0-285.0","5b22f24c38fc0c0001313ea8","665500ab8938657b03fbdba8","6657932825bf5614f149a301","1170","stimuli/0111011.jpg","0","","prediction_trial","2","","false","","0","true","true","false","false","false","false","[0,2,1]","111","011","0","","","","","","",""
"","","","","","image-keyboard-response","311","535262","0.0-286.0","5b22f24c38fc0c0001313ea8","665500ab8938657b03fbdba8","6657932825bf5614f149a301","909","stimuli/01110112.jpg"," ","","feedback_trial","0","","","","","","","","","","","","","","","","","","","","",""
"","","","","","image-keyboard-response","312","536015","0.0-287.0","5b22f24c38fc0c0001313ea8","665500ab8938657b03fbdba8","6657932825bf5614f149a301","752","stimuli/2011111.jpg","0","","prediction_trial","2","","false","","2","false","false","false","false","false","false","[2,1]","011","111","0","","","","","","",""
"","","","","","image-keyboard-response","313","536694","0.0-288.0","5b22f24c38fc0c0001313ea8","665500ab8938657b03fbdba8","6657932825bf5614f149a301","678","stimuli/20111112.jpg"," ","","feedback_trial","2","","","","","","","","","","","","","","","","","","","","",""
"","","","","","image-keyboard-response","314","537087","0.0-289.0","5b22f24c38fc0c0001313ea8","665500ab8938657b03fbdba8","6657932825bf5614f149a301","392","stimuli/0011111.jpg","0","","prediction_trial","0","","true","","0","false","false","true","true","false","false","[0]","011","111","1","","","","","","",""
"","","","","","image-keyboard-response","315","537958","0.0-290.0","5b22f24c38fc0c0001313ea8","665500ab8938657b03fbdba8","6657932825bf5614f149a301","871","stimuli/00111110.jpg"," ","","feedback_trial","0","","","","","","","","","","","","","","","","","","","","",""
"","","","","","image-keyboard-response","316","538639","0.0-291.0","5b22f24c38fc0c0001313ea8","665500ab8938657b03fbdba8","6657932825bf5614f149a301","680","stimuli/0000011.jpg","0","","prediction_trial","0","","true","","0","true","true","true","true","true","true","[0]","000","011","1","","","","","","",""
"","","","","","image-keyboard-response","317","539182","0.0-292.0","5b22f24c38fc0c0001313ea8","665500ab8938657b03fbdba8","6657932825bf5614f149a301","542","stimuli/00000110.jpg"," ","","feedback_trial","0","","","","","","","","","","","","","","","","","","","","",""
"","","","","","survey-html-form","318","586599","0.0-293.0","5b22f24c38fc0c0001313ea8","665500ab8938657b03fbdba8","6657932825bf5614f149a301","47414","","{""feedback"":""I just looked at the pattern of what he might think based on where it had been previously."",""age"":""47"",""gender"":""Female"",""other_gender"":"""",""race"":""White"",""other_race"":"""",""ethnicity"":""Non-Hispanic""}","","exit_survey","","","","","","","","","","","","","","","","I just looked at the pattern of what he might think based on where it had been previously.","47","Non-Hispanic","Female","White","0.6388888888888888","0.6388888888888888"
