"success","timeout","failed_images","failed_audio","failed_video","trial_type","trial_index","time_elapsed","internal_node_id","prolific_id","prolific_study_id","prolific_session_id","rt","stimulus","response","view_history","trial","character_choice","stimulus_dict","accuracy","correct_response","ball_pos","ego_ball_visible","ego_can_infer","alter_ball_visible","alter_can_infer","collective_ball_visible","collective_can_infer","search_locations","alter_occluders","ego_occluders","accuracy_bool","feedback","age","ethnicity","gender","race","overall_accuracy","bonus"
"true","false","[]","[]","[]","preload","0","2574","0.0-0.0","5e38e79295ff561112eae457","665500ab8938657b03fbdba8","66579235b31277676b8a779b","","","","","","","","","","","","","","","","","","","","","","","","","","",""
"true","","","","","fullscreen","1","265911","0.0-1.0","5e38e79295ff561112eae457","665500ab8938657b03fbdba8","66579235b31277676b8a779b","","","","","","","","","","","","","","","","","","","","","","","","","","",""
"","","","","","html-button-response","2","451912","0.0-2.0","5e38e79295ff561112eae457","665500ab8938657b03fbdba8","66579235b31277676b8a779b","186000","<p><b>Consent Form</b></p> <div style=""text-align:left;background-color:lightgrey; padding:20px; max-width:900px;""><p>Please consider this information carefully before deciding whether to participate in this research.</p> <p>The purpose of this research is to examine which factors influence social judgment and decision-making. You will be asked to make judgements about individuals and actions in social scenarios. We are simply interested in your judgement. The study will take less than 1 hour to complete, and you will receive less than $20 on Prolific. Your compensation and time commitment are specified in the study description. There are no anticipated risks associated with participating in this study. The effects of participating should be comparable to those you would ordinarily experience from viewing a computer monitor and using a mouse or keyboard for a similar amount of time. At the end of the study, we will provide an explanation of the questions that motivate this line of research and will describe the potential implications. </p><p> Your participation in this study is completely voluntary and you may refuse to participate or you may choose to withdraw at any time without penalty or loss of benefits to you which are otherwise entitled. Your participation in this study will remain confidential. No personally identifiable information will be associated with your data. Also, all analyses of the data will be averaged across all the participants, so your individual responses will never be specifically analyzed. </p><p> If you have questions or concerns about your participation or payment, or want to request a summary of research findings, please contact Dr. Jonathan Phillips at Jonathan.S.Phillips@dartmouth.edu. </p><p> Please save a copy of this form for your records. </p><p><b>Agreement: </b>The nature and purpose of this research have been sufficiently explained and I agree to participate in this study. I understand that I am free to withdraw at any time without incurring any penalty. Please consent by clicking the button below to continue. Otherwise, please exit the study at any time. </p>","0","","","","","","","","","","","","","","","","","","","","","","","",""
"","","","","","instructions","3","511395","0.0-3.0-0.0","5e38e79295ff561112eae457","665500ab8938657b03fbdba8","66579235b31277676b8a779b","59483","","","[{""page_index"":0,""viewing_time"":1790},{""page_index"":1,""viewing_time"":10216},{""page_index"":2,""viewing_time"":2386},{""page_index"":3,""viewing_time"":4723},{""page_index"":4,""viewing_time"":1958},{""page_index"":5,""viewing_time"":3849},{""page_index"":6,""viewing_time"":2999},{""page_index"":7,""viewing_time"":3421},{""page_index"":8,""viewing_time"":4994},{""page_index"":9,""viewing_time"":2348},{""page_index"":10,""viewing_time"":7158},{""page_index"":11,""viewing_time"":7020},{""page_index"":12,""viewing_time"":5292},{""page_index"":13,""viewing_time"":1329}]","intro","","","","","","","","","","","","","","","","","","","","","",""
"","","","","","image-keyboard-response","4","523788","0.0-3.0-1.0","5e38e79295ff561112eae457","665500ab8938657b03fbdba8","66579235b31277676b8a779b","12391","stimuli/0011101.jpg","0","","prediction_practice","0","{""filepath"":""stimuli/0011101.jpg"",""ball_pos"":0,""ego_ball_visible"":false,""ego_can_infer"":false,""alter_ball_visible"":true,""alter_can_infer"":true,""collective_ball_visible"":false,""collective_can_infer"":false,""search_locations"":[0],""alter_occluders"":""011"",""ego_occluders"":""101""}","true","","","","","","","","","","","","","","","","","","",""
"","","","","","image-keyboard-response","5","525483","0.0-3.0-2.0","5e38e79295ff561112eae457","665500ab8938657b03fbdba8","66579235b31277676b8a779b","1694","stimuli/00111010.jpg"," ","","practrice_feedback","0","","","","","","","","","","","","","","","","","","","","",""
"","","","","","image-keyboard-response","6","527971","0.0-3.0-3.0","5e38e79295ff561112eae457","665500ab8938657b03fbdba8","66579235b31277676b8a779b","2487","stimuli/2010011.jpg","2","","prediction_practice","2","{""filepath"":""stimuli/2010011.jpg"",""ball_pos"":2,""ego_ball_visible"":false,""ego_can_infer"":false,""alter_ball_visible"":true,""alter_can_infer"":true,""collective_ball_visible"":false,""collective_can_infer"":false,""search_locations"":[2],""alter_occluders"":""010"",""ego_occluders"":""011""}","true","","","","","","","","","","","","","","","","","","",""
"","","","","","image-keyboard-response","7","529115","0.0-3.0-4.0","5e38e79295ff561112eae457","665500ab8938657b03fbdba8","66579235b31277676b8a779b","1143","stimuli/20100112.jpg"," ","","practrice_feedback","2","","","","","","","","","","","","","","","","","","","","",""
"","","","","","image-keyboard-response","8","530979","0.0-3.0-5.0","5e38e79295ff561112eae457","665500ab8938657b03fbdba8","66579235b31277676b8a779b","1863","stimuli/2010110.jpg","2","","prediction_practice","2","{""filepath"":""stimuli/2010110.jpg"",""ball_pos"":2,""ego_ball_visible"":true,""ego_can_infer"":true,""alter_ball_visible"":true,""alter_can_infer"":true,""collective_ball_visible"":true,""collective_can_infer"":true,""search_locations"":[2],""alter_occluders"":""010"",""ego_occluders"":""110""}","true","","","","","","","","","","","","","","","","","","",""
"","","","","","image-keyboard-response","9","531962","0.0-3.0-6.0","5e38e79295ff561112eae457","665500ab8938657b03fbdba8","66579235b31277676b8a779b","983","stimuli/20101102.jpg"," ","","practrice_feedback","2","","","","","","","","","","","","","","","","","","","","",""
"","","","","","image-keyboard-response","10","535706","0.0-3.0-7.0","5e38e79295ff561112eae457","665500ab8938657b03fbdba8","66579235b31277676b8a779b","3739","stimuli/1011001.jpg","1","","prediction_practice","1","{""filepath"":""stimuli/1011001.jpg"",""ball_pos"":1,""ego_ball_visible"":true,""ego_can_infer"":true,""alter_ball_visible"":false,""alter_can_infer"":false,""collective_ball_visible"":false,""collective_can_infer"":false,""search_locations"":[2,1],""alter_occluders"":""011"",""ego_occluders"":""001""}","true","","","","","","","","","","","","","","","","","","",""
"","","","","","image-keyboard-response","11","537402","0.0-3.0-8.0","5e38e79295ff561112eae457","665500ab8938657b03fbdba8","66579235b31277676b8a779b","1695","stimuli/10110011.jpg"," ","","practrice_feedback","2","","","","","","","","","","","","","","","","","","","","",""
"","","","","","image-keyboard-response","12","538914","0.0-3.0-9.0","5e38e79295ff561112eae457","665500ab8938657b03fbdba8","66579235b31277676b8a779b","1511","stimuli/0001001.jpg","0","","prediction_practice","0","{""filepath"":""stimuli/0001001.jpg"",""ball_pos"":0,""ego_ball_visible"":true,""ego_can_infer"":true,""alter_ball_visible"":true,""alter_can_infer"":true,""collective_ball_visible"":true,""collective_can_infer"":true,""search_locations"":[0],""alter_occluders"":""001"",""ego_occluders"":""001""}","true","","","","","","","","","","","","","","","","","","",""
"","","","","","image-keyboard-response","13","539546","0.0-3.0-10.0","5e38e79295ff561112eae457","665500ab8938657b03fbdba8","66579235b31277676b8a779b","631","stimuli/00010010.jpg"," ","","practrice_feedback","0","","","","","","","","","","","","","","","","","","","","",""
"","","","","","image-keyboard-response","14","541850","0.0-3.0-11.0","5e38e79295ff561112eae457","665500ab8938657b03fbdba8","66579235b31277676b8a779b","2303","stimuli/2001100.jpg","2","","prediction_practice","2","{""filepath"":""stimuli/2001100.jpg"",""ball_pos"":2,""ego_ball_visible"":true,""ego_can_infer"":true,""alter_ball_visible"":false,""alter_can_infer"":true,""collective_ball_visible"":false,""collective_can_infer"":true,""search_locations"":[2],""alter_occluders"":""001"",""ego_occluders"":""100""}","true","","","","","","","","","","","","","","","","","","",""
"","","","","","image-keyboard-response","15","542715","0.0-3.0-12.0","5e38e79295ff561112eae457","665500ab8938657b03fbdba8","66579235b31277676b8a779b","864","stimuli/20011002.jpg"," ","","practrice_feedback","2","","","","","","","","","","","","","","","","","","","","",""
"","","","","","image-keyboard-response","16","545875","0.0-3.0-13.0","5e38e79295ff561112eae457","665500ab8938657b03fbdba8","66579235b31277676b8a779b","3155","stimuli/2111000.jpg","1","","prediction_practice","0","{""filepath"":""stimuli/2111000.jpg"",""ball_pos"":2,""ego_ball_visible"":true,""ego_can_infer"":true,""alter_ball_visible"":false,""alter_can_infer"":false,""collective_ball_visible"":false,""collective_can_infer"":false,""search_locations"":[2,1,0],""alter_occluders"":""111"",""ego_occluders"":""000""}","false","","","","","","","","","","","","","","","","","","",""
"","","","","","image-keyboard-response","17","547282","0.0-3.0-14.0","5e38e79295ff561112eae457","665500ab8938657b03fbdba8","66579235b31277676b8a779b","1406","stimuli/21110000.jpg"," ","","practrice_feedback","2","","","","","","","","","","","","","","","","","","","","",""
"","","","","","image-keyboard-response","18","550106","0.0-3.0-15.0","5e38e79295ff561112eae457","665500ab8938657b03fbdba8","66579235b31277676b8a779b","2823","stimuli/0110010.jpg","0","","prediction_practice","1","{""filepath"":""stimuli/0110010.jpg"",""ball_pos"":0,""ego_ball_visible"":true,""ego_can_infer"":true,""alter_ball_visible"":false,""alter_can_infer"":false,""collective_ball_visible"":false,""collective_can_infer"":false,""search_locations"":[1,0],""alter_occluders"":""110"",""ego_occluders"":""010""}","false","","","","","","","","","","","","","","","","","","",""
"","","","","","image-keyboard-response","19","551466","0.0-3.0-16.0","5e38e79295ff561112eae457","665500ab8938657b03fbdba8","66579235b31277676b8a779b","1360","stimuli/01100101.jpg"," ","","practrice_feedback","1","","","","","","","","","","","","","","","","","","","","",""
"","","","","","image-keyboard-response","20","554786","0.0-3.0-17.0","5e38e79295ff561112eae457","665500ab8938657b03fbdba8","66579235b31277676b8a779b","3319","stimuli/1011111.jpg","0","","prediction_practice","2","{""filepath"":""stimuli/1011111.jpg"",""ball_pos"":1,""ego_ball_visible"":false,""ego_can_infer"":false,""alter_ball_visible"":false,""alter_can_infer"":false,""collective_ball_visible"":false,""collective_can_infer"":false,""search_locations"":[1,2],""alter_occluders"":""011"",""ego_occluders"":""111""}","false","","","","","","","","","","","","","","","","","","",""
"","","","","","image-keyboard-response","21","555585","0.0-3.0-18.0","5e38e79295ff561112eae457","665500ab8938657b03fbdba8","66579235b31277676b8a779b","799","stimuli/10111112.jpg"," ","","practrice_feedback","1","","","","","","","","","","","","","","","","","","","","",""
"","","","","","image-keyboard-response","22","556585","0.0-3.0-19.0","5e38e79295ff561112eae457","665500ab8938657b03fbdba8","66579235b31277676b8a779b","995","stimuli/1001101.jpg","1","","prediction_practice","1","{""filepath"":""stimuli/1001101.jpg"",""ball_pos"":1,""ego_ball_visible"":true,""ego_can_infer"":true,""alter_ball_visible"":true,""alter_can_infer"":true,""collective_ball_visible"":true,""collective_can_infer"":true,""search_locations"":[1],""alter_occluders"":""001"",""ego_occluders"":""101""}","true","","","","","","","","","","","","","","","","","","",""
"","","","","","image-keyboard-response","23","557065","0.0-3.0-20.0","5e38e79295ff561112eae457","665500ab8938657b03fbdba8","66579235b31277676b8a779b","479","stimuli/10011011.jpg"," ","","practrice_feedback","1","","","","","","","","","","","","","","","","","","","","",""
"","","","","","html-button-response","24","562194","0.0-3.0-21.0","5e38e79295ff561112eae457","665500ab8938657b03fbdba8","66579235b31277676b8a779b","5128","Now that you've had some practice, you'll be tested with a couple of easy trials. If you correctly predict Sam's choice, you'll move on to complete the experiment!","0","","","","","","","","","","","","","","","","","","","","","","","",""
"","","","","","image-keyboard-response","25","563681","0.0-3.0-22.0-0.0","5e38e79295ff561112eae457","665500ab8938657b03fbdba8","66579235b31277676b8a779b","1486","stimuli/0000011.jpg","arrowleft","","comprehension_quiz","","","true","arrowleft","","","","","","","","","","","","","","","","","",""
"","","","","","image-keyboard-response","26","564401","0.0-3.0-22.0-1.0","5e38e79295ff561112eae457","665500ab8938657b03fbdba8","66579235b31277676b8a779b","719","stimuli/00000110.jpg"," ","","comprehension_quiz","","","true"," ","","","","","","","","","","","","","","","","","",""
"","","","","","image-keyboard-response","27","565657","0.0-3.0-22.0-2.0","5e38e79295ff561112eae457","665500ab8938657b03fbdba8","66579235b31277676b8a779b","1256","stimuli/1010010.jpg","arrowdown","","comprehension_quiz","","","true","arrowdown","","","","","","","","","","","","","","","","","",""
"","","","","","image-keyboard-response","28","566361","0.0-3.0-22.0-3.0","5e38e79295ff561112eae457","665500ab8938657b03fbdba8","66579235b31277676b8a779b","699","stimuli/10100101.jpg"," ","","comprehension_quiz","","","true"," ","","","","","","","","","","","","","","","","","",""
"","","","","","html-button-response","29","568474","0.0-4.0","5e38e79295ff561112eae457","665500ab8938657b03fbdba8","66579235b31277676b8a779b","2112","The experiment will now begin.","0","","","","","","","","","","","","","","","","","","","","","","","",""
"","","","","","image-keyboard-response","30","569905","0.0-5.0","5e38e79295ff561112eae457","665500ab8938657b03fbdba8","66579235b31277676b8a779b","1430","stimuli/0000011.jpg","0","","prediction_trial","0","","true","","0","true","true","true","true","true","true","[0]","000","011","1","","","","","","",""
"","","","","","image-keyboard-response","31","570729","0.0-6.0","5e38e79295ff561112eae457","665500ab8938657b03fbdba8","66579235b31277676b8a779b","823","stimuli/00000110.jpg"," ","","feedback_trial","0","","","","","","","","","","","","","","","","","","","","",""
"","","","","","image-keyboard-response","32","571642","0.0-7.0","5e38e79295ff561112eae457","665500ab8938657b03fbdba8","66579235b31277676b8a779b","912","stimuli/2010000.jpg","2","","prediction_trial","2","","true","","2","true","true","true","true","true","true","[2]","010","000","1","","","","","","",""
"","","","","","image-keyboard-response","33","572521","0.0-8.0","5e38e79295ff561112eae457","665500ab8938657b03fbdba8","66579235b31277676b8a779b","879","stimuli/20100002.jpg"," ","","feedback_trial","2","","","","","","","","","","","","","","","","","","","","",""
"","","","","","image-keyboard-response","34","574042","0.0-9.0","5e38e79295ff561112eae457","665500ab8938657b03fbdba8","66579235b31277676b8a779b","1520","stimuli/0101101.jpg","0","","prediction_trial","0","","true","","0","false","false","false","false","false","false","[2,0]","101","101","1","","","","","","",""
"","","","","","image-keyboard-response","35","574961","0.0-10.0","5e38e79295ff561112eae457","665500ab8938657b03fbdba8","66579235b31277676b8a779b","918","stimuli/01011010.jpg"," ","","feedback_trial","2","","","","","","","","","","","","","","","","","","","","",""
"","","","","","image-keyboard-response","36","577481","0.0-11.0","5e38e79295ff561112eae457","665500ab8938657b03fbdba8","66579235b31277676b8a779b","2519","stimuli/2011111.jpg","0","","prediction_trial","2","","false","","2","false","false","false","false","false","false","[1,2]","011","111","0","","","","","","",""
"","","","","","image-keyboard-response","37","578354","0.0-12.0","5e38e79295ff561112eae457","665500ab8938657b03fbdba8","66579235b31277676b8a779b","872","stimuli/20111112.jpg"," ","","feedback_trial","1","","","","","","","","","","","","","","","","","","","","",""
"","","","","","image-keyboard-response","38","580817","0.0-13.0","5e38e79295ff561112eae457","665500ab8938657b03fbdba8","66579235b31277676b8a779b","2463","stimuli/0110101.jpg","2","","prediction_trial","1","","false","","0","false","false","false","false","false","false","[0,1]","110","101","0","","","","","","",""
"","","","","","image-keyboard-response","39","581705","0.0-14.0","5e38e79295ff561112eae457","665500ab8938657b03fbdba8","66579235b31277676b8a779b","887","stimuli/01101011.jpg"," ","","feedback_trial","0","","","","","","","","","","","","","","","","","","","","",""
"","","","","","image-keyboard-response","40","583625","0.0-15.0","5e38e79295ff561112eae457","665500ab8938657b03fbdba8","66579235b31277676b8a779b","1919","stimuli/1011110.jpg","0","","prediction_trial","2","","false","","1","false","false","false","false","false","false","[2,1]","011","110","0","","","","","","",""
"","","","","","image-keyboard-response","41","585001","0.0-16.0","5e38e79295ff561112eae457","665500ab8938657b03fbdba8","66579235b31277676b8a779b","1375","stimuli/10111102.jpg"," ","","feedback_trial","2","","","","","","","","","","","","","","","","","","","","",""
"","","","","","image-keyboard-response","42","586161","0.0-17.0","5e38e79295ff561112eae457","665500ab8938657b03fbdba8","66579235b31277676b8a779b","1159","stimuli/1111100.jpg","1","","prediction_trial","1","","true","","1","true","true","false","false","false","false","[0,1,2]","111","100","1","","","","","","",""
"","","","","","image-keyboard-response","43","587369","0.0-18.0","5e38e79295ff561112eae457","665500ab8938657b03fbdba8","66579235b31277676b8a779b","1207","stimuli/11111001.jpg"," ","","feedback_trial","0","","","","","","","","","","","","","","","","","","","","",""
"","","","","","image-keyboard-response","44","590504","0.0-19.0","5e38e79295ff561112eae457","665500ab8938657b03fbdba8","66579235b31277676b8a779b","3135","stimuli/0010101.jpg","0","","prediction_trial","0","","true","","0","false","false","true","true","false","false","[0]","010","101","1","","","","","","",""
"","","","","","image-keyboard-response","45","591168","0.0-20.0","5e38e79295ff561112eae457","665500ab8938657b03fbdba8","66579235b31277676b8a779b","664","stimuli/00101010.jpg"," ","","feedback_trial","0","","","","","","","","","","","","","","","","","","","","",""
"","","","","","image-keyboard-response","46","593112","0.0-21.0","5e38e79295ff561112eae457","665500ab8938657b03fbdba8","66579235b31277676b8a779b","1943","stimuli/1111110.jpg","1","","prediction_trial","2","","false","","1","false","false","false","false","false","false","[1,2,0]","111","110","0","","","","","","",""
"","","","","","image-keyboard-response","47","593880","0.0-22.0","5e38e79295ff561112eae457","665500ab8938657b03fbdba8","66579235b31277676b8a779b","767","stimuli/11111102.jpg"," ","","feedback_trial","1","","","","","","","","","","","","","","","","","","","","",""
"","","","","","image-keyboard-response","48","595912","0.0-23.0","5e38e79295ff561112eae457","665500ab8938657b03fbdba8","66579235b31277676b8a779b","2031","stimuli/2000000.jpg","2","","prediction_trial","2","","true","","2","true","true","true","true","true","true","[2]","000","000","1","","","","","","",""
"","","","","","image-keyboard-response","49","596672","0.0-24.0","5e38e79295ff561112eae457","665500ab8938657b03fbdba8","66579235b31277676b8a779b","760","stimuli/20000002.jpg"," ","","feedback_trial","2","","","","","","","","","","","","","","","","","","","","",""
"","","","","","image-keyboard-response","50","598329","0.0-25.0","5e38e79295ff561112eae457","665500ab8938657b03fbdba8","66579235b31277676b8a779b","1656","stimuli/2100001.jpg","2","","prediction_trial","2","","true","","2","false","true","true","true","false","true","[2]","100","001","1","","","","","","",""
"","","","","","image-keyboard-response","51","598904","0.0-26.0","5e38e79295ff561112eae457","665500ab8938657b03fbdba8","66579235b31277676b8a779b","575","stimuli/21000012.jpg"," ","","feedback_trial","2","","","","","","","","","","","","","","","","","","","","",""
"","","","","","image-keyboard-response","52","600448","0.0-27.0","5e38e79295ff561112eae457","665500ab8938657b03fbdba8","66579235b31277676b8a779b","1543","stimuli/2111101.jpg","2","","prediction_trial","0","","false","","2","false","false","false","false","false","false","[2,1,0]","111","101","0","","","","","","",""
"","","","","","image-keyboard-response","53","601392","0.0-28.0","5e38e79295ff561112eae457","665500ab8938657b03fbdba8","66579235b31277676b8a779b","943","stimuli/21111010.jpg"," ","","feedback_trial","2","","","","","","","","","","","","","","","","","","","","",""
"","","","","","image-keyboard-response","54","603560","0.0-29.0","5e38e79295ff561112eae457","665500ab8938657b03fbdba8","66579235b31277676b8a779b","2167","stimuli/2100111.jpg","1","","prediction_trial","2","","false","","2","false","false","true","true","false","false","[2]","100","111","0","","","","","","",""
"","","","","","image-keyboard-response","55","604488","0.0-30.0","5e38e79295ff561112eae457","665500ab8938657b03fbdba8","66579235b31277676b8a779b","927","stimuli/21001112.jpg"," ","","feedback_trial","2","","","","","","","","","","","","","","","","","","","","",""
"","","","","","image-keyboard-response","56","606488","0.0-31.0","5e38e79295ff561112eae457","665500ab8938657b03fbdba8","66579235b31277676b8a779b","1999","stimuli/0000101.jpg","0","","prediction_trial","0","","true","","0","false","false","true","true","false","false","[0]","000","101","1","","","","","","",""
"","","","","","image-keyboard-response","57","607280","0.0-32.0","5e38e79295ff561112eae457","665500ab8938657b03fbdba8","66579235b31277676b8a779b","791","stimuli/00001010.jpg"," ","","feedback_trial","0","","","","","","","","","","","","","","","","","","","","",""
"","","","","","image-keyboard-response","58","609368","0.0-33.0","5e38e79295ff561112eae457","665500ab8938657b03fbdba8","66579235b31277676b8a779b","2087","stimuli/1011100.jpg","1","","prediction_trial","1","","true","","1","true","true","false","false","false","false","[2,1]","011","100","1","","","","","","",""
"","","","","","image-keyboard-response","59","609975","0.0-34.0","5e38e79295ff561112eae457","665500ab8938657b03fbdba8","66579235b31277676b8a779b","607","stimuli/10111001.jpg"," ","","feedback_trial","2","","","","","","","","","","","","","","","","","","","","",""
"","","","","","image-keyboard-response","60","611008","0.0-35.0","5e38e79295ff561112eae457","665500ab8938657b03fbdba8","66579235b31277676b8a779b","1031","stimuli/0011011.jpg","0","","prediction_trial","0","","true","","0","true","true","true","true","true","true","[0]","011","011","1","","","","","","",""
"","","","","","image-keyboard-response","61","611632","0.0-36.0","5e38e79295ff561112eae457","665500ab8938657b03fbdba8","66579235b31277676b8a779b","623","stimuli/00110110.jpg"," ","","feedback_trial","0","","","","","","","","","","","","","","","","","","","","",""
"","","","","","image-keyboard-response","62","613095","0.0-37.0","5e38e79295ff561112eae457","665500ab8938657b03fbdba8","66579235b31277676b8a779b","1463","stimuli/1110101.jpg","1","","prediction_trial","1","","true","","1","true","true","false","false","false","false","[0,1]","110","101","1","","","","","","",""
"","","","","","image-keyboard-response","63","613759","0.0-38.0","5e38e79295ff561112eae457","665500ab8938657b03fbdba8","66579235b31277676b8a779b","663","stimuli/11101011.jpg"," ","","feedback_trial","0","","","","","","","","","","","","","","","","","","","","",""
"","","","","","image-keyboard-response","64","614751","0.0-39.0","5e38e79295ff561112eae457","665500ab8938657b03fbdba8","66579235b31277676b8a779b","991","stimuli/0010000.jpg","0","","prediction_trial","0","","true","","0","true","true","true","true","true","true","[0]","010","000","1","","","","","","",""
"","","","","","image-keyboard-response","65","615423","0.0-40.0","5e38e79295ff561112eae457","665500ab8938657b03fbdba8","66579235b31277676b8a779b","671","stimuli/00100000.jpg"," ","","feedback_trial","0","","","","","","","","","","","","","","","","","","","","",""
"","","","","","image-keyboard-response","66","616487","0.0-41.0","5e38e79295ff561112eae457","665500ab8938657b03fbdba8","66579235b31277676b8a779b","1063","stimuli/0101100.jpg","0","","prediction_trial","2","","false","","0","false","true","false","false","false","false","[0,2]","101","100","0","","","","","","",""
"","","","","","image-keyboard-response","67","617615","0.0-42.0","5e38e79295ff561112eae457","665500ab8938657b03fbdba8","66579235b31277676b8a779b","1128","stimuli/01011002.jpg"," ","","feedback_trial","0","","","","","","","","","","","","","","","","","","","","",""
"","","","","","image-keyboard-response","68","619823","0.0-43.0","5e38e79295ff561112eae457","665500ab8938657b03fbdba8","66579235b31277676b8a779b","2207","stimuli/0101111.jpg","1","","prediction_trial","2","","false","","0","false","false","false","false","false","false","[2,0]","101","111","0","","","","","","",""
"","","","","","image-keyboard-response","69","620607","0.0-44.0","5e38e79295ff561112eae457","665500ab8938657b03fbdba8","66579235b31277676b8a779b","783","stimuli/01011112.jpg"," ","","feedback_trial","2","","","","","","","","","","","","","","","","","","","","",""
"","","","","","image-keyboard-response","70","623119","0.0-45.0","5e38e79295ff561112eae457","665500ab8938657b03fbdba8","66579235b31277676b8a779b","2511","stimuli/2010101.jpg","0","","prediction_trial","2","","false","","2","false","false","true","true","false","false","[2]","010","101","0","","","","","","",""
"","","","","","image-keyboard-response","71","623815","0.0-46.0","5e38e79295ff561112eae457","665500ab8938657b03fbdba8","66579235b31277676b8a779b","695","stimuli/20101012.jpg"," ","","feedback_trial","2","","","","","","","","","","","","","","","","","","","","",""
"","","","","","image-keyboard-response","72","625951","0.0-47.0","5e38e79295ff561112eae457","665500ab8938657b03fbdba8","66579235b31277676b8a779b","2135","stimuli/1111101.jpg","2","","prediction_trial","1","","false","","1","true","true","false","false","false","false","[0,2,1]","111","101","0","","","","","","",""
"","","","","","image-keyboard-response","73","626719","0.0-48.0","5e38e79295ff561112eae457","665500ab8938657b03fbdba8","66579235b31277676b8a779b","767","stimuli/11111011.jpg"," ","","feedback_trial","0","","","","","","","","","","","","","","","","","","","","",""
"","","","","","image-keyboard-response","74","627735","0.0-49.0","5e38e79295ff561112eae457","665500ab8938657b03fbdba8","66579235b31277676b8a779b","1016","stimuli/1001100.jpg","1","","prediction_trial","1","","true","","1","true","true","true","true","true","true","[1]","001","100","1","","","","","","",""
"","","","","","image-keyboard-response","75","628494","0.0-50.0","5e38e79295ff561112eae457","665500ab8938657b03fbdba8","66579235b31277676b8a779b","759","stimuli/10011001.jpg"," ","","feedback_trial","1","","","","","","","","","","","","","","","","","","","","",""
"","","","","","image-keyboard-response","76","629454","0.0-51.0","5e38e79295ff561112eae457","665500ab8938657b03fbdba8","66579235b31277676b8a779b","959","stimuli/2110001.jpg","2","","prediction_trial","2","","true","","2","false","true","true","true","false","true","[2]","110","001","1","","","","","","",""
"","","","","","image-keyboard-response","77","630062","0.0-52.0","5e38e79295ff561112eae457","665500ab8938657b03fbdba8","66579235b31277676b8a779b","607","stimuli/21100012.jpg"," ","","feedback_trial","2","","","","","","","","","","","","","","","","","","","","",""
"","","","","","image-keyboard-response","78","630894","0.0-53.0","5e38e79295ff561112eae457","665500ab8938657b03fbdba8","66579235b31277676b8a779b","831","stimuli/1001000.jpg","1","","prediction_trial","1","","true","","1","true","true","true","true","true","true","[1]","001","000","1","","","","","","",""
"","","","","","image-keyboard-response","79","631550","0.0-54.0","5e38e79295ff561112eae457","665500ab8938657b03fbdba8","66579235b31277676b8a779b","655","stimuli/10010001.jpg"," ","","feedback_trial","1","","","","","","","","","","","","","","","","","","","","",""
"","","","","","image-keyboard-response","80","632918","0.0-55.0","5e38e79295ff561112eae457","665500ab8938657b03fbdba8","66579235b31277676b8a779b","1367","stimuli/2111111.jpg","2","","prediction_trial","1","","false","","2","false","false","false","false","false","false","[2,1,0]","111","111","0","","","","","","",""
"","","","","","image-keyboard-response","81","633638","0.0-56.0","5e38e79295ff561112eae457","665500ab8938657b03fbdba8","66579235b31277676b8a779b","720","stimuli/21111111.jpg"," ","","feedback_trial","2","","","","","","","","","","","","","","","","","","","","",""
"","","","","","image-keyboard-response","82","635198","0.0-57.0","5e38e79295ff561112eae457","665500ab8938657b03fbdba8","66579235b31277676b8a779b","1559","stimuli/2101100.jpg","2","","prediction_trial","0","","false","","2","true","true","false","false","false","false","[2,0]","101","100","0","","","","","","",""
"","","","","","image-keyboard-response","83","635862","0.0-58.0","5e38e79295ff561112eae457","665500ab8938657b03fbdba8","66579235b31277676b8a779b","664","stimuli/21011000.jpg"," ","","feedback_trial","2","","","","","","","","","","","","","","","","","","","","",""
"","","","","","image-keyboard-response","84","637630","0.0-59.0","5e38e79295ff561112eae457","665500ab8938657b03fbdba8","66579235b31277676b8a779b","1767","stimuli/1000111.jpg","2","","prediction_trial","1","","false","","1","false","false","true","true","false","false","[1]","000","111","0","","","","","","",""
"","","","","","image-keyboard-response","85","638293","0.0-60.0","5e38e79295ff561112eae457","665500ab8938657b03fbdba8","66579235b31277676b8a779b","663","stimuli/10001111.jpg"," ","","feedback_trial","1","","","","","","","","","","","","","","","","","","","","",""
"","","","","","image-keyboard-response","86","639765","0.0-61.0","5e38e79295ff561112eae457","665500ab8938657b03fbdba8","66579235b31277676b8a779b","1471","stimuli/2011010.jpg","2","","prediction_trial","1","","false","","2","true","true","false","false","false","false","[1,2]","011","010","0","","","","","","",""
"","","","","","image-keyboard-response","87","640757","0.0-62.0","5e38e79295ff561112eae457","665500ab8938657b03fbdba8","66579235b31277676b8a779b","991","stimuli/20110101.jpg"," ","","feedback_trial","1","","","","","","","","","","","","","","","","","","","","",""
"","","","","","image-keyboard-response","88","642653","0.0-63.0","5e38e79295ff561112eae457","665500ab8938657b03fbdba8","66579235b31277676b8a779b","1895","stimuli/2000011.jpg","2","","prediction_trial","2","","true","","2","false","false","true","true","false","false","[2]","000","011","1","","","","","","",""
"","","","","","image-keyboard-response","89","643277","0.0-64.0","5e38e79295ff561112eae457","665500ab8938657b03fbdba8","66579235b31277676b8a779b","623","stimuli/20000112.jpg"," ","","feedback_trial","2","","","","","","","","","","","","","","","","","","","","",""
"","","","","","image-keyboard-response","90","644693","0.0-65.0","5e38e79295ff561112eae457","665500ab8938657b03fbdba8","66579235b31277676b8a779b","1415","stimuli/2100011.jpg","1","","prediction_trial","2","","false","","2","false","false","true","true","false","false","[2]","100","011","0","","","","","","",""
"","","","","","image-keyboard-response","91","645414","0.0-66.0","5e38e79295ff561112eae457","665500ab8938657b03fbdba8","66579235b31277676b8a779b","720","stimuli/21000112.jpg"," ","","feedback_trial","2","","","","","","","","","","","","","","","","","","","","",""
"","","","","","image-keyboard-response","92","646758","0.0-67.0","5e38e79295ff561112eae457","665500ab8938657b03fbdba8","66579235b31277676b8a779b","1343","stimuli/0010100.jpg","0","","prediction_trial","0","","true","","0","false","true","true","true","false","true","[0]","010","100","1","","","","","","",""
"","","","","","image-keyboard-response","93","647445","0.0-68.0","5e38e79295ff561112eae457","665500ab8938657b03fbdba8","66579235b31277676b8a779b","687","stimuli/00101000.jpg"," ","","feedback_trial","0","","","","","","","","","","","","","","","","","","","","",""
"","","","","","image-keyboard-response","94","648638","0.0-69.0","5e38e79295ff561112eae457","665500ab8938657b03fbdba8","66579235b31277676b8a779b","1192","stimuli/2001100.jpg","2","","prediction_trial","2","","true","","2","true","true","false","true","false","true","[2]","001","100","1","","","","","","",""
"","","","","","image-keyboard-response","95","649197","0.0-70.0","5e38e79295ff561112eae457","665500ab8938657b03fbdba8","66579235b31277676b8a779b","559","stimuli/20011002.jpg"," ","","feedback_trial","2","","","","","","","","","","","","","","","","","","","","",""
"","","","","","image-keyboard-response","96","650149","0.0-71.0","5e38e79295ff561112eae457","665500ab8938657b03fbdba8","66579235b31277676b8a779b","951","stimuli/0001011.jpg","0","","prediction_trial","0","","true","","0","true","true","true","true","true","true","[0]","001","011","1","","","","","","",""
"","","","","","image-keyboard-response","97","650694","0.0-72.0","5e38e79295ff561112eae457","665500ab8938657b03fbdba8","66579235b31277676b8a779b","544","stimuli/00010110.jpg"," ","","feedback_trial","0","","","","","","","","","","","","","","","","","","","","",""
"","","","","","image-keyboard-response","98","651781","0.0-73.0","5e38e79295ff561112eae457","665500ab8938657b03fbdba8","66579235b31277676b8a779b","1087","stimuli/1001011.jpg","1","","prediction_trial","1","","true","","1","false","false","true","true","false","false","[1]","001","011","1","","","","","","",""
"","","","","","image-keyboard-response","99","652445","0.0-74.0","5e38e79295ff561112eae457","665500ab8938657b03fbdba8","66579235b31277676b8a779b","663","stimuli/10010111.jpg"," ","","feedback_trial","1","","","","","","","","","","","","","","","","","","","","",""
"","","","","","image-keyboard-response","100","653653","0.0-75.0","5e38e79295ff561112eae457","665500ab8938657b03fbdba8","66579235b31277676b8a779b","1207","stimuli/0100000.jpg","0","","prediction_trial","0","","true","","0","true","true","false","true","false","true","[0]","100","000","1","","","","","","",""
"","","","","","image-keyboard-response","101","654205","0.0-76.0","5e38e79295ff561112eae457","665500ab8938657b03fbdba8","66579235b31277676b8a779b","551","stimuli/01000000.jpg"," ","","feedback_trial","0","","","","","","","","","","","","","","","","","","","","",""
"","","","","","image-keyboard-response","102","655077","0.0-77.0","5e38e79295ff561112eae457","665500ab8938657b03fbdba8","66579235b31277676b8a779b","871","stimuli/0000000.jpg","0","","prediction_trial","0","","true","","0","true","true","true","true","true","true","[0]","000","000","1","","","","","","",""
"","","","","","image-keyboard-response","103","655645","0.0-78.0","5e38e79295ff561112eae457","665500ab8938657b03fbdba8","66579235b31277676b8a779b","567","stimuli/00000000.jpg"," ","","feedback_trial","0","","","","","","","","","","","","","","","","","","","","",""
"","","","","","image-keyboard-response","104","657053","0.0-79.0","5e38e79295ff561112eae457","665500ab8938657b03fbdba8","66579235b31277676b8a779b","1407","stimuli/2111001.jpg","2","","prediction_trial","1","","false","","2","false","true","false","false","false","false","[1,2,0]","111","001","0","","","","","","",""
"","","","","","image-keyboard-response","105","657573","0.0-80.0","5e38e79295ff561112eae457","665500ab8938657b03fbdba8","66579235b31277676b8a779b","520","stimuli/21110011.jpg"," ","","feedback_trial","1","","","","","","","","","","","","","","","","","","","","",""
"","","","","","image-keyboard-response","106","658868","0.0-81.0","5e38e79295ff561112eae457","665500ab8938657b03fbdba8","66579235b31277676b8a779b","1295","stimuli/0010010.jpg","0","","prediction_trial","0","","true","","0","true","true","true","true","true","true","[0]","010","010","1","","","","","","",""
"","","","","","image-keyboard-response","107","659668","0.0-82.0","5e38e79295ff561112eae457","665500ab8938657b03fbdba8","66579235b31277676b8a779b","799","stimuli/00100100.jpg"," ","","feedback_trial","0","","","","","","","","","","","","","","","","","","","","",""
"","","","","","image-keyboard-response","108","661092","0.0-83.0","5e38e79295ff561112eae457","665500ab8938657b03fbdba8","66579235b31277676b8a779b","1423","stimuli/0111001.jpg","0","","prediction_trial","2","","false","","0","true","true","false","false","false","false","[1,2,0]","111","001","0","","","","","","",""
"","","","","","image-keyboard-response","109","661757","0.0-84.0","5e38e79295ff561112eae457","665500ab8938657b03fbdba8","66579235b31277676b8a779b","663","stimuli/01110012.jpg"," ","","feedback_trial","1","","","","","","","","","","","","","","","","","","","","",""
"","","","","","image-keyboard-response","110","665124","0.0-85.0","5e38e79295ff561112eae457","665500ab8938657b03fbdba8","66579235b31277676b8a779b","3367","stimuli/1001111.jpg","1","","prediction_trial","1","","true","","1","false","false","true","true","false","false","[1]","001","111","1","","","","","","",""
"","","","","","image-keyboard-response","111","665644","0.0-86.0","5e38e79295ff561112eae457","665500ab8938657b03fbdba8","66579235b31277676b8a779b","519","stimuli/10011111.jpg"," ","","feedback_trial","1","","","","","","","","","","","","","","","","","","","","",""
"","","","","","image-keyboard-response","112","667508","0.0-87.0","5e38e79295ff561112eae457","665500ab8938657b03fbdba8","66579235b31277676b8a779b","1863","stimuli/1111010.jpg","1","","prediction_trial","2","","false","","1","false","true","false","false","false","false","[1,2,0]","111","010","0","","","","","","",""
"","","","","","image-keyboard-response","113","668028","0.0-88.0","5e38e79295ff561112eae457","665500ab8938657b03fbdba8","66579235b31277676b8a779b","519","stimuli/11110102.jpg"," ","","feedback_trial","1","","","","","","","","","","","","","","","","","","","","",""
"","","","","","image-keyboard-response","114","669812","0.0-89.0","5e38e79295ff561112eae457","665500ab8938657b03fbdba8","66579235b31277676b8a779b","1783","stimuli/0001100.jpg","0","","prediction_trial","0","","true","","0","false","true","true","true","false","true","[0]","001","100","1","","","","","","",""
"","","","","","image-keyboard-response","115","670260","0.0-90.0","5e38e79295ff561112eae457","665500ab8938657b03fbdba8","66579235b31277676b8a779b","447","stimuli/00011000.jpg"," ","","feedback_trial","0","","","","","","","","","","","","","","","","","","","","",""
"","","","","","image-keyboard-response","116","672340","0.0-91.0","5e38e79295ff561112eae457","665500ab8938657b03fbdba8","66579235b31277676b8a779b","2079","stimuli/0010111.jpg","2","","prediction_trial","0","","false","","0","false","false","true","true","false","false","[0]","010","111","0","","","","","","",""
"","","","","","image-keyboard-response","117","672884","0.0-92.0","5e38e79295ff561112eae457","665500ab8938657b03fbdba8","66579235b31277676b8a779b","544","stimuli/00101110.jpg"," ","","feedback_trial","0","","","","","","","","","","","","","","","","","","","","",""
"","","","","","image-keyboard-response","118","675052","0.0-93.0","5e38e79295ff561112eae457","665500ab8938657b03fbdba8","66579235b31277676b8a779b","2167","stimuli/2011000.jpg","2","","prediction_trial","1","","false","","2","true","true","false","false","false","false","[1,2]","011","000","0","","","","","","",""
"","","","","","image-keyboard-response","119","675589","0.0-94.0","5e38e79295ff561112eae457","665500ab8938657b03fbdba8","66579235b31277676b8a779b","536","stimuli/20110001.jpg"," ","","feedback_trial","1","","","","","","","","","","","","","","","","","","","","",""
"","","","","","image-keyboard-response","120","677956","0.0-95.0","5e38e79295ff561112eae457","665500ab8938657b03fbdba8","66579235b31277676b8a779b","2366","stimuli/2101101.jpg","2","","prediction_trial","2","","true","","2","false","false","false","false","false","false","[2,0]","101","101","1","","","","","","",""
"","","","","","image-keyboard-response","121","678460","0.0-96.0","5e38e79295ff561112eae457","665500ab8938657b03fbdba8","66579235b31277676b8a779b","503","stimuli/21011012.jpg"," ","","feedback_trial","2","","","","","","","","","","","","","","","","","","","","",""
"","","","","","image-keyboard-response","122","679492","0.0-97.0","5e38e79295ff561112eae457","665500ab8938657b03fbdba8","66579235b31277676b8a779b","1031","stimuli/1101100.jpg","1","","prediction_trial","1","","true","","1","true","true","true","true","true","true","[1]","101","100","1","","","","","","",""
"","","","","","image-keyboard-response","123","679987","0.0-98.0","5e38e79295ff561112eae457","665500ab8938657b03fbdba8","66579235b31277676b8a779b","495","stimuli/11011001.jpg"," ","","feedback_trial","1","","","","","","","","","","","","","","","","","","","","",""
"","","","","","image-keyboard-response","124","680820","0.0-99.0","5e38e79295ff561112eae457","665500ab8938657b03fbdba8","66579235b31277676b8a779b","831","stimuli/2010100.jpg","2","","prediction_trial","2","","true","","2","true","true","true","true","true","true","[2]","010","100","1","","","","","","",""
"","","","","","image-keyboard-response","125","681380","0.0-100.0","5e38e79295ff561112eae457","665500ab8938657b03fbdba8","66579235b31277676b8a779b","560","stimuli/20101002.jpg"," ","","feedback_trial","2","","","","","","","","","","","","","","","","","","","","",""
"","","","","","image-keyboard-response","126","682948","0.0-101.0","5e38e79295ff561112eae457","665500ab8938657b03fbdba8","66579235b31277676b8a779b","1567","stimuli/0100101.jpg","2","","prediction_trial","0","","false","","0","false","false","false","true","false","false","[0]","100","101","0","","","","","","",""
"","","","","","image-keyboard-response","127","683548","0.0-102.0","5e38e79295ff561112eae457","665500ab8938657b03fbdba8","66579235b31277676b8a779b","600","stimuli/01001010.jpg"," ","","feedback_trial","0","","","","","","","","","","","","","","","","","","","","",""
"","","","","","image-keyboard-response","128","684531","0.0-103.0","5e38e79295ff561112eae457","665500ab8938657b03fbdba8","66579235b31277676b8a779b","983","stimuli/0001001.jpg","0","","prediction_trial","0","","true","","0","true","true","true","true","true","true","[0]","001","001","1","","","","","","",""
"","","","","","image-keyboard-response","129","685219","0.0-104.0","5e38e79295ff561112eae457","665500ab8938657b03fbdba8","66579235b31277676b8a779b","687","stimuli/00010010.jpg"," ","","feedback_trial","0","","","","","","","","","","","","","","","","","","","","",""
"","","","","","image-keyboard-response","130","688820","0.0-105.0","5e38e79295ff561112eae457","665500ab8938657b03fbdba8","66579235b31277676b8a779b","3600","stimuli/2101011.jpg","1","","prediction_trial","0","","false","","2","false","false","false","false","false","false","[0,2]","101","011","0","","","","","","",""
"","","","","","image-keyboard-response","131","689836","0.0-106.0","5e38e79295ff561112eae457","665500ab8938657b03fbdba8","66579235b31277676b8a779b","1015","stimuli/21010110.jpg"," ","","feedback_trial","0","","","","","","","","","","","","","","","","","","","","",""
"","","","","","image-keyboard-response","132","697188","0.0-107.0","5e38e79295ff561112eae457","665500ab8938657b03fbdba8","66579235b31277676b8a779b","7351","stimuli/1010110.jpg","0","","prediction_trial","1","","false","","1","false","false","false","true","false","false","[1]","010","110","0","","","","","","",""
"","","","","","image-keyboard-response","133","697676","0.0-108.0","5e38e79295ff561112eae457","665500ab8938657b03fbdba8","66579235b31277676b8a779b","487","stimuli/10101101.jpg"," ","","feedback_trial","1","","","","","","","","","","","","","","","","","","","","",""
"","","","","","image-keyboard-response","134","700020","0.0-109.0","5e38e79295ff561112eae457","665500ab8938657b03fbdba8","66579235b31277676b8a779b","2343","stimuli/0101010.jpg","0","","prediction_trial","0","","true","","0","true","true","false","false","false","false","[2,0]","101","010","1","","","","","","",""
"","","","","","image-keyboard-response","135","700540","0.0-110.0","5e38e79295ff561112eae457","665500ab8938657b03fbdba8","66579235b31277676b8a779b","519","stimuli/01010100.jpg"," ","","feedback_trial","2","","","","","","","","","","","","","","","","","","","","",""
"","","","","","image-keyboard-response","136","701388","0.0-111.0","5e38e79295ff561112eae457","665500ab8938657b03fbdba8","66579235b31277676b8a779b","848","stimuli/0000010.jpg","0","","prediction_trial","0","","true","","0","true","true","true","true","true","true","[0]","000","010","1","","","","","","",""
"","","","","","image-keyboard-response","137","701819","0.0-112.0","5e38e79295ff561112eae457","665500ab8938657b03fbdba8","66579235b31277676b8a779b","430","stimuli/00000100.jpg"," ","","feedback_trial","0","","","","","","","","","","","","","","","","","","","","",""
"","","","","","image-keyboard-response","138","702771","0.0-113.0","5e38e79295ff561112eae457","665500ab8938657b03fbdba8","66579235b31277676b8a779b","951","stimuli/1011001.jpg","1","","prediction_trial","1","","true","","1","true","true","false","false","false","false","[2,1]","011","001","1","","","","","","",""
"","","","","","image-keyboard-response","139","703283","0.0-114.0","5e38e79295ff561112eae457","665500ab8938657b03fbdba8","66579235b31277676b8a779b","511","stimuli/10110011.jpg"," ","","feedback_trial","2","","","","","","","","","","","","","","","","","","","","",""
"","","","","","image-keyboard-response","140","704499","0.0-115.0","5e38e79295ff561112eae457","665500ab8938657b03fbdba8","66579235b31277676b8a779b","1215","stimuli/1100110.jpg","1","","prediction_trial","1","","true","","1","false","false","true","true","false","false","[1]","100","110","1","","","","","","",""
"","","","","","image-keyboard-response","141","705067","0.0-116.0","5e38e79295ff561112eae457","665500ab8938657b03fbdba8","66579235b31277676b8a779b","568","stimuli/11001101.jpg"," ","","feedback_trial","1","","","","","","","","","","","","","","","","","","","","",""
"","","","","","image-keyboard-response","142","706883","0.0-117.0","5e38e79295ff561112eae457","665500ab8938657b03fbdba8","66579235b31277676b8a779b","1815","stimuli/2111100.jpg","1","","prediction_trial","1","","true","","2","true","true","false","false","false","false","[0,2,1]","111","100","1","","","","","","",""
"","","","","","image-keyboard-response","143","707435","0.0-118.0","5e38e79295ff561112eae457","665500ab8938657b03fbdba8","66579235b31277676b8a779b","551","stimuli/21111001.jpg"," ","","feedback_trial","0","","","","","","","","","","","","","","","","","","","","",""
"","","","","","image-keyboard-response","144","709292","0.0-119.0","5e38e79295ff561112eae457","665500ab8938657b03fbdba8","66579235b31277676b8a779b","1856","stimuli/1111001.jpg","2","","prediction_trial","1","","false","","1","true","true","false","false","false","false","[2,1,0]","111","001","0","","","","","","",""
"","","","","","image-keyboard-response","145","709955","0.0-120.0","5e38e79295ff561112eae457","665500ab8938657b03fbdba8","66579235b31277676b8a779b","662","stimuli/11110011.jpg"," ","","feedback_trial","2","","","","","","","","","","","","","","","","","","","","",""
"","","","","","image-keyboard-response","146","710931","0.0-121.0","5e38e79295ff561112eae457","665500ab8938657b03fbdba8","66579235b31277676b8a779b","975","stimuli/2010010.jpg","2","","prediction_trial","2","","true","","2","true","true","true","true","true","true","[2]","010","010","1","","","","","","",""
"","","","","","image-keyboard-response","147","711475","0.0-122.0","5e38e79295ff561112eae457","665500ab8938657b03fbdba8","66579235b31277676b8a779b","543","stimuli/20100102.jpg"," ","","feedback_trial","2","","","","","","","","","","","","","","","","","","","","",""
"","","","","","image-keyboard-response","148","712283","0.0-123.0","5e38e79295ff561112eae457","665500ab8938657b03fbdba8","66579235b31277676b8a779b","807","stimuli/2010110.jpg","2","","prediction_trial","2","","true","","2","true","true","true","true","true","true","[2]","010","110","1","","","","","","",""
"","","","","","image-keyboard-response","149","712859","0.0-124.0","5e38e79295ff561112eae457","665500ab8938657b03fbdba8","66579235b31277676b8a779b","576","stimuli/20101102.jpg"," ","","feedback_trial","2","","","","","","","","","","","","","","","","","","","","",""
"","","","","","image-keyboard-response","150","713691","0.0-125.0","5e38e79295ff561112eae457","665500ab8938657b03fbdba8","66579235b31277676b8a779b","831","stimuli/1100100.jpg","1","","prediction_trial","1","","true","","1","true","true","true","true","true","true","[1]","100","100","1","","","","","","",""
"","","","","","image-keyboard-response","151","714283","0.0-126.0","5e38e79295ff561112eae457","665500ab8938657b03fbdba8","66579235b31277676b8a779b","591","stimuli/11001001.jpg"," ","","feedback_trial","1","","","","","","","","","","","","","","","","","","","","",""
"","","","","","image-keyboard-response","152","715155","0.0-127.0","5e38e79295ff561112eae457","665500ab8938657b03fbdba8","66579235b31277676b8a779b","871","stimuli/2001000.jpg","2","","prediction_trial","2","","true","","2","true","true","false","true","false","true","[2]","001","000","1","","","","","","",""
"","","","","","image-keyboard-response","153","715795","0.0-128.0","5e38e79295ff561112eae457","665500ab8938657b03fbdba8","66579235b31277676b8a779b","639","stimuli/20010002.jpg"," ","","feedback_trial","2","","","","","","","","","","","","","","","","","","","","",""
"","","","","","image-keyboard-response","154","717515","0.0-129.0","5e38e79295ff561112eae457","665500ab8938657b03fbdba8","66579235b31277676b8a779b","1720","stimuli/1011010.jpg","1","","prediction_trial","2","","false","","1","false","true","false","false","false","false","[2,1]","011","010","0","","","","","","",""
"","","","","","image-keyboard-response","155","718027","0.0-130.0","5e38e79295ff561112eae457","665500ab8938657b03fbdba8","66579235b31277676b8a779b","511","stimuli/10110102.jpg"," ","","feedback_trial","2","","","","","","","","","","","","","","","","","","","","",""
"","","","","","image-keyboard-response","156","719523","0.0-131.0","5e38e79295ff561112eae457","665500ab8938657b03fbdba8","66579235b31277676b8a779b","1495","stimuli/2111011.jpg","1","","prediction_trial","0","","false","","2","false","false","false","false","false","false","[0,1,2]","111","011","0","","","","","","",""
"","","","","","image-keyboard-response","157","720115","0.0-132.0","5e38e79295ff561112eae457","665500ab8938657b03fbdba8","66579235b31277676b8a779b","591","stimuli/21110110.jpg"," ","","feedback_trial","0","","","","","","","","","","","","","","","","","","","","",""
"","","","","","image-keyboard-response","158","722467","0.0-133.0","5e38e79295ff561112eae457","665500ab8938657b03fbdba8","66579235b31277676b8a779b","2351","stimuli/0011101.jpg","0","","prediction_trial","0","","true","","0","false","false","true","true","false","false","[0]","011","101","1","","","","","","",""
"","","","","","image-keyboard-response","159","722954","0.0-134.0","5e38e79295ff561112eae457","665500ab8938657b03fbdba8","66579235b31277676b8a779b","487","stimuli/00111010.jpg"," ","","feedback_trial","0","","","","","","","","","","","","","","","","","","","","",""
"","","","","","image-keyboard-response","160","724091","0.0-135.0","5e38e79295ff561112eae457","665500ab8938657b03fbdba8","66579235b31277676b8a779b","1135","stimuli/1010100.jpg","1","","prediction_trial","1","","true","","1","true","true","false","true","false","true","[1]","010","100","1","","","","","","",""
"","","","","","image-keyboard-response","161","724442","0.0-136.0","5e38e79295ff561112eae457","665500ab8938657b03fbdba8","66579235b31277676b8a779b","351","stimuli/10101001.jpg"," ","","feedback_trial","1","","","","","","","","","","","","","","","","","","","","",""
"","","","","","image-keyboard-response","162","725714","0.0-137.0","5e38e79295ff561112eae457","665500ab8938657b03fbdba8","66579235b31277676b8a779b","1271","stimuli/0111110.jpg","1","","prediction_trial","0","","false","","0","false","false","false","false","false","false","[1,2,0]","111","110","0","","","","","","",""
"","","","","","image-keyboard-response","163","726162","0.0-138.0","5e38e79295ff561112eae457","665500ab8938657b03fbdba8","66579235b31277676b8a779b","447","stimuli/01111100.jpg"," ","","feedback_trial","1","","","","","","","","","","","","","","","","","","","","",""
"","","","","","image-keyboard-response","164","727091","0.0-139.0","5e38e79295ff561112eae457","665500ab8938657b03fbdba8","66579235b31277676b8a779b","927","stimuli/2001001.jpg","2","","prediction_trial","2","","true","","2","false","true","false","true","false","true","[2]","001","001","1","","","","","","",""
"","","","","","image-keyboard-response","165","727498","0.0-140.0","5e38e79295ff561112eae457","665500ab8938657b03fbdba8","66579235b31277676b8a779b","407","stimuli/20010012.jpg"," ","","feedback_trial","2","","","","","","","","","","","","","","","","","","","","",""
"","","","","","image-keyboard-response","166","728514","0.0-141.0","5e38e79295ff561112eae457","665500ab8938657b03fbdba8","66579235b31277676b8a779b","1015","stimuli/2001110.jpg","2","","prediction_trial","2","","true","","2","true","true","false","true","false","true","[2]","001","110","1","","","","","","",""
"","","","","","image-keyboard-response","167","728882","0.0-142.0","5e38e79295ff561112eae457","665500ab8938657b03fbdba8","66579235b31277676b8a779b","367","stimuli/20011102.jpg"," ","","feedback_trial","2","","","","","","","","","","","","","","","","","","","","",""
"","","","","","image-keyboard-response","168","731106","0.0-143.0","5e38e79295ff561112eae457","665500ab8938657b03fbdba8","66579235b31277676b8a779b","2223","stimuli/2001111.jpg","2","","prediction_trial","2","","true","","2","false","false","false","true","false","false","[2]","001","111","1","","","","","","",""
"","","","","","image-keyboard-response","169","731610","0.0-144.0","5e38e79295ff561112eae457","665500ab8938657b03fbdba8","66579235b31277676b8a779b","503","stimuli/20011112.jpg"," ","","feedback_trial","2","","","","","","","","","","","","","","","","","","","","",""
"","","","","","image-keyboard-response","170","735482","0.0-145.0","5e38e79295ff561112eae457","665500ab8938657b03fbdba8","66579235b31277676b8a779b","3871","stimuli/2111010.jpg","2","","prediction_trial","0","","false","","2","true","true","false","false","false","false","[1,0,2]","111","010","0","","","","","","",""
"","","","","","image-keyboard-response","171","736170","0.0-146.0","5e38e79295ff561112eae457","665500ab8938657b03fbdba8","66579235b31277676b8a779b","687","stimuli/21110100.jpg"," ","","feedback_trial","1","","","","","","","","","","","","","","","","","","","","",""
"","","","","","image-keyboard-response","172","737450","0.0-147.0","5e38e79295ff561112eae457","665500ab8938657b03fbdba8","66579235b31277676b8a779b","1279","stimuli/0101110.jpg","1","","prediction_trial","2","","false","","0","false","false","false","false","false","false","[0,2]","101","110","0","","","","","","",""
"","","","","","image-keyboard-response","173","738138","0.0-148.0","5e38e79295ff561112eae457","665500ab8938657b03fbdba8","66579235b31277676b8a779b","688","stimuli/01011102.jpg"," ","","feedback_trial","0","","","","","","","","","","","","","","","","","","","","",""
"","","","","","image-keyboard-response","174","741210","0.0-149.0","5e38e79295ff561112eae457","665500ab8938657b03fbdba8","66579235b31277676b8a779b","3071","stimuli/1000100.jpg","1","","prediction_trial","1","","true","","1","true","true","true","true","true","true","[1]","000","100","1","","","","","","",""
"","","","","","image-keyboard-response","175","741682","0.0-150.0","5e38e79295ff561112eae457","665500ab8938657b03fbdba8","66579235b31277676b8a779b","471","stimuli/10001001.jpg"," ","","feedback_trial","1","","","","","","","","","","","","","","","","","","","","",""
"","","","","","image-keyboard-response","176","746450","0.0-151.0","5e38e79295ff561112eae457","665500ab8938657b03fbdba8","66579235b31277676b8a779b","4767","stimuli/1111011.jpg","0","","prediction_trial","2","","false","","1","false","false","false","false","false","false","[1,2,0]","111","011","0","","","","","","",""
"","","","","","image-keyboard-response","177","746938","0.0-152.0","5e38e79295ff561112eae457","665500ab8938657b03fbdba8","66579235b31277676b8a779b","487","stimuli/11110112.jpg"," ","","feedback_trial","1","","","","","","","","","","","","","","","","","","","","",""
"","","","","","image-keyboard-response","178","750129","0.0-153.0","5e38e79295ff561112eae457","665500ab8938657b03fbdba8","66579235b31277676b8a779b","3191","stimuli/1101110.jpg","0","","prediction_trial","1","","false","","1","false","false","true","true","false","false","[1]","101","110","0","","","","","","",""
"","","","","","image-keyboard-response","179","750761","0.0-154.0","5e38e79295ff561112eae457","665500ab8938657b03fbdba8","66579235b31277676b8a779b","631","stimuli/11011101.jpg"," ","","feedback_trial","1","","","","","","","","","","","","","","","","","","","","",""
"","","","","","image-keyboard-response","180","751945","0.0-155.0","5e38e79295ff561112eae457","665500ab8938657b03fbdba8","66579235b31277676b8a779b","1184","stimuli/1000010.jpg","1","","prediction_trial","1","","true","","1","false","true","true","true","false","true","[1]","000","010","1","","","","","","",""
"","","","","","image-keyboard-response","181","752480","0.0-156.0","5e38e79295ff561112eae457","665500ab8938657b03fbdba8","66579235b31277676b8a779b","535","stimuli/10000101.jpg"," ","","feedback_trial","1","","","","","","","","","","","","","","","","","","","","",""
"","","","","","image-keyboard-response","182","753512","0.0-157.0","5e38e79295ff561112eae457","665500ab8938657b03fbdba8","66579235b31277676b8a779b","1031","stimuli/0100010.jpg","0","","prediction_trial","0","","true","","0","true","true","false","true","false","true","[0]","100","010","1","","","","","","",""
"","","","","","image-keyboard-response","183","754096","0.0-158.0","5e38e79295ff561112eae457","665500ab8938657b03fbdba8","66579235b31277676b8a779b","583","stimuli/01000100.jpg"," ","","feedback_trial","0","","","","","","","","","","","","","","","","","","","","",""
"","","","","","image-keyboard-response","184","755401","0.0-159.0","5e38e79295ff561112eae457","665500ab8938657b03fbdba8","66579235b31277676b8a779b","1304","stimuli/1101011.jpg","1","","prediction_trial","1","","true","","1","false","false","true","true","false","false","[1]","101","011","1","","","","","","",""
"","","","","","image-keyboard-response","185","756048","0.0-160.0","5e38e79295ff561112eae457","665500ab8938657b03fbdba8","66579235b31277676b8a779b","647","stimuli/11010111.jpg"," ","","feedback_trial","1","","","","","","","","","","","","","","","","","","","","",""
"","","","","","image-keyboard-response","186","757584","0.0-161.0","5e38e79295ff561112eae457","665500ab8938657b03fbdba8","66579235b31277676b8a779b","1535","stimuli/0000110.jpg","0","","prediction_trial","0","","true","","0","false","false","true","true","false","false","[0]","000","110","1","","","","","","",""
"","","","","","image-keyboard-response","187","758160","0.0-162.0","5e38e79295ff561112eae457","665500ab8938657b03fbdba8","66579235b31277676b8a779b","575","stimuli/00001100.jpg"," ","","feedback_trial","0","","","","","","","","","","","","","","","","","","","","",""
"","","","","","image-keyboard-response","188","759952","0.0-163.0","5e38e79295ff561112eae457","665500ab8938657b03fbdba8","66579235b31277676b8a779b","1791","stimuli/1100011.jpg","2","","prediction_trial","1","","false","","1","false","false","true","true","false","false","[1]","100","011","0","","","","","","",""
"","","","","","image-keyboard-response","189","760464","0.0-164.0","5e38e79295ff561112eae457","665500ab8938657b03fbdba8","66579235b31277676b8a779b","512","stimuli/11000111.jpg"," ","","feedback_trial","1","","","","","","","","","","","","","","","","","","","","",""
"","","","","","image-keyboard-response","190","762024","0.0-165.0","5e38e79295ff561112eae457","665500ab8938657b03fbdba8","66579235b31277676b8a779b","1559","stimuli/0111011.jpg","0","","prediction_trial","2","","false","","0","true","true","false","false","false","false","[2,1,0]","111","011","0","","","","","","",""
"","","","","","image-keyboard-response","191","762592","0.0-166.0","5e38e79295ff561112eae457","665500ab8938657b03fbdba8","66579235b31277676b8a779b","567","stimuli/01110112.jpg"," ","","feedback_trial","2","","","","","","","","","","","","","","","","","","","","",""
"","","","","","image-keyboard-response","192","764160","0.0-167.0","5e38e79295ff561112eae457","665500ab8938657b03fbdba8","66579235b31277676b8a779b","1567","stimuli/2101110.jpg","0","","prediction_trial","2","","false","","2","true","true","false","false","false","false","[0,2]","101","110","0","","","","","","",""
"","","","","","image-keyboard-response","193","764744","0.0-168.0","5e38e79295ff561112eae457","665500ab8938657b03fbdba8","66579235b31277676b8a779b","583","stimuli/21011102.jpg"," ","","feedback_trial","0","","","","","","","","","","","","","","","","","","","","",""
"","","","","","image-keyboard-response","194","766752","0.0-169.0","5e38e79295ff561112eae457","665500ab8938657b03fbdba8","66579235b31277676b8a779b","2007","stimuli/0111000.jpg","0","","prediction_trial","1","","false","","0","true","true","false","false","false","false","[1,0,2]","111","000","0","","","","","","",""
"","","","","","image-keyboard-response","195","767241","0.0-170.0","5e38e79295ff561112eae457","665500ab8938657b03fbdba8","66579235b31277676b8a779b","488","stimuli/01110001.jpg"," ","","feedback_trial","1","","","","","","","","","","","","","","","","","","","","",""
"","","","","","image-keyboard-response","196","768552","0.0-171.0","5e38e79295ff561112eae457","665500ab8938657b03fbdba8","66579235b31277676b8a779b","1311","stimuli/2000010.jpg","2","","prediction_trial","2","","true","","2","true","true","true","true","true","true","[2]","000","010","1","","","","","","",""
"","","","","","image-keyboard-response","197","768928","0.0-172.0","5e38e79295ff561112eae457","665500ab8938657b03fbdba8","66579235b31277676b8a779b","375","stimuli/20000102.jpg"," ","","feedback_trial","2","","","","","","","","","","","","","","","","","","","","",""
"","","","","","image-keyboard-response","198","769784","0.0-173.0","5e38e79295ff561112eae457","665500ab8938657b03fbdba8","66579235b31277676b8a779b","855","stimuli/1010000.jpg","1","","prediction_trial","1","","true","","1","true","true","false","true","false","true","[1]","010","000","1","","","","","","",""
"","","","","","image-keyboard-response","199","770224","0.0-174.0","5e38e79295ff561112eae457","665500ab8938657b03fbdba8","66579235b31277676b8a779b","439","stimuli/10100001.jpg"," ","","feedback_trial","1","","","","","","","","","","","","","","","","","","","","",""
"","","","","","image-keyboard-response","200","771632","0.0-175.0","5e38e79295ff561112eae457","665500ab8938657b03fbdba8","66579235b31277676b8a779b","1407","stimuli/0011110.jpg","0","","prediction_trial","0","","true","","0","false","false","true","true","false","false","[0]","011","110","1","","","","","","",""
"","","","","","image-keyboard-response","201","772096","0.0-176.0","5e38e79295ff561112eae457","665500ab8938657b03fbdba8","66579235b31277676b8a779b","463","stimuli/00111100.jpg"," ","","feedback_trial","0","","","","","","","","","","","","","","","","","","","","",""
"","","","","","image-keyboard-response","202","773000","0.0-177.0","5e38e79295ff561112eae457","665500ab8938657b03fbdba8","66579235b31277676b8a779b","903","stimuli/0011001.jpg","0","","prediction_trial","0","","true","","0","true","true","true","true","true","true","[0]","011","001","1","","","","","","",""
"","","","","","image-keyboard-response","203","773488","0.0-178.0","5e38e79295ff561112eae457","665500ab8938657b03fbdba8","66579235b31277676b8a779b","487","stimuli/00110010.jpg"," ","","feedback_trial","0","","","","","","","","","","","","","","","","","","","","",""
"","","","","","image-keyboard-response","204","774632","0.0-179.0","5e38e79295ff561112eae457","665500ab8938657b03fbdba8","66579235b31277676b8a779b","1143","stimuli/2001101.jpg","0","","prediction_trial","2","","false","","2","false","false","false","true","false","false","[2]","001","101","0","","","","","","",""
"","","","","","image-keyboard-response","205","775111","0.0-180.0","5e38e79295ff561112eae457","665500ab8938657b03fbdba8","66579235b31277676b8a779b","479","stimuli/20011012.jpg"," ","","feedback_trial","2","","","","","","","","","","","","","","","","","","","","",""
"","","","","","image-keyboard-response","206","775928","0.0-181.0","5e38e79295ff561112eae457","665500ab8938657b03fbdba8","66579235b31277676b8a779b","816","stimuli/0010001.jpg","0","","prediction_trial","0","","true","","0","true","true","true","true","true","true","[0]","010","001","1","","","","","","",""
"","","","","","image-keyboard-response","207","776383","0.0-182.0","5e38e79295ff561112eae457","665500ab8938657b03fbdba8","66579235b31277676b8a779b","455","stimuli/00100010.jpg"," ","","feedback_trial","0","","","","","","","","","","","","","","","","","","","","",""
"","","","","","image-keyboard-response","208","778415","0.0-183.0","5e38e79295ff561112eae457","665500ab8938657b03fbdba8","66579235b31277676b8a779b","2031","stimuli/0100111.jpg","0","","prediction_trial","0","","true","","0","false","false","false","true","false","false","[0]","100","111","1","","","","","","",""
"","","","","","image-keyboard-response","209","778895","0.0-184.0","5e38e79295ff561112eae457","665500ab8938657b03fbdba8","66579235b31277676b8a779b","479","stimuli/01001110.jpg"," ","","feedback_trial","0","","","","","","","","","","","","","","","","","","","","",""
"","","","","","image-keyboard-response","210","779887","0.0-185.0","5e38e79295ff561112eae457","665500ab8938657b03fbdba8","66579235b31277676b8a779b","991","stimuli/0110010.jpg","0","","prediction_trial","0","","true","","0","true","true","false","false","false","false","[1,0]","110","010","1","","","","","","",""
"","","","","","image-keyboard-response","211","780431","0.0-186.0","5e38e79295ff561112eae457","665500ab8938657b03fbdba8","66579235b31277676b8a779b","543","stimuli/01100100.jpg"," ","","feedback_trial","1","","","","","","","","","","","","","","","","","","","","",""
"","","","","","image-keyboard-response","212","781399","0.0-187.0","5e38e79295ff561112eae457","665500ab8938657b03fbdba8","66579235b31277676b8a779b","967","stimuli/1001001.jpg","1","","prediction_trial","1","","true","","1","true","true","true","true","true","true","[1]","001","001","1","","","","","","",""
"","","","","","image-keyboard-response","213","781920","0.0-188.0","5e38e79295ff561112eae457","665500ab8938657b03fbdba8","66579235b31277676b8a779b","520","stimuli/10010011.jpg"," ","","feedback_trial","1","","","","","","","","","","","","","","","","","","","","",""
"","","","","","image-keyboard-response","214","783255","0.0-189.0","5e38e79295ff561112eae457","665500ab8938657b03fbdba8","66579235b31277676b8a779b","1335","stimuli/0001111.jpg","1","","prediction_trial","0","","false","","0","false","false","true","true","false","false","[0]","001","111","0","","","","","","",""
"","","","","","image-keyboard-response","215","783735","0.0-190.0","5e38e79295ff561112eae457","665500ab8938657b03fbdba8","66579235b31277676b8a779b","480","stimuli/00011110.jpg"," ","","feedback_trial","0","","","","","","","","","","","","","","","","","","","","",""
"","","","","","image-keyboard-response","216","784695","0.0-191.0","5e38e79295ff561112eae457","665500ab8938657b03fbdba8","66579235b31277676b8a779b","959","stimuli/1010010.jpg","1","","prediction_trial","1","","true","","1","false","true","false","true","false","true","[1]","010","010","1","","","","","","",""
"","","","","","image-keyboard-response","217","785175","0.0-192.0","5e38e79295ff561112eae457","665500ab8938657b03fbdba8","66579235b31277676b8a779b","479","stimuli/10100101.jpg"," ","","feedback_trial","1","","","","","","","","","","","","","","","","","","","","",""
"","","","","","image-keyboard-response","218","785888","0.0-193.0","5e38e79295ff561112eae457","665500ab8938657b03fbdba8","66579235b31277676b8a779b","712","stimuli/2000100.jpg","2","","prediction_trial","2","","true","","2","true","true","true","true","true","true","[2]","000","100","1","","","","","","",""
"","","","","","image-keyboard-response","219","786367","0.0-194.0","5e38e79295ff561112eae457","665500ab8938657b03fbdba8","66579235b31277676b8a779b","479","stimuli/20001002.jpg"," ","","feedback_trial","2","","","","","","","","","","","","","","","","","","","","",""
"","","","","","image-keyboard-response","220","787304","0.0-195.0","5e38e79295ff561112eae457","665500ab8938657b03fbdba8","66579235b31277676b8a779b","936","stimuli/2010001.jpg","2","","prediction_trial","2","","true","","2","false","true","true","true","false","true","[2]","010","001","1","","","","","","",""
"","","","","","image-keyboard-response","221","787743","0.0-196.0","5e38e79295ff561112eae457","665500ab8938657b03fbdba8","66579235b31277676b8a779b","439","stimuli/20100012.jpg"," ","","feedback_trial","2","","","","","","","","","","","","","","","","","","","","",""
"","","","","","image-keyboard-response","222","790543","0.0-197.0","5e38e79295ff561112eae457","665500ab8938657b03fbdba8","66579235b31277676b8a779b","2800","stimuli/0000111.jpg","1","","prediction_trial","0","","false","","0","false","false","true","true","false","false","[0]","000","111","0","","","","","","",""
"","","","","","image-keyboard-response","223","790951","0.0-198.0","5e38e79295ff561112eae457","665500ab8938657b03fbdba8","66579235b31277676b8a779b","407","stimuli/00001110.jpg"," ","","feedback_trial","0","","","","","","","","","","","","","","","","","","","","",""
"","","","","","image-keyboard-response","224","792783","0.0-199.0","5e38e79295ff561112eae457","665500ab8938657b03fbdba8","66579235b31277676b8a779b","1831","stimuli/0100110.jpg","0","","prediction_trial","0","","true","","0","false","false","false","true","false","false","[0]","100","110","1","","","","","","",""
"","","","","","image-keyboard-response","225","793279","0.0-200.0","5e38e79295ff561112eae457","665500ab8938657b03fbdba8","66579235b31277676b8a779b","495","stimuli/01001100.jpg"," ","","feedback_trial","0","","","","","","","","","","","","","","","","","","","","",""
"","","","","","image-keyboard-response","226","794063","0.0-201.0","5e38e79295ff561112eae457","665500ab8938657b03fbdba8","66579235b31277676b8a779b","784","stimuli/2100110.jpg","2","","prediction_trial","2","","true","","2","true","true","true","true","true","true","[2]","100","110","1","","","","","","",""
"","","","","","image-keyboard-response","227","794583","0.0-202.0","5e38e79295ff561112eae457","665500ab8938657b03fbdba8","66579235b31277676b8a779b","519","stimuli/21001102.jpg"," ","","feedback_trial","2","","","","","","","","","","","","","","","","","","","","",""
"","","","","","image-keyboard-response","228","796110","0.0-203.0","5e38e79295ff561112eae457","665500ab8938657b03fbdba8","66579235b31277676b8a779b","1527","stimuli/0011010.jpg","0","","prediction_trial","0","","true","","0","true","true","true","true","true","true","[0]","011","010","1","","","","","","",""
"","","","","","image-keyboard-response","229","796551","0.0-204.0","5e38e79295ff561112eae457","665500ab8938657b03fbdba8","66579235b31277676b8a779b","439","stimuli/00110100.jpg"," ","","feedback_trial","0","","","","","","","","","","","","","","","","","","","","",""
"","","","","","image-keyboard-response","230","798015","0.0-205.0","5e38e79295ff561112eae457","665500ab8938657b03fbdba8","66579235b31277676b8a779b","1464","stimuli/0110001.jpg","0","","prediction_trial","1","","false","","0","true","true","false","false","false","false","[1,0]","110","001","0","","","","","","",""
"","","","","","image-keyboard-response","231","798486","0.0-206.0","5e38e79295ff561112eae457","665500ab8938657b03fbdba8","66579235b31277676b8a779b","471","stimuli/01100011.jpg"," ","","feedback_trial","1","","","","","","","","","","","","","","","","","","","","",""
"","","","","","image-keyboard-response","232","799326","0.0-207.0","5e38e79295ff561112eae457","665500ab8938657b03fbdba8","66579235b31277676b8a779b","839","stimuli/1101101.jpg","1","","prediction_trial","1","","true","","1","true","true","true","true","true","true","[1]","101","101","1","","","","","","",""
"","","","","","image-keyboard-response","233","799799","0.0-208.0","5e38e79295ff561112eae457","665500ab8938657b03fbdba8","66579235b31277676b8a779b","472","stimuli/11011011.jpg"," ","","feedback_trial","1","","","","","","","","","","","","","","","","","","","","",""
"","","","","","image-keyboard-response","234","800919","0.0-209.0","5e38e79295ff561112eae457","665500ab8938657b03fbdba8","66579235b31277676b8a779b","1119","stimuli/1000110.jpg","1","","prediction_trial","1","","true","","1","false","false","true","true","false","false","[1]","000","110","1","","","","","","",""
"","","","","","image-keyboard-response","235","801390","0.0-210.0","5e38e79295ff561112eae457","665500ab8938657b03fbdba8","66579235b31277676b8a779b","470","stimuli/10001101.jpg"," ","","feedback_trial","1","","","","","","","","","","","","","","","","","","","","",""
"","","","","","image-keyboard-response","236","803446","0.0-211.0","5e38e79295ff561112eae457","665500ab8938657b03fbdba8","66579235b31277676b8a779b","2055","stimuli/1110011.jpg","2","","prediction_trial","1","","false","","1","false","false","false","false","false","false","[1,0]","110","011","0","","","","","","",""
"","","","","","image-keyboard-response","237","803966","0.0-212.0","5e38e79295ff561112eae457","665500ab8938657b03fbdba8","66579235b31277676b8a779b","519","stimuli/11100111.jpg"," ","","feedback_trial","1","","","","","","","","","","","","","","","","","","","","",""
"","","","","","image-keyboard-response","238","804782","0.0-213.0","5e38e79295ff561112eae457","665500ab8938657b03fbdba8","66579235b31277676b8a779b","815","stimuli/1110001.jpg","1","","prediction_trial","1","","true","","1","true","true","false","false","false","false","[0,1]","110","001","1","","","","","","",""
"","","","","","image-keyboard-response","239","805334","0.0-214.0","5e38e79295ff561112eae457","665500ab8938657b03fbdba8","66579235b31277676b8a779b","551","stimuli/11100011.jpg"," ","","feedback_trial","0","","","","","","","","","","","","","","","","","","","","",""
"","","","","","image-keyboard-response","240","807870","0.0-215.0","5e38e79295ff561112eae457","665500ab8938657b03fbdba8","66579235b31277676b8a779b","2535","stimuli/2000111.jpg","0","","prediction_trial","2","","false","","2","false","false","true","true","false","false","[2]","000","111","0","","","","","","",""
"","","","","","image-keyboard-response","241","808319","0.0-216.0","5e38e79295ff561112eae457","665500ab8938657b03fbdba8","66579235b31277676b8a779b","448","stimuli/20001112.jpg"," ","","feedback_trial","2","","","","","","","","","","","","","","","","","","","","",""
"","","","","","image-keyboard-response","242","809126","0.0-217.0","5e38e79295ff561112eae457","665500ab8938657b03fbdba8","66579235b31277676b8a779b","807","stimuli/2110100.jpg","2","","prediction_trial","2","","true","","2","true","true","true","true","true","true","[2]","110","100","1","","","","","","",""
"","","","","","image-keyboard-response","243","809942","0.0-218.0","5e38e79295ff561112eae457","665500ab8938657b03fbdba8","66579235b31277676b8a779b","816","stimuli/21101002.jpg"," ","","feedback_trial","2","","","","","","","","","","","","","","","","","","","","",""
"","","","","","image-keyboard-response","244","811646","0.0-219.0","5e38e79295ff561112eae457","665500ab8938657b03fbdba8","66579235b31277676b8a779b","1703","stimuli/0111010.jpg","2","","prediction_trial","0","","false","","0","true","true","false","false","false","false","[1,2,0]","111","010","0","","","","","","",""
"","","","","","image-keyboard-response","245","812134","0.0-220.0","5e38e79295ff561112eae457","665500ab8938657b03fbdba8","66579235b31277676b8a779b","487","stimuli/01110100.jpg"," ","","feedback_trial","1","","","","","","","","","","","","","","","","","","","","",""
"","","","","","image-keyboard-response","246","813718","0.0-221.0","5e38e79295ff561112eae457","665500ab8938657b03fbdba8","66579235b31277676b8a779b","1583","stimuli/1000011.jpg","2","","prediction_trial","1","","false","","1","false","false","true","true","false","false","[1]","000","011","0","","","","","","",""
"","","","","","image-keyboard-response","247","814142","0.0-222.0","5e38e79295ff561112eae457","665500ab8938657b03fbdba8","66579235b31277676b8a779b","423","stimuli/10000111.jpg"," ","","feedback_trial","1","","","","","","","","","","","","","","","","","","","","",""
"","","","","","image-keyboard-response","248","815806","0.0-223.0","5e38e79295ff561112eae457","665500ab8938657b03fbdba8","66579235b31277676b8a779b","1664","stimuli/1110111.jpg","2","","prediction_trial","0","","false","","1","false","false","false","false","false","false","[1,0]","110","111","0","","","","","","",""
"","","","","","image-keyboard-response","249","816301","0.0-224.0","5e38e79295ff561112eae457","665500ab8938657b03fbdba8","66579235b31277676b8a779b","494","stimuli/11101110.jpg"," ","","feedback_trial","1","","","","","","","","","","","","","","","","","","","","",""
"","","","","","image-keyboard-response","250","817437","0.0-225.0","5e38e79295ff561112eae457","665500ab8938657b03fbdba8","66579235b31277676b8a779b","1135","stimuli/2010111.jpg","1","","prediction_trial","2","","false","","2","false","false","true","true","false","false","[2]","010","111","0","","","","","","",""
"","","","","","image-keyboard-response","251","818038","0.0-226.0","5e38e79295ff561112eae457","665500ab8938657b03fbdba8","66579235b31277676b8a779b","599","stimuli/20101112.jpg"," ","","feedback_trial","2","","","","","","","","","","","","","","","","","","","","",""
"","","","","","image-keyboard-response","252","819341","0.0-227.0","5e38e79295ff561112eae457","665500ab8938657b03fbdba8","66579235b31277676b8a779b","1303","stimuli/2110101.jpg","2","","prediction_trial","2","","true","","2","false","false","true","true","false","false","[2]","110","101","1","","","","","","",""
"","","","","","image-keyboard-response","253","819893","0.0-228.0","5e38e79295ff561112eae457","665500ab8938657b03fbdba8","66579235b31277676b8a779b","551","stimuli/21101012.jpg"," ","","feedback_trial","2","","","","","","","","","","","","","","","","","","","","",""
"","","","","","image-keyboard-response","254","821205","0.0-229.0","5e38e79295ff561112eae457","665500ab8938657b03fbdba8","66579235b31277676b8a779b","1311","stimuli/0110000.jpg","0","","prediction_trial","0","","true","","0","true","true","false","false","false","false","[1,0]","110","000","1","","","","","","",""
"","","","","","image-keyboard-response","255","821725","0.0-230.0","5e38e79295ff561112eae457","665500ab8938657b03fbdba8","66579235b31277676b8a779b","519","stimuli/01100000.jpg"," ","","feedback_trial","1","","","","","","","","","","","","","","","","","","","","",""
"","","","","","image-keyboard-response","256","822965","0.0-231.0","5e38e79295ff561112eae457","665500ab8938657b03fbdba8","66579235b31277676b8a779b","1239","stimuli/2111000.jpg","2","","prediction_trial","0","","false","","2","true","true","false","false","false","false","[2,1,0]","111","000","0","","","","","","",""
"","","","","","image-keyboard-response","257","823461","0.0-232.0","5e38e79295ff561112eae457","665500ab8938657b03fbdba8","66579235b31277676b8a779b","495","stimuli/21110000.jpg"," ","","feedback_trial","2","","","","","","","","","","","","","","","","","","","","",""
"","","","","","image-keyboard-response","258","825086","0.0-233.0","5e38e79295ff561112eae457","665500ab8938657b03fbdba8","66579235b31277676b8a779b","1624","stimuli/1110010.jpg","1","","prediction_trial","1","","true","","1","false","true","false","false","false","false","[0,1]","110","010","1","","","","","","",""
"","","","","","image-keyboard-response","259","825589","0.0-234.0","5e38e79295ff561112eae457","665500ab8938657b03fbdba8","66579235b31277676b8a779b","502","stimuli/11100101.jpg"," ","","feedback_trial","0","","","","","","","","","","","","","","","","","","","","",""
"","","","","","image-keyboard-response","260","826709","0.0-235.0","5e38e79295ff561112eae457","665500ab8938657b03fbdba8","66579235b31277676b8a779b","1119","stimuli/1010001.jpg","1","","prediction_trial","1","","true","","1","true","true","false","true","false","true","[1]","010","001","1","","","","","","",""
"","","","","","image-keyboard-response","261","827174","0.0-236.0","5e38e79295ff561112eae457","665500ab8938657b03fbdba8","66579235b31277676b8a779b","464","stimuli/10100011.jpg"," ","","feedback_trial","1","","","","","","","","","","","","","","","","","","","","",""
"","","","","","image-keyboard-response","262","828493","0.0-237.0","5e38e79295ff561112eae457","665500ab8938657b03fbdba8","66579235b31277676b8a779b","1319","stimuli/0110110.jpg","0","","prediction_trial","1","","false","","0","false","false","false","false","false","false","[1,0]","110","110","0","","","","","","",""
"","","","","","image-keyboard-response","263","829181","0.0-238.0","5e38e79295ff561112eae457","665500ab8938657b03fbdba8","66579235b31277676b8a779b","687","stimuli/01101101.jpg"," ","","feedback_trial","1","","","","","","","","","","","","","","","","","","","","",""
"","","","","","image-keyboard-response","264","830893","0.0-239.0","5e38e79295ff561112eae457","665500ab8938657b03fbdba8","66579235b31277676b8a779b","1712","stimuli/0101000.jpg","0","","prediction_trial","2","","false","","0","true","true","false","false","false","false","[0,2]","101","000","0","","","","","","",""
"","","","","","image-keyboard-response","265","831437","0.0-240.0","5e38e79295ff561112eae457","665500ab8938657b03fbdba8","66579235b31277676b8a779b","543","stimuli/01010002.jpg"," ","","feedback_trial","0","","","","","","","","","","","","","","","","","","","","",""
"","","","","","image-keyboard-response","266","832717","0.0-241.0","5e38e79295ff561112eae457","665500ab8938657b03fbdba8","66579235b31277676b8a779b","1279","stimuli/2100000.jpg","2","","prediction_trial","2","","true","","2","true","true","true","true","true","true","[2]","100","000","1","","","","","","",""
"","","","","","image-keyboard-response","267","833085","0.0-242.0","5e38e79295ff561112eae457","665500ab8938657b03fbdba8","66579235b31277676b8a779b","367","stimuli/21000002.jpg"," ","","feedback_trial","2","","","","","","","","","","","","","","","","","","","","",""
"","","","","","image-keyboard-response","268","834173","0.0-243.0","5e38e79295ff561112eae457","665500ab8938657b03fbdba8","66579235b31277676b8a779b","1087","stimuli/1101010.jpg","2","","prediction_trial","1","","false","","1","false","true","true","true","false","true","[1]","101","010","0","","","","","","",""
"","","","","","image-keyboard-response","269","834813","0.0-244.0","5e38e79295ff561112eae457","665500ab8938657b03fbdba8","66579235b31277676b8a779b","639","stimuli/11010101.jpg"," ","","feedback_trial","1","","","","","","","","","","","","","","","","","","","","",""
"","","","","","image-keyboard-response","270","838701","0.0-245.0","5e38e79295ff561112eae457","665500ab8938657b03fbdba8","66579235b31277676b8a779b","3887","stimuli/0100001.jpg","0","","prediction_trial","0","","true","","0","true","true","false","true","false","true","[0]","100","001","1","","","","","","",""
"","","","","","image-keyboard-response","271","839156","0.0-246.0","5e38e79295ff561112eae457","665500ab8938657b03fbdba8","66579235b31277676b8a779b","455","stimuli/01000010.jpg"," ","","feedback_trial","0","","","","","","","","","","","","","","","","","","","","",""
"","","","","","image-keyboard-response","272","840396","0.0-247.0","5e38e79295ff561112eae457","665500ab8938657b03fbdba8","66579235b31277676b8a779b","1239","stimuli/2011101.jpg","0","","prediction_trial","1","","false","","2","false","false","false","false","false","false","[1,2]","011","101","0","","","","","","",""
"","","","","","image-keyboard-response","273","840933","0.0-248.0","5e38e79295ff561112eae457","665500ab8938657b03fbdba8","66579235b31277676b8a779b","536","stimuli/20111011.jpg"," ","","feedback_trial","1","","","","","","","","","","","","","","","","","","","","",""
"","","","","","image-keyboard-response","274","842852","0.0-249.0","5e38e79295ff561112eae457","665500ab8938657b03fbdba8","66579235b31277676b8a779b","1919","stimuli/1110100.jpg","1","","prediction_trial","0","","false","","1","true","true","false","false","false","false","[0,1]","110","100","0","","","","","","",""
"","","","","","image-keyboard-response","275","843292","0.0-250.0","5e38e79295ff561112eae457","665500ab8938657b03fbdba8","66579235b31277676b8a779b","439","stimuli/11101000.jpg"," ","","feedback_trial","0","","","","","","","","","","","","","","","","","","","","",""
"","","","","","image-keyboard-response","276","844013","0.0-251.0","5e38e79295ff561112eae457","665500ab8938657b03fbdba8","66579235b31277676b8a779b","720","stimuli/2110010.jpg","2","","prediction_trial","2","","true","","2","true","true","true","true","true","true","[2]","110","010","1","","","","","","",""
"","","","","","image-keyboard-response","277","844525","0.0-252.0","5e38e79295ff561112eae457","665500ab8938657b03fbdba8","66579235b31277676b8a779b","511","stimuli/21100102.jpg"," ","","feedback_trial","2","","","","","","","","","","","","","","","","","","","","",""
"","","","","","image-keyboard-response","278","846333","0.0-253.0","5e38e79295ff561112eae457","665500ab8938657b03fbdba8","66579235b31277676b8a779b","1807","stimuli/0001110.jpg","1","","prediction_trial","0","","false","","0","false","false","true","true","false","false","[0]","001","110","0","","","","","","",""
"","","","","","image-keyboard-response","279","846876","0.0-254.0","5e38e79295ff561112eae457","665500ab8938657b03fbdba8","66579235b31277676b8a779b","542","stimuli/00011100.jpg"," ","","feedback_trial","0","","","","","","","","","","","","","","","","","","","","",""
"","","","","","image-keyboard-response","280","848445","0.0-255.0","5e38e79295ff561112eae457","665500ab8938657b03fbdba8","66579235b31277676b8a779b","1568","stimuli/2100101.jpg","2","","prediction_trial","2","","true","","2","false","false","true","true","false","false","[2]","100","101","1","","","","","","",""
"","","","","","image-keyboard-response","281","848900","0.0-256.0","5e38e79295ff561112eae457","665500ab8938657b03fbdba8","66579235b31277676b8a779b","455","stimuli/21001012.jpg"," ","","feedback_trial","2","","","","","","","","","","","","","","","","","","","","",""
"","","","","","image-keyboard-response","282","849684","0.0-257.0","5e38e79295ff561112eae457","665500ab8938657b03fbdba8","66579235b31277676b8a779b","783","stimuli/0010011.jpg","0","","prediction_trial","0","","true","","0","true","true","true","true","true","true","[0]","010","011","1","","","","","","",""
"","","","","","image-keyboard-response","283","850164","0.0-258.0","5e38e79295ff561112eae457","665500ab8938657b03fbdba8","66579235b31277676b8a779b","479","stimuli/00100110.jpg"," ","","feedback_trial","0","","","","","","","","","","","","","","","","","","","","",""
"","","","","","image-keyboard-response","284","850892","0.0-259.0","5e38e79295ff561112eae457","665500ab8938657b03fbdba8","66579235b31277676b8a779b","727","stimuli/2110110.jpg","2","","prediction_trial","2","","true","","2","true","true","true","true","true","true","[2]","110","110","1","","","","","","",""
"","","","","","image-keyboard-response","285","851348","0.0-260.0","5e38e79295ff561112eae457","665500ab8938657b03fbdba8","66579235b31277676b8a779b","455","stimuli/21101102.jpg"," ","","feedback_trial","2","","","","","","","","","","","","","","","","","","","","",""
"","","","","","image-keyboard-response","286","852164","0.0-261.0","5e38e79295ff561112eae457","665500ab8938657b03fbdba8","66579235b31277676b8a779b","815","stimuli/1101111.jpg","1","","prediction_trial","1","","true","","1","false","false","true","true","false","false","[1]","101","111","1","","","","","","",""
"","","","","","image-keyboard-response","287","852668","0.0-262.0","5e38e79295ff561112eae457","665500ab8938657b03fbdba8","66579235b31277676b8a779b","503","stimuli/11011111.jpg"," ","","feedback_trial","1","","","","","","","","","","","","","","","","","","","","",""
"","","","","","image-keyboard-response","288","854188","0.0-263.0","5e38e79295ff561112eae457","665500ab8938657b03fbdba8","66579235b31277676b8a779b","1519","stimuli/2001011.jpg","1","","prediction_trial","2","","false","","2","false","false","false","true","false","false","[2]","001","011","0","","","","","","",""
"","","","","","image-keyboard-response","289","854668","0.0-264.0","5e38e79295ff561112eae457","665500ab8938657b03fbdba8","66579235b31277676b8a779b","479","stimuli/20010112.jpg"," ","","feedback_trial","2","","","","","","","","","","","","","","","","","","","","",""
"","","","","","image-keyboard-response","290","856300","0.0-265.0","5e38e79295ff561112eae457","665500ab8938657b03fbdba8","66579235b31277676b8a779b","1631","stimuli/0011111.jpg","0","","prediction_trial","0","","true","","0","false","false","true","true","false","false","[0]","011","111","1","","","","","","",""
"","","","","","image-keyboard-response","291","856748","0.0-266.0","5e38e79295ff561112eae457","665500ab8938657b03fbdba8","66579235b31277676b8a779b","447","stimuli/00111110.jpg"," ","","feedback_trial","0","","","","","","","","","","","","","","","","","","","","",""
"","","","","","image-keyboard-response","292","857564","0.0-267.0","5e38e79295ff561112eae457","665500ab8938657b03fbdba8","66579235b31277676b8a779b","816","stimuli/2000001.jpg","2","","prediction_trial","2","","true","","2","false","true","true","true","false","true","[2]","000","001","1","","","","","","",""
"","","","","","image-keyboard-response","293","857996","0.0-268.0","5e38e79295ff561112eae457","665500ab8938657b03fbdba8","66579235b31277676b8a779b","431","stimuli/20000012.jpg"," ","","feedback_trial","2","","","","","","","","","","","","","","","","","","","","",""
"","","","","","image-keyboard-response","294","859348","0.0-269.0","5e38e79295ff561112eae457","665500ab8938657b03fbdba8","66579235b31277676b8a779b","1351","stimuli/0100011.jpg","0","","prediction_trial","0","","true","","0","true","true","false","true","false","true","[0]","100","011","1","","","","","","",""
"","","","","","image-keyboard-response","295","859716","0.0-270.0","5e38e79295ff561112eae457","665500ab8938657b03fbdba8","66579235b31277676b8a779b","367","stimuli/01000110.jpg"," ","","feedback_trial","0","","","","","","","","","","","","","","","","","","","","",""
"","","","","","image-keyboard-response","296","861356","0.0-271.0","5e38e79295ff561112eae457","665500ab8938657b03fbdba8","66579235b31277676b8a779b","1639","stimuli/0010110.jpg","0","","prediction_trial","0","","true","","0","false","false","true","true","false","false","[0]","010","110","1","","","","","","",""
"","","","","","image-keyboard-response","297","861747","0.0-272.0","5e38e79295ff561112eae457","665500ab8938657b03fbdba8","66579235b31277676b8a779b","391","stimuli/00101100.jpg"," ","","feedback_trial","0","","","","","","","","","","","","","","","","","","","","",""
"","","","","","image-keyboard-response","298","863331","0.0-273.0","5e38e79295ff561112eae457","665500ab8938657b03fbdba8","66579235b31277676b8a779b","1583","stimuli/2011001.jpg","2","","prediction_trial","1","","false","","2","false","true","false","false","false","false","[2,1]","011","001","0","","","","","","",""
"","","","","","image-keyboard-response","299","863756","0.0-274.0","5e38e79295ff561112eae457","665500ab8938657b03fbdba8","66579235b31277676b8a779b","424","stimuli/20110011.jpg"," ","","feedback_trial","2","","","","","","","","","","","","","","","","","","","","",""
"","","","","","image-keyboard-response","300","864851","0.0-275.0","5e38e79295ff561112eae457","665500ab8938657b03fbdba8","66579235b31277676b8a779b","1095","stimuli/0000100.jpg","0","","prediction_trial","0","","true","","0","false","true","true","true","false","true","[0]","000","100","1","","","","","","",""
"","","","","","image-keyboard-response","301","865227","0.0-276.0","5e38e79295ff561112eae457","665500ab8938657b03fbdba8","66579235b31277676b8a779b","375","stimuli/00001000.jpg"," ","","feedback_trial","0","","","","","","","","","","","","","","","","","","","","",""
"","","","","","image-keyboard-response","302","866411","0.0-277.0","5e38e79295ff561112eae457","665500ab8938657b03fbdba8","66579235b31277676b8a779b","1183","stimuli/0110111.jpg","2","","prediction_trial","1","","false","","0","false","false","false","false","false","false","[0,1]","110","111","0","","","","","","",""
"","","","","","image-keyboard-response","303","866843","0.0-278.0","5e38e79295ff561112eae457","665500ab8938657b03fbdba8","66579235b31277676b8a779b","431","stimuli/01101111.jpg"," ","","feedback_trial","0","","","","","","","","","","","","","","","","","","","","",""
"","","","","","image-keyboard-response","304","868067","0.0-279.0","5e38e79295ff561112eae457","665500ab8938657b03fbdba8","66579235b31277676b8a779b","1223","stimuli/0111111.jpg","2","","prediction_trial","0","","false","","0","false","false","false","false","false","false","[0,2,1]","111","111","0","","","","","","",""
"","","","","","image-keyboard-response","305","868467","0.0-280.0","5e38e79295ff561112eae457","665500ab8938657b03fbdba8","66579235b31277676b8a779b","399","stimuli/01111110.jpg"," ","","feedback_trial","0","","","","","","","","","","","","","","","","","","","","",""
"","","","","","image-keyboard-response","306","869859","0.0-281.0","5e38e79295ff561112eae457","665500ab8938657b03fbdba8","66579235b31277676b8a779b","1391","stimuli/2101000.jpg","2","","prediction_trial","2","","true","","2","true","true","false","false","false","false","[2,0]","101","000","1","","","","","","",""
"","","","","","image-keyboard-response","307","870267","0.0-282.0","5e38e79295ff561112eae457","665500ab8938657b03fbdba8","66579235b31277676b8a779b","407","stimuli/21010002.jpg"," ","","feedback_trial","2","","","","","","","","","","","","","","","","","","","","",""
"","","","","","image-keyboard-response","308","872619","0.0-283.0","5e38e79295ff561112eae457","665500ab8938657b03fbdba8","66579235b31277676b8a779b","2351","stimuli/0111100.jpg","0","","prediction_trial","2","","false","","0","false","true","false","false","false","false","[2,1,0]","111","100","0","","","","","","",""
"","","","","","image-keyboard-response","309","873035","0.0-284.0","5e38e79295ff561112eae457","665500ab8938657b03fbdba8","66579235b31277676b8a779b","415","stimuli/01111002.jpg"," ","","feedback_trial","2","","","","","","","","","","","","","","","","","","","","",""
"","","","","","image-keyboard-response","310","874067","0.0-285.0","5e38e79295ff561112eae457","665500ab8938657b03fbdba8","66579235b31277676b8a779b","1032","stimuli/2001010.jpg","2","","prediction_trial","2","","true","","2","true","true","false","true","false","true","[2]","001","010","1","","","","","","",""
"","","","","","image-keyboard-response","311","874435","0.0-286.0","5e38e79295ff561112eae457","665500ab8938657b03fbdba8","66579235b31277676b8a779b","367","stimuli/20010102.jpg"," ","","feedback_trial","2","","","","","","","","","","","","","","","","","","","","",""
"","","","","","image-keyboard-response","312","875563","0.0-287.0","5e38e79295ff561112eae457","665500ab8938657b03fbdba8","66579235b31277676b8a779b","1128","stimuli/2110011.jpg","2","","prediction_trial","2","","true","","2","false","false","true","true","false","false","[2]","110","011","1","","","","","","",""
"","","","","","image-keyboard-response","313","875963","0.0-288.0","5e38e79295ff561112eae457","665500ab8938657b03fbdba8","66579235b31277676b8a779b","399","stimuli/21100112.jpg"," ","","feedback_trial","2","","","","","","","","","","","","","","","","","","","","",""
"","","","","","image-keyboard-response","314","876859","0.0-289.0","5e38e79295ff561112eae457","665500ab8938657b03fbdba8","66579235b31277676b8a779b","896","stimuli/1101000.jpg","1","","prediction_trial","1","","true","","1","true","true","true","true","true","true","[1]","101","000","1","","","","","","",""
"","","","","","image-keyboard-response","315","877227","0.0-290.0","5e38e79295ff561112eae457","665500ab8938657b03fbdba8","66579235b31277676b8a779b","367","stimuli/11010001.jpg"," ","","feedback_trial","1","","","","","","","","","","","","","","","","","","","","",""
"","","","","","image-keyboard-response","316","877995","0.0-291.0","5e38e79295ff561112eae457","665500ab8938657b03fbdba8","66579235b31277676b8a779b","768","stimuli/0011000.jpg","0","","prediction_trial","0","","true","","0","true","true","true","true","true","true","[0]","011","000","1","","","","","","",""
"","","","","","image-keyboard-response","317","878427","0.0-292.0","5e38e79295ff561112eae457","665500ab8938657b03fbdba8","66579235b31277676b8a779b","431","stimuli/00110000.jpg"," ","","feedback_trial","0","","","","","","","","","","","","","","","","","","","","",""
"","","","","","survey-html-form","318","1063702","0.0-293.0","5e38e79295ff561112eae457","665500ab8938657b03fbdba8","66579235b31277676b8a779b","185273","","{""feedback"":""I new which basket would be searched if Sam could see where the ball was or if he could see two empty baskets. If Sam couldn't see two or three baskets and one contained the ball the basket chosen would just be a random one he couldn't see. If I couldn't see the baskets I guessed Sam would be more likely to search a basket he could see."",""age"":""38"",""gender"":""Male"",""other_gender"":"""",""race"":""White"",""other_race"":"""",""ethnicity"":""Non-Hispanic""}","","exit_survey","","","","","","","","","","","","","","","","I new which basket would be searched if Sam could see where the ball was or if he could see two empty baskets. If Sam couldn't see two or three baskets and one contained the ball the basket chosen would just be a random one he couldn't see. If I couldn't see the baskets I guessed Sam would be more likely to search a basket he could see.","38","Non-Hispanic","Male","White","0.6041666666666666","0.6041666666666666"
