"success","timeout","failed_images","failed_audio","failed_video","trial_type","trial_index","time_elapsed","internal_node_id","prolific_id","prolific_study_id","prolific_session_id","rt","stimulus","response","view_history","trial","character_choice","stimulus_dict","accuracy","correct_response","ball_pos","ego_ball_visible","ego_can_infer","alter_ball_visible","alter_can_infer","collective_ball_visible","collective_can_infer","search_locations","alter_occluders","ego_occluders","accuracy_bool","feedback","age","ethnicity","gender","race","overall_accuracy","bonus"
"true","false","[]","[]","[]","preload","0","2871","0.0-0.0","6413599d52dc6500b2430165","665500ab8938657b03fbdba8","6657813fc55278d166c08893","","","","","","","","","","","","","","","","","","","","","","","","","","",""
"true","","","","","fullscreen","1","5367","0.0-1.0","6413599d52dc6500b2430165","665500ab8938657b03fbdba8","6657813fc55278d166c08893","","","","","","","","","","","","","","","","","","","","","","","","","","",""
"","","","","","html-button-response","2","15579","0.0-2.0","6413599d52dc6500b2430165","665500ab8938657b03fbdba8","6657813fc55278d166c08893","10209","<p><b>Consent Form</b></p> <div style=""text-align:left;background-color:lightgrey; padding:20px; max-width:900px;""><p>Please consider this information carefully before deciding whether to participate in this research.</p> <p>The purpose of this research is to examine which factors influence social judgment and decision-making. You will be asked to make judgements about individuals and actions in social scenarios. We are simply interested in your judgement. The study will take less than 1 hour to complete, and you will receive less than $20 on Prolific. Your compensation and time commitment are specified in the study description. There are no anticipated risks associated with participating in this study. The effects of participating should be comparable to those you would ordinarily experience from viewing a computer monitor and using a mouse or keyboard for a similar amount of time. At the end of the study, we will provide an explanation of the questions that motivate this line of research and will describe the potential implications. </p><p> Your participation in this study is completely voluntary and you may refuse to participate or you may choose to withdraw at any time without penalty or loss of benefits to you which are otherwise entitled. Your participation in this study will remain confidential. No personally identifiable information will be associated with your data. Also, all analyses of the data will be averaged across all the participants, so your individual responses will never be specifically analyzed. </p><p> If you have questions or concerns about your participation or payment, or want to request a summary of research findings, please contact Dr. Jonathan Phillips at Jonathan.S.Phillips@dartmouth.edu. </p><p> Please save a copy of this form for your records. </p><p><b>Agreement: </b>The nature and purpose of this research have been sufficiently explained and I agree to participate in this study. I understand that I am free to withdraw at any time without incurring any penalty. Please consent by clicking the button below to continue. Otherwise, please exit the study at any time. </p>","0","","","","","","","","","","","","","","","","","","","","","","","",""
"","","","","","instructions","3","67981","0.0-3.0-0.0","6413599d52dc6500b2430165","665500ab8938657b03fbdba8","6657813fc55278d166c08893","52400","","","[{""page_index"":0,""viewing_time"":1486},{""page_index"":1,""viewing_time"":2262},{""page_index"":2,""viewing_time"":2010},{""page_index"":3,""viewing_time"":4248},{""page_index"":4,""viewing_time"":2736},{""page_index"":5,""viewing_time"":2360},{""page_index"":6,""viewing_time"":2272},{""page_index"":7,""viewing_time"":3656},{""page_index"":8,""viewing_time"":2672},{""page_index"":9,""viewing_time"":1896},{""page_index"":10,""viewing_time"":13735},{""page_index"":11,""viewing_time"":5904},{""page_index"":12,""viewing_time"":5993},{""page_index"":13,""viewing_time"":1167}]","intro","","","","","","","","","","","","","","","","","","","","","",""
"","","","","","image-keyboard-response","4","73291","0.0-3.0-1.0","6413599d52dc6500b2430165","665500ab8938657b03fbdba8","6657813fc55278d166c08893","5304","stimuli/1010010.jpg","2","","prediction_practice","1","{""filepath"":""stimuli/1010010.jpg"",""ball_pos"":1,""ego_ball_visible"":false,""ego_can_infer"":true,""alter_ball_visible"":false,""alter_can_infer"":true,""collective_ball_visible"":false,""collective_can_infer"":true,""search_locations"":[1],""alter_occluders"":""010"",""ego_occluders"":""010""}","false","","","","","","","","","","","","","","","","","","",""
"","","","","","image-keyboard-response","5","75486","0.0-3.0-2.0","6413599d52dc6500b2430165","665500ab8938657b03fbdba8","6657813fc55278d166c08893","2192","stimuli/10100101.jpg"," ","","practrice_feedback","1","","","","","","","","","","","","","","","","","","","","",""
"","","","","","image-keyboard-response","6","76872","0.0-3.0-3.0","6413599d52dc6500b2430165","665500ab8938657b03fbdba8","6657813fc55278d166c08893","1384","stimuli/1101000.jpg","0","","prediction_practice","1","{""filepath"":""stimuli/1101000.jpg"",""ball_pos"":1,""ego_ball_visible"":true,""ego_can_infer"":true,""alter_ball_visible"":true,""alter_can_infer"":true,""collective_ball_visible"":true,""collective_can_infer"":true,""search_locations"":[1],""alter_occluders"":""101"",""ego_occluders"":""000""}","false","","","","","","","","","","","","","","","","","","",""
"","","","","","image-keyboard-response","7","79233","0.0-3.0-4.0","6413599d52dc6500b2430165","665500ab8938657b03fbdba8","6657813fc55278d166c08893","2359","stimuli/11010001.jpg"," ","","practrice_feedback","1","","","","","","","","","","","","","","","","","","","","",""
"","","","","","image-keyboard-response","8","80909","0.0-3.0-5.0","6413599d52dc6500b2430165","665500ab8938657b03fbdba8","6657813fc55278d166c08893","1674","stimuli/0111111.jpg","1","","prediction_practice","0","{""filepath"":""stimuli/0111111.jpg"",""ball_pos"":0,""ego_ball_visible"":false,""ego_can_infer"":false,""alter_ball_visible"":false,""alter_can_infer"":false,""collective_ball_visible"":false,""collective_can_infer"":false,""search_locations"":[2,0,1],""alter_occluders"":""111"",""ego_occluders"":""111""}","false","","","","","","","","","","","","","","","","","","",""
"","","","","","image-keyboard-response","9","81894","0.0-3.0-6.0","6413599d52dc6500b2430165","665500ab8938657b03fbdba8","6657813fc55278d166c08893","983","stimuli/01111110.jpg"," ","","practrice_feedback","2","","","","","","","","","","","","","","","","","","","","",""
"","","","","","image-keyboard-response","10","82668","0.0-3.0-7.0","6413599d52dc6500b2430165","665500ab8938657b03fbdba8","6657813fc55278d166c08893","771","stimuli/2011010.jpg","2","","prediction_practice","2","{""filepath"":""stimuli/2011010.jpg"",""ball_pos"":2,""ego_ball_visible"":true,""ego_can_infer"":true,""alter_ball_visible"":false,""alter_can_infer"":false,""collective_ball_visible"":false,""collective_can_infer"":false,""search_locations"":[1,2],""alter_occluders"":""011"",""ego_occluders"":""010""}","true","","","","","","","","","","","","","","","","","","",""
"","","","","","image-keyboard-response","11","83649","0.0-3.0-8.0","6413599d52dc6500b2430165","665500ab8938657b03fbdba8","6657813fc55278d166c08893","979","stimuli/20110102.jpg"," ","","practrice_feedback","1","","","","","","","","","","","","","","","","","","","","",""
"","","","","","image-keyboard-response","12","85253","0.0-3.0-9.0","6413599d52dc6500b2430165","665500ab8938657b03fbdba8","6657813fc55278d166c08893","1602","stimuli/1111100.jpg","1","","prediction_practice","2","{""filepath"":""stimuli/1111100.jpg"",""ball_pos"":1,""ego_ball_visible"":true,""ego_can_infer"":true,""alter_ball_visible"":false,""alter_can_infer"":false,""collective_ball_visible"":false,""collective_can_infer"":false,""search_locations"":[2,1,0],""alter_occluders"":""111"",""ego_occluders"":""100""}","false","","","","","","","","","","","","","","","","","","",""
"","","","","","image-keyboard-response","13","85815","0.0-3.0-10.0","6413599d52dc6500b2430165","665500ab8938657b03fbdba8","6657813fc55278d166c08893","561","stimuli/11111002.jpg"," ","","practrice_feedback","2","","","","","","","","","","","","","","","","","","","","",""
"","","","","","image-keyboard-response","14","87472","0.0-3.0-11.0","6413599d52dc6500b2430165","665500ab8938657b03fbdba8","6657813fc55278d166c08893","1655","stimuli/2100010.jpg","2","","prediction_practice","2","{""filepath"":""stimuli/2100010.jpg"",""ball_pos"":2,""ego_ball_visible"":true,""ego_can_infer"":true,""alter_ball_visible"":true,""alter_can_infer"":true,""collective_ball_visible"":true,""collective_can_infer"":true,""search_locations"":[2],""alter_occluders"":""100"",""ego_occluders"":""010""}","true","","","","","","","","","","","","","","","","","","",""
"","","","","","image-keyboard-response","15","88470","0.0-3.0-12.0","6413599d52dc6500b2430165","665500ab8938657b03fbdba8","6657813fc55278d166c08893","996","stimuli/21000102.jpg"," ","","practrice_feedback","2","","","","","","","","","","","","","","","","","","","","",""
"","","","","","image-keyboard-response","16","89912","0.0-3.0-13.0","6413599d52dc6500b2430165","665500ab8938657b03fbdba8","6657813fc55278d166c08893","1441","stimuli/1000101.jpg","1","","prediction_practice","1","{""filepath"":""stimuli/1000101.jpg"",""ball_pos"":1,""ego_ball_visible"":true,""ego_can_infer"":true,""alter_ball_visible"":true,""alter_can_infer"":true,""collective_ball_visible"":true,""collective_can_infer"":true,""search_locations"":[1],""alter_occluders"":""000"",""ego_occluders"":""101""}","true","","","","","","","","","","","","","","","","","","",""
"","","","","","image-keyboard-response","17","91449","0.0-3.0-14.0","6413599d52dc6500b2430165","665500ab8938657b03fbdba8","6657813fc55278d166c08893","1536","stimuli/10001011.jpg"," ","","practrice_feedback","1","","","","","","","","","","","","","","","","","","","","",""
"","","","","","image-keyboard-response","18","92934","0.0-3.0-15.0","6413599d52dc6500b2430165","665500ab8938657b03fbdba8","6657813fc55278d166c08893","1483","stimuli/0010010.jpg","0","","prediction_practice","0","{""filepath"":""stimuli/0010010.jpg"",""ball_pos"":0,""ego_ball_visible"":true,""ego_can_infer"":true,""alter_ball_visible"":true,""alter_can_infer"":true,""collective_ball_visible"":true,""collective_can_infer"":true,""search_locations"":[0],""alter_occluders"":""010"",""ego_occluders"":""010""}","true","","","","","","","","","","","","","","","","","","",""
"","","","","","image-keyboard-response","19","94462","0.0-3.0-16.0","6413599d52dc6500b2430165","665500ab8938657b03fbdba8","6657813fc55278d166c08893","1527","stimuli/00100100.jpg"," ","","practrice_feedback","0","","","","","","","","","","","","","","","","","","","","",""
"","","","","","image-keyboard-response","20","95912","0.0-3.0-17.0","6413599d52dc6500b2430165","665500ab8938657b03fbdba8","6657813fc55278d166c08893","1449","stimuli/2101110.jpg","2","","prediction_practice","0","{""filepath"":""stimuli/2101110.jpg"",""ball_pos"":2,""ego_ball_visible"":true,""ego_can_infer"":true,""alter_ball_visible"":false,""alter_can_infer"":false,""collective_ball_visible"":false,""collective_can_infer"":false,""search_locations"":[0,2],""alter_occluders"":""101"",""ego_occluders"":""110""}","false","","","","","","","","","","","","","","","","","","",""
"","","","","","image-keyboard-response","21","97064","0.0-3.0-18.0","6413599d52dc6500b2430165","665500ab8938657b03fbdba8","6657813fc55278d166c08893","1150","stimuli/21011100.jpg"," ","","practrice_feedback","0","","","","","","","","","","","","","","","","","","","","",""
"","","","","","image-keyboard-response","22","98871","0.0-3.0-19.0","6413599d52dc6500b2430165","665500ab8938657b03fbdba8","6657813fc55278d166c08893","1806","stimuli/2110110.jpg","2","","prediction_practice","2","{""filepath"":""stimuli/2110110.jpg"",""ball_pos"":2,""ego_ball_visible"":true,""ego_can_infer"":true,""alter_ball_visible"":true,""alter_can_infer"":true,""collective_ball_visible"":true,""collective_can_infer"":true,""search_locations"":[2],""alter_occluders"":""110"",""ego_occluders"":""110""}","true","","","","","","","","","","","","","","","","","","",""
"","","","","","image-keyboard-response","23","99889","0.0-3.0-20.0","6413599d52dc6500b2430165","665500ab8938657b03fbdba8","6657813fc55278d166c08893","1017","stimuli/21101102.jpg"," ","","practrice_feedback","2","","","","","","","","","","","","","","","","","","","","",""
"","","","","","html-button-response","24","103089","0.0-3.0-21.0","6413599d52dc6500b2430165","665500ab8938657b03fbdba8","6657813fc55278d166c08893","3200","Now that you've had some practice, you'll be tested with a couple of easy trials. If you correctly predict Sam's choice, you'll move on to complete the experiment!","0","","","","","","","","","","","","","","","","","","","","","","","",""
"","","","","","image-keyboard-response","25","106543","0.0-3.0-22.0-0.0","6413599d52dc6500b2430165","665500ab8938657b03fbdba8","6657813fc55278d166c08893","3452","stimuli/0000011.jpg","arrowleft","","comprehension_quiz","","","true","arrowleft","","","","","","","","","","","","","","","","","",""
"","","","","","image-keyboard-response","26","107529","0.0-3.0-22.0-1.0","6413599d52dc6500b2430165","665500ab8938657b03fbdba8","6657813fc55278d166c08893","984","stimuli/00000110.jpg"," ","","comprehension_quiz","","","true"," ","","","","","","","","","","","","","","","","","",""
"","","","","","image-keyboard-response","27","109061","0.0-3.0-22.0-2.0","6413599d52dc6500b2430165","665500ab8938657b03fbdba8","6657813fc55278d166c08893","1531","stimuli/1010010.jpg","arrowdown","","comprehension_quiz","","","true","arrowdown","","","","","","","","","","","","","","","","","",""
"","","","","","image-keyboard-response","28","110112","0.0-3.0-22.0-3.0","6413599d52dc6500b2430165","665500ab8938657b03fbdba8","6657813fc55278d166c08893","1050","stimuli/10100101.jpg"," ","","comprehension_quiz","","","true"," ","","","","","","","","","","","","","","","","","",""
"","","","","","html-button-response","29","112820","0.0-4.0","6413599d52dc6500b2430165","665500ab8938657b03fbdba8","6657813fc55278d166c08893","2705","The experiment will now begin.","0","","","","","","","","","","","","","","","","","","","","","","","",""
"","","","","","image-keyboard-response","30","114314","0.0-5.0","6413599d52dc6500b2430165","665500ab8938657b03fbdba8","6657813fc55278d166c08893","1492","stimuli/2101111.jpg","1","","prediction_trial","2","","false","","2","false","false","false","false","false","false","[0,2]","101","111","0","","","","","","",""
"","","","","","image-keyboard-response","31","115302","0.0-6.0","6413599d52dc6500b2430165","665500ab8938657b03fbdba8","6657813fc55278d166c08893","985","stimuli/21011112.jpg"," ","","feedback_trial","0","","","","","","","","","","","","","","","","","","","","",""
"","","","","","image-keyboard-response","32","116146","0.0-7.0","6413599d52dc6500b2430165","665500ab8938657b03fbdba8","6657813fc55278d166c08893","842","stimuli/1101001.jpg","1","","prediction_trial","1","","true","","1","true","true","true","true","true","true","[1]","101","001","1","","","","","","",""
"","","","","","image-keyboard-response","33","116841","0.0-8.0","6413599d52dc6500b2430165","665500ab8938657b03fbdba8","6657813fc55278d166c08893","694","stimuli/11010011.jpg"," ","","feedback_trial","1","","","","","","","","","","","","","","","","","","","","",""
"","","","","","image-keyboard-response","34","117694","0.0-9.0","6413599d52dc6500b2430165","665500ab8938657b03fbdba8","6657813fc55278d166c08893","851","stimuli/2010101.jpg","2","","prediction_trial","2","","true","","2","false","false","true","true","false","false","[2]","010","101","1","","","","","","",""
"","","","","","image-keyboard-response","35","118305","0.0-10.0","6413599d52dc6500b2430165","665500ab8938657b03fbdba8","6657813fc55278d166c08893","610","stimuli/20101012.jpg"," ","","feedback_trial","2","","","","","","","","","","","","","","","","","","","","",""
"","","","","","image-keyboard-response","36","119437","0.0-11.0","6413599d52dc6500b2430165","665500ab8938657b03fbdba8","6657813fc55278d166c08893","1131","stimuli/1000011.jpg","1","","prediction_trial","1","","true","","1","false","false","true","true","false","false","[1]","000","011","1","","","","","","",""
"","","","","","image-keyboard-response","37","122099","0.0-12.0","6413599d52dc6500b2430165","665500ab8938657b03fbdba8","6657813fc55278d166c08893","2660","stimuli/10000111.jpg"," ","","feedback_trial","1","","","","","","","","","","","","","","","","","","","","",""
"","","","","","image-keyboard-response","38","124495","0.0-13.0","6413599d52dc6500b2430165","665500ab8938657b03fbdba8","6657813fc55278d166c08893","2394","stimuli/0101010.jpg","0","","prediction_trial","0","","true","","0","true","true","false","false","false","false","[2,0]","101","010","1","","","","","","",""
"","","","","","image-keyboard-response","39","125109","0.0-14.0","6413599d52dc6500b2430165","665500ab8938657b03fbdba8","6657813fc55278d166c08893","613","stimuli/01010100.jpg"," ","","feedback_trial","2","","","","","","","","","","","","","","","","","","","","",""
"","","","","","image-keyboard-response","40","126816","0.0-15.0","6413599d52dc6500b2430165","665500ab8938657b03fbdba8","6657813fc55278d166c08893","1705","stimuli/0101101.jpg","2","","prediction_trial","0","","false","","0","false","false","false","false","false","false","[2,0]","101","101","0","","","","","","",""
"","","","","","image-keyboard-response","41","128131","0.0-16.0","6413599d52dc6500b2430165","665500ab8938657b03fbdba8","6657813fc55278d166c08893","1314","stimuli/01011010.jpg"," ","","feedback_trial","2","","","","","","","","","","","","","","","","","","","","",""
"","","","","","image-keyboard-response","42","130131","0.0-17.0","6413599d52dc6500b2430165","665500ab8938657b03fbdba8","6657813fc55278d166c08893","1999","stimuli/1000111.jpg","2","","prediction_trial","1","","false","","1","false","false","true","true","false","false","[1]","000","111","0","","","","","","",""
"","","","","","image-keyboard-response","43","130656","0.0-18.0","6413599d52dc6500b2430165","665500ab8938657b03fbdba8","6657813fc55278d166c08893","523","stimuli/10001111.jpg"," ","","feedback_trial","1","","","","","","","","","","","","","","","","","","","","",""
"","","","","","image-keyboard-response","44","131738","0.0-19.0","6413599d52dc6500b2430165","665500ab8938657b03fbdba8","6657813fc55278d166c08893","1080","stimuli/2110000.jpg","2","","prediction_trial","2","","true","","2","true","true","true","true","true","true","[2]","110","000","1","","","","","","",""
"","","","","","image-keyboard-response","45","132104","0.0-20.0","6413599d52dc6500b2430165","665500ab8938657b03fbdba8","6657813fc55278d166c08893","364","stimuli/21100002.jpg"," ","","feedback_trial","2","","","","","","","","","","","","","","","","","","","","",""
"","","","","","image-keyboard-response","46","133354","0.0-21.0","6413599d52dc6500b2430165","665500ab8938657b03fbdba8","6657813fc55278d166c08893","1248","stimuli/1110101.jpg","1","","prediction_trial","1","","true","","1","true","true","false","false","false","false","[0,1]","110","101","1","","","","","","",""
"","","","","","image-keyboard-response","47","133676","0.0-22.0","6413599d52dc6500b2430165","665500ab8938657b03fbdba8","6657813fc55278d166c08893","320","stimuli/11101011.jpg"," ","","feedback_trial","0","","","","","","","","","","","","","","","","","","","","",""
"","","","","","image-keyboard-response","48","135503","0.0-23.0","6413599d52dc6500b2430165","665500ab8938657b03fbdba8","6657813fc55278d166c08893","1825","stimuli/2111101.jpg","1","","prediction_trial","1","","true","","2","false","false","false","false","false","false","[0,2,1]","111","101","1","","","","","","",""
"","","","","","image-keyboard-response","49","135870","0.0-24.0","6413599d52dc6500b2430165","665500ab8938657b03fbdba8","6657813fc55278d166c08893","365","stimuli/21111011.jpg"," ","","feedback_trial","0","","","","","","","","","","","","","","","","","","","","",""
"","","","","","image-keyboard-response","50","137031","0.0-25.0","6413599d52dc6500b2430165","665500ab8938657b03fbdba8","6657813fc55278d166c08893","1160","stimuli/0010101.jpg","2","","prediction_trial","0","","false","","0","false","false","true","true","false","false","[0]","010","101","0","","","","","","",""
"","","","","","image-keyboard-response","51","137450","0.0-26.0","6413599d52dc6500b2430165","665500ab8938657b03fbdba8","6657813fc55278d166c08893","417","stimuli/00101010.jpg"," ","","feedback_trial","0","","","","","","","","","","","","","","","","","","","","",""
"","","","","","image-keyboard-response","52","139021","0.0-27.0","6413599d52dc6500b2430165","665500ab8938657b03fbdba8","6657813fc55278d166c08893","1570","stimuli/1110001.jpg","1","","prediction_trial","1","","true","","1","true","true","false","false","false","false","[0,1]","110","001","1","","","","","","",""
"","","","","","image-keyboard-response","53","139363","0.0-28.0","6413599d52dc6500b2430165","665500ab8938657b03fbdba8","6657813fc55278d166c08893","340","stimuli/11100011.jpg"," ","","feedback_trial","0","","","","","","","","","","","","","","","","","","","","",""
"","","","","","image-keyboard-response","54","139979","0.0-29.0","6413599d52dc6500b2430165","665500ab8938657b03fbdba8","6657813fc55278d166c08893","615","stimuli/2000010.jpg","2","","prediction_trial","2","","true","","2","true","true","true","true","true","true","[2]","000","010","1","","","","","","",""
"","","","","","image-keyboard-response","55","140406","0.0-30.0","6413599d52dc6500b2430165","665500ab8938657b03fbdba8","6657813fc55278d166c08893","425","stimuli/20000102.jpg"," ","","feedback_trial","2","","","","","","","","","","","","","","","","","","","","",""
"","","","","","image-keyboard-response","56","141406","0.0-31.0","6413599d52dc6500b2430165","665500ab8938657b03fbdba8","6657813fc55278d166c08893","999","stimuli/1001011.jpg","1","","prediction_trial","1","","true","","1","false","false","true","true","false","false","[1]","001","011","1","","","","","","",""
"","","","","","image-keyboard-response","57","141993","0.0-32.0","6413599d52dc6500b2430165","665500ab8938657b03fbdba8","6657813fc55278d166c08893","584","stimuli/10010111.jpg"," ","","feedback_trial","1","","","","","","","","","","","","","","","","","","","","",""
"","","","","","image-keyboard-response","58","142765","0.0-33.0","6413599d52dc6500b2430165","665500ab8938657b03fbdba8","6657813fc55278d166c08893","771","stimuli/2110100.jpg","2","","prediction_trial","2","","true","","2","true","true","true","true","true","true","[2]","110","100","1","","","","","","",""
"","","","","","image-keyboard-response","59","143221","0.0-34.0","6413599d52dc6500b2430165","665500ab8938657b03fbdba8","6657813fc55278d166c08893","455","stimuli/21101002.jpg"," ","","feedback_trial","2","","","","","","","","","","","","","","","","","","","","",""
"","","","","","image-keyboard-response","60","145493","0.0-35.0","6413599d52dc6500b2430165","665500ab8938657b03fbdba8","6657813fc55278d166c08893","2270","stimuli/2011100.jpg","2","","prediction_trial","2","","true","","2","true","true","false","false","false","false","[1,2]","011","100","1","","","","","","",""
"","","","","","image-keyboard-response","61","145882","0.0-36.0","6413599d52dc6500b2430165","665500ab8938657b03fbdba8","6657813fc55278d166c08893","387","stimuli/20111002.jpg"," ","","feedback_trial","1","","","","","","","","","","","","","","","","","","","","",""
"","","","","","image-keyboard-response","62","147120","0.0-37.0","6413599d52dc6500b2430165","665500ab8938657b03fbdba8","6657813fc55278d166c08893","1237","stimuli/2110110.jpg","2","","prediction_trial","2","","true","","2","true","true","true","true","true","true","[2]","110","110","1","","","","","","",""
"","","","","","image-keyboard-response","63","147503","0.0-38.0","6413599d52dc6500b2430165","665500ab8938657b03fbdba8","6657813fc55278d166c08893","382","stimuli/21101102.jpg"," ","","feedback_trial","2","","","","","","","","","","","","","","","","","","","","",""
"","","","","","image-keyboard-response","64","150301","0.0-39.0","6413599d52dc6500b2430165","665500ab8938657b03fbdba8","6657813fc55278d166c08893","2795","stimuli/2110011.jpg","1","","prediction_trial","2","","false","","2","false","false","true","true","false","false","[2]","110","011","0","","","","","","",""
"","","","","","image-keyboard-response","65","150829","0.0-40.0","6413599d52dc6500b2430165","665500ab8938657b03fbdba8","6657813fc55278d166c08893","527","stimuli/21100112.jpg"," ","","feedback_trial","2","","","","","","","","","","","","","","","","","","","","",""
"","","","","","image-keyboard-response","66","151691","0.0-41.0","6413599d52dc6500b2430165","665500ab8938657b03fbdba8","6657813fc55278d166c08893","860","stimuli/1011001.jpg","1","","prediction_trial","2","","false","","1","true","true","false","false","false","false","[1,2]","011","001","0","","","","","","",""
"","","","","","image-keyboard-response","67","152309","0.0-42.0","6413599d52dc6500b2430165","665500ab8938657b03fbdba8","6657813fc55278d166c08893","616","stimuli/10110012.jpg"," ","","feedback_trial","1","","","","","","","","","","","","","","","","","","","","",""
"","","","","","image-keyboard-response","68","153913","0.0-43.0","6413599d52dc6500b2430165","665500ab8938657b03fbdba8","6657813fc55278d166c08893","1602","stimuli/0001111.jpg","1","","prediction_trial","0","","false","","0","false","false","true","true","false","false","[0]","001","111","0","","","","","","",""
"","","","","","image-keyboard-response","69","154389","0.0-44.0","6413599d52dc6500b2430165","665500ab8938657b03fbdba8","6657813fc55278d166c08893","475","stimuli/00011110.jpg"," ","","feedback_trial","0","","","","","","","","","","","","","","","","","","","","",""
"","","","","","image-keyboard-response","70","155990","0.0-45.0","6413599d52dc6500b2430165","665500ab8938657b03fbdba8","6657813fc55278d166c08893","1599","stimuli/0010000.jpg","0","","prediction_trial","0","","true","","0","true","true","true","true","true","true","[0]","010","000","1","","","","","","",""
"","","","","","image-keyboard-response","71","156396","0.0-46.0","6413599d52dc6500b2430165","665500ab8938657b03fbdba8","6657813fc55278d166c08893","405","stimuli/00100000.jpg"," ","","feedback_trial","0","","","","","","","","","","","","","","","","","","","","",""
"","","","","","image-keyboard-response","72","157826","0.0-47.0","6413599d52dc6500b2430165","665500ab8938657b03fbdba8","6657813fc55278d166c08893","1428","stimuli/1011010.jpg","1","","prediction_trial","1","","true","","1","false","true","false","false","false","false","[1,2]","011","010","1","","","","","","",""
"","","","","","image-keyboard-response","73","158244","0.0-48.0","6413599d52dc6500b2430165","665500ab8938657b03fbdba8","6657813fc55278d166c08893","416","stimuli/10110101.jpg"," ","","feedback_trial","1","","","","","","","","","","","","","","","","","","","","",""
"","","","","","image-keyboard-response","74","160381","0.0-49.0","6413599d52dc6500b2430165","665500ab8938657b03fbdba8","6657813fc55278d166c08893","2135","stimuli/1110111.jpg","2","","prediction_trial","0","","false","","1","false","false","false","false","false","false","[0,1]","110","111","0","","","","","","",""
"","","","","","image-keyboard-response","75","160832","0.0-50.0","6413599d52dc6500b2430165","665500ab8938657b03fbdba8","6657813fc55278d166c08893","449","stimuli/11101110.jpg"," ","","feedback_trial","0","","","","","","","","","","","","","","","","","","","","",""
"","","","","","image-keyboard-response","76","162027","0.0-51.0","6413599d52dc6500b2430165","665500ab8938657b03fbdba8","6657813fc55278d166c08893","1194","stimuli/0100101.jpg","2","","prediction_trial","0","","false","","0","false","false","false","true","false","false","[0]","100","101","0","","","","","","",""
"","","","","","image-keyboard-response","77","162689","0.0-52.0","6413599d52dc6500b2430165","665500ab8938657b03fbdba8","6657813fc55278d166c08893","660","stimuli/01001010.jpg"," ","","feedback_trial","0","","","","","","","","","","","","","","","","","","","","",""
"","","","","","image-keyboard-response","78","165149","0.0-53.0","6413599d52dc6500b2430165","665500ab8938657b03fbdba8","6657813fc55278d166c08893","2458","stimuli/0011101.jpg","2","","prediction_trial","0","","false","","0","false","false","true","true","false","false","[0]","011","101","0","","","","","","",""
"","","","","","image-keyboard-response","79","166136","0.0-54.0","6413599d52dc6500b2430165","665500ab8938657b03fbdba8","6657813fc55278d166c08893","985","stimuli/00111010.jpg"," ","","feedback_trial","0","","","","","","","","","","","","","","","","","","","","",""
"","","","","","image-keyboard-response","80","167604","0.0-55.0","6413599d52dc6500b2430165","665500ab8938657b03fbdba8","6657813fc55278d166c08893","1467","stimuli/1111011.jpg","0","","prediction_trial","1","","false","","1","false","false","false","false","false","false","[0,1,2]","111","011","0","","","","","","",""
"","","","","","image-keyboard-response","81","168889","0.0-56.0","6413599d52dc6500b2430165","665500ab8938657b03fbdba8","6657813fc55278d166c08893","1283","stimuli/11110111.jpg"," ","","feedback_trial","0","","","","","","","","","","","","","","","","","","","","",""
"","","","","","image-keyboard-response","82","170225","0.0-57.0","6413599d52dc6500b2430165","665500ab8938657b03fbdba8","6657813fc55278d166c08893","1335","stimuli/2101010.jpg","2","","prediction_trial","2","","true","","2","true","true","false","false","false","false","[0,2]","101","010","1","","","","","","",""
"","","","","","image-keyboard-response","83","170816","0.0-58.0","6413599d52dc6500b2430165","665500ab8938657b03fbdba8","6657813fc55278d166c08893","589","stimuli/21010102.jpg"," ","","feedback_trial","0","","","","","","","","","","","","","","","","","","","","",""
"","","","","","image-keyboard-response","84","171771","0.0-59.0","6413599d52dc6500b2430165","665500ab8938657b03fbdba8","6657813fc55278d166c08893","953","stimuli/2011110.jpg","2","","prediction_trial","1","","false","","2","true","true","false","false","false","false","[1,2]","011","110","0","","","","","","",""
"","","","","","image-keyboard-response","85","175817","0.0-60.0","6413599d52dc6500b2430165","665500ab8938657b03fbdba8","6657813fc55278d166c08893","4044","stimuli/20111101.jpg"," ","","feedback_trial","1","","","","","","","","","","","","","","","","","","","","",""
"","","","","","image-keyboard-response","86","176891","0.0-61.0","6413599d52dc6500b2430165","665500ab8938657b03fbdba8","6657813fc55278d166c08893","1073","stimuli/2011010.jpg","2","","prediction_trial","2","","true","","2","true","true","false","false","false","false","[1,2]","011","010","1","","","","","","",""
"","","","","","image-keyboard-response","87","177410","0.0-62.0","6413599d52dc6500b2430165","665500ab8938657b03fbdba8","6657813fc55278d166c08893","517","stimuli/20110102.jpg"," ","","feedback_trial","1","","","","","","","","","","","","","","","","","","","","",""
"","","","","","image-keyboard-response","88","178510","0.0-63.0","6413599d52dc6500b2430165","665500ab8938657b03fbdba8","6657813fc55278d166c08893","1098","stimuli/2111001.jpg","2","","prediction_trial","2","","true","","2","false","true","false","false","false","false","[0,2,1]","111","001","1","","","","","","",""
"","","","","","image-keyboard-response","89","179034","0.0-64.0","6413599d52dc6500b2430165","665500ab8938657b03fbdba8","6657813fc55278d166c08893","523","stimuli/21110012.jpg"," ","","feedback_trial","0","","","","","","","","","","","","","","","","","","","","",""
"","","","","","image-keyboard-response","90","182252","0.0-65.0","6413599d52dc6500b2430165","665500ab8938657b03fbdba8","6657813fc55278d166c08893","3216","stimuli/2110111.jpg","2","","prediction_trial","2","","true","","2","false","false","true","true","false","false","[2]","110","111","1","","","","","","",""
"","","","","","image-keyboard-response","91","182690","0.0-66.0","6413599d52dc6500b2430165","665500ab8938657b03fbdba8","6657813fc55278d166c08893","436","stimuli/21101112.jpg"," ","","feedback_trial","2","","","","","","","","","","","","","","","","","","","","",""
"","","","","","image-keyboard-response","92","184896","0.0-67.0","6413599d52dc6500b2430165","665500ab8938657b03fbdba8","6657813fc55278d166c08893","2205","stimuli/0010100.jpg","0","","prediction_trial","0","","true","","0","false","true","true","true","false","true","[0]","010","100","1","","","","","","",""
"","","","","","image-keyboard-response","93","185360","0.0-68.0","6413599d52dc6500b2430165","665500ab8938657b03fbdba8","6657813fc55278d166c08893","461","stimuli/00101000.jpg"," ","","feedback_trial","0","","","","","","","","","","","","","","","","","","","","",""
"","","","","","image-keyboard-response","94","187069","0.0-69.0","6413599d52dc6500b2430165","665500ab8938657b03fbdba8","6657813fc55278d166c08893","1708","stimuli/0000010.jpg","0","","prediction_trial","0","","true","","0","true","true","true","true","true","true","[0]","000","010","1","","","","","","",""
"","","","","","image-keyboard-response","95","187469","0.0-70.0","6413599d52dc6500b2430165","665500ab8938657b03fbdba8","6657813fc55278d166c08893","398","stimuli/00000100.jpg"," ","","feedback_trial","0","","","","","","","","","","","","","","","","","","","","",""
"","","","","","image-keyboard-response","96","189061","0.0-71.0","6413599d52dc6500b2430165","665500ab8938657b03fbdba8","6657813fc55278d166c08893","1591","stimuli/0101100.jpg","1","","prediction_trial","2","","false","","0","false","true","false","false","false","false","[0,2]","101","100","0","","","","","","",""
"","","","","","image-keyboard-response","97","190257","0.0-72.0","6413599d52dc6500b2430165","665500ab8938657b03fbdba8","6657813fc55278d166c08893","1194","stimuli/01011002.jpg"," ","","feedback_trial","0","","","","","","","","","","","","","","","","","","","","",""
"","","","","","image-keyboard-response","98","190965","0.0-73.0","6413599d52dc6500b2430165","665500ab8938657b03fbdba8","6657813fc55278d166c08893","706","stimuli/0000101.jpg","2","","prediction_trial","0","","false","","0","false","false","true","true","false","false","[0]","000","101","0","","","","","","",""
"","","","","","image-keyboard-response","99","191422","0.0-74.0","6413599d52dc6500b2430165","665500ab8938657b03fbdba8","6657813fc55278d166c08893","455","stimuli/00001010.jpg"," ","","feedback_trial","0","","","","","","","","","","","","","","","","","","","","",""
"","","","","","image-keyboard-response","100","192982","0.0-75.0","6413599d52dc6500b2430165","665500ab8938657b03fbdba8","6657813fc55278d166c08893","1559","stimuli/0111110.jpg","2","","prediction_trial","2","","true","","0","false","false","false","false","false","false","[2,1,0]","111","110","1","","","","","","",""
"","","","","","image-keyboard-response","101","193336","0.0-76.0","6413599d52dc6500b2430165","665500ab8938657b03fbdba8","6657813fc55278d166c08893","353","stimuli/01111102.jpg"," ","","feedback_trial","2","","","","","","","","","","","","","","","","","","","","",""
"","","","","","image-keyboard-response","102","194884","0.0-77.0","6413599d52dc6500b2430165","665500ab8938657b03fbdba8","6657813fc55278d166c08893","1546","stimuli/0110010.jpg","0","","prediction_trial","0","","true","","0","true","true","false","false","false","false","[0,1]","110","010","1","","","","","","",""
"","","","","","image-keyboard-response","103","195206","0.0-78.0","6413599d52dc6500b2430165","665500ab8938657b03fbdba8","6657813fc55278d166c08893","321","stimuli/01100100.jpg"," ","","feedback_trial","0","","","","","","","","","","","","","","","","","","","","",""
"","","","","","image-keyboard-response","104","196340","0.0-79.0","6413599d52dc6500b2430165","665500ab8938657b03fbdba8","6657813fc55278d166c08893","1132","stimuli/0000000.jpg","0","","prediction_trial","0","","true","","0","true","true","true","true","true","true","[0]","000","000","1","","","","","","",""
"","","","","","image-keyboard-response","105","196594","0.0-80.0","6413599d52dc6500b2430165","665500ab8938657b03fbdba8","6657813fc55278d166c08893","252","stimuli/00000000.jpg"," ","","feedback_trial","0","","","","","","","","","","","","","","","","","","","","",""
"","","","","","image-keyboard-response","106","198173","0.0-81.0","6413599d52dc6500b2430165","665500ab8938657b03fbdba8","6657813fc55278d166c08893","1578","stimuli/1010110.jpg","1","","prediction_trial","1","","true","","1","false","false","false","true","false","false","[1]","010","110","1","","","","","","",""
"","","","","","image-keyboard-response","107","198529","0.0-82.0","6413599d52dc6500b2430165","665500ab8938657b03fbdba8","6657813fc55278d166c08893","354","stimuli/10101101.jpg"," ","","feedback_trial","1","","","","","","","","","","","","","","","","","","","","",""
"","","","","","image-keyboard-response","108","201289","0.0-83.0","6413599d52dc6500b2430165","665500ab8938657b03fbdba8","6657813fc55278d166c08893","2758","stimuli/0110100.jpg","0","","prediction_trial","1","","false","","0","false","true","false","false","false","false","[0,1]","110","100","0","","","","","","",""
"","","","","","image-keyboard-response","109","201595","0.0-84.0","6413599d52dc6500b2430165","665500ab8938657b03fbdba8","6657813fc55278d166c08893","304","stimuli/01101001.jpg"," ","","feedback_trial","0","","","","","","","","","","","","","","","","","","","","",""
"","","","","","image-keyboard-response","110","203389","0.0-85.0","6413599d52dc6500b2430165","665500ab8938657b03fbdba8","6657813fc55278d166c08893","1792","stimuli/0001100.jpg","0","","prediction_trial","0","","true","","0","false","true","true","true","false","true","[0]","001","100","1","","","","","","",""
"","","","","","image-keyboard-response","111","203746","0.0-86.0","6413599d52dc6500b2430165","665500ab8938657b03fbdba8","6657813fc55278d166c08893","355","stimuli/00011000.jpg"," ","","feedback_trial","0","","","","","","","","","","","","","","","","","","","","",""
"","","","","","image-keyboard-response","112","205745","0.0-87.0","6413599d52dc6500b2430165","665500ab8938657b03fbdba8","6657813fc55278d166c08893","1997","stimuli/1011111.jpg","0","","prediction_trial","2","","false","","1","false","false","false","false","false","false","[1,2]","011","111","0","","","","","","",""
"","","","","","image-keyboard-response","113","206273","0.0-88.0","6413599d52dc6500b2430165","665500ab8938657b03fbdba8","6657813fc55278d166c08893","526","stimuli/10111112.jpg"," ","","feedback_trial","1","","","","","","","","","","","","","","","","","","","","",""
"","","","","","image-keyboard-response","114","208612","0.0-89.0","6413599d52dc6500b2430165","665500ab8938657b03fbdba8","6657813fc55278d166c08893","2338","stimuli/2010100.jpg","2","","prediction_trial","2","","true","","2","true","true","true","true","true","true","[2]","010","100","1","","","","","","",""
"","","","","","image-keyboard-response","115","209021","0.0-90.0","6413599d52dc6500b2430165","665500ab8938657b03fbdba8","6657813fc55278d166c08893","407","stimuli/20101002.jpg"," ","","feedback_trial","2","","","","","","","","","","","","","","","","","","","","",""
"","","","","","image-keyboard-response","116","209952","0.0-91.0","6413599d52dc6500b2430165","665500ab8938657b03fbdba8","6657813fc55278d166c08893","930","stimuli/1000000.jpg","1","","prediction_trial","1","","true","","1","true","true","true","true","true","true","[1]","000","000","1","","","","","","",""
"","","","","","image-keyboard-response","117","210461","0.0-92.0","6413599d52dc6500b2430165","665500ab8938657b03fbdba8","6657813fc55278d166c08893","507","stimuli/10000001.jpg"," ","","feedback_trial","1","","","","","","","","","","","","","","","","","","","","",""
"","","","","","image-keyboard-response","118","211394","0.0-93.0","6413599d52dc6500b2430165","665500ab8938657b03fbdba8","6657813fc55278d166c08893","932","stimuli/2111100.jpg","2","","prediction_trial","2","","true","","2","true","true","false","false","false","false","[1,2,0]","111","100","1","","","","","","",""
"","","","","","image-keyboard-response","119","211866","0.0-94.0","6413599d52dc6500b2430165","665500ab8938657b03fbdba8","6657813fc55278d166c08893","470","stimuli/21111002.jpg"," ","","feedback_trial","1","","","","","","","","","","","","","","","","","","","","",""
"","","","","","image-keyboard-response","120","212815","0.0-95.0","6413599d52dc6500b2430165","665500ab8938657b03fbdba8","6657813fc55278d166c08893","948","stimuli/0011010.jpg","0","","prediction_trial","0","","true","","0","true","true","true","true","true","true","[0]","011","010","1","","","","","","",""
"","","","","","image-keyboard-response","121","213241","0.0-96.0","6413599d52dc6500b2430165","665500ab8938657b03fbdba8","6657813fc55278d166c08893","423","stimuli/00110100.jpg"," ","","feedback_trial","0","","","","","","","","","","","","","","","","","","","","",""
"","","","","","image-keyboard-response","122","214127","0.0-97.0","6413599d52dc6500b2430165","665500ab8938657b03fbdba8","6657813fc55278d166c08893","885","stimuli/0101000.jpg","0","","prediction_trial","0","","true","","0","true","true","false","false","false","false","[2,0]","101","000","1","","","","","","",""
"","","","","","image-keyboard-response","123","214612","0.0-98.0","6413599d52dc6500b2430165","665500ab8938657b03fbdba8","6657813fc55278d166c08893","482","stimuli/01010000.jpg"," ","","feedback_trial","2","","","","","","","","","","","","","","","","","","","","",""
"","","","","","image-keyboard-response","124","216372","0.0-99.0","6413599d52dc6500b2430165","665500ab8938657b03fbdba8","6657813fc55278d166c08893","1759","stimuli/2101110.jpg","2","","prediction_trial","0","","false","","2","true","true","false","false","false","false","[0,2]","101","110","0","","","","","","",""
"","","","","","image-keyboard-response","125","217923","0.0-100.0","6413599d52dc6500b2430165","665500ab8938657b03fbdba8","6657813fc55278d166c08893","1549","stimuli/21011100.jpg"," ","","feedback_trial","0","","","","","","","","","","","","","","","","","","","","",""
"","","","","","image-keyboard-response","126","219856","0.0-101.0","6413599d52dc6500b2430165","665500ab8938657b03fbdba8","6657813fc55278d166c08893","1931","stimuli/2010011.jpg","2","","prediction_trial","2","","true","","2","false","false","true","true","false","false","[2]","010","011","1","","","","","","",""
"","","","","","image-keyboard-response","127","220291","0.0-102.0","6413599d52dc6500b2430165","665500ab8938657b03fbdba8","6657813fc55278d166c08893","434","stimuli/20100112.jpg"," ","","feedback_trial","2","","","","","","","","","","","","","","","","","","","","",""
"","","","","","image-keyboard-response","128","223078","0.0-103.0","6413599d52dc6500b2430165","665500ab8938657b03fbdba8","6657813fc55278d166c08893","2785","stimuli/1001010.jpg","1","","prediction_trial","1","","true","","1","false","true","true","true","false","true","[1]","001","010","1","","","","","","",""
"","","","","","image-keyboard-response","129","223575","0.0-104.0","6413599d52dc6500b2430165","665500ab8938657b03fbdba8","6657813fc55278d166c08893","495","stimuli/10010101.jpg"," ","","feedback_trial","1","","","","","","","","","","","","","","","","","","","","",""
"","","","","","image-keyboard-response","130","225951","0.0-105.0","6413599d52dc6500b2430165","665500ab8938657b03fbdba8","6657813fc55278d166c08893","2375","stimuli/0001101.jpg","2","","prediction_trial","0","","false","","0","false","false","true","true","false","false","[0]","001","101","0","","","","","","",""
"","","","","","image-keyboard-response","131","226412","0.0-106.0","6413599d52dc6500b2430165","665500ab8938657b03fbdba8","6657813fc55278d166c08893","459","stimuli/00011010.jpg"," ","","feedback_trial","0","","","","","","","","","","","","","","","","","","","","",""
"","","","","","image-keyboard-response","132","229130","0.0-107.0","6413599d52dc6500b2430165","665500ab8938657b03fbdba8","6657813fc55278d166c08893","2717","stimuli/1000110.jpg","1","","prediction_trial","1","","true","","1","false","false","true","true","false","false","[1]","000","110","1","","","","","","",""
"","","","","","image-keyboard-response","133","229504","0.0-108.0","6413599d52dc6500b2430165","665500ab8938657b03fbdba8","6657813fc55278d166c08893","372","stimuli/10001101.jpg"," ","","feedback_trial","1","","","","","","","","","","","","","","","","","","","","",""
"","","","","","image-keyboard-response","134","230478","0.0-109.0","6413599d52dc6500b2430165","665500ab8938657b03fbdba8","6657813fc55278d166c08893","972","stimuli/1101100.jpg","1","","prediction_trial","1","","true","","1","true","true","true","true","true","true","[1]","101","100","1","","","","","","",""
"","","","","","image-keyboard-response","135","230881","0.0-110.0","6413599d52dc6500b2430165","665500ab8938657b03fbdba8","6657813fc55278d166c08893","401","stimuli/11011001.jpg"," ","","feedback_trial","1","","","","","","","","","","","","","","","","","","","","",""
"","","","","","image-keyboard-response","136","232125","0.0-111.0","6413599d52dc6500b2430165","665500ab8938657b03fbdba8","6657813fc55278d166c08893","1242","stimuli/1100100.jpg","1","","prediction_trial","1","","true","","1","true","true","true","true","true","true","[1]","100","100","1","","","","","","",""
"","","","","","image-keyboard-response","137","232520","0.0-112.0","6413599d52dc6500b2430165","665500ab8938657b03fbdba8","6657813fc55278d166c08893","391","stimuli/11001001.jpg"," ","","feedback_trial","1","","","","","","","","","","","","","","","","","","","","",""
"","","","","","image-keyboard-response","138","233305","0.0-113.0","6413599d52dc6500b2430165","665500ab8938657b03fbdba8","6657813fc55278d166c08893","784","stimuli/1011101.jpg","1","","prediction_trial","2","","false","","1","true","true","false","false","false","false","[2,1]","011","101","0","","","","","","",""
"","","","","","image-keyboard-response","139","233804","0.0-114.0","6413599d52dc6500b2430165","665500ab8938657b03fbdba8","6657813fc55278d166c08893","496","stimuli/10111012.jpg"," ","","feedback_trial","2","","","","","","","","","","","","","","","","","","","","",""
"","","","","","image-keyboard-response","140","234810","0.0-115.0","6413599d52dc6500b2430165","665500ab8938657b03fbdba8","6657813fc55278d166c08893","1004","stimuli/0111011.jpg","0","","prediction_trial","0","","true","","0","true","true","false","false","false","false","[0,1,2]","111","011","1","","","","","","",""
"","","","","","image-keyboard-response","141","235305","0.0-116.0","6413599d52dc6500b2430165","665500ab8938657b03fbdba8","6657813fc55278d166c08893","493","stimuli/01110110.jpg"," ","","feedback_trial","0","","","","","","","","","","","","","","","","","","","","",""
"","","","","","image-keyboard-response","142","236205","0.0-117.0","6413599d52dc6500b2430165","665500ab8938657b03fbdba8","6657813fc55278d166c08893","899","stimuli/1101101.jpg","1","","prediction_trial","1","","true","","1","true","true","true","true","true","true","[1]","101","101","1","","","","","","",""
"","","","","","image-keyboard-response","143","236686","0.0-118.0","6413599d52dc6500b2430165","665500ab8938657b03fbdba8","6657813fc55278d166c08893","479","stimuli/11011011.jpg"," ","","feedback_trial","1","","","","","","","","","","","","","","","","","","","","",""
"","","","","","image-keyboard-response","144","238204","0.0-119.0","6413599d52dc6500b2430165","665500ab8938657b03fbdba8","6657813fc55278d166c08893","1517","stimuli/0110110.jpg","1","","prediction_trial","1","","true","","0","false","false","false","false","false","false","[1,0]","110","110","1","","","","","","",""
"","","","","","image-keyboard-response","145","238567","0.0-120.0","6413599d52dc6500b2430165","665500ab8938657b03fbdba8","6657813fc55278d166c08893","362","stimuli/01101101.jpg"," ","","feedback_trial","1","","","","","","","","","","","","","","","","","","","","",""
"","","","","","image-keyboard-response","146","240345","0.0-121.0","6413599d52dc6500b2430165","665500ab8938657b03fbdba8","6657813fc55278d166c08893","1777","stimuli/0000110.jpg","1","","prediction_trial","0","","false","","0","false","false","true","true","false","false","[0]","000","110","0","","","","","","",""
"","","","","","image-keyboard-response","147","240720","0.0-122.0","6413599d52dc6500b2430165","665500ab8938657b03fbdba8","6657813fc55278d166c08893","373","stimuli/00001100.jpg"," ","","feedback_trial","0","","","","","","","","","","","","","","","","","","","","",""
"","","","","","image-keyboard-response","148","242493","0.0-123.0","6413599d52dc6500b2430165","665500ab8938657b03fbdba8","6657813fc55278d166c08893","1772","stimuli/2101011.jpg","1","","prediction_trial","0","","false","","2","false","false","false","false","false","false","[0,2]","101","011","0","","","","","","",""
"","","","","","image-keyboard-response","149","242981","0.0-124.0","6413599d52dc6500b2430165","665500ab8938657b03fbdba8","6657813fc55278d166c08893","486","stimuli/21010110.jpg"," ","","feedback_trial","0","","","","","","","","","","","","","","","","","","","","",""
"","","","","","image-keyboard-response","150","244249","0.0-125.0","6413599d52dc6500b2430165","665500ab8938657b03fbdba8","6657813fc55278d166c08893","1267","stimuli/2101000.jpg","2","","prediction_trial","2","","true","","2","true","true","false","false","false","false","[0,2]","101","000","1","","","","","","",""
"","","","","","image-keyboard-response","151","244678","0.0-126.0","6413599d52dc6500b2430165","665500ab8938657b03fbdba8","6657813fc55278d166c08893","427","stimuli/21010002.jpg"," ","","feedback_trial","0","","","","","","","","","","","","","","","","","","","","",""
"","","","","","image-keyboard-response","152","245445","0.0-127.0","6413599d52dc6500b2430165","665500ab8938657b03fbdba8","6657813fc55278d166c08893","766","stimuli/2011000.jpg","2","","prediction_trial","2","","true","","2","true","true","false","false","false","false","[1,2]","011","000","1","","","","","","",""
"","","","","","image-keyboard-response","153","245889","0.0-128.0","6413599d52dc6500b2430165","665500ab8938657b03fbdba8","6657813fc55278d166c08893","442","stimuli/20110002.jpg"," ","","feedback_trial","1","","","","","","","","","","","","","","","","","","","","",""
"","","","","","image-keyboard-response","154","247179","0.0-129.0","6413599d52dc6500b2430165","665500ab8938657b03fbdba8","6657813fc55278d166c08893","1288","stimuli/1010011.jpg","1","","prediction_trial","1","","true","","1","false","false","false","true","false","false","[1]","010","011","1","","","","","","",""
"","","","","","image-keyboard-response","155","247905","0.0-130.0","6413599d52dc6500b2430165","665500ab8938657b03fbdba8","6657813fc55278d166c08893","725","stimuli/10100111.jpg"," ","","feedback_trial","1","","","","","","","","","","","","","","","","","","","","",""
"","","","","","image-keyboard-response","156","249705","0.0-131.0","6413599d52dc6500b2430165","665500ab8938657b03fbdba8","6657813fc55278d166c08893","1799","stimuli/1111110.jpg","1","","prediction_trial","1","","true","","1","false","false","false","false","false","false","[1,2,0]","111","110","1","","","","","","",""
"","","","","","image-keyboard-response","157","250268","0.0-132.0","6413599d52dc6500b2430165","665500ab8938657b03fbdba8","6657813fc55278d166c08893","560","stimuli/11111101.jpg"," ","","feedback_trial","1","","","","","","","","","","","","","","","","","","","","",""
"","","","","","image-keyboard-response","158","251590","0.0-133.0","6413599d52dc6500b2430165","665500ab8938657b03fbdba8","6657813fc55278d166c08893","1320","stimuli/0001001.jpg","0","","prediction_trial","0","","true","","0","true","true","true","true","true","true","[0]","001","001","1","","","","","","",""
"","","","","","image-keyboard-response","159","252350","0.0-134.0","6413599d52dc6500b2430165","665500ab8938657b03fbdba8","6657813fc55278d166c08893","759","stimuli/00010010.jpg"," ","","feedback_trial","0","","","","","","","","","","","","","","","","","","","","",""
"","","","","","image-keyboard-response","160","253233","0.0-135.0","6413599d52dc6500b2430165","665500ab8938657b03fbdba8","6657813fc55278d166c08893","881","stimuli/1000010.jpg","1","","prediction_trial","1","","true","","1","false","true","true","true","false","true","[1]","000","010","1","","","","","","",""
"","","","","","image-keyboard-response","161","253754","0.0-136.0","6413599d52dc6500b2430165","665500ab8938657b03fbdba8","6657813fc55278d166c08893","519","stimuli/10000101.jpg"," ","","feedback_trial","1","","","","","","","","","","","","","","","","","","","","",""
"","","","","","image-keyboard-response","162","254871","0.0-137.0","6413599d52dc6500b2430165","665500ab8938657b03fbdba8","6657813fc55278d166c08893","1116","stimuli/2001111.jpg","1","","prediction_trial","2","","false","","2","false","false","false","true","false","false","[2]","001","111","0","","","","","","",""
"","","","","","image-keyboard-response","163","255620","0.0-138.0","6413599d52dc6500b2430165","665500ab8938657b03fbdba8","6657813fc55278d166c08893","747","stimuli/20011112.jpg"," ","","feedback_trial","2","","","","","","","","","","","","","","","","","","","","",""
"","","","","","image-keyboard-response","164","256875","0.0-139.0","6413599d52dc6500b2430165","665500ab8938657b03fbdba8","6657813fc55278d166c08893","1253","stimuli/0110000.jpg","0","","prediction_trial","0","","true","","0","true","true","false","false","false","false","[1,0]","110","000","1","","","","","","",""
"","","","","","image-keyboard-response","165","257331","0.0-140.0","6413599d52dc6500b2430165","665500ab8938657b03fbdba8","6657813fc55278d166c08893","455","stimuli/01100000.jpg"," ","","feedback_trial","1","","","","","","","","","","","","","","","","","","","","",""
"","","","","","image-keyboard-response","166","258293","0.0-141.0","6413599d52dc6500b2430165","665500ab8938657b03fbdba8","6657813fc55278d166c08893","960","stimuli/0111000.jpg","0","","prediction_trial","1","","false","","0","true","true","false","false","false","false","[0,2,1]","111","000","0","","","","","","",""
"","","","","","image-keyboard-response","167","259023","0.0-142.0","6413599d52dc6500b2430165","665500ab8938657b03fbdba8","6657813fc55278d166c08893","728","stimuli/01110001.jpg"," ","","feedback_trial","0","","","","","","","","","","","","","","","","","","","","",""
"","","","","","image-keyboard-response","168","259878","0.0-143.0","6413599d52dc6500b2430165","665500ab8938657b03fbdba8","6657813fc55278d166c08893","854","stimuli/1000001.jpg","1","","prediction_trial","1","","true","","1","true","true","true","true","true","true","[1]","000","001","1","","","","","","",""
"","","","","","image-keyboard-response","169","260349","0.0-144.0","6413599d52dc6500b2430165","665500ab8938657b03fbdba8","6657813fc55278d166c08893","469","stimuli/10000011.jpg"," ","","feedback_trial","1","","","","","","","","","","","","","","","","","","","","",""
"","","","","","image-keyboard-response","170","261221","0.0-145.0","6413599d52dc6500b2430165","665500ab8938657b03fbdba8","6657813fc55278d166c08893","870","stimuli/0100010.jpg","0","","prediction_trial","0","","true","","0","true","true","false","true","false","true","[0]","100","010","1","","","","","","",""
"","","","","","image-keyboard-response","171","261639","0.0-146.0","6413599d52dc6500b2430165","665500ab8938657b03fbdba8","6657813fc55278d166c08893","417","stimuli/01000100.jpg"," ","","feedback_trial","0","","","","","","","","","","","","","","","","","","","","",""
"","","","","","image-keyboard-response","172","262486","0.0-147.0","6413599d52dc6500b2430165","665500ab8938657b03fbdba8","6657813fc55278d166c08893","845","stimuli/2000011.jpg","1","","prediction_trial","2","","false","","2","false","false","true","true","false","false","[2]","000","011","0","","","","","","",""
"","","","","","image-keyboard-response","173","262885","0.0-148.0","6413599d52dc6500b2430165","665500ab8938657b03fbdba8","6657813fc55278d166c08893","397","stimuli/20000112.jpg"," ","","feedback_trial","2","","","","","","","","","","","","","","","","","","","","",""
"","","","","","image-keyboard-response","174","264379","0.0-149.0","6413599d52dc6500b2430165","665500ab8938657b03fbdba8","6657813fc55278d166c08893","1493","stimuli/0000001.jpg","0","","prediction_trial","0","","true","","0","true","true","true","true","true","true","[0]","000","001","1","","","","","","",""
"","","","","","image-keyboard-response","175","264698","0.0-150.0","6413599d52dc6500b2430165","665500ab8938657b03fbdba8","6657813fc55278d166c08893","317","stimuli/00000010.jpg"," ","","feedback_trial","0","","","","","","","","","","","","","","","","","","","","",""
"","","","","","image-keyboard-response","176","265633","0.0-151.0","6413599d52dc6500b2430165","665500ab8938657b03fbdba8","6657813fc55278d166c08893","933","stimuli/0011001.jpg","0","","prediction_trial","0","","true","","0","true","true","true","true","true","true","[0]","011","001","1","","","","","","",""
"","","","","","image-keyboard-response","177","266229","0.0-152.0","6413599d52dc6500b2430165","665500ab8938657b03fbdba8","6657813fc55278d166c08893","594","stimuli/00110010.jpg"," ","","feedback_trial","0","","","","","","","","","","","","","","","","","","","","",""
"","","","","","image-keyboard-response","178","267095","0.0-153.0","6413599d52dc6500b2430165","665500ab8938657b03fbdba8","6657813fc55278d166c08893","864","stimuli/0000111.jpg","1","","prediction_trial","0","","false","","0","false","false","true","true","false","false","[0]","000","111","0","","","","","","",""
"","","","","","image-keyboard-response","179","267712","0.0-154.0","6413599d52dc6500b2430165","665500ab8938657b03fbdba8","6657813fc55278d166c08893","615","stimuli/00001110.jpg"," ","","feedback_trial","0","","","","","","","","","","","","","","","","","","","","",""
"","","","","","image-keyboard-response","180","269204","0.0-155.0","6413599d52dc6500b2430165","665500ab8938657b03fbdba8","6657813fc55278d166c08893","1490","stimuli/1000101.jpg","1","","prediction_trial","1","","true","","1","true","true","true","true","true","true","[1]","000","101","1","","","","","","",""
"","","","","","image-keyboard-response","181","269600","0.0-156.0","6413599d52dc6500b2430165","665500ab8938657b03fbdba8","6657813fc55278d166c08893","394","stimuli/10001011.jpg"," ","","feedback_trial","1","","","","","","","","","","","","","","","","","","","","",""
"","","","","","image-keyboard-response","182","271128","0.0-157.0","6413599d52dc6500b2430165","665500ab8938657b03fbdba8","6657813fc55278d166c08893","1527","stimuli/0111101.jpg","2","","prediction_trial","2","","true","","0","false","false","false","false","false","false","[2,0,1]","111","101","1","","","","","","",""
"","","","","","image-keyboard-response","183","271697","0.0-158.0","6413599d52dc6500b2430165","665500ab8938657b03fbdba8","6657813fc55278d166c08893","567","stimuli/01111012.jpg"," ","","feedback_trial","2","","","","","","","","","","","","","","","","","","","","",""
"","","","","","image-keyboard-response","184","272899","0.0-159.0","6413599d52dc6500b2430165","665500ab8938657b03fbdba8","6657813fc55278d166c08893","1200","stimuli/0101001.jpg","0","","prediction_trial","0","","true","","0","true","true","false","false","false","false","[2,0]","101","001","1","","","","","","",""
"","","","","","image-keyboard-response","185","273347","0.0-160.0","6413599d52dc6500b2430165","665500ab8938657b03fbdba8","6657813fc55278d166c08893","446","stimuli/01010010.jpg"," ","","feedback_trial","2","","","","","","","","","","","","","","","","","","","","",""
"","","","","","image-keyboard-response","186","274310","0.0-161.0","6413599d52dc6500b2430165","665500ab8938657b03fbdba8","6657813fc55278d166c08893","962","stimuli/1001101.jpg","1","","prediction_trial","1","","true","","1","true","true","true","true","true","true","[1]","001","101","1","","","","","","",""
"","","","","","image-keyboard-response","187","274690","0.0-162.0","6413599d52dc6500b2430165","665500ab8938657b03fbdba8","6657813fc55278d166c08893","378","stimuli/10011011.jpg"," ","","feedback_trial","1","","","","","","","","","","","","","","","","","","","","",""
"","","","","","image-keyboard-response","188","275896","0.0-163.0","6413599d52dc6500b2430165","665500ab8938657b03fbdba8","6657813fc55278d166c08893","1204","stimuli/1110011.jpg","1","","prediction_trial","1","","true","","1","false","false","false","false","false","false","[0,1]","110","011","1","","","","","","",""
"","","","","","image-keyboard-response","189","276297","0.0-164.0","6413599d52dc6500b2430165","665500ab8938657b03fbdba8","6657813fc55278d166c08893","400","stimuli/11100111.jpg"," ","","feedback_trial","0","","","","","","","","","","","","","","","","","","","","",""
"","","","","","image-keyboard-response","190","277673","0.0-165.0","6413599d52dc6500b2430165","665500ab8938657b03fbdba8","6657813fc55278d166c08893","1374","stimuli/0011000.jpg","0","","prediction_trial","0","","true","","0","true","true","true","true","true","true","[0]","011","000","1","","","","","","",""
"","","","","","image-keyboard-response","191","278627","0.0-166.0","6413599d52dc6500b2430165","665500ab8938657b03fbdba8","6657813fc55278d166c08893","952","stimuli/00110000.jpg"," ","","feedback_trial","0","","","","","","","","","","","","","","","","","","","","",""
"","","","","","image-keyboard-response","192","279722","0.0-167.0","6413599d52dc6500b2430165","665500ab8938657b03fbdba8","6657813fc55278d166c08893","1093","stimuli/1101011.jpg","1","","prediction_trial","1","","true","","1","false","false","true","true","false","false","[1]","101","011","1","","","","","","",""
"","","","","","image-keyboard-response","193","280025","0.0-168.0","6413599d52dc6500b2430165","665500ab8938657b03fbdba8","6657813fc55278d166c08893","301","stimuli/11010111.jpg"," ","","feedback_trial","1","","","","","","","","","","","","","","","","","","","","",""
"","","","","","image-keyboard-response","194","281510","0.0-169.0","6413599d52dc6500b2430165","665500ab8938657b03fbdba8","6657813fc55278d166c08893","1484","stimuli/0001000.jpg","0","","prediction_trial","0","","true","","0","true","true","true","true","true","true","[0]","001","000","1","","","","","","",""
"","","","","","image-keyboard-response","195","282090","0.0-170.0","6413599d52dc6500b2430165","665500ab8938657b03fbdba8","6657813fc55278d166c08893","578","stimuli/00010000.jpg"," ","","feedback_trial","0","","","","","","","","","","","","","","","","","","","","",""
"","","","","","image-keyboard-response","196","283513","0.0-171.0","6413599d52dc6500b2430165","665500ab8938657b03fbdba8","6657813fc55278d166c08893","1422","stimuli/1101110.jpg","0","","prediction_trial","1","","false","","1","false","false","true","true","false","false","[1]","101","110","0","","","","","","",""
"","","","","","image-keyboard-response","197","284061","0.0-172.0","6413599d52dc6500b2430165","665500ab8938657b03fbdba8","6657813fc55278d166c08893","546","stimuli/11011101.jpg"," ","","feedback_trial","1","","","","","","","","","","","","","","","","","","","","",""
"","","","","","image-keyboard-response","198","285637","0.0-173.0","6413599d52dc6500b2430165","665500ab8938657b03fbdba8","6657813fc55278d166c08893","1575","stimuli/1100011.jpg","1","","prediction_trial","1","","true","","1","false","false","true","true","false","false","[1]","100","011","1","","","","","","",""
"","","","","","image-keyboard-response","199","285981","0.0-174.0","6413599d52dc6500b2430165","665500ab8938657b03fbdba8","6657813fc55278d166c08893","342","stimuli/11000111.jpg"," ","","feedback_trial","1","","","","","","","","","","","","","","","","","","","","",""
"","","","","","image-keyboard-response","200","287405","0.0-175.0","6413599d52dc6500b2430165","665500ab8938657b03fbdba8","6657813fc55278d166c08893","1422","stimuli/1100111.jpg","1","","prediction_trial","1","","true","","1","false","false","true","true","false","false","[1]","100","111","1","","","","","","",""
"","","","","","image-keyboard-response","201","287770","0.0-176.0","6413599d52dc6500b2430165","665500ab8938657b03fbdba8","6657813fc55278d166c08893","362","stimuli/11001111.jpg"," ","","feedback_trial","1","","","","","","","","","","","","","","","","","","","","",""
"","","","","","image-keyboard-response","202","288808","0.0-177.0","6413599d52dc6500b2430165","665500ab8938657b03fbdba8","6657813fc55278d166c08893","1037","stimuli/1010000.jpg","1","","prediction_trial","1","","true","","1","true","true","false","true","false","true","[1]","010","000","1","","","","","","",""
"","","","","","image-keyboard-response","203","289250","0.0-178.0","6413599d52dc6500b2430165","665500ab8938657b03fbdba8","6657813fc55278d166c08893","440","stimuli/10100001.jpg"," ","","feedback_trial","1","","","","","","","","","","","","","","","","","","","","",""
"","","","","","image-keyboard-response","204","290109","0.0-179.0","6413599d52dc6500b2430165","665500ab8938657b03fbdba8","6657813fc55278d166c08893","858","stimuli/0101110.jpg","2","","prediction_trial","2","","true","","0","false","false","false","false","false","false","[0,2]","101","110","1","","","","","","",""
"","","","","","image-keyboard-response","205","292779","0.0-180.0","6413599d52dc6500b2430165","665500ab8938657b03fbdba8","6657813fc55278d166c08893","2668","stimuli/01011102.jpg"," ","","feedback_trial","0","","","","","","","","","","","","","","","","","","","","",""
"","","","","","image-keyboard-response","206","293949","0.0-181.0","6413599d52dc6500b2430165","665500ab8938657b03fbdba8","6657813fc55278d166c08893","1168","stimuli/0110001.jpg","0","","prediction_trial","0","","true","","0","true","true","false","false","false","false","[0,1]","110","001","1","","","","","","",""
"","","","","","image-keyboard-response","207","294349","0.0-182.0","6413599d52dc6500b2430165","665500ab8938657b03fbdba8","6657813fc55278d166c08893","398","stimuli/01100010.jpg"," ","","feedback_trial","0","","","","","","","","","","","","","","","","","","","","",""
"","","","","","image-keyboard-response","208","295190","0.0-183.0","6413599d52dc6500b2430165","665500ab8938657b03fbdba8","6657813fc55278d166c08893","840","stimuli/1001001.jpg","1","","prediction_trial","1","","true","","1","true","true","true","true","true","true","[1]","001","001","1","","","","","","",""
"","","","","","image-keyboard-response","209","295523","0.0-184.0","6413599d52dc6500b2430165","665500ab8938657b03fbdba8","6657813fc55278d166c08893","332","stimuli/10010011.jpg"," ","","feedback_trial","1","","","","","","","","","","","","","","","","","","","","",""
"","","","","","image-keyboard-response","210","296590","0.0-185.0","6413599d52dc6500b2430165","665500ab8938657b03fbdba8","6657813fc55278d166c08893","1066","stimuli/0000011.jpg","0","","prediction_trial","0","","true","","0","true","true","true","true","true","true","[0]","000","011","1","","","","","","",""
"","","","","","image-keyboard-response","211","297002","0.0-186.0","6413599d52dc6500b2430165","665500ab8938657b03fbdba8","6657813fc55278d166c08893","411","stimuli/00000110.jpg"," ","","feedback_trial","0","","","","","","","","","","","","","","","","","","","","",""
"","","","","","image-keyboard-response","212","298176","0.0-187.0","6413599d52dc6500b2430165","665500ab8938657b03fbdba8","6657813fc55278d166c08893","1172","stimuli/0111111.jpg","1","","prediction_trial","2","","false","","0","false","false","false","false","false","false","[2,0,1]","111","111","0","","","","","","",""
"","","","","","image-keyboard-response","213","298606","0.0-188.0","6413599d52dc6500b2430165","665500ab8938657b03fbdba8","6657813fc55278d166c08893","429","stimuli/01111112.jpg"," ","","feedback_trial","2","","","","","","","","","","","","","","","","","","","","",""
"","","","","","image-keyboard-response","214","300042","0.0-189.0","6413599d52dc6500b2430165","665500ab8938657b03fbdba8","6657813fc55278d166c08893","1434","stimuli/0001010.jpg","0","","prediction_trial","0","","true","","0","true","true","true","true","true","true","[0]","001","010","1","","","","","","",""
"","","","","","image-keyboard-response","215","300518","0.0-190.0","6413599d52dc6500b2430165","665500ab8938657b03fbdba8","6657813fc55278d166c08893","474","stimuli/00010100.jpg"," ","","feedback_trial","0","","","","","","","","","","","","","","","","","","","","",""
"","","","","","image-keyboard-response","216","301391","0.0-191.0","6413599d52dc6500b2430165","665500ab8938657b03fbdba8","6657813fc55278d166c08893","872","stimuli/2111010.jpg","2","","prediction_trial","1","","false","","2","true","true","false","false","false","false","[1,2,0]","111","010","0","","","","","","",""
"","","","","","image-keyboard-response","217","302725","0.0-192.0","6413599d52dc6500b2430165","665500ab8938657b03fbdba8","6657813fc55278d166c08893","1332","stimuli/21110101.jpg"," ","","feedback_trial","1","","","","","","","","","","","","","","","","","","","","",""
"","","","","","image-keyboard-response","218","304595","0.0-193.0","6413599d52dc6500b2430165","665500ab8938657b03fbdba8","6657813fc55278d166c08893","1869","stimuli/0110111.jpg","1","","prediction_trial","1","","true","","0","false","false","false","false","false","false","[0,1]","110","111","1","","","","","","",""
"","","","","","image-keyboard-response","219","304968","0.0-194.0","6413599d52dc6500b2430165","665500ab8938657b03fbdba8","6657813fc55278d166c08893","371","stimuli/01101111.jpg"," ","","feedback_trial","0","","","","","","","","","","","","","","","","","","","","",""
"","","","","","image-keyboard-response","220","305794","0.0-195.0","6413599d52dc6500b2430165","665500ab8938657b03fbdba8","6657813fc55278d166c08893","824","stimuli/0111001.jpg","0","","prediction_trial","2","","false","","0","true","true","false","false","false","false","[1,0,2]","111","001","0","","","","","","",""
"","","","","","image-keyboard-response","221","308817","0.0-196.0","6413599d52dc6500b2430165","665500ab8938657b03fbdba8","6657813fc55278d166c08893","3021","stimuli/01110012.jpg"," ","","feedback_trial","1","","","","","","","","","","","","","","","","","","","","",""
"","","","","","image-keyboard-response","222","312348","0.0-197.0","6413599d52dc6500b2430165","665500ab8938657b03fbdba8","6657813fc55278d166c08893","3528","stimuli/2000111.jpg","1","","prediction_trial","2","","false","","2","false","false","true","true","false","false","[2]","000","111","0","","","","","","",""
"","","","","","image-keyboard-response","223","312774","0.0-198.0","6413599d52dc6500b2430165","665500ab8938657b03fbdba8","6657813fc55278d166c08893","423","stimuli/20001112.jpg"," ","","feedback_trial","2","","","","","","","","","","","","","","","","","","","","",""
"","","","","","image-keyboard-response","224","313892","0.0-199.0","6413599d52dc6500b2430165","665500ab8938657b03fbdba8","6657813fc55278d166c08893","1117","stimuli/0100001.jpg","0","","prediction_trial","0","","true","","0","true","true","false","true","false","true","[0]","100","001","1","","","","","","",""
"","","","","","image-keyboard-response","225","314365","0.0-200.0","6413599d52dc6500b2430165","665500ab8938657b03fbdba8","6657813fc55278d166c08893","472","stimuli/01000010.jpg"," ","","feedback_trial","0","","","","","","","","","","","","","","","","","","","","",""
"","","","","","image-keyboard-response","226","315057","0.0-201.0","6413599d52dc6500b2430165","665500ab8938657b03fbdba8","6657813fc55278d166c08893","690","stimuli/1100010.jpg","1","","prediction_trial","1","","true","","1","false","true","true","true","false","true","[1]","100","010","1","","","","","","",""
"","","","","","image-keyboard-response","227","315447","0.0-202.0","6413599d52dc6500b2430165","665500ab8938657b03fbdba8","6657813fc55278d166c08893","389","stimuli/11000101.jpg"," ","","feedback_trial","1","","","","","","","","","","","","","","","","","","","","",""
"","","","","","image-keyboard-response","228","316569","0.0-203.0","6413599d52dc6500b2430165","665500ab8938657b03fbdba8","6657813fc55278d166c08893","1121","stimuli/2111011.jpg","1","","prediction_trial","1","","true","","2","false","false","false","false","false","false","[2,1,0]","111","011","1","","","","","","",""
"","","","","","image-keyboard-response","229","317019","0.0-204.0","6413599d52dc6500b2430165","665500ab8938657b03fbdba8","6657813fc55278d166c08893","448","stimuli/21110111.jpg"," ","","feedback_trial","2","","","","","","","","","","","","","","","","","","","","",""
"","","","","","image-keyboard-response","230","318133","0.0-205.0","6413599d52dc6500b2430165","665500ab8938657b03fbdba8","6657813fc55278d166c08893","1113","stimuli/1111010.jpg","1","","prediction_trial","2","","false","","1","false","true","false","false","false","false","[0,2,1]","111","010","0","","","","","","",""
"","","","","","image-keyboard-response","231","319247","0.0-206.0","6413599d52dc6500b2430165","665500ab8938657b03fbdba8","6657813fc55278d166c08893","1112","stimuli/11110102.jpg"," ","","feedback_trial","0","","","","","","","","","","","","","","","","","","","","",""
"","","","","","image-keyboard-response","232","321264","0.0-207.0","6413599d52dc6500b2430165","665500ab8938657b03fbdba8","6657813fc55278d166c08893","2016","stimuli/2010000.jpg","2","","prediction_trial","2","","true","","2","true","true","true","true","true","true","[2]","010","000","1","","","","","","",""
"","","","","","image-keyboard-response","233","321718","0.0-208.0","6413599d52dc6500b2430165","665500ab8938657b03fbdba8","6657813fc55278d166c08893","452","stimuli/20100002.jpg"," ","","feedback_trial","2","","","","","","","","","","","","","","","","","","","","",""
"","","","","","image-keyboard-response","234","322632","0.0-209.0","6413599d52dc6500b2430165","665500ab8938657b03fbdba8","6657813fc55278d166c08893","912","stimuli/1110000.jpg","1","","prediction_trial","1","","true","","1","true","true","false","false","false","false","[1,0]","110","000","1","","","","","","",""
"","","","","","image-keyboard-response","235","323464","0.0-210.0","6413599d52dc6500b2430165","665500ab8938657b03fbdba8","6657813fc55278d166c08893","830","stimuli/11100001.jpg"," ","","feedback_trial","1","","","","","","","","","","","","","","","","","","","","",""
"","","","","","image-keyboard-response","236","324310","0.0-211.0","6413599d52dc6500b2430165","665500ab8938657b03fbdba8","6657813fc55278d166c08893","844","stimuli/1100110.jpg","1","","prediction_trial","1","","true","","1","false","false","true","true","false","false","[1]","100","110","1","","","","","","",""
"","","","","","image-keyboard-response","237","325523","0.0-212.0","6413599d52dc6500b2430165","665500ab8938657b03fbdba8","6657813fc55278d166c08893","1211","stimuli/11001101.jpg"," ","","feedback_trial","1","","","","","","","","","","","","","","","","","","","","",""
"","","","","","image-keyboard-response","238","326597","0.0-213.0","6413599d52dc6500b2430165","665500ab8938657b03fbdba8","6657813fc55278d166c08893","1072","stimuli/2001001.jpg","2","","prediction_trial","2","","true","","2","false","true","false","true","false","true","[2]","001","001","1","","","","","","",""
"","","","","","image-keyboard-response","239","327652","0.0-214.0","6413599d52dc6500b2430165","665500ab8938657b03fbdba8","6657813fc55278d166c08893","1053","stimuli/20010012.jpg"," ","","feedback_trial","2","","","","","","","","","","","","","","","","","","","","",""
"","","","","","image-keyboard-response","240","328358","0.0-215.0","6413599d52dc6500b2430165","665500ab8938657b03fbdba8","6657813fc55278d166c08893","705","stimuli/1011000.jpg","1","","prediction_trial","2","","false","","1","true","true","false","false","false","false","[1,2]","011","000","0","","","","","","",""
"","","","","","image-keyboard-response","241","329122","0.0-216.0","6413599d52dc6500b2430165","665500ab8938657b03fbdba8","6657813fc55278d166c08893","761","stimuli/10110002.jpg"," ","","feedback_trial","1","","","","","","","","","","","","","","","","","","","","",""
"","","","","","image-keyboard-response","242","330680","0.0-217.0","6413599d52dc6500b2430165","665500ab8938657b03fbdba8","6657813fc55278d166c08893","1557","stimuli/2000100.jpg","2","","prediction_trial","2","","true","","2","true","true","true","true","true","true","[2]","000","100","1","","","","","","",""
"","","","","","image-keyboard-response","243","331243","0.0-218.0","6413599d52dc6500b2430165","665500ab8938657b03fbdba8","6657813fc55278d166c08893","561","stimuli/20001002.jpg"," ","","feedback_trial","2","","","","","","","","","","","","","","","","","","","","",""
"","","","","","image-keyboard-response","244","332252","0.0-219.0","6413599d52dc6500b2430165","665500ab8938657b03fbdba8","6657813fc55278d166c08893","1006","stimuli/0010011.jpg","0","","prediction_trial","0","","true","","0","true","true","true","true","true","true","[0]","010","011","1","","","","","","",""
"","","","","","image-keyboard-response","245","332819","0.0-220.0","6413599d52dc6500b2430165","665500ab8938657b03fbdba8","6657813fc55278d166c08893","566","stimuli/00100110.jpg"," ","","feedback_trial","0","","","","","","","","","","","","","","","","","","","","",""
"","","","","","image-keyboard-response","246","334390","0.0-221.0","6413599d52dc6500b2430165","665500ab8938657b03fbdba8","6657813fc55278d166c08893","1569","stimuli/1101111.jpg","1","","prediction_trial","1","","true","","1","false","false","true","true","false","false","[1]","101","111","1","","","","","","",""
"","","","","","image-keyboard-response","247","334880","0.0-222.0","6413599d52dc6500b2430165","665500ab8938657b03fbdba8","6657813fc55278d166c08893","488","stimuli/11011111.jpg"," ","","feedback_trial","1","","","","","","","","","","","","","","","","","","","","",""
"","","","","","image-keyboard-response","248","336119","0.0-223.0","6413599d52dc6500b2430165","665500ab8938657b03fbdba8","6657813fc55278d166c08893","1237","stimuli/0010001.jpg","0","","prediction_trial","0","","true","","0","true","true","true","true","true","true","[0]","010","001","1","","","","","","",""
"","","","","","image-keyboard-response","249","336784","0.0-224.0","6413599d52dc6500b2430165","665500ab8938657b03fbdba8","6657813fc55278d166c08893","663","stimuli/00100010.jpg"," ","","feedback_trial","0","","","","","","","","","","","","","","","","","","","","",""
"","","","","","image-keyboard-response","250","337582","0.0-225.0","6413599d52dc6500b2430165","665500ab8938657b03fbdba8","6657813fc55278d166c08893","797","stimuli/0011110.jpg","2","","prediction_trial","0","","false","","0","false","false","true","true","false","false","[0]","011","110","0","","","","","","",""
"","","","","","image-keyboard-response","251","339038","0.0-226.0","6413599d52dc6500b2430165","665500ab8938657b03fbdba8","6657813fc55278d166c08893","1454","stimuli/00111100.jpg"," ","","feedback_trial","0","","","","","","","","","","","","","","","","","","","","",""
"","","","","","image-keyboard-response","252","340920","0.0-227.0","6413599d52dc6500b2430165","665500ab8938657b03fbdba8","6657813fc55278d166c08893","1880","stimuli/1011110.jpg","1","","prediction_trial","2","","false","","1","false","false","false","false","false","false","[1,2]","011","110","0","","","","","","",""
"","","","","","image-keyboard-response","253","341554","0.0-228.0","6413599d52dc6500b2430165","665500ab8938657b03fbdba8","6657813fc55278d166c08893","633","stimuli/10111102.jpg"," ","","feedback_trial","1","","","","","","","","","","","","","","","","","","","","",""
"","","","","","image-keyboard-response","254","342207","0.0-229.0","6413599d52dc6500b2430165","665500ab8938657b03fbdba8","6657813fc55278d166c08893","651","stimuli/1110100.jpg","1","","prediction_trial","1","","true","","1","true","true","false","false","false","false","[1,0]","110","100","1","","","","","","",""
"","","","","","image-keyboard-response","255","342663","0.0-230.0","6413599d52dc6500b2430165","665500ab8938657b03fbdba8","6657813fc55278d166c08893","455","stimuli/11101001.jpg"," ","","feedback_trial","1","","","","","","","","","","","","","","","","","","","","",""
"","","","","","image-keyboard-response","256","343480","0.0-231.0","6413599d52dc6500b2430165","665500ab8938657b03fbdba8","6657813fc55278d166c08893","815","stimuli/2110001.jpg","1","","prediction_trial","2","","false","","2","false","true","true","true","false","true","[2]","110","001","0","","","","","","",""
"","","","","","image-keyboard-response","257","344101","0.0-232.0","6413599d52dc6500b2430165","665500ab8938657b03fbdba8","6657813fc55278d166c08893","619","stimuli/21100012.jpg"," ","","feedback_trial","2","","","","","","","","","","","","","","","","","","","","",""
"","","","","","image-keyboard-response","258","344792","0.0-233.0","6413599d52dc6500b2430165","665500ab8938657b03fbdba8","6657813fc55278d166c08893","690","stimuli/2100100.jpg","2","","prediction_trial","2","","true","","2","true","true","true","true","true","true","[2]","100","100","1","","","","","","",""
"","","","","","image-keyboard-response","259","345270","0.0-234.0","6413599d52dc6500b2430165","665500ab8938657b03fbdba8","6657813fc55278d166c08893","476","stimuli/21001002.jpg"," ","","feedback_trial","2","","","","","","","","","","","","","","","","","","","","",""
"","","","","","image-keyboard-response","260","345995","0.0-235.0","6413599d52dc6500b2430165","665500ab8938657b03fbdba8","6657813fc55278d166c08893","724","stimuli/2011111.jpg","1","","prediction_trial","1","","true","","2","false","false","false","false","false","false","[1,2]","011","111","1","","","","","","",""
"","","","","","image-keyboard-response","261","346494","0.0-236.0","6413599d52dc6500b2430165","665500ab8938657b03fbdba8","6657813fc55278d166c08893","497","stimuli/20111111.jpg"," ","","feedback_trial","1","","","","","","","","","","","","","","","","","","","","",""
"","","","","","image-keyboard-response","262","347051","0.0-237.0","6413599d52dc6500b2430165","665500ab8938657b03fbdba8","6657813fc55278d166c08893","555","stimuli/1011011.jpg","1","","prediction_trial","2","","false","","1","false","false","false","false","false","false","[2,1]","011","011","0","","","","","","",""
"","","","","","image-keyboard-response","263","347658","0.0-238.0","6413599d52dc6500b2430165","665500ab8938657b03fbdba8","6657813fc55278d166c08893","605","stimuli/10110112.jpg"," ","","feedback_trial","2","","","","","","","","","","","","","","","","","","","","",""
"","","","","","image-keyboard-response","264","348255","0.0-239.0","6413599d52dc6500b2430165","665500ab8938657b03fbdba8","6657813fc55278d166c08893","595","stimuli/1001000.jpg","1","","prediction_trial","1","","true","","1","true","true","true","true","true","true","[1]","001","000","1","","","","","","",""
"","","","","","image-keyboard-response","265","348721","0.0-240.0","6413599d52dc6500b2430165","665500ab8938657b03fbdba8","6657813fc55278d166c08893","464","stimuli/10010001.jpg"," ","","feedback_trial","1","","","","","","","","","","","","","","","","","","","","",""
"","","","","","image-keyboard-response","266","349351","0.0-241.0","6413599d52dc6500b2430165","665500ab8938657b03fbdba8","6657813fc55278d166c08893","629","stimuli/1111101.jpg","1","","prediction_trial","1","","true","","1","true","true","false","false","false","false","[0,1,2]","111","101","1","","","","","","",""
"","","","","","image-keyboard-response","267","349694","0.0-242.0","6413599d52dc6500b2430165","665500ab8938657b03fbdba8","6657813fc55278d166c08893","341","stimuli/11111011.jpg"," ","","feedback_trial","0","","","","","","","","","","","","","","","","","","","","",""
"","","","","","image-keyboard-response","268","350713","0.0-243.0","6413599d52dc6500b2430165","665500ab8938657b03fbdba8","6657813fc55278d166c08893","1016","stimuli/2101001.jpg","2","","prediction_trial","2","","true","","2","false","true","false","false","false","false","[0,2]","101","001","1","","","","","","",""
"","","","","","image-keyboard-response","269","351187","0.0-244.0","6413599d52dc6500b2430165","665500ab8938657b03fbdba8","6657813fc55278d166c08893","473","stimuli/21010012.jpg"," ","","feedback_trial","0","","","","","","","","","","","","","","","","","","","","",""
"","","","","","image-keyboard-response","270","351853","0.0-245.0","6413599d52dc6500b2430165","665500ab8938657b03fbdba8","6657813fc55278d166c08893","663","stimuli/1111100.jpg","1","","prediction_trial","1","","true","","1","true","true","false","false","false","false","[2,1,0]","111","100","1","","","","","","",""
"","","","","","image-keyboard-response","271","352324","0.0-246.0","6413599d52dc6500b2430165","665500ab8938657b03fbdba8","6657813fc55278d166c08893","469","stimuli/11111001.jpg"," ","","feedback_trial","2","","","","","","","","","","","","","","","","","","","","",""
"","","","","","image-keyboard-response","272","353333","0.0-247.0","6413599d52dc6500b2430165","665500ab8938657b03fbdba8","6657813fc55278d166c08893","1008","stimuli/0100000.jpg","0","","prediction_trial","0","","true","","0","true","true","false","true","false","true","[0]","100","000","1","","","","","","",""
"","","","","","image-keyboard-response","273","353769","0.0-248.0","6413599d52dc6500b2430165","665500ab8938657b03fbdba8","6657813fc55278d166c08893","434","stimuli/01000000.jpg"," ","","feedback_trial","0","","","","","","","","","","","","","","","","","","","","",""
"","","","","","image-keyboard-response","274","354452","0.0-249.0","6413599d52dc6500b2430165","665500ab8938657b03fbdba8","6657813fc55278d166c08893","681","stimuli/2100001.jpg","2","","prediction_trial","2","","true","","2","false","true","true","true","false","true","[2]","100","001","1","","","","","","",""
"","","","","","image-keyboard-response","275","354999","0.0-250.0","6413599d52dc6500b2430165","665500ab8938657b03fbdba8","6657813fc55278d166c08893","545","stimuli/21000012.jpg"," ","","feedback_trial","2","","","","","","","","","","","","","","","","","","","","",""
"","","","","","image-keyboard-response","276","355554","0.0-251.0","6413599d52dc6500b2430165","665500ab8938657b03fbdba8","6657813fc55278d166c08893","552","stimuli/0011011.jpg","1","","prediction_trial","0","","false","","0","true","true","true","true","true","true","[0]","011","011","0","","","","","","",""
"","","","","","image-keyboard-response","277","356243","0.0-252.0","6413599d52dc6500b2430165","665500ab8938657b03fbdba8","6657813fc55278d166c08893","688","stimuli/00110110.jpg"," ","","feedback_trial","0","","","","","","","","","","","","","","","","","","","","",""
"","","","","","image-keyboard-response","278","357456","0.0-253.0","6413599d52dc6500b2430165","665500ab8938657b03fbdba8","6657813fc55278d166c08893","1212","stimuli/2001010.jpg","2","","prediction_trial","2","","true","","2","true","true","false","true","false","true","[2]","001","010","1","","","","","","",""
"","","","","","image-keyboard-response","279","358501","0.0-254.0","6413599d52dc6500b2430165","665500ab8938657b03fbdba8","6657813fc55278d166c08893","1043","stimuli/20010102.jpg"," ","","feedback_trial","2","","","","","","","","","","","","","","","","","","","","",""
"","","","","","image-keyboard-response","280","359191","0.0-255.0","6413599d52dc6500b2430165","665500ab8938657b03fbdba8","6657813fc55278d166c08893","687","stimuli/1010010.jpg","1","","prediction_trial","1","","true","","1","false","true","false","true","false","true","[1]","010","010","1","","","","","","",""
"","","","","","image-keyboard-response","281","359744","0.0-256.0","6413599d52dc6500b2430165","665500ab8938657b03fbdba8","6657813fc55278d166c08893","551","stimuli/10100101.jpg"," ","","feedback_trial","1","","","","","","","","","","","","","","","","","","","","",""
"","","","","","image-keyboard-response","282","360490","0.0-257.0","6413599d52dc6500b2430165","665500ab8938657b03fbdba8","6657813fc55278d166c08893","745","stimuli/0101111.jpg","1","","prediction_trial","0","","false","","0","false","false","false","false","false","false","[0,2]","101","111","0","","","","","","",""
"","","","","","image-keyboard-response","283","361020","0.0-258.0","6413599d52dc6500b2430165","665500ab8938657b03fbdba8","6657813fc55278d166c08893","528","stimuli/01011110.jpg"," ","","feedback_trial","0","","","","","","","","","","","","","","","","","","","","",""
"","","","","","image-keyboard-response","284","361527","0.0-259.0","6413599d52dc6500b2430165","665500ab8938657b03fbdba8","6657813fc55278d166c08893","488","stimuli/2100011.jpg","1","","prediction_trial","2","","false","","2","false","false","true","true","false","false","[2]","100","011","0","","","","","","",""
"","","","","","image-keyboard-response","285","362031","0.0-260.0","6413599d52dc6500b2430165","665500ab8938657b03fbdba8","6657813fc55278d166c08893","502","stimuli/21000112.jpg"," ","","feedback_trial","2","","","","","","","","","","","","","","","","","","","","",""
"","","","","","image-keyboard-response","286","362570","0.0-261.0","6413599d52dc6500b2430165","665500ab8938657b03fbdba8","6657813fc55278d166c08893","536","stimuli/1010100.jpg","1","","prediction_trial","1","","true","","1","true","true","false","true","false","true","[1]","010","100","1","","","","","","",""
"","","","","","image-keyboard-response","287","363012","0.0-262.0","6413599d52dc6500b2430165","665500ab8938657b03fbdba8","6657813fc55278d166c08893","441","stimuli/10101001.jpg"," ","","feedback_trial","1","","","","","","","","","","","","","","","","","","","","",""
"","","","","","image-keyboard-response","288","363902","0.0-263.0","6413599d52dc6500b2430165","665500ab8938657b03fbdba8","6657813fc55278d166c08893","889","stimuli/2100000.jpg","2","","prediction_trial","2","","true","","2","true","true","true","true","true","true","[2]","100","000","1","","","","","","",""
"","","","","","image-keyboard-response","289","364303","0.0-264.0","6413599d52dc6500b2430165","665500ab8938657b03fbdba8","6657813fc55278d166c08893","400","stimuli/21000002.jpg"," ","","feedback_trial","2","","","","","","","","","","","","","","","","","","","","",""
"","","","","","image-keyboard-response","290","365161","0.0-265.0","6413599d52dc6500b2430165","665500ab8938657b03fbdba8","6657813fc55278d166c08893","856","stimuli/0100100.jpg","1","","prediction_trial","0","","false","","0","false","true","false","true","false","true","[0]","100","100","0","","","","","","",""
"","","","","","image-keyboard-response","291","365685","0.0-266.0","6413599d52dc6500b2430165","665500ab8938657b03fbdba8","6657813fc55278d166c08893","522","stimuli/01001000.jpg"," ","","feedback_trial","0","","","","","","","","","","","","","","","","","","","","",""
"","","","","","image-keyboard-response","292","366124","0.0-267.0","6413599d52dc6500b2430165","665500ab8938657b03fbdba8","6657813fc55278d166c08893","438","stimuli/2100010.jpg","1","","prediction_trial","2","","false","","2","true","true","true","true","true","true","[2]","100","010","0","","","","","","",""
"","","","","","image-keyboard-response","293","366711","0.0-268.0","6413599d52dc6500b2430165","665500ab8938657b03fbdba8","6657813fc55278d166c08893","586","stimuli/21000102.jpg"," ","","feedback_trial","2","","","","","","","","","","","","","","","","","","","","",""
"","","","","","image-keyboard-response","294","367639","0.0-269.0","6413599d52dc6500b2430165","665500ab8938657b03fbdba8","6657813fc55278d166c08893","926","stimuli/1001111.jpg","1","","prediction_trial","1","","true","","1","false","false","true","true","false","false","[1]","001","111","1","","","","","","",""
"","","","","","image-keyboard-response","295","368077","0.0-270.0","6413599d52dc6500b2430165","665500ab8938657b03fbdba8","6657813fc55278d166c08893","437","stimuli/10011111.jpg"," ","","feedback_trial","1","","","","","","","","","","","","","","","","","","","","",""
"","","","","","image-keyboard-response","296","369169","0.0-271.0","6413599d52dc6500b2430165","665500ab8938657b03fbdba8","6657813fc55278d166c08893","1089","stimuli/1001110.jpg","2","","prediction_trial","1","","false","","1","false","false","true","true","false","false","[1]","001","110","0","","","","","","",""
"","","","","","image-keyboard-response","297","369651","0.0-272.0","6413599d52dc6500b2430165","665500ab8938657b03fbdba8","6657813fc55278d166c08893","480","stimuli/10011101.jpg"," ","","feedback_trial","1","","","","","","","","","","","","","","","","","","","","",""
"","","","","","image-keyboard-response","298","370320","0.0-273.0","6413599d52dc6500b2430165","665500ab8938657b03fbdba8","6657813fc55278d166c08893","668","stimuli/2000000.jpg","2","","prediction_trial","2","","true","","2","true","true","true","true","true","true","[2]","000","000","1","","","","","","",""
"","","","","","image-keyboard-response","299","370706","0.0-274.0","6413599d52dc6500b2430165","665500ab8938657b03fbdba8","6657813fc55278d166c08893","385","stimuli/20000002.jpg"," ","","feedback_trial","2","","","","","","","","","","","","","","","","","","","","",""
"","","","","","image-keyboard-response","300","371300","0.0-275.0","6413599d52dc6500b2430165","665500ab8938657b03fbdba8","6657813fc55278d166c08893","593","stimuli/1011100.jpg","1","","prediction_trial","1","","true","","1","true","true","false","false","false","false","[1,2]","011","100","1","","","","","","",""
"","","","","","image-keyboard-response","301","371705","0.0-276.0","6413599d52dc6500b2430165","665500ab8938657b03fbdba8","6657813fc55278d166c08893","404","stimuli/10111001.jpg"," ","","feedback_trial","1","","","","","","","","","","","","","","","","","","","","",""
"","","","","","image-keyboard-response","302","372596","0.0-277.0","6413599d52dc6500b2430165","665500ab8938657b03fbdba8","6657813fc55278d166c08893","890","stimuli/2001011.jpg","1","","prediction_trial","2","","false","","2","false","false","false","true","false","false","[2]","001","011","0","","","","","","",""
"","","","","","image-keyboard-response","303","373703","0.0-278.0","6413599d52dc6500b2430165","665500ab8938657b03fbdba8","6657813fc55278d166c08893","1106","stimuli/20010112.jpg"," ","","feedback_trial","2","","","","","","","","","","","","","","","","","","","","",""
"","","","","","image-keyboard-response","304","374238","0.0-279.0","6413599d52dc6500b2430165","665500ab8938657b03fbdba8","6657813fc55278d166c08893","533","stimuli/1111000.jpg","1","","prediction_trial","2","","false","","1","true","true","false","false","false","false","[2,1,0]","111","000","0","","","","","","",""
"","","","","","image-keyboard-response","305","375059","0.0-280.0","6413599d52dc6500b2430165","665500ab8938657b03fbdba8","6657813fc55278d166c08893","819","stimuli/11110002.jpg"," ","","feedback_trial","2","","","","","","","","","","","","","","","","","","","","",""
"","","","","","image-keyboard-response","306","375422","0.0-281.0","6413599d52dc6500b2430165","665500ab8938657b03fbdba8","6657813fc55278d166c08893","362","stimuli/2001101.jpg","1","","prediction_trial","2","","false","","2","false","false","false","true","false","false","[2]","001","101","0","","","","","","",""
"","","","","","image-keyboard-response","307","375953","0.0-282.0","6413599d52dc6500b2430165","665500ab8938657b03fbdba8","6657813fc55278d166c08893","530","stimuli/20011012.jpg"," ","","feedback_trial","2","","","","","","","","","","","","","","","","","","","","",""
"","","","","","image-keyboard-response","308","376386","0.0-283.0","6413599d52dc6500b2430165","665500ab8938657b03fbdba8","6657813fc55278d166c08893","431","stimuli/1100101.jpg","1","","prediction_trial","1","","true","","1","true","true","true","true","true","true","[1]","100","101","1","","","","","","",""
"","","","","","image-keyboard-response","309","376829","0.0-284.0","6413599d52dc6500b2430165","665500ab8938657b03fbdba8","6657813fc55278d166c08893","442","stimuli/11001011.jpg"," ","","feedback_trial","1","","","","","","","","","","","","","","","","","","","","",""
"","","","","","image-keyboard-response","310","377342","0.0-285.0","6413599d52dc6500b2430165","665500ab8938657b03fbdba8","6657813fc55278d166c08893","511","stimuli/1001100.jpg","1","","prediction_trial","1","","true","","1","true","true","true","true","true","true","[1]","001","100","1","","","","","","",""
"","","","","","image-keyboard-response","311","377765","0.0-286.0","6413599d52dc6500b2430165","665500ab8938657b03fbdba8","6657813fc55278d166c08893","421","stimuli/10011001.jpg"," ","","feedback_trial","1","","","","","","","","","","","","","","","","","","","","",""
"","","","","","image-keyboard-response","312","378756","0.0-287.0","6413599d52dc6500b2430165","665500ab8938657b03fbdba8","6657813fc55278d166c08893","990","stimuli/2100101.jpg","2","","prediction_trial","2","","true","","2","false","false","true","true","false","false","[2]","100","101","1","","","","","","",""
"","","","","","image-keyboard-response","313","379159","0.0-288.0","6413599d52dc6500b2430165","665500ab8938657b03fbdba8","6657813fc55278d166c08893","400","stimuli/21001012.jpg"," ","","feedback_trial","2","","","","","","","","","","","","","","","","","","","","",""
"","","","","","image-keyboard-response","314","379555","0.0-289.0","6413599d52dc6500b2430165","665500ab8938657b03fbdba8","6657813fc55278d166c08893","394","stimuli/1010101.jpg","1","","prediction_trial","1","","true","","1","true","true","false","true","false","true","[1]","010","101","1","","","","","","",""
"","","","","","image-keyboard-response","315","379989","0.0-290.0","6413599d52dc6500b2430165","665500ab8938657b03fbdba8","6657813fc55278d166c08893","432","stimuli/10101011.jpg"," ","","feedback_trial","1","","","","","","","","","","","","","","","","","","","","",""
"","","","","","image-keyboard-response","316","380504","0.0-291.0","6413599d52dc6500b2430165","665500ab8938657b03fbdba8","6657813fc55278d166c08893","513","stimuli/1101000.jpg","1","","prediction_trial","1","","true","","1","true","true","true","true","true","true","[1]","101","000","1","","","","","","",""
"","","","","","image-keyboard-response","317","380867","0.0-292.0","6413599d52dc6500b2430165","665500ab8938657b03fbdba8","6657813fc55278d166c08893","361","stimuli/11010001.jpg"," ","","feedback_trial","1","","","","","","","","","","","","","","","","","","","","",""
"","","","","","survey-html-form","318","397148","0.0-293.0","6413599d52dc6500b2430165","665500ab8938657b03fbdba8","6657813fc55278d166c08893","16277","","{""feedback"":""just random"",""age"":""45"",""gender"":""Female"",""other_gender"":"""",""race"":""White"",""other_race"":"""",""ethnicity"":""Non-Hispanic""}","","exit_survey","","","","","","","","","","","","","","","","just random","45","Non-Hispanic","Female","White","0.6875","0.6875"
