"success","timeout","failed_images","failed_audio","failed_video","trial_type","trial_index","time_elapsed","internal_node_id","prolific_id","prolific_study_id","prolific_session_id","rt","stimulus","response","view_history","trial","character_choice","stimulus_dict","accuracy","correct_response","ball_pos","ego_ball_visible","ego_can_infer","alter_ball_visible","alter_can_infer","collective_ball_visible","collective_can_infer","search_locations","alter_occluders","ego_occluders","accuracy_bool","feedback","age","ethnicity","gender","race","overall_accuracy","bonus"
"true","false","[]","[]","[]","preload","0","7120","0.0-0.0","60cb3c4b9454f7a196355088","665500ab8938657b03fbdba8","665793595ab239deb9b9900e","","","","","","","","","","","","","","","","","","","","","","","","","","",""
"true","","","","","fullscreen","1","11996","0.0-1.0","60cb3c4b9454f7a196355088","665500ab8938657b03fbdba8","665793595ab239deb9b9900e","","","","","","","","","","","","","","","","","","","","","","","","","","",""
"","","","","","html-button-response","2","29822","0.0-2.0","60cb3c4b9454f7a196355088","665500ab8938657b03fbdba8","665793595ab239deb9b9900e","17821","<p><b>Consent Form</b></p> <div style=""text-align:left;background-color:lightgrey; padding:20px; max-width:900px;""><p>Please consider this information carefully before deciding whether to participate in this research.</p> <p>The purpose of this research is to examine which factors influence social judgment and decision-making. You will be asked to make judgements about individuals and actions in social scenarios. We are simply interested in your judgement. The study will take less than 1 hour to complete, and you will receive less than $20 on Prolific. Your compensation and time commitment are specified in the study description. There are no anticipated risks associated with participating in this study. The effects of participating should be comparable to those you would ordinarily experience from viewing a computer monitor and using a mouse or keyboard for a similar amount of time. At the end of the study, we will provide an explanation of the questions that motivate this line of research and will describe the potential implications. </p><p> Your participation in this study is completely voluntary and you may refuse to participate or you may choose to withdraw at any time without penalty or loss of benefits to you which are otherwise entitled. Your participation in this study will remain confidential. No personally identifiable information will be associated with your data. Also, all analyses of the data will be averaged across all the participants, so your individual responses will never be specifically analyzed. </p><p> If you have questions or concerns about your participation or payment, or want to request a summary of research findings, please contact Dr. Jonathan Phillips at Jonathan.S.Phillips@dartmouth.edu. </p><p> Please save a copy of this form for your records. </p><p><b>Agreement: </b>The nature and purpose of this research have been sufficiently explained and I agree to participate in this study. I understand that I am free to withdraw at any time without incurring any penalty. Please consent by clicking the button below to continue. Otherwise, please exit the study at any time. </p>","0","","","","","","","","","","","","","","","","","","","","","","","",""
"","","","","","instructions","3","117599","0.0-3.0-0.0","60cb3c4b9454f7a196355088","665500ab8938657b03fbdba8","665793595ab239deb9b9900e","87776","","","[{""page_index"":0,""viewing_time"":2052},{""page_index"":1,""viewing_time"":3744},{""page_index"":2,""viewing_time"":3695},{""page_index"":3,""viewing_time"":8767},{""page_index"":4,""viewing_time"":5283},{""page_index"":5,""viewing_time"":4588},{""page_index"":6,""viewing_time"":5274},{""page_index"":7,""viewing_time"":5222},{""page_index"":8,""viewing_time"":5937},{""page_index"":9,""viewing_time"":3872},{""page_index"":10,""viewing_time"":16521},{""page_index"":11,""viewing_time"":11729},{""page_index"":10,""viewing_time"":848},{""page_index"":11,""viewing_time"":936},{""page_index"":12,""viewing_time"":7639},{""page_index"":13,""viewing_time"":1668}]","intro","","","","","","","","","","","","","","","","","","","","","",""
"","","","","","image-keyboard-response","4","121812","0.0-3.0-1.0","60cb3c4b9454f7a196355088","665500ab8938657b03fbdba8","665793595ab239deb9b9900e","4120","stimuli/0111010.jpg","0","","prediction_practice","2","{""filepath"":""stimuli/0111010.jpg"",""ball_pos"":0,""ego_ball_visible"":true,""ego_can_infer"":true,""alter_ball_visible"":false,""alter_can_infer"":false,""collective_ball_visible"":false,""collective_can_infer"":false,""search_locations"":[1,2,0],""alter_occluders"":""111"",""ego_occluders"":""010""}","false","","","","","","","","","","","","","","","","","","",""
"","","","","","image-keyboard-response","5","127777","0.0-3.0-2.0","60cb3c4b9454f7a196355088","665500ab8938657b03fbdba8","665793595ab239deb9b9900e","5962","stimuli/01110102.jpg"," ","","practrice_feedback","1","","","","","","","","","","","","","","","","","","","","",""
"","","","","","image-keyboard-response","6","131161","0.0-3.0-3.0","60cb3c4b9454f7a196355088","665500ab8938657b03fbdba8","665793595ab239deb9b9900e","3380","stimuli/0101101.jpg","1","","prediction_practice","2","{""filepath"":""stimuli/0101101.jpg"",""ball_pos"":0,""ego_ball_visible"":false,""ego_can_infer"":false,""alter_ball_visible"":false,""alter_can_infer"":false,""collective_ball_visible"":false,""collective_can_infer"":false,""search_locations"":[2,0],""alter_occluders"":""101"",""ego_occluders"":""101""}","false","","","","","","","","","","","","","","","","","","",""
"","","","","","image-keyboard-response","7","136652","0.0-3.0-4.0","60cb3c4b9454f7a196355088","665500ab8938657b03fbdba8","665793595ab239deb9b9900e","5487","stimuli/01011012.jpg"," ","","practrice_feedback","2","","","","","","","","","","","","","","","","","","","","",""
"","","","","","image-keyboard-response","8","140885","0.0-3.0-5.0","60cb3c4b9454f7a196355088","665500ab8938657b03fbdba8","665793595ab239deb9b9900e","4229","stimuli/1010100.jpg","0","","prediction_practice","1","{""filepath"":""stimuli/1010100.jpg"",""ball_pos"":1,""ego_ball_visible"":true,""ego_can_infer"":true,""alter_ball_visible"":false,""alter_can_infer"":true,""collective_ball_visible"":false,""collective_can_infer"":true,""search_locations"":[1],""alter_occluders"":""010"",""ego_occluders"":""100""}","false","","","","","","","","","","","","","","","","","","",""
"","","","","","image-keyboard-response","9","145005","0.0-3.0-6.0","60cb3c4b9454f7a196355088","665500ab8938657b03fbdba8","665793595ab239deb9b9900e","4116","stimuli/10101001.jpg"," ","","practrice_feedback","1","","","","","","","","","","","","","","","","","","","","",""
"","","","","","image-keyboard-response","10","147000","0.0-3.0-7.0","60cb3c4b9454f7a196355088","665500ab8938657b03fbdba8","665793595ab239deb9b9900e","1991","stimuli/0100100.jpg","0","","prediction_practice","0","{""filepath"":""stimuli/0100100.jpg"",""ball_pos"":0,""ego_ball_visible"":false,""ego_can_infer"":true,""alter_ball_visible"":false,""alter_can_infer"":true,""collective_ball_visible"":false,""collective_can_infer"":true,""search_locations"":[0],""alter_occluders"":""100"",""ego_occluders"":""100""}","true","","","","","","","","","","","","","","","","","","",""
"","","","","","image-keyboard-response","11","148549","0.0-3.0-8.0","60cb3c4b9454f7a196355088","665500ab8938657b03fbdba8","665793595ab239deb9b9900e","1545","stimuli/01001000.jpg"," ","","practrice_feedback","0","","","","","","","","","","","","","","","","","","","","",""
"","","","","","image-keyboard-response","12","150005","0.0-3.0-9.0","60cb3c4b9454f7a196355088","665500ab8938657b03fbdba8","665793595ab239deb9b9900e","1452","stimuli/1000101.jpg","1","","prediction_practice","1","{""filepath"":""stimuli/1000101.jpg"",""ball_pos"":1,""ego_ball_visible"":true,""ego_can_infer"":true,""alter_ball_visible"":true,""alter_can_infer"":true,""collective_ball_visible"":true,""collective_can_infer"":true,""search_locations"":[1],""alter_occluders"":""000"",""ego_occluders"":""101""}","true","","","","","","","","","","","","","","","","","","",""
"","","","","","image-keyboard-response","13","152486","0.0-3.0-10.0","60cb3c4b9454f7a196355088","665500ab8938657b03fbdba8","665793595ab239deb9b9900e","2472","stimuli/10001011.jpg"," ","","practrice_feedback","1","","","","","","","","","","","","","","","","","","","","",""
"","","","","","image-keyboard-response","14","154473","0.0-3.0-11.0","60cb3c4b9454f7a196355088","665500ab8938657b03fbdba8","665793595ab239deb9b9900e","1981","stimuli/2000111.jpg","2","","prediction_practice","2","{""filepath"":""stimuli/2000111.jpg"",""ball_pos"":2,""ego_ball_visible"":false,""ego_can_infer"":false,""alter_ball_visible"":true,""alter_can_infer"":true,""collective_ball_visible"":false,""collective_can_infer"":false,""search_locations"":[2],""alter_occluders"":""000"",""ego_occluders"":""111""}","true","","","","","","","","","","","","","","","","","","",""
"","","","","","image-keyboard-response","15","156239","0.0-3.0-12.0","60cb3c4b9454f7a196355088","665500ab8938657b03fbdba8","665793595ab239deb9b9900e","1762","stimuli/20001112.jpg"," ","","practrice_feedback","2","","","","","","","","","","","","","","","","","","","","",""
"","","","","","image-keyboard-response","16","157430","0.0-3.0-13.0","60cb3c4b9454f7a196355088","665500ab8938657b03fbdba8","665793595ab239deb9b9900e","1181","stimuli/2111111.jpg","0","","prediction_practice","1","{""filepath"":""stimuli/2111111.jpg"",""ball_pos"":2,""ego_ball_visible"":false,""ego_can_infer"":false,""alter_ball_visible"":false,""alter_can_infer"":false,""collective_ball_visible"":false,""collective_can_infer"":false,""search_locations"":[1,2,0],""alter_occluders"":""111"",""ego_occluders"":""111""}","false","","","","","","","","","","","","","","","","","","",""
"","","","","","image-keyboard-response","17","160483","0.0-3.0-14.0","60cb3c4b9454f7a196355088","665500ab8938657b03fbdba8","665793595ab239deb9b9900e","3044","stimuli/21111111.jpg"," ","","practrice_feedback","1","","","","","","","","","","","","","","","","","","","","",""
"","","","","","image-keyboard-response","18","161413","0.0-3.0-15.0","60cb3c4b9454f7a196355088","665500ab8938657b03fbdba8","665793595ab239deb9b9900e","926","stimuli/0011011.jpg","0","","prediction_practice","0","{""filepath"":""stimuli/0011011.jpg"",""ball_pos"":0,""ego_ball_visible"":true,""ego_can_infer"":true,""alter_ball_visible"":true,""alter_can_infer"":true,""collective_ball_visible"":true,""collective_can_infer"":true,""search_locations"":[0],""alter_occluders"":""011"",""ego_occluders"":""011""}","true","","","","","","","","","","","","","","","","","","",""
"","","","","","image-keyboard-response","19","163085","0.0-3.0-16.0","60cb3c4b9454f7a196355088","665500ab8938657b03fbdba8","665793595ab239deb9b9900e","1668","stimuli/00110110.jpg"," ","","practrice_feedback","0","","","","","","","","","","","","","","","","","","","","",""
"","","","","","image-keyboard-response","20","166022","0.0-3.0-17.0","60cb3c4b9454f7a196355088","665500ab8938657b03fbdba8","665793595ab239deb9b9900e","2932","stimuli/1011101.jpg","1","","prediction_practice","1","{""filepath"":""stimuli/1011101.jpg"",""ball_pos"":1,""ego_ball_visible"":true,""ego_can_infer"":true,""alter_ball_visible"":false,""alter_can_infer"":false,""collective_ball_visible"":false,""collective_can_infer"":false,""search_locations"":[1,2],""alter_occluders"":""011"",""ego_occluders"":""101""}","true","","","","","","","","","","","","","","","","","","",""
"","","","","","image-keyboard-response","21","167070","0.0-3.0-18.0","60cb3c4b9454f7a196355088","665500ab8938657b03fbdba8","665793595ab239deb9b9900e","1044","stimuli/10111011.jpg"," ","","practrice_feedback","1","","","","","","","","","","","","","","","","","","","","",""
"","","","","","image-keyboard-response","22","168011","0.0-3.0-19.0","60cb3c4b9454f7a196355088","665500ab8938657b03fbdba8","665793595ab239deb9b9900e","933","stimuli/0011000.jpg","0","","prediction_practice","0","{""filepath"":""stimuli/0011000.jpg"",""ball_pos"":0,""ego_ball_visible"":true,""ego_can_infer"":true,""alter_ball_visible"":true,""alter_can_infer"":true,""collective_ball_visible"":true,""collective_can_infer"":true,""search_locations"":[0],""alter_occluders"":""011"",""ego_occluders"":""000""}","true","","","","","","","","","","","","","","","","","","",""
"","","","","","image-keyboard-response","23","168839","0.0-3.0-20.0","60cb3c4b9454f7a196355088","665500ab8938657b03fbdba8","665793595ab239deb9b9900e","824","stimuli/00110000.jpg"," ","","practrice_feedback","0","","","","","","","","","","","","","","","","","","","","",""
"","","","","","html-button-response","24","175992","0.0-3.0-21.0","60cb3c4b9454f7a196355088","665500ab8938657b03fbdba8","665793595ab239deb9b9900e","7150","Now that you've had some practice, you'll be tested with a couple of easy trials. If you correctly predict Sam's choice, you'll move on to complete the experiment!","0","","","","","","","","","","","","","","","","","","","","","","","",""
"","","","","","image-keyboard-response","25","178089","0.0-3.0-22.0-0.0","60cb3c4b9454f7a196355088","665500ab8938657b03fbdba8","665793595ab239deb9b9900e","2094","stimuli/0000011.jpg","arrowleft","","comprehension_quiz","","","true","arrowleft","","","","","","","","","","","","","","","","","",""
"","","","","","image-keyboard-response","26","179478","0.0-3.0-22.0-1.0","60cb3c4b9454f7a196355088","665500ab8938657b03fbdba8","665793595ab239deb9b9900e","1385","stimuli/00000110.jpg"," ","","comprehension_quiz","","","true"," ","","","","","","","","","","","","","","","","","",""
"","","","","","image-keyboard-response","27","181609","0.0-3.0-22.0-2.0","60cb3c4b9454f7a196355088","665500ab8938657b03fbdba8","665793595ab239deb9b9900e","2127","stimuli/1010010.jpg","arrowdown","","comprehension_quiz","","","true","arrowdown","","","","","","","","","","","","","","","","","",""
"","","","","","image-keyboard-response","28","182633","0.0-3.0-22.0-3.0","60cb3c4b9454f7a196355088","665500ab8938657b03fbdba8","665793595ab239deb9b9900e","997","stimuli/10100101.jpg"," ","","comprehension_quiz","","","true"," ","","","","","","","","","","","","","","","","","",""
"","","","","","html-button-response","29","184930","0.0-4.0","60cb3c4b9454f7a196355088","665500ab8938657b03fbdba8","665793595ab239deb9b9900e","2290","The experiment will now begin.","0","","","","","","","","","","","","","","","","","","","","","","","",""
"","","","","","image-keyboard-response","30","187144","0.0-5.0","60cb3c4b9454f7a196355088","665500ab8938657b03fbdba8","665793595ab239deb9b9900e","2210","stimuli/0110111.jpg","2","","prediction_trial","0","","false","","0","false","false","false","false","false","false","[0,1]","110","111","0","","","","","","",""
"","","","","","image-keyboard-response","31","188785","0.0-6.0","60cb3c4b9454f7a196355088","665500ab8938657b03fbdba8","665793595ab239deb9b9900e","1636","stimuli/01101110.jpg"," ","","feedback_trial","0","","","","","","","","","","","","","","","","","","","","",""
"","","","","","image-keyboard-response","32","189898","0.0-7.0","60cb3c4b9454f7a196355088","665500ab8938657b03fbdba8","665793595ab239deb9b9900e","1109","stimuli/1100100.jpg","1","","prediction_trial","1","","true","","1","true","true","true","true","true","true","[1]","100","100","1","","","","","","",""
"","","","","","image-keyboard-response","33","190811","0.0-8.0","60cb3c4b9454f7a196355088","665500ab8938657b03fbdba8","665793595ab239deb9b9900e","901","stimuli/11001001.jpg"," ","","feedback_trial","1","","","","","","","","","","","","","","","","","","","","",""
"","","","","","image-keyboard-response","34","192081","0.0-9.0","60cb3c4b9454f7a196355088","665500ab8938657b03fbdba8","665793595ab239deb9b9900e","1267","stimuli/0111010.jpg","0","","prediction_trial","2","","false","","0","true","true","false","false","false","false","[1,2,0]","111","010","0","","","","","","",""
"","","","","","image-keyboard-response","35","193522","0.0-10.0","60cb3c4b9454f7a196355088","665500ab8938657b03fbdba8","665793595ab239deb9b9900e","1439","stimuli/01110102.jpg"," ","","feedback_trial","1","","","","","","","","","","","","","","","","","","","","",""
"","","","","","image-keyboard-response","36","194585","0.0-11.0","60cb3c4b9454f7a196355088","665500ab8938657b03fbdba8","665793595ab239deb9b9900e","1055","stimuli/0011100.jpg","0","","prediction_trial","0","","true","","0","false","true","true","true","false","true","[0]","011","100","1","","","","","","",""
"","","","","","image-keyboard-response","37","195374","0.0-12.0","60cb3c4b9454f7a196355088","665500ab8938657b03fbdba8","665793595ab239deb9b9900e","787","stimuli/00111000.jpg"," ","","feedback_trial","0","","","","","","","","","","","","","","","","","","","","",""
"","","","","","image-keyboard-response","38","197170","0.0-13.0","60cb3c4b9454f7a196355088","665500ab8938657b03fbdba8","665793595ab239deb9b9900e","1793","stimuli/0100101.jpg","2","","prediction_trial","0","","false","","0","false","false","false","true","false","false","[0]","100","101","0","","","","","","",""
"","","","","","image-keyboard-response","39","198709","0.0-14.0","60cb3c4b9454f7a196355088","665500ab8938657b03fbdba8","665793595ab239deb9b9900e","1535","stimuli/01001010.jpg"," ","","feedback_trial","0","","","","","","","","","","","","","","","","","","","","",""
"","","","","","image-keyboard-response","40","200401","0.0-15.0","60cb3c4b9454f7a196355088","665500ab8938657b03fbdba8","665793595ab239deb9b9900e","1688","stimuli/0001111.jpg","0","","prediction_trial","0","","true","","0","false","false","true","true","false","false","[0]","001","111","1","","","","","","",""
"","","","","","image-keyboard-response","41","201240","0.0-16.0","60cb3c4b9454f7a196355088","665500ab8938657b03fbdba8","665793595ab239deb9b9900e","835","stimuli/00011110.jpg"," ","","feedback_trial","0","","","","","","","","","","","","","","","","","","","","",""
"","","","","","image-keyboard-response","42","202422","0.0-17.0","60cb3c4b9454f7a196355088","665500ab8938657b03fbdba8","665793595ab239deb9b9900e","1179","stimuli/0101000.jpg","0","","prediction_trial","2","","false","","0","true","true","false","false","false","false","[0,2]","101","000","0","","","","","","",""
"","","","","","image-keyboard-response","43","203172","0.0-18.0","60cb3c4b9454f7a196355088","665500ab8938657b03fbdba8","665793595ab239deb9b9900e","745","stimuli/01010002.jpg"," ","","feedback_trial","0","","","","","","","","","","","","","","","","","","","","",""
"","","","","","image-keyboard-response","44","204256","0.0-19.0","60cb3c4b9454f7a196355088","665500ab8938657b03fbdba8","665793595ab239deb9b9900e","1080","stimuli/0011101.jpg","0","","prediction_trial","0","","true","","0","false","false","true","true","false","false","[0]","011","101","1","","","","","","",""
"","","","","","image-keyboard-response","45","204970","0.0-20.0","60cb3c4b9454f7a196355088","665500ab8938657b03fbdba8","665793595ab239deb9b9900e","708","stimuli/00111010.jpg"," ","","feedback_trial","0","","","","","","","","","","","","","","","","","","","","",""
"","","","","","image-keyboard-response","46","206699","0.0-21.0","60cb3c4b9454f7a196355088","665500ab8938657b03fbdba8","665793595ab239deb9b9900e","1724","stimuli/1001010.jpg","1","","prediction_trial","1","","true","","1","false","true","true","true","false","true","[1]","001","010","1","","","","","","",""
"","","","","","image-keyboard-response","47","207396","0.0-22.0","60cb3c4b9454f7a196355088","665500ab8938657b03fbdba8","665793595ab239deb9b9900e","691","stimuli/10010101.jpg"," ","","feedback_trial","1","","","","","","","","","","","","","","","","","","","","",""
"","","","","","image-keyboard-response","48","208393","0.0-23.0","60cb3c4b9454f7a196355088","665500ab8938657b03fbdba8","665793595ab239deb9b9900e","993","stimuli/1111001.jpg","1","","prediction_trial","1","","true","","1","true","true","false","false","false","false","[2,0,1]","111","001","1","","","","","","",""
"","","","","","image-keyboard-response","49","209068","0.0-24.0","60cb3c4b9454f7a196355088","665500ab8938657b03fbdba8","665793595ab239deb9b9900e","671","stimuli/11110011.jpg"," ","","feedback_trial","2","","","","","","","","","","","","","","","","","","","","",""
"","","","","","image-keyboard-response","50","210849","0.0-25.0","60cb3c4b9454f7a196355088","665500ab8938657b03fbdba8","665793595ab239deb9b9900e","1770","stimuli/2101010.jpg","2","","prediction_trial","2","","true","","2","true","true","false","false","false","false","[0,2]","101","010","1","","","","","","",""
"","","","","","image-keyboard-response","51","211555","0.0-26.0","60cb3c4b9454f7a196355088","665500ab8938657b03fbdba8","665793595ab239deb9b9900e","703","stimuli/21010102.jpg"," ","","feedback_trial","0","","","","","","","","","","","","","","","","","","","","",""
"","","","","","image-keyboard-response","52","212595","0.0-27.0","60cb3c4b9454f7a196355088","665500ab8938657b03fbdba8","665793595ab239deb9b9900e","1036","stimuli/0100100.jpg","0","","prediction_trial","0","","true","","0","false","true","false","true","false","true","[0]","100","100","1","","","","","","",""
"","","","","","image-keyboard-response","53","213133","0.0-28.0","60cb3c4b9454f7a196355088","665500ab8938657b03fbdba8","665793595ab239deb9b9900e","528","stimuli/01001000.jpg"," ","","feedback_trial","0","","","","","","","","","","","","","","","","","","","","",""
"","","","","","image-keyboard-response","54","214167","0.0-29.0","60cb3c4b9454f7a196355088","665500ab8938657b03fbdba8","665793595ab239deb9b9900e","1031","stimuli/2000001.jpg","2","","prediction_trial","2","","true","","2","false","true","true","true","false","true","[2]","000","001","1","","","","","","",""
"","","","","","image-keyboard-response","55","214668","0.0-30.0","60cb3c4b9454f7a196355088","665500ab8938657b03fbdba8","665793595ab239deb9b9900e","498","stimuli/20000012.jpg"," ","","feedback_trial","2","","","","","","","","","","","","","","","","","","","","",""
"","","","","","image-keyboard-response","56","215598","0.0-31.0","60cb3c4b9454f7a196355088","665500ab8938657b03fbdba8","665793595ab239deb9b9900e","925","stimuli/1000010.jpg","1","","prediction_trial","1","","true","","1","false","true","true","true","false","true","[1]","000","010","1","","","","","","",""
"","","","","","image-keyboard-response","57","216033","0.0-32.0","60cb3c4b9454f7a196355088","665500ab8938657b03fbdba8","665793595ab239deb9b9900e","430","stimuli/10000101.jpg"," ","","feedback_trial","1","","","","","","","","","","","","","","","","","","","","",""
"","","","","","image-keyboard-response","58","217428","0.0-33.0","60cb3c4b9454f7a196355088","665500ab8938657b03fbdba8","665793595ab239deb9b9900e","1392","stimuli/0111110.jpg","0","","prediction_trial","0","","true","","0","false","false","false","false","false","false","[2,0,1]","111","110","1","","","","","","",""
"","","","","","image-keyboard-response","59","218047","0.0-34.0","60cb3c4b9454f7a196355088","665500ab8938657b03fbdba8","665793595ab239deb9b9900e","616","stimuli/01111100.jpg"," ","","feedback_trial","2","","","","","","","","","","","","","","","","","","","","",""
"","","","","","image-keyboard-response","60","219015","0.0-35.0","60cb3c4b9454f7a196355088","665500ab8938657b03fbdba8","665793595ab239deb9b9900e","960","stimuli/0110100.jpg","0","","prediction_trial","0","","true","","0","false","true","false","false","false","false","[0,1]","110","100","1","","","","","","",""
"","","","","","image-keyboard-response","61","219621","0.0-36.0","60cb3c4b9454f7a196355088","665500ab8938657b03fbdba8","665793595ab239deb9b9900e","601","stimuli/01101000.jpg"," ","","feedback_trial","0","","","","","","","","","","","","","","","","","","","","",""
"","","","","","image-keyboard-response","62","220660","0.0-37.0","60cb3c4b9454f7a196355088","665500ab8938657b03fbdba8","665793595ab239deb9b9900e","1034","stimuli/2110100.jpg","2","","prediction_trial","2","","true","","2","true","true","true","true","true","true","[2]","110","100","1","","","","","","",""
"","","","","","image-keyboard-response","63","221229","0.0-38.0","60cb3c4b9454f7a196355088","665500ab8938657b03fbdba8","665793595ab239deb9b9900e","566","stimuli/21101002.jpg"," ","","feedback_trial","2","","","","","","","","","","","","","","","","","","","","",""
"","","","","","image-keyboard-response","64","222734","0.0-39.0","60cb3c4b9454f7a196355088","665500ab8938657b03fbdba8","665793595ab239deb9b9900e","1501","stimuli/2000101.jpg","2","","prediction_trial","2","","true","","2","false","false","true","true","false","false","[2]","000","101","1","","","","","","",""
"","","","","","image-keyboard-response","65","223394","0.0-40.0","60cb3c4b9454f7a196355088","665500ab8938657b03fbdba8","665793595ab239deb9b9900e","656","stimuli/20001012.jpg"," ","","feedback_trial","2","","","","","","","","","","","","","","","","","","","","",""
"","","","","","image-keyboard-response","66","225124","0.0-41.0","60cb3c4b9454f7a196355088","665500ab8938657b03fbdba8","665793595ab239deb9b9900e","1727","stimuli/2111001.jpg","2","","prediction_trial","2","","true","","2","false","true","false","false","false","false","[2,0,1]","111","001","1","","","","","","",""
"","","","","","image-keyboard-response","67","225814","0.0-42.0","60cb3c4b9454f7a196355088","665500ab8938657b03fbdba8","665793595ab239deb9b9900e","685","stimuli/21110012.jpg"," ","","feedback_trial","2","","","","","","","","","","","","","","","","","","","","",""
"","","","","","image-keyboard-response","68","226500","0.0-43.0","60cb3c4b9454f7a196355088","665500ab8938657b03fbdba8","665793595ab239deb9b9900e","682","stimuli/0000010.jpg","0","","prediction_trial","0","","true","","0","true","true","true","true","true","true","[0]","000","010","1","","","","","","",""
"","","","","","image-keyboard-response","69","226984","0.0-44.0","60cb3c4b9454f7a196355088","665500ab8938657b03fbdba8","665793595ab239deb9b9900e","481","stimuli/00000100.jpg"," ","","feedback_trial","0","","","","","","","","","","","","","","","","","","","","",""
"","","","","","image-keyboard-response","70","227999","0.0-45.0","60cb3c4b9454f7a196355088","665500ab8938657b03fbdba8","665793595ab239deb9b9900e","1012","stimuli/0110011.jpg","0","","prediction_trial","1","","false","","0","true","true","false","false","false","false","[0,1]","110","011","0","","","","","","",""
"","","","","","image-keyboard-response","71","229681","0.0-46.0","60cb3c4b9454f7a196355088","665500ab8938657b03fbdba8","665793595ab239deb9b9900e","1678","stimuli/01100111.jpg"," ","","feedback_trial","0","","","","","","","","","","","","","","","","","","","","",""
"","","","","","image-keyboard-response","72","230803","0.0-47.0","60cb3c4b9454f7a196355088","665500ab8938657b03fbdba8","665793595ab239deb9b9900e","1112","stimuli/1010010.jpg","1","","prediction_trial","1","","true","","1","false","true","false","true","false","true","[1]","010","010","1","","","","","","",""
"","","","","","image-keyboard-response","73","231366","0.0-48.0","60cb3c4b9454f7a196355088","665500ab8938657b03fbdba8","665793595ab239deb9b9900e","561","stimuli/10100101.jpg"," ","","feedback_trial","1","","","","","","","","","","","","","","","","","","","","",""
"","","","","","image-keyboard-response","74","232165","0.0-49.0","60cb3c4b9454f7a196355088","665500ab8938657b03fbdba8","665793595ab239deb9b9900e","795","stimuli/1010111.jpg","0","","prediction_trial","1","","false","","1","false","false","false","true","false","false","[1]","010","111","0","","","","","","",""
"","","","","","image-keyboard-response","75","233305","0.0-50.0","60cb3c4b9454f7a196355088","665500ab8938657b03fbdba8","665793595ab239deb9b9900e","1135","stimuli/10101111.jpg"," ","","feedback_trial","1","","","","","","","","","","","","","","","","","","","","",""
"","","","","","image-keyboard-response","76","234377","0.0-51.0","60cb3c4b9454f7a196355088","665500ab8938657b03fbdba8","665793595ab239deb9b9900e","1069","stimuli/0100111.jpg","2","","prediction_trial","0","","false","","0","false","false","false","true","false","false","[0]","100","111","0","","","","","","",""
"","","","","","image-keyboard-response","77","235266","0.0-52.0","60cb3c4b9454f7a196355088","665500ab8938657b03fbdba8","665793595ab239deb9b9900e","871","stimuli/01001110.jpg"," ","","feedback_trial","0","","","","","","","","","","","","","","","","","","","","",""
"","","","","","image-keyboard-response","78","236237","0.0-53.0","60cb3c4b9454f7a196355088","665500ab8938657b03fbdba8","665793595ab239deb9b9900e","967","stimuli/1111111.jpg","0","","prediction_trial","1","","false","","1","false","false","false","false","false","false","[0,1,2]","111","111","0","","","","","","",""
"","","","","","image-keyboard-response","79","236885","0.0-54.0","60cb3c4b9454f7a196355088","665500ab8938657b03fbdba8","665793595ab239deb9b9900e","645","stimuli/11111111.jpg"," ","","feedback_trial","0","","","","","","","","","","","","","","","","","","","","",""
"","","","","","image-keyboard-response","80","238036","0.0-55.0","60cb3c4b9454f7a196355088","665500ab8938657b03fbdba8","665793595ab239deb9b9900e","1148","stimuli/2001010.jpg","2","","prediction_trial","2","","true","","2","true","true","false","true","false","true","[2]","001","010","1","","","","","","",""
"","","","","","image-keyboard-response","81","238577","0.0-56.0","60cb3c4b9454f7a196355088","665500ab8938657b03fbdba8","665793595ab239deb9b9900e","539","stimuli/20010102.jpg"," ","","feedback_trial","2","","","","","","","","","","","","","","","","","","","","",""
"","","","","","image-keyboard-response","82","239799","0.0-57.0","60cb3c4b9454f7a196355088","665500ab8938657b03fbdba8","665793595ab239deb9b9900e","1218","stimuli/1001111.jpg","1","","prediction_trial","1","","true","","1","false","false","true","true","false","false","[1]","001","111","1","","","","","","",""
"","","","","","image-keyboard-response","83","240420","0.0-58.0","60cb3c4b9454f7a196355088","665500ab8938657b03fbdba8","665793595ab239deb9b9900e","617","stimuli/10011111.jpg"," ","","feedback_trial","1","","","","","","","","","","","","","","","","","","","","",""
"","","","","","image-keyboard-response","84","242508","0.0-59.0","60cb3c4b9454f7a196355088","665500ab8938657b03fbdba8","665793595ab239deb9b9900e","2086","stimuli/2100101.jpg","0","","prediction_trial","2","","false","","2","false","false","true","true","false","false","[2]","100","101","0","","","","","","",""
"","","","","","image-keyboard-response","85","243254","0.0-60.0","60cb3c4b9454f7a196355088","665500ab8938657b03fbdba8","665793595ab239deb9b9900e","743","stimuli/21001012.jpg"," ","","feedback_trial","2","","","","","","","","","","","","","","","","","","","","",""
"","","","","","image-keyboard-response","86","244775","0.0-61.0","60cb3c4b9454f7a196355088","665500ab8938657b03fbdba8","665793595ab239deb9b9900e","1518","stimuli/2000010.jpg","2","","prediction_trial","2","","true","","2","true","true","true","true","true","true","[2]","000","010","1","","","","","","",""
"","","","","","image-keyboard-response","87","245541","0.0-62.0","60cb3c4b9454f7a196355088","665500ab8938657b03fbdba8","665793595ab239deb9b9900e","763","stimuli/20000102.jpg"," ","","feedback_trial","2","","","","","","","","","","","","","","","","","","","","",""
"","","","","","image-keyboard-response","88","246189","0.0-63.0","60cb3c4b9454f7a196355088","665500ab8938657b03fbdba8","665793595ab239deb9b9900e","644","stimuli/1001101.jpg","1","","prediction_trial","1","","true","","1","true","true","true","true","true","true","[1]","001","101","1","","","","","","",""
"","","","","","image-keyboard-response","89","246609","0.0-64.0","60cb3c4b9454f7a196355088","665500ab8938657b03fbdba8","665793595ab239deb9b9900e","418","stimuli/10011011.jpg"," ","","feedback_trial","1","","","","","","","","","","","","","","","","","","","","",""
"","","","","","image-keyboard-response","90","247299","0.0-65.0","60cb3c4b9454f7a196355088","665500ab8938657b03fbdba8","665793595ab239deb9b9900e","688","stimuli/1000111.jpg","1","","prediction_trial","1","","true","","1","false","false","true","true","false","false","[1]","000","111","1","","","","","","",""
"","","","","","image-keyboard-response","91","247885","0.0-66.0","60cb3c4b9454f7a196355088","665500ab8938657b03fbdba8","665793595ab239deb9b9900e","582","stimuli/10001111.jpg"," ","","feedback_trial","1","","","","","","","","","","","","","","","","","","","","",""
"","","","","","image-keyboard-response","92","248603","0.0-67.0","60cb3c4b9454f7a196355088","665500ab8938657b03fbdba8","665793595ab239deb9b9900e","715","stimuli/2010001.jpg","2","","prediction_trial","2","","true","","2","false","true","true","true","false","true","[2]","010","001","1","","","","","","",""
"","","","","","image-keyboard-response","93","249049","0.0-68.0","60cb3c4b9454f7a196355088","665500ab8938657b03fbdba8","665793595ab239deb9b9900e","441","stimuli/20100012.jpg"," ","","feedback_trial","2","","","","","","","","","","","","","","","","","","","","",""
"","","","","","image-keyboard-response","94","250444","0.0-69.0","60cb3c4b9454f7a196355088","665500ab8938657b03fbdba8","665793595ab239deb9b9900e","1391","stimuli/1011011.jpg","2","","prediction_trial","2","","true","","1","false","false","false","false","false","false","[1,2]","011","011","1","","","","","","",""
"","","","","","image-keyboard-response","95","250968","0.0-70.0","60cb3c4b9454f7a196355088","665500ab8938657b03fbdba8","665793595ab239deb9b9900e","522","stimuli/10110112.jpg"," ","","feedback_trial","1","","","","","","","","","","","","","","","","","","","","",""
"","","","","","image-keyboard-response","96","251860","0.0-71.0","60cb3c4b9454f7a196355088","665500ab8938657b03fbdba8","665793595ab239deb9b9900e","887","stimuli/2000111.jpg","2","","prediction_trial","2","","true","","2","false","false","true","true","false","false","[2]","000","111","1","","","","","","",""
"","","","","","image-keyboard-response","97","252388","0.0-72.0","60cb3c4b9454f7a196355088","665500ab8938657b03fbdba8","665793595ab239deb9b9900e","525","stimuli/20001112.jpg"," ","","feedback_trial","2","","","","","","","","","","","","","","","","","","","","",""
"","","","","","image-keyboard-response","98","253176","0.0-73.0","60cb3c4b9454f7a196355088","665500ab8938657b03fbdba8","665793595ab239deb9b9900e","785","stimuli/2110110.jpg","2","","prediction_trial","2","","true","","2","true","true","true","true","true","true","[2]","110","110","1","","","","","","",""
"","","","","","image-keyboard-response","99","253691","0.0-74.0","60cb3c4b9454f7a196355088","665500ab8938657b03fbdba8","665793595ab239deb9b9900e","510","stimuli/21101102.jpg"," ","","feedback_trial","2","","","","","","","","","","","","","","","","","","","","",""
"","","","","","image-keyboard-response","100","254561","0.0-75.0","60cb3c4b9454f7a196355088","665500ab8938657b03fbdba8","665793595ab239deb9b9900e","866","stimuli/2011010.jpg","2","","prediction_trial","2","","true","","2","true","true","false","false","false","false","[2,1]","011","010","1","","","","","","",""
"","","","","","image-keyboard-response","101","255100","0.0-76.0","60cb3c4b9454f7a196355088","665500ab8938657b03fbdba8","665793595ab239deb9b9900e","530","stimuli/20110102.jpg"," ","","feedback_trial","2","","","","","","","","","","","","","","","","","","","","",""
"","","","","","image-keyboard-response","102","256380","0.0-77.0","60cb3c4b9454f7a196355088","665500ab8938657b03fbdba8","665793595ab239deb9b9900e","1278","stimuli/1011111.jpg","2","","prediction_trial","1","","false","","1","false","false","false","false","false","false","[1,2]","011","111","0","","","","","","",""
"","","","","","image-keyboard-response","103","257145","0.0-78.0","60cb3c4b9454f7a196355088","665500ab8938657b03fbdba8","665793595ab239deb9b9900e","763","stimuli/10111111.jpg"," ","","feedback_trial","1","","","","","","","","","","","","","","","","","","","","",""
"","","","","","image-keyboard-response","104","258033","0.0-79.0","60cb3c4b9454f7a196355088","665500ab8938657b03fbdba8","665793595ab239deb9b9900e","884","stimuli/0010001.jpg","0","","prediction_trial","0","","true","","0","true","true","true","true","true","true","[0]","010","001","1","","","","","","",""
"","","","","","image-keyboard-response","105","258508","0.0-80.0","60cb3c4b9454f7a196355088","665500ab8938657b03fbdba8","665793595ab239deb9b9900e","470","stimuli/00100010.jpg"," ","","feedback_trial","0","","","","","","","","","","","","","","","","","","","","",""
"","","","","","image-keyboard-response","106","259123","0.0-81.0","60cb3c4b9454f7a196355088","665500ab8938657b03fbdba8","665793595ab239deb9b9900e","611","stimuli/2010100.jpg","2","","prediction_trial","2","","true","","2","true","true","true","true","true","true","[2]","010","100","1","","","","","","",""
"","","","","","image-keyboard-response","107","259478","0.0-82.0","60cb3c4b9454f7a196355088","665500ab8938657b03fbdba8","665793595ab239deb9b9900e","351","stimuli/20101002.jpg"," ","","feedback_trial","2","","","","","","","","","","","","","","","","","","","","",""
"","","","","","image-keyboard-response","108","260411","0.0-83.0","60cb3c4b9454f7a196355088","665500ab8938657b03fbdba8","665793595ab239deb9b9900e","928","stimuli/0100000.jpg","0","","prediction_trial","0","","true","","0","true","true","false","true","false","true","[0]","100","000","1","","","","","","",""
"","","","","","image-keyboard-response","109","260829","0.0-84.0","60cb3c4b9454f7a196355088","665500ab8938657b03fbdba8","665793595ab239deb9b9900e","413","stimuli/01000000.jpg"," ","","feedback_trial","0","","","","","","","","","","","","","","","","","","","","",""
"","","","","","image-keyboard-response","110","261614","0.0-85.0","60cb3c4b9454f7a196355088","665500ab8938657b03fbdba8","665793595ab239deb9b9900e","782","stimuli/2101001.jpg","2","","prediction_trial","0","","false","","2","false","true","false","false","false","false","[2,0]","101","001","0","","","","","","",""
"","","","","","image-keyboard-response","111","262239","0.0-86.0","60cb3c4b9454f7a196355088","665500ab8938657b03fbdba8","665793595ab239deb9b9900e","623","stimuli/21010010.jpg"," ","","feedback_trial","2","","","","","","","","","","","","","","","","","","","","",""
"","","","","","image-keyboard-response","112","262861","0.0-87.0","60cb3c4b9454f7a196355088","665500ab8938657b03fbdba8","665793595ab239deb9b9900e","618","stimuli/2100110.jpg","2","","prediction_trial","2","","true","","2","true","true","true","true","true","true","[2]","100","110","1","","","","","","",""
"","","","","","image-keyboard-response","113","263305","0.0-88.0","60cb3c4b9454f7a196355088","665500ab8938657b03fbdba8","665793595ab239deb9b9900e","434","stimuli/21001102.jpg"," ","","feedback_trial","2","","","","","","","","","","","","","","","","","","","","",""
"","","","","","image-keyboard-response","114","265180","0.0-89.0","60cb3c4b9454f7a196355088","665500ab8938657b03fbdba8","665793595ab239deb9b9900e","1871","stimuli/2111100.jpg","2","","prediction_trial","0","","false","","2","true","true","false","false","false","false","[0,1,2]","111","100","0","","","","","","",""
"","","","","","image-keyboard-response","115","265706","0.0-90.0","60cb3c4b9454f7a196355088","665500ab8938657b03fbdba8","665793595ab239deb9b9900e","522","stimuli/21111000.jpg"," ","","feedback_trial","0","","","","","","","","","","","","","","","","","","","","",""
"","","","","","image-keyboard-response","116","266545","0.0-91.0","60cb3c4b9454f7a196355088","665500ab8938657b03fbdba8","665793595ab239deb9b9900e","825","stimuli/1111101.jpg","1","","prediction_trial","1","","true","","1","true","true","false","false","false","false","[0,1,2]","111","101","1","","","","","","",""
"","","","","","image-keyboard-response","117","267140","0.0-92.0","60cb3c4b9454f7a196355088","665500ab8938657b03fbdba8","665793595ab239deb9b9900e","591","stimuli/11111011.jpg"," ","","feedback_trial","0","","","","","","","","","","","","","","","","","","","","",""
"","","","","","image-keyboard-response","118","267773","0.0-93.0","60cb3c4b9454f7a196355088","665500ab8938657b03fbdba8","665793595ab239deb9b9900e","630","stimuli/2000100.jpg","2","","prediction_trial","2","","true","","2","true","true","true","true","true","true","[2]","000","100","1","","","","","","",""
"","","","","","image-keyboard-response","119","268248","0.0-94.0","60cb3c4b9454f7a196355088","665500ab8938657b03fbdba8","665793595ab239deb9b9900e","471","stimuli/20001002.jpg"," ","","feedback_trial","2","","","","","","","","","","","","","","","","","","","","",""
"","","","","","image-keyboard-response","120","269036","0.0-95.0","60cb3c4b9454f7a196355088","665500ab8938657b03fbdba8","665793595ab239deb9b9900e","777","stimuli/2110000.jpg","2","","prediction_trial","2","","true","","2","true","true","true","true","true","true","[2]","110","000","1","","","","","","",""
"","","","","","image-keyboard-response","121","269474","0.0-96.0","60cb3c4b9454f7a196355088","665500ab8938657b03fbdba8","665793595ab239deb9b9900e","435","stimuli/21100002.jpg"," ","","feedback_trial","2","","","","","","","","","","","","","","","","","","","","",""
"","","","","","image-keyboard-response","122","270581","0.0-97.0","60cb3c4b9454f7a196355088","665500ab8938657b03fbdba8","665793595ab239deb9b9900e","1103","stimuli/2101101.jpg","0","","prediction_trial","2","","false","","2","false","false","false","false","false","false","[2,0]","101","101","0","","","","","","",""
"","","","","","image-keyboard-response","123","271217","0.0-98.0","60cb3c4b9454f7a196355088","665500ab8938657b03fbdba8","665793595ab239deb9b9900e","632","stimuli/21011012.jpg"," ","","feedback_trial","2","","","","","","","","","","","","","","","","","","","","",""
"","","","","","image-keyboard-response","124","272403","0.0-99.0","60cb3c4b9454f7a196355088","665500ab8938657b03fbdba8","665793595ab239deb9b9900e","1175","stimuli/2100001.jpg","2","","prediction_trial","2","","true","","2","false","true","true","true","false","true","[2]","100","001","1","","","","","","",""
"","","","","","image-keyboard-response","125","273007","0.0-100.0","60cb3c4b9454f7a196355088","665500ab8938657b03fbdba8","665793595ab239deb9b9900e","600","stimuli/21000012.jpg"," ","","feedback_trial","2","","","","","","","","","","","","","","","","","","","","",""
"","","","","","image-keyboard-response","126","274478","0.0-101.0","60cb3c4b9454f7a196355088","665500ab8938657b03fbdba8","665793595ab239deb9b9900e","1467","stimuli/2011111.jpg","0","","prediction_trial","1","","false","","2","false","false","false","false","false","false","[1,2]","011","111","0","","","","","","",""
"","","","","","image-keyboard-response","127","275131","0.0-102.0","60cb3c4b9454f7a196355088","665500ab8938657b03fbdba8","665793595ab239deb9b9900e","649","stimuli/20111111.jpg"," ","","feedback_trial","1","","","","","","","","","","","","","","","","","","","","",""
"","","","","","image-keyboard-response","128","276087","0.0-103.0","60cb3c4b9454f7a196355088","665500ab8938657b03fbdba8","665793595ab239deb9b9900e","953","stimuli/2111101.jpg","2","","prediction_trial","2","","true","","2","false","false","false","false","false","false","[0,2,1]","111","101","1","","","","","","",""
"","","","","","image-keyboard-response","129","276652","0.0-104.0","60cb3c4b9454f7a196355088","665500ab8938657b03fbdba8","665793595ab239deb9b9900e","561","stimuli/21111012.jpg"," ","","feedback_trial","0","","","","","","","","","","","","","","","","","","","","",""
"","","","","","image-keyboard-response","130","277468","0.0-105.0","60cb3c4b9454f7a196355088","665500ab8938657b03fbdba8","665793595ab239deb9b9900e","812","stimuli/0001101.jpg","2","","prediction_trial","0","","false","","0","false","false","true","true","false","false","[0]","001","101","0","","","","","","",""
"","","","","","image-keyboard-response","131","278300","0.0-106.0","60cb3c4b9454f7a196355088","665500ab8938657b03fbdba8","665793595ab239deb9b9900e","828","stimuli/00011010.jpg"," ","","feedback_trial","0","","","","","","","","","","","","","","","","","","","","",""
"","","","","","image-keyboard-response","132","279059","0.0-107.0","60cb3c4b9454f7a196355088","665500ab8938657b03fbdba8","665793595ab239deb9b9900e","756","stimuli/0000100.jpg","0","","prediction_trial","0","","true","","0","false","true","true","true","false","true","[0]","000","100","1","","","","","","",""
"","","","","","image-keyboard-response","133","279490","0.0-108.0","60cb3c4b9454f7a196355088","665500ab8938657b03fbdba8","665793595ab239deb9b9900e","428","stimuli/00001000.jpg"," ","","feedback_trial","0","","","","","","","","","","","","","","","","","","","","",""
"","","","","","image-keyboard-response","134","280193","0.0-109.0","60cb3c4b9454f7a196355088","665500ab8938657b03fbdba8","665793595ab239deb9b9900e","699","stimuli/0111111.jpg","0","","prediction_trial","0","","true","","0","false","false","false","false","false","false","[2,1,0]","111","111","1","","","","","","",""
"","","","","","image-keyboard-response","135","280728","0.0-110.0","60cb3c4b9454f7a196355088","665500ab8938657b03fbdba8","665793595ab239deb9b9900e","531","stimuli/01111110.jpg"," ","","feedback_trial","2","","","","","","","","","","","","","","","","","","","","",""
"","","","","","image-keyboard-response","136","282084","0.0-111.0","60cb3c4b9454f7a196355088","665500ab8938657b03fbdba8","665793595ab239deb9b9900e","1352","stimuli/0110010.jpg","1","","prediction_trial","0","","false","","0","true","true","false","false","false","false","[0,1]","110","010","0","","","","","","",""
"","","","","","image-keyboard-response","137","282731","0.0-112.0","60cb3c4b9454f7a196355088","665500ab8938657b03fbdba8","665793595ab239deb9b9900e","643","stimuli/01100100.jpg"," ","","feedback_trial","0","","","","","","","","","","","","","","","","","","","","",""
"","","","","","image-keyboard-response","138","283587","0.0-113.0","60cb3c4b9454f7a196355088","665500ab8938657b03fbdba8","665793595ab239deb9b9900e","852","stimuli/2011000.jpg","2","","prediction_trial","1","","false","","2","true","true","false","false","false","false","[2,1]","011","000","0","","","","","","",""
"","","","","","image-keyboard-response","139","284952","0.0-114.0","60cb3c4b9454f7a196355088","665500ab8938657b03fbdba8","665793595ab239deb9b9900e","1361","stimuli/20110001.jpg"," ","","feedback_trial","2","","","","","","","","","","","","","","","","","","","","",""
"","","","","","image-keyboard-response","140","285829","0.0-115.0","60cb3c4b9454f7a196355088","665500ab8938657b03fbdba8","665793595ab239deb9b9900e","872","stimuli/0111100.jpg","0","","prediction_trial","0","","true","","0","false","true","false","false","false","false","[2,1,0]","111","100","1","","","","","","",""
"","","","","","image-keyboard-response","141","286395","0.0-116.0","60cb3c4b9454f7a196355088","665500ab8938657b03fbdba8","665793595ab239deb9b9900e","564","stimuli/01111000.jpg"," ","","feedback_trial","2","","","","","","","","","","","","","","","","","","","","",""
"","","","","","image-keyboard-response","142","287301","0.0-117.0","60cb3c4b9454f7a196355088","665500ab8938657b03fbdba8","665793595ab239deb9b9900e","905","stimuli/0110110.jpg","0","","prediction_trial","1","","false","","0","false","false","false","false","false","false","[1,0]","110","110","0","","","","","","",""
"","","","","","image-keyboard-response","143","287750","0.0-118.0","60cb3c4b9454f7a196355088","665500ab8938657b03fbdba8","665793595ab239deb9b9900e","447","stimuli/01101101.jpg"," ","","feedback_trial","1","","","","","","","","","","","","","","","","","","","","",""
"","","","","","image-keyboard-response","144","289495","0.0-119.0","60cb3c4b9454f7a196355088","665500ab8938657b03fbdba8","665793595ab239deb9b9900e","1736","stimuli/1010011.jpg","2","","prediction_trial","1","","false","","1","false","false","false","true","false","false","[1]","010","011","0","","","","","","",""
"","","","","","image-keyboard-response","145","290158","0.0-120.0","60cb3c4b9454f7a196355088","665500ab8938657b03fbdba8","665793595ab239deb9b9900e","659","stimuli/10100111.jpg"," ","","feedback_trial","1","","","","","","","","","","","","","","","","","","","","",""
"","","","","","image-keyboard-response","146","291067","0.0-121.0","60cb3c4b9454f7a196355088","665500ab8938657b03fbdba8","665793595ab239deb9b9900e","906","stimuli/2111011.jpg","1","","prediction_trial","1","","true","","2","false","false","false","false","false","false","[2,1,0]","111","011","1","","","","","","",""
"","","","","","image-keyboard-response","147","291604","0.0-122.0","60cb3c4b9454f7a196355088","665500ab8938657b03fbdba8","665793595ab239deb9b9900e","534","stimuli/21110111.jpg"," ","","feedback_trial","2","","","","","","","","","","","","","","","","","","","","",""
"","","","","","image-keyboard-response","148","292581","0.0-123.0","60cb3c4b9454f7a196355088","665500ab8938657b03fbdba8","665793595ab239deb9b9900e","973","stimuli/0110101.jpg","2","","prediction_trial","0","","false","","0","false","false","false","false","false","false","[1,0]","110","101","0","","","","","","",""
"","","","","","image-keyboard-response","149","293128","0.0-124.0","60cb3c4b9454f7a196355088","665500ab8938657b03fbdba8","665793595ab239deb9b9900e","544","stimuli/01101010.jpg"," ","","feedback_trial","1","","","","","","","","","","","","","","","","","","","","",""
"","","","","","image-keyboard-response","150","293929","0.0-125.0","60cb3c4b9454f7a196355088","665500ab8938657b03fbdba8","665793595ab239deb9b9900e","797","stimuli/1001100.jpg","1","","prediction_trial","1","","true","","1","true","true","true","true","true","true","[1]","001","100","1","","","","","","",""
"","","","","","image-keyboard-response","151","294448","0.0-126.0","60cb3c4b9454f7a196355088","665500ab8938657b03fbdba8","665793595ab239deb9b9900e","514","stimuli/10011001.jpg"," ","","feedback_trial","1","","","","","","","","","","","","","","","","","","","","",""
"","","","","","image-keyboard-response","152","296198","0.0-127.0","60cb3c4b9454f7a196355088","665500ab8938657b03fbdba8","665793595ab239deb9b9900e","1747","stimuli/2011100.jpg","2","","prediction_trial","1","","false","","2","true","true","false","false","false","false","[1,2]","011","100","0","","","","","","",""
"","","","","","image-keyboard-response","153","297454","0.0-128.0","60cb3c4b9454f7a196355088","665500ab8938657b03fbdba8","665793595ab239deb9b9900e","1252","stimuli/20111001.jpg"," ","","feedback_trial","1","","","","","","","","","","","","","","","","","","","","",""
"","","","","","image-keyboard-response","154","298779","0.0-129.0","60cb3c4b9454f7a196355088","665500ab8938657b03fbdba8","665793595ab239deb9b9900e","1319","stimuli/2100111.jpg","2","","prediction_trial","2","","true","","2","false","false","true","true","false","false","[2]","100","111","1","","","","","","",""
"","","","","","image-keyboard-response","155","299303","0.0-130.0","60cb3c4b9454f7a196355088","665500ab8938657b03fbdba8","665793595ab239deb9b9900e","521","stimuli/21001112.jpg"," ","","feedback_trial","2","","","","","","","","","","","","","","","","","","","","",""
"","","","","","image-keyboard-response","156","300262","0.0-131.0","60cb3c4b9454f7a196355088","665500ab8938657b03fbdba8","665793595ab239deb9b9900e","955","stimuli/2101100.jpg","2","","prediction_trial","2","","true","","2","true","true","false","false","false","false","[0,2]","101","100","1","","","","","","",""
"","","","","","image-keyboard-response","157","300764","0.0-132.0","60cb3c4b9454f7a196355088","665500ab8938657b03fbdba8","665793595ab239deb9b9900e","498","stimuli/21011002.jpg"," ","","feedback_trial","0","","","","","","","","","","","","","","","","","","","","",""
"","","","","","image-keyboard-response","158","301391","0.0-133.0","60cb3c4b9454f7a196355088","665500ab8938657b03fbdba8","665793595ab239deb9b9900e","617","stimuli/1101000.jpg","1","","prediction_trial","1","","true","","1","true","true","true","true","true","true","[1]","101","000","1","","","","","","",""
"","","","","","image-keyboard-response","159","301837","0.0-134.0","60cb3c4b9454f7a196355088","665500ab8938657b03fbdba8","665793595ab239deb9b9900e","443","stimuli/11010001.jpg"," ","","feedback_trial","1","","","","","","","","","","","","","","","","","","","","",""
"","","","","","image-keyboard-response","160","302494","0.0-135.0","60cb3c4b9454f7a196355088","665500ab8938657b03fbdba8","665793595ab239deb9b9900e","653","stimuli/2010000.jpg","2","","prediction_trial","2","","true","","2","true","true","true","true","true","true","[2]","010","000","1","","","","","","",""
"","","","","","image-keyboard-response","161","302857","0.0-136.0","60cb3c4b9454f7a196355088","665500ab8938657b03fbdba8","665793595ab239deb9b9900e","359","stimuli/20100002.jpg"," ","","feedback_trial","2","","","","","","","","","","","","","","","","","","","","",""
"","","","","","image-keyboard-response","162","303872","0.0-137.0","60cb3c4b9454f7a196355088","665500ab8938657b03fbdba8","665793595ab239deb9b9900e","1011","stimuli/2111110.jpg","2","","prediction_trial","0","","false","","2","true","true","false","false","false","false","[1,0,2]","111","110","0","","","","","","",""
"","","","","","image-keyboard-response","163","304464","0.0-138.0","60cb3c4b9454f7a196355088","665500ab8938657b03fbdba8","665793595ab239deb9b9900e","588","stimuli/21111100.jpg"," ","","feedback_trial","1","","","","","","","","","","","","","","","","","","","","",""
"","","","","","image-keyboard-response","164","305127","0.0-139.0","60cb3c4b9454f7a196355088","665500ab8938657b03fbdba8","665793595ab239deb9b9900e","659","stimuli/1110100.jpg","1","","prediction_trial","1","","true","","1","true","true","false","false","false","false","[1,0]","110","100","1","","","","","","",""
"","","","","","image-keyboard-response","165","305632","0.0-140.0","60cb3c4b9454f7a196355088","665500ab8938657b03fbdba8","665793595ab239deb9b9900e","493","stimuli/11101001.jpg"," ","","feedback_trial","1","","","","","","","","","","","","","","","","","","","","",""
"","","","","","image-keyboard-response","166","306364","0.0-141.0","60cb3c4b9454f7a196355088","665500ab8938657b03fbdba8","665793595ab239deb9b9900e","729","stimuli/1001011.jpg","1","","prediction_trial","1","","true","","1","false","false","true","true","false","false","[1]","001","011","1","","","","","","",""
"","","","","","image-keyboard-response","167","306963","0.0-142.0","60cb3c4b9454f7a196355088","665500ab8938657b03fbdba8","665793595ab239deb9b9900e","595","stimuli/10010111.jpg"," ","","feedback_trial","1","","","","","","","","","","","","","","","","","","","","",""
"","","","","","image-keyboard-response","168","308005","0.0-143.0","60cb3c4b9454f7a196355088","665500ab8938657b03fbdba8","665793595ab239deb9b9900e","1038","stimuli/2111111.jpg","1","","prediction_trial","2","","false","","2","false","false","false","false","false","false","[1,2,0]","111","111","0","","","","","","",""
"","","","","","image-keyboard-response","169","308614","0.0-144.0","60cb3c4b9454f7a196355088","665500ab8938657b03fbdba8","665793595ab239deb9b9900e","604","stimuli/21111112.jpg"," ","","feedback_trial","1","","","","","","","","","","","","","","","","","","","","",""
"","","","","","image-keyboard-response","170","309140","0.0-145.0","60cb3c4b9454f7a196355088","665500ab8938657b03fbdba8","665793595ab239deb9b9900e","522","stimuli/1100011.jpg","0","","prediction_trial","1","","false","","1","false","false","true","true","false","false","[1]","100","011","0","","","","","","",""
"","","","","","image-keyboard-response","171","309882","0.0-146.0","60cb3c4b9454f7a196355088","665500ab8938657b03fbdba8","665793595ab239deb9b9900e","738","stimuli/11000111.jpg"," ","","feedback_trial","1","","","","","","","","","","","","","","","","","","","","",""
"","","","","","image-keyboard-response","172","312798","0.0-147.0","60cb3c4b9454f7a196355088","665500ab8938657b03fbdba8","665793595ab239deb9b9900e","2913","stimuli/1110010.jpg","1","","prediction_trial","0","","false","","1","false","true","false","false","false","false","[0,1]","110","010","0","","","","","","",""
"","","","","","image-keyboard-response","173","315466","0.0-148.0","60cb3c4b9454f7a196355088","665500ab8938657b03fbdba8","665793595ab239deb9b9900e","2664","stimuli/11100100.jpg"," ","","feedback_trial","0","","","","","","","","","","","","","","","","","","","","",""
"","","","","","image-keyboard-response","174","316561","0.0-149.0","60cb3c4b9454f7a196355088","665500ab8938657b03fbdba8","665793595ab239deb9b9900e","1091","stimuli/0001010.jpg","0","","prediction_trial","0","","true","","0","true","true","true","true","true","true","[0]","001","010","1","","","","","","",""
"","","","","","image-keyboard-response","175","316970","0.0-150.0","60cb3c4b9454f7a196355088","665500ab8938657b03fbdba8","665793595ab239deb9b9900e","406","stimuli/00010100.jpg"," ","","feedback_trial","0","","","","","","","","","","","","","","","","","","","","",""
"","","","","","image-keyboard-response","176","317770","0.0-151.0","60cb3c4b9454f7a196355088","665500ab8938657b03fbdba8","665793595ab239deb9b9900e","796","stimuli/1010000.jpg","1","","prediction_trial","1","","true","","1","true","true","false","true","false","true","[1]","010","000","1","","","","","","",""
"","","","","","image-keyboard-response","177","318331","0.0-152.0","60cb3c4b9454f7a196355088","665500ab8938657b03fbdba8","665793595ab239deb9b9900e","558","stimuli/10100001.jpg"," ","","feedback_trial","1","","","","","","","","","","","","","","","","","","","","",""
"","","","","","image-keyboard-response","178","318981","0.0-153.0","60cb3c4b9454f7a196355088","665500ab8938657b03fbdba8","665793595ab239deb9b9900e","646","stimuli/0011001.jpg","0","","prediction_trial","0","","true","","0","true","true","true","true","true","true","[0]","011","001","1","","","","","","",""
"","","","","","image-keyboard-response","179","319329","0.0-154.0","60cb3c4b9454f7a196355088","665500ab8938657b03fbdba8","665793595ab239deb9b9900e","345","stimuli/00110010.jpg"," ","","feedback_trial","0","","","","","","","","","","","","","","","","","","","","",""
"","","","","","image-keyboard-response","180","320039","0.0-155.0","60cb3c4b9454f7a196355088","665500ab8938657b03fbdba8","665793595ab239deb9b9900e","705","stimuli/1010001.jpg","1","","prediction_trial","1","","true","","1","true","true","false","true","false","true","[1]","010","001","1","","","","","","",""
"","","","","","image-keyboard-response","181","320563","0.0-156.0","60cb3c4b9454f7a196355088","665500ab8938657b03fbdba8","665793595ab239deb9b9900e","521","stimuli/10100011.jpg"," ","","feedback_trial","1","","","","","","","","","","","","","","","","","","","","",""
"","","","","","image-keyboard-response","182","321640","0.0-157.0","60cb3c4b9454f7a196355088","665500ab8938657b03fbdba8","665793595ab239deb9b9900e","1073","stimuli/2110111.jpg","2","","prediction_trial","2","","true","","2","false","false","true","true","false","false","[2]","110","111","1","","","","","","",""
"","","","","","image-keyboard-response","183","322185","0.0-158.0","60cb3c4b9454f7a196355088","665500ab8938657b03fbdba8","665793595ab239deb9b9900e","541","stimuli/21101112.jpg"," ","","feedback_trial","2","","","","","","","","","","","","","","","","","","","","",""
"","","","","","image-keyboard-response","184","323457","0.0-159.0","60cb3c4b9454f7a196355088","665500ab8938657b03fbdba8","665793595ab239deb9b9900e","1262","stimuli/0101011.jpg","0","","prediction_trial","2","","false","","0","true","true","false","false","false","false","[0,2]","101","011","0","","","","","","",""
"","","","","","image-keyboard-response","185","323980","0.0-160.0","60cb3c4b9454f7a196355088","665500ab8938657b03fbdba8","665793595ab239deb9b9900e","519","stimuli/01010112.jpg"," ","","feedback_trial","0","","","","","","","","","","","","","","","","","","","","",""
"","","","","","image-keyboard-response","186","325559","0.0-161.0","60cb3c4b9454f7a196355088","665500ab8938657b03fbdba8","665793595ab239deb9b9900e","1576","stimuli/2100011.jpg","2","","prediction_trial","2","","true","","2","false","false","true","true","false","false","[2]","100","011","1","","","","","","",""
"","","","","","image-keyboard-response","187","326148","0.0-162.0","60cb3c4b9454f7a196355088","665500ab8938657b03fbdba8","665793595ab239deb9b9900e","584","stimuli/21000112.jpg"," ","","feedback_trial","2","","","","","","","","","","","","","","","","","","","","",""
"","","","","","image-keyboard-response","188","327577","0.0-163.0","60cb3c4b9454f7a196355088","665500ab8938657b03fbdba8","665793595ab239deb9b9900e","1425","stimuli/2001100.jpg","2","","prediction_trial","2","","true","","2","true","true","false","true","false","true","[2]","001","100","1","","","","","","",""
"","","","","","image-keyboard-response","189","328016","0.0-164.0","60cb3c4b9454f7a196355088","665500ab8938657b03fbdba8","665793595ab239deb9b9900e","435","stimuli/20011002.jpg"," ","","feedback_trial","2","","","","","","","","","","","","","","","","","","","","",""
"","","","","","image-keyboard-response","190","329197","0.0-165.0","60cb3c4b9454f7a196355088","665500ab8938657b03fbdba8","665793595ab239deb9b9900e","1177","stimuli/1101011.jpg","2","","prediction_trial","1","","false","","1","false","false","true","true","false","false","[1]","101","011","0","","","","","","",""
"","","","","","image-keyboard-response","191","329728","0.0-166.0","60cb3c4b9454f7a196355088","665500ab8938657b03fbdba8","665793595ab239deb9b9900e","527","stimuli/11010111.jpg"," ","","feedback_trial","1","","","","","","","","","","","","","","","","","","","","",""
"","","","","","image-keyboard-response","192","330445","0.0-167.0","60cb3c4b9454f7a196355088","665500ab8938657b03fbdba8","665793595ab239deb9b9900e","714","stimuli/0000000.jpg","0","","prediction_trial","0","","true","","0","true","true","true","true","true","true","[0]","000","000","1","","","","","","",""
"","","","","","image-keyboard-response","193","330844","0.0-168.0","60cb3c4b9454f7a196355088","665500ab8938657b03fbdba8","665793595ab239deb9b9900e","395","stimuli/00000000.jpg"," ","","feedback_trial","0","","","","","","","","","","","","","","","","","","","","",""
"","","","","","image-keyboard-response","194","331899","0.0-169.0","60cb3c4b9454f7a196355088","665500ab8938657b03fbdba8","665793595ab239deb9b9900e","1047","stimuli/1110001.jpg","1","","prediction_trial","1","","true","","1","true","true","false","false","false","false","[1,0]","110","001","1","","","","","","",""
"","","","","","image-keyboard-response","195","332467","0.0-170.0","60cb3c4b9454f7a196355088","665500ab8938657b03fbdba8","665793595ab239deb9b9900e","563","stimuli/11100011.jpg"," ","","feedback_trial","1","","","","","","","","","","","","","","","","","","","","",""
"","","","","","image-keyboard-response","196","333128","0.0-171.0","60cb3c4b9454f7a196355088","665500ab8938657b03fbdba8","665793595ab239deb9b9900e","658","stimuli/0011010.jpg","0","","prediction_trial","0","","true","","0","true","true","true","true","true","true","[0]","011","010","1","","","","","","",""
"","","","","","image-keyboard-response","197","333624","0.0-172.0","60cb3c4b9454f7a196355088","665500ab8938657b03fbdba8","665793595ab239deb9b9900e","492","stimuli/00110100.jpg"," ","","feedback_trial","0","","","","","","","","","","","","","","","","","","","","",""
"","","","","","image-keyboard-response","198","334364","0.0-173.0","60cb3c4b9454f7a196355088","665500ab8938657b03fbdba8","665793595ab239deb9b9900e","738","stimuli/2111000.jpg","2","","prediction_trial","2","","true","","2","true","true","false","false","false","false","[1,0,2]","111","000","1","","","","","","",""
"","","","","","image-keyboard-response","199","334835","0.0-174.0","60cb3c4b9454f7a196355088","665500ab8938657b03fbdba8","665793595ab239deb9b9900e","466","stimuli/21110002.jpg"," ","","feedback_trial","1","","","","","","","","","","","","","","","","","","","","",""
"","","","","","image-keyboard-response","200","335472","0.0-175.0","60cb3c4b9454f7a196355088","665500ab8938657b03fbdba8","665793595ab239deb9b9900e","634","stimuli/1110000.jpg","1","","prediction_trial","0","","false","","1","true","true","false","false","false","false","[0,1]","110","000","0","","","","","","",""
"","","","","","image-keyboard-response","201","336294","0.0-176.0","60cb3c4b9454f7a196355088","665500ab8938657b03fbdba8","665793595ab239deb9b9900e","817","stimuli/11100000.jpg"," ","","feedback_trial","0","","","","","","","","","","","","","","","","","","","","",""
"","","","","","image-keyboard-response","202","336957","0.0-177.0","60cb3c4b9454f7a196355088","665500ab8938657b03fbdba8","665793595ab239deb9b9900e","659","stimuli/2001001.jpg","2","","prediction_trial","2","","true","","2","false","true","false","true","false","true","[2]","001","001","1","","","","","","",""
"","","","","","image-keyboard-response","203","337401","0.0-178.0","60cb3c4b9454f7a196355088","665500ab8938657b03fbdba8","665793595ab239deb9b9900e","440","stimuli/20010012.jpg"," ","","feedback_trial","2","","","","","","","","","","","","","","","","","","","","",""
"","","","","","image-keyboard-response","204","338361","0.0-179.0","60cb3c4b9454f7a196355088","665500ab8938657b03fbdba8","665793595ab239deb9b9900e","957","stimuli/0000111.jpg","2","","prediction_trial","0","","false","","0","false","false","true","true","false","false","[0]","000","111","0","","","","","","",""
"","","","","","image-keyboard-response","205","338842","0.0-180.0","60cb3c4b9454f7a196355088","665500ab8938657b03fbdba8","665793595ab239deb9b9900e","478","stimuli/00001110.jpg"," ","","feedback_trial","0","","","","","","","","","","","","","","","","","","","","",""
"","","","","","image-keyboard-response","206","340047","0.0-181.0","60cb3c4b9454f7a196355088","665500ab8938657b03fbdba8","665793595ab239deb9b9900e","1202","stimuli/0000101.jpg","0","","prediction_trial","0","","true","","0","false","false","true","true","false","false","[0]","000","101","1","","","","","","",""
"","","","","","image-keyboard-response","207","340652","0.0-182.0","60cb3c4b9454f7a196355088","665500ab8938657b03fbdba8","665793595ab239deb9b9900e","601","stimuli/00001010.jpg"," ","","feedback_trial","0","","","","","","","","","","","","","","","","","","","","",""
"","","","","","image-keyboard-response","208","341468","0.0-183.0","60cb3c4b9454f7a196355088","665500ab8938657b03fbdba8","665793595ab239deb9b9900e","813","stimuli/1010101.jpg","1","","prediction_trial","1","","true","","1","true","true","false","true","false","true","[1]","010","101","1","","","","","","",""
"","","","","","image-keyboard-response","209","341927","0.0-184.0","60cb3c4b9454f7a196355088","665500ab8938657b03fbdba8","665793595ab239deb9b9900e","456","stimuli/10101011.jpg"," ","","feedback_trial","1","","","","","","","","","","","","","","","","","","","","",""
"","","","","","image-keyboard-response","210","342677","0.0-185.0","60cb3c4b9454f7a196355088","665500ab8938657b03fbdba8","665793595ab239deb9b9900e","747","stimuli/1110011.jpg","2","","prediction_trial","0","","false","","1","false","false","false","false","false","false","[0,1]","110","011","0","","","","","","",""
"","","","","","image-keyboard-response","211","343286","0.0-186.0","60cb3c4b9454f7a196355088","665500ab8938657b03fbdba8","665793595ab239deb9b9900e","606","stimuli/11100110.jpg"," ","","feedback_trial","0","","","","","","","","","","","","","","","","","","","","",""
"","","","","","image-keyboard-response","212","344048","0.0-187.0","60cb3c4b9454f7a196355088","665500ab8938657b03fbdba8","665793595ab239deb9b9900e","759","stimuli/1110101.jpg","1","","prediction_trial","1","","true","","1","true","true","false","false","false","false","[1,0]","110","101","1","","","","","","",""
"","","","","","image-keyboard-response","213","344477","0.0-188.0","60cb3c4b9454f7a196355088","665500ab8938657b03fbdba8","665793595ab239deb9b9900e","426","stimuli/11101011.jpg"," ","","feedback_trial","1","","","","","","","","","","","","","","","","","","","","",""
"","","","","","image-keyboard-response","214","345095","0.0-189.0","60cb3c4b9454f7a196355088","665500ab8938657b03fbdba8","665793595ab239deb9b9900e","611","stimuli/0111011.jpg","0","","prediction_trial","1","","false","","0","true","true","false","false","false","false","[1,2,0]","111","011","0","","","","","","",""
"","","","","","image-keyboard-response","215","345507","0.0-190.0","60cb3c4b9454f7a196355088","665500ab8938657b03fbdba8","665793595ab239deb9b9900e","409","stimuli/01110111.jpg"," ","","feedback_trial","1","","","","","","","","","","","","","","","","","","","","",""
"","","","","","image-keyboard-response","216","346258","0.0-191.0","60cb3c4b9454f7a196355088","665500ab8938657b03fbdba8","665793595ab239deb9b9900e","747","stimuli/0010101.jpg","0","","prediction_trial","0","","true","","0","false","false","true","true","false","false","[0]","010","101","1","","","","","","",""
"","","","","","image-keyboard-response","217","346729","0.0-192.0","60cb3c4b9454f7a196355088","665500ab8938657b03fbdba8","665793595ab239deb9b9900e","469","stimuli/00101010.jpg"," ","","feedback_trial","0","","","","","","","","","","","","","","","","","","","","",""
"","","","","","image-keyboard-response","218","348324","0.0-193.0","60cb3c4b9454f7a196355088","665500ab8938657b03fbdba8","665793595ab239deb9b9900e","1593","stimuli/2001101.jpg","2","","prediction_trial","2","","true","","2","false","false","false","true","false","false","[2]","001","101","1","","","","","","",""
"","","","","","image-keyboard-response","219","348858","0.0-194.0","60cb3c4b9454f7a196355088","665500ab8938657b03fbdba8","665793595ab239deb9b9900e","530","stimuli/20011012.jpg"," ","","feedback_trial","2","","","","","","","","","","","","","","","","","","","","",""
"","","","","","image-keyboard-response","220","349506","0.0-195.0","60cb3c4b9454f7a196355088","665500ab8938657b03fbdba8","665793595ab239deb9b9900e","643","stimuli/2010110.jpg","2","","prediction_trial","2","","true","","2","true","true","true","true","true","true","[2]","010","110","1","","","","","","",""
"","","","","","image-keyboard-response","221","349855","0.0-196.0","60cb3c4b9454f7a196355088","665500ab8938657b03fbdba8","665793595ab239deb9b9900e","345","stimuli/20101102.jpg"," ","","feedback_trial","2","","","","","","","","","","","","","","","","","","","","",""
"","","","","","image-keyboard-response","222","350774","0.0-197.0","60cb3c4b9454f7a196355088","665500ab8938657b03fbdba8","665793595ab239deb9b9900e","908","stimuli/1111110.jpg","0","","prediction_trial","1","","false","","1","false","false","false","false","false","false","[1,2,0]","111","110","0","","","","","","",""
"","","","","","image-keyboard-response","223","351277","0.0-198.0","60cb3c4b9454f7a196355088","665500ab8938657b03fbdba8","665793595ab239deb9b9900e","499","stimuli/11111101.jpg"," ","","feedback_trial","1","","","","","","","","","","","","","","","","","","","","",""
"","","","","","image-keyboard-response","224","352344","0.0-199.0","60cb3c4b9454f7a196355088","665500ab8938657b03fbdba8","665793595ab239deb9b9900e","1064","stimuli/2110101.jpg","2","","prediction_trial","2","","true","","2","false","false","true","true","false","false","[2]","110","101","1","","","","","","",""
"","","","","","image-keyboard-response","225","352883","0.0-200.0","60cb3c4b9454f7a196355088","665500ab8938657b03fbdba8","665793595ab239deb9b9900e","535","stimuli/21101012.jpg"," ","","feedback_trial","2","","","","","","","","","","","","","","","","","","","","",""
"","","","","","image-keyboard-response","226","353767","0.0-201.0","60cb3c4b9454f7a196355088","665500ab8938657b03fbdba8","665793595ab239deb9b9900e","880","stimuli/0001110.jpg","0","","prediction_trial","0","","true","","0","false","false","true","true","false","false","[0]","001","110","1","","","","","","",""
"","","","","","image-keyboard-response","227","354280","0.0-202.0","60cb3c4b9454f7a196355088","665500ab8938657b03fbdba8","665793595ab239deb9b9900e","510","stimuli/00011100.jpg"," ","","feedback_trial","0","","","","","","","","","","","","","","","","","","","","",""
"","","","","","image-keyboard-response","228","355017","0.0-203.0","60cb3c4b9454f7a196355088","665500ab8938657b03fbdba8","665793595ab239deb9b9900e","735","stimuli/1010100.jpg","1","","prediction_trial","1","","true","","1","true","true","false","true","false","true","[1]","010","100","1","","","","","","",""
"","","","","","image-keyboard-response","229","355753","0.0-204.0","60cb3c4b9454f7a196355088","665500ab8938657b03fbdba8","665793595ab239deb9b9900e","733","stimuli/10101001.jpg"," ","","feedback_trial","1","","","","","","","","","","","","","","","","","","","","",""
"","","","","","image-keyboard-response","230","356508","0.0-205.0","60cb3c4b9454f7a196355088","665500ab8938657b03fbdba8","665793595ab239deb9b9900e","750","stimuli/0010111.jpg","1","","prediction_trial","0","","false","","0","false","false","true","true","false","false","[0]","010","111","0","","","","","","",""
"","","","","","image-keyboard-response","231","357170","0.0-206.0","60cb3c4b9454f7a196355088","665500ab8938657b03fbdba8","665793595ab239deb9b9900e","659","stimuli/00101110.jpg"," ","","feedback_trial","0","","","","","","","","","","","","","","","","","","","","",""
"","","","","","image-keyboard-response","232","357783","0.0-207.0","60cb3c4b9454f7a196355088","665500ab8938657b03fbdba8","665793595ab239deb9b9900e","610","stimuli/2110010.jpg","2","","prediction_trial","2","","true","","2","true","true","true","true","true","true","[2]","110","010","1","","","","","","",""
"","","","","","image-keyboard-response","233","358183","0.0-208.0","60cb3c4b9454f7a196355088","665500ab8938657b03fbdba8","665793595ab239deb9b9900e","398","stimuli/21100102.jpg"," ","","feedback_trial","2","","","","","","","","","","","","","","","","","","","","",""
"","","","","","image-keyboard-response","234","359799","0.0-209.0","60cb3c4b9454f7a196355088","665500ab8938657b03fbdba8","665793595ab239deb9b9900e","1611","stimuli/2110011.jpg","2","","prediction_trial","2","","true","","2","false","false","true","true","false","false","[2]","110","011","1","","","","","","",""
"","","","","","image-keyboard-response","235","360335","0.0-210.0","60cb3c4b9454f7a196355088","665500ab8938657b03fbdba8","665793595ab239deb9b9900e","532","stimuli/21100112.jpg"," ","","feedback_trial","2","","","","","","","","","","","","","","","","","","","","",""
"","","","","","image-keyboard-response","236","361161","0.0-211.0","60cb3c4b9454f7a196355088","665500ab8938657b03fbdba8","665793595ab239deb9b9900e","822","stimuli/1011101.jpg","1","","prediction_trial","1","","true","","1","true","true","false","false","false","false","[1,2]","011","101","1","","","","","","",""
"","","","","","image-keyboard-response","237","361589","0.0-212.0","60cb3c4b9454f7a196355088","665500ab8938657b03fbdba8","665793595ab239deb9b9900e","425","stimuli/10111011.jpg"," ","","feedback_trial","1","","","","","","","","","","","","","","","","","","","","",""
"","","","","","image-keyboard-response","238","362378","0.0-213.0","60cb3c4b9454f7a196355088","665500ab8938657b03fbdba8","665793595ab239deb9b9900e","786","stimuli/1011010.jpg","1","","prediction_trial","2","","false","","1","false","true","false","false","false","false","[1,2]","011","010","0","","","","","","",""
"","","","","","image-keyboard-response","239","363508","0.0-214.0","60cb3c4b9454f7a196355088","665500ab8938657b03fbdba8","665793595ab239deb9b9900e","1126","stimuli/10110102.jpg"," ","","feedback_trial","1","","","","","","","","","","","","","","","","","","","","",""
"","","","","","image-keyboard-response","240","364346","0.0-215.0","60cb3c4b9454f7a196355088","665500ab8938657b03fbdba8","665793595ab239deb9b9900e","834","stimuli/2011110.jpg","2","","prediction_trial","1","","false","","2","true","true","false","false","false","false","[2,1]","011","110","0","","","","","","",""
"","","","","","image-keyboard-response","241","364865","0.0-216.0","60cb3c4b9454f7a196355088","665500ab8938657b03fbdba8","665793595ab239deb9b9900e","511","stimuli/20111101.jpg"," ","","feedback_trial","2","","","","","","","","","","","","","","","","","","","","",""
"","","","","","image-keyboard-response","242","365475","0.0-217.0","60cb3c4b9454f7a196355088","665500ab8938657b03fbdba8","665793595ab239deb9b9900e","607","stimuli/1001000.jpg","1","","prediction_trial","1","","true","","1","true","true","true","true","true","true","[1]","001","000","1","","","","","","",""
"","","","","","image-keyboard-response","243","365795","0.0-218.0","60cb3c4b9454f7a196355088","665500ab8938657b03fbdba8","665793595ab239deb9b9900e","318","stimuli/10010001.jpg"," ","","feedback_trial","1","","","","","","","","","","","","","","","","","","","","",""
"","","","","","image-keyboard-response","244","366701","0.0-219.0","60cb3c4b9454f7a196355088","665500ab8938657b03fbdba8","665793595ab239deb9b9900e","904","stimuli/0101100.jpg","0","","prediction_trial","2","","false","","0","false","true","false","false","false","false","[2,0]","101","100","0","","","","","","",""
"","","","","","image-keyboard-response","245","367245","0.0-220.0","60cb3c4b9454f7a196355088","665500ab8938657b03fbdba8","665793595ab239deb9b9900e","541","stimuli/01011002.jpg"," ","","feedback_trial","2","","","","","","","","","","","","","","","","","","","","",""
"","","","","","image-keyboard-response","246","367886","0.0-221.0","60cb3c4b9454f7a196355088","665500ab8938657b03fbdba8","665793595ab239deb9b9900e","632","stimuli/2000110.jpg","2","","prediction_trial","2","","true","","2","true","true","true","true","true","true","[2]","000","110","1","","","","","","",""
"","","","","","image-keyboard-response","247","368255","0.0-222.0","60cb3c4b9454f7a196355088","665500ab8938657b03fbdba8","665793595ab239deb9b9900e","365","stimuli/20001102.jpg"," ","","feedback_trial","2","","","","","","","","","","","","","","","","","","","","",""
"","","","","","image-keyboard-response","248","369132","0.0-223.0","60cb3c4b9454f7a196355088","665500ab8938657b03fbdba8","665793595ab239deb9b9900e","873","stimuli/2011001.jpg","2","","prediction_trial","2","","true","","2","false","true","false","false","false","false","[1,2]","011","001","1","","","","","","",""
"","","","","","image-keyboard-response","249","369544","0.0-224.0","60cb3c4b9454f7a196355088","665500ab8938657b03fbdba8","665793595ab239deb9b9900e","408","stimuli/20110012.jpg"," ","","feedback_trial","1","","","","","","","","","","","","","","","","","","","","",""
"","","","","","image-keyboard-response","250","370288","0.0-225.0","60cb3c4b9454f7a196355088","665500ab8938657b03fbdba8","665793595ab239deb9b9900e","732","stimuli/1100110.jpg","1","","prediction_trial","1","","true","","1","false","false","true","true","false","false","[1]","100","110","1","","","","","","",""
"","","","","","image-keyboard-response","251","370775","0.0-226.0","60cb3c4b9454f7a196355088","665500ab8938657b03fbdba8","665793595ab239deb9b9900e","485","stimuli/11001101.jpg"," ","","feedback_trial","1","","","","","","","","","","","","","","","","","","","","",""
"","","","","","image-keyboard-response","252","371481","0.0-227.0","60cb3c4b9454f7a196355088","665500ab8938657b03fbdba8","665793595ab239deb9b9900e","704","stimuli/2001111.jpg","1","","prediction_trial","2","","false","","2","false","false","false","true","false","false","[2]","001","111","0","","","","","","",""
"","","","","","image-keyboard-response","253","372036","0.0-228.0","60cb3c4b9454f7a196355088","665500ab8938657b03fbdba8","665793595ab239deb9b9900e","552","stimuli/20011112.jpg"," ","","feedback_trial","2","","","","","","","","","","","","","","","","","","","","",""
"","","","","","image-keyboard-response","254","372653","0.0-229.0","60cb3c4b9454f7a196355088","665500ab8938657b03fbdba8","665793595ab239deb9b9900e","612","stimuli/2010101.jpg","0","","prediction_trial","2","","false","","2","false","false","true","true","false","false","[2]","010","101","0","","","","","","",""
"","","","","","image-keyboard-response","255","373234","0.0-230.0","60cb3c4b9454f7a196355088","665500ab8938657b03fbdba8","665793595ab239deb9b9900e","578","stimuli/20101012.jpg"," ","","feedback_trial","2","","","","","","","","","","","","","","","","","","","","",""
"","","","","","image-keyboard-response","256","374080","0.0-231.0","60cb3c4b9454f7a196355088","665500ab8938657b03fbdba8","665793595ab239deb9b9900e","842","stimuli/2111010.jpg","2","","prediction_trial","0","","false","","2","true","true","false","false","false","false","[2,1,0]","111","010","0","","","","","","",""
"","","","","","image-keyboard-response","257","374624","0.0-232.0","60cb3c4b9454f7a196355088","665500ab8938657b03fbdba8","665793595ab239deb9b9900e","541","stimuli/21110100.jpg"," ","","feedback_trial","2","","","","","","","","","","","","","","","","","","","","",""
"","","","","","image-keyboard-response","258","375371","0.0-233.0","60cb3c4b9454f7a196355088","665500ab8938657b03fbdba8","665793595ab239deb9b9900e","744","stimuli/0111101.jpg","2","","prediction_trial","1","","false","","0","false","false","false","false","false","false","[2,1,0]","111","101","0","","","","","","",""
"","","","","","image-keyboard-response","259","375791","0.0-234.0","60cb3c4b9454f7a196355088","665500ab8938657b03fbdba8","665793595ab239deb9b9900e","418","stimuli/01111011.jpg"," ","","feedback_trial","2","","","","","","","","","","","","","","","","","","","","",""
"","","","","","image-keyboard-response","260","376402","0.0-235.0","60cb3c4b9454f7a196355088","665500ab8938657b03fbdba8","665793595ab239deb9b9900e","607","stimuli/0110000.jpg","0","","prediction_trial","1","","false","","0","true","true","false","false","false","false","[1,0]","110","000","0","","","","","","",""
"","","","","","image-keyboard-response","261","377133","0.0-236.0","60cb3c4b9454f7a196355088","665500ab8938657b03fbdba8","665793595ab239deb9b9900e","719","stimuli/01100001.jpg"," ","","feedback_trial","1","","","","","","","","","","","","","","","","","","","","",""
"","","","","","image-keyboard-response","262","377830","0.0-237.0","60cb3c4b9454f7a196355088","665500ab8938657b03fbdba8","665793595ab239deb9b9900e","695","stimuli/0100110.jpg","0","","prediction_trial","0","","true","","0","false","false","false","true","false","false","[0]","100","110","1","","","","","","",""
"","","","","","image-keyboard-response","263","378508","0.0-238.0","60cb3c4b9454f7a196355088","665500ab8938657b03fbdba8","665793595ab239deb9b9900e","674","stimuli/01001100.jpg"," ","","feedback_trial","0","","","","","","","","","","","","","","","","","","","","",""
"","","","","","image-keyboard-response","264","379613","0.0-239.0","60cb3c4b9454f7a196355088","665500ab8938657b03fbdba8","665793595ab239deb9b9900e","1102","stimuli/2000011.jpg","2","","prediction_trial","2","","true","","2","false","false","true","true","false","false","[2]","000","011","1","","","","","","",""
"","","","","","image-keyboard-response","265","380284","0.0-240.0","60cb3c4b9454f7a196355088","665500ab8938657b03fbdba8","665793595ab239deb9b9900e","667","stimuli/20000112.jpg"," ","","feedback_trial","2","","","","","","","","","","","","","","","","","","","","",""
"","","","","","image-keyboard-response","266","380882","0.0-241.0","60cb3c4b9454f7a196355088","665500ab8938657b03fbdba8","665793595ab239deb9b9900e","593","stimuli/1100010.jpg","1","","prediction_trial","1","","true","","1","false","true","true","true","false","true","[1]","100","010","1","","","","","","",""
"","","","","","image-keyboard-response","267","381540","0.0-242.0","60cb3c4b9454f7a196355088","665500ab8938657b03fbdba8","665793595ab239deb9b9900e","656","stimuli/11000101.jpg"," ","","feedback_trial","1","","","","","","","","","","","","","","","","","","","","",""
"","","","","","image-keyboard-response","268","382195","0.0-243.0","60cb3c4b9454f7a196355088","665500ab8938657b03fbdba8","665793595ab239deb9b9900e","651","stimuli/1101101.jpg","1","","prediction_trial","1","","true","","1","true","true","true","true","true","true","[1]","101","101","1","","","","","","",""
"","","","","","image-keyboard-response","269","382683","0.0-244.0","60cb3c4b9454f7a196355088","665500ab8938657b03fbdba8","665793595ab239deb9b9900e","484","stimuli/11011011.jpg"," ","","feedback_trial","1","","","","","","","","","","","","","","","","","","","","",""
"","","","","","image-keyboard-response","270","383439","0.0-245.0","60cb3c4b9454f7a196355088","665500ab8938657b03fbdba8","665793595ab239deb9b9900e","740","stimuli/2110001.jpg","2","","prediction_trial","2","","true","","2","false","true","true","true","false","true","[2]","110","001","1","","","","","","",""
"","","","","","image-keyboard-response","271","383800","0.0-246.0","60cb3c4b9454f7a196355088","665500ab8938657b03fbdba8","665793595ab239deb9b9900e","356","stimuli/21100012.jpg"," ","","feedback_trial","2","","","","","","","","","","","","","","","","","","","","",""
"","","","","","image-keyboard-response","272","384672","0.0-247.0","60cb3c4b9454f7a196355088","665500ab8938657b03fbdba8","665793595ab239deb9b9900e","868","stimuli/0000001.jpg","0","","prediction_trial","0","","true","","0","true","true","true","true","true","true","[0]","000","001","1","","","","","","",""
"","","","","","image-keyboard-response","273","385034","0.0-248.0","60cb3c4b9454f7a196355088","665500ab8938657b03fbdba8","665793595ab239deb9b9900e","358","stimuli/00000010.jpg"," ","","feedback_trial","0","","","","","","","","","","","","","","","","","","","","",""
"","","","","","image-keyboard-response","274","385812","0.0-249.0","60cb3c4b9454f7a196355088","665500ab8938657b03fbdba8","665793595ab239deb9b9900e","775","stimuli/1111010.jpg","1","","prediction_trial","0","","false","","1","false","true","false","false","false","false","[1,0,2]","111","010","0","","","","","","",""
"","","","","","image-keyboard-response","275","386291","0.0-250.0","60cb3c4b9454f7a196355088","665500ab8938657b03fbdba8","665793595ab239deb9b9900e","473","stimuli/11110100.jpg"," ","","feedback_trial","1","","","","","","","","","","","","","","","","","","","","",""
"","","","","","image-keyboard-response","276","386871","0.0-251.0","60cb3c4b9454f7a196355088","665500ab8938657b03fbdba8","665793595ab239deb9b9900e","574","stimuli/1011110.jpg","0","","prediction_trial","1","","false","","1","false","false","false","false","false","false","[2,1]","011","110","0","","","","","","",""
"","","","","","image-keyboard-response","277","387258","0.0-252.0","60cb3c4b9454f7a196355088","665500ab8938657b03fbdba8","665793595ab239deb9b9900e","385","stimuli/10111101.jpg"," ","","feedback_trial","2","","","","","","","","","","","","","","","","","","","","",""
"","","","","","image-keyboard-response","278","387710","0.0-253.0","60cb3c4b9454f7a196355088","665500ab8938657b03fbdba8","665793595ab239deb9b9900e","449","stimuli/2011011.jpg","0","","prediction_trial","2","","false","","2","false","false","false","false","false","false","[2,1]","011","011","0","","","","","","",""
"","","","","","image-keyboard-response","279","388171","0.0-254.0","60cb3c4b9454f7a196355088","665500ab8938657b03fbdba8","665793595ab239deb9b9900e","457","stimuli/20110112.jpg"," ","","feedback_trial","2","","","","","","","","","","","","","","","","","","","","",""
"","","","","","image-keyboard-response","280","388766","0.0-255.0","60cb3c4b9454f7a196355088","665500ab8938657b03fbdba8","665793595ab239deb9b9900e","591","stimuli/0011000.jpg","0","","prediction_trial","0","","true","","0","true","true","true","true","true","true","[0]","011","000","1","","","","","","",""
"","","","","","image-keyboard-response","281","389259","0.0-256.0","60cb3c4b9454f7a196355088","665500ab8938657b03fbdba8","665793595ab239deb9b9900e","489","stimuli/00110000.jpg"," ","","feedback_trial","0","","","","","","","","","","","","","","","","","","","","",""
"","","","","","image-keyboard-response","282","389855","0.0-257.0","60cb3c4b9454f7a196355088","665500ab8938657b03fbdba8","665793595ab239deb9b9900e","590","stimuli/0010100.jpg","0","","prediction_trial","0","","true","","0","false","true","true","true","false","true","[0]","010","100","1","","","","","","",""
"","","","","","image-keyboard-response","283","390301","0.0-258.0","60cb3c4b9454f7a196355088","665500ab8938657b03fbdba8","665793595ab239deb9b9900e","442","stimuli/00101000.jpg"," ","","feedback_trial","0","","","","","","","","","","","","","","","","","","","","",""
"","","","","","image-keyboard-response","284","390821","0.0-259.0","60cb3c4b9454f7a196355088","665500ab8938657b03fbdba8","665793595ab239deb9b9900e","515","stimuli/2100100.jpg","2","","prediction_trial","2","","true","","2","true","true","true","true","true","true","[2]","100","100","1","","","","","","",""
"","","","","","image-keyboard-response","285","391198","0.0-260.0","60cb3c4b9454f7a196355088","665500ab8938657b03fbdba8","665793595ab239deb9b9900e","374","stimuli/21001002.jpg"," ","","feedback_trial","2","","","","","","","","","","","","","","","","","","","","",""
"","","","","","image-keyboard-response","286","391971","0.0-261.0","60cb3c4b9454f7a196355088","665500ab8938657b03fbdba8","665793595ab239deb9b9900e","770","stimuli/2000000.jpg","2","","prediction_trial","2","","true","","2","true","true","true","true","true","true","[2]","000","000","1","","","","","","",""
"","","","","","image-keyboard-response","287","392348","0.0-262.0","60cb3c4b9454f7a196355088","665500ab8938657b03fbdba8","665793595ab239deb9b9900e","373","stimuli/20000002.jpg"," ","","feedback_trial","2","","","","","","","","","","","","","","","","","","","","",""
"","","","","","image-keyboard-response","288","393174","0.0-263.0","60cb3c4b9454f7a196355088","665500ab8938657b03fbdba8","665793595ab239deb9b9900e","823","stimuli/1000011.jpg","1","","prediction_trial","1","","true","","1","false","false","true","true","false","false","[1]","000","011","1","","","","","","",""
"","","","","","image-keyboard-response","289","393631","0.0-264.0","60cb3c4b9454f7a196355088","665500ab8938657b03fbdba8","665793595ab239deb9b9900e","453","stimuli/10000111.jpg"," ","","feedback_trial","1","","","","","","","","","","","","","","","","","","","","",""
"","","","","","image-keyboard-response","290","394153","0.0-265.0","60cb3c4b9454f7a196355088","665500ab8938657b03fbdba8","665793595ab239deb9b9900e","517","stimuli/1101100.jpg","1","","prediction_trial","1","","true","","1","true","true","true","true","true","true","[1]","101","100","1","","","","","","",""
"","","","","","image-keyboard-response","291","394481","0.0-266.0","60cb3c4b9454f7a196355088","665500ab8938657b03fbdba8","665793595ab239deb9b9900e","324","stimuli/11011001.jpg"," ","","feedback_trial","1","","","","","","","","","","","","","","","","","","","","",""
"","","","","","image-keyboard-response","292","395088","0.0-267.0","60cb3c4b9454f7a196355088","665500ab8938657b03fbdba8","665793595ab239deb9b9900e","603","stimuli/0010110.jpg","0","","prediction_trial","0","","true","","0","false","false","true","true","false","false","[0]","010","110","1","","","","","","",""
"","","","","","image-keyboard-response","293","395513","0.0-268.0","60cb3c4b9454f7a196355088","665500ab8938657b03fbdba8","665793595ab239deb9b9900e","422","stimuli/00101100.jpg"," ","","feedback_trial","0","","","","","","","","","","","","","","","","","","","","",""
"","","","","","image-keyboard-response","294","396398","0.0-269.0","60cb3c4b9454f7a196355088","665500ab8938657b03fbdba8","665793595ab239deb9b9900e","876","stimuli/0101101.jpg","2","","prediction_trial","0","","false","","0","false","false","false","false","false","false","[2,0]","101","101","0","","","","","","",""
"","","","","","image-keyboard-response","295","396856","0.0-270.0","60cb3c4b9454f7a196355088","665500ab8938657b03fbdba8","665793595ab239deb9b9900e","455","stimuli/01011010.jpg"," ","","feedback_trial","2","","","","","","","","","","","","","","","","","","","","",""
"","","","","","image-keyboard-response","296","397435","0.0-271.0","60cb3c4b9454f7a196355088","665500ab8938657b03fbdba8","665793595ab239deb9b9900e","575","stimuli/0001011.jpg","0","","prediction_trial","0","","true","","0","true","true","true","true","true","true","[0]","001","011","1","","","","","","",""
"","","","","","image-keyboard-response","297","397760","0.0-272.0","60cb3c4b9454f7a196355088","665500ab8938657b03fbdba8","665793595ab239deb9b9900e","321","stimuli/00010110.jpg"," ","","feedback_trial","0","","","","","","","","","","","","","","","","","","","","",""
"","","","","","image-keyboard-response","298","398315","0.0-273.0","60cb3c4b9454f7a196355088","665500ab8938657b03fbdba8","665793595ab239deb9b9900e","552","stimuli/0111000.jpg","0","","prediction_trial","1","","false","","0","true","true","false","false","false","false","[0,1,2]","111","000","0","","","","","","",""
"","","","","","image-keyboard-response","299","398781","0.0-274.0","60cb3c4b9454f7a196355088","665500ab8938657b03fbdba8","665793595ab239deb9b9900e","464","stimuli/01110001.jpg"," ","","feedback_trial","0","","","","","","","","","","","","","","","","","","","","",""
"","","","","","image-keyboard-response","300","399292","0.0-275.0","60cb3c4b9454f7a196355088","665500ab8938657b03fbdba8","665793595ab239deb9b9900e","508","stimuli/0101001.jpg","0","","prediction_trial","0","","true","","0","true","true","false","false","false","false","[0,2]","101","001","1","","","","","","",""
"","","","","","image-keyboard-response","301","399673","0.0-276.0","60cb3c4b9454f7a196355088","665500ab8938657b03fbdba8","665793595ab239deb9b9900e","378","stimuli/01010010.jpg"," ","","feedback_trial","0","","","","","","","","","","","","","","","","","","","","",""
"","","","","","image-keyboard-response","302","400799","0.0-277.0","60cb3c4b9454f7a196355088","665500ab8938657b03fbdba8","665793595ab239deb9b9900e","1117","stimuli/2101011.jpg","1","","prediction_trial","0","","false","","2","false","false","false","false","false","false","[2,0]","101","011","0","","","","","","",""
"","","","","","image-keyboard-response","303","401356","0.0-278.0","60cb3c4b9454f7a196355088","665500ab8938657b03fbdba8","665793595ab239deb9b9900e","553","stimuli/21010110.jpg"," ","","feedback_trial","2","","","","","","","","","","","","","","","","","","","","",""
"","","","","","image-keyboard-response","304","401981","0.0-279.0","60cb3c4b9454f7a196355088","665500ab8938657b03fbdba8","665793595ab239deb9b9900e","620","stimuli/0010010.jpg","0","","prediction_trial","0","","true","","0","true","true","true","true","true","true","[0]","010","010","1","","","","","","",""
"","","","","","image-keyboard-response","305","402316","0.0-280.0","60cb3c4b9454f7a196355088","665500ab8938657b03fbdba8","665793595ab239deb9b9900e","332","stimuli/00100100.jpg"," ","","feedback_trial","0","","","","","","","","","","","","","","","","","","","","",""
"","","","","","image-keyboard-response","306","402959","0.0-281.0","60cb3c4b9454f7a196355088","665500ab8938657b03fbdba8","665793595ab239deb9b9900e","635","stimuli/1111100.jpg","1","","prediction_trial","0","","false","","1","true","true","false","false","false","false","[0,1,2]","111","100","0","","","","","","",""
"","","","","","image-keyboard-response","307","403314","0.0-282.0","60cb3c4b9454f7a196355088","665500ab8938657b03fbdba8","665793595ab239deb9b9900e","351","stimuli/11111000.jpg"," ","","feedback_trial","0","","","","","","","","","","","","","","","","","","","","",""
"","","","","","image-keyboard-response","308","404272","0.0-283.0","60cb3c4b9454f7a196355088","665500ab8938657b03fbdba8","665793595ab239deb9b9900e","955","stimuli/2010111.jpg","2","","prediction_trial","2","","true","","2","false","false","true","true","false","false","[2]","010","111","1","","","","","","",""
"","","","","","image-keyboard-response","309","404819","0.0-284.0","60cb3c4b9454f7a196355088","665500ab8938657b03fbdba8","665793595ab239deb9b9900e","543","stimuli/20101112.jpg"," ","","feedback_trial","2","","","","","","","","","","","","","","","","","","","","",""
"","","","","","image-keyboard-response","310","405448","0.0-285.0","60cb3c4b9454f7a196355088","665500ab8938657b03fbdba8","665793595ab239deb9b9900e","626","stimuli/0111001.jpg","0","","prediction_trial","0","","true","","0","true","true","false","false","false","false","[0,1,2]","111","001","1","","","","","","",""
"","","","","","image-keyboard-response","311","405941","0.0-286.0","60cb3c4b9454f7a196355088","665500ab8938657b03fbdba8","665793595ab239deb9b9900e","489","stimuli/01110010.jpg"," ","","feedback_trial","0","","","","","","","","","","","","","","","","","","","","",""
"","","","","","image-keyboard-response","312","406608","0.0-287.0","60cb3c4b9454f7a196355088","665500ab8938657b03fbdba8","665793595ab239deb9b9900e","663","stimuli/2010010.jpg","2","","prediction_trial","2","","true","","2","true","true","true","true","true","true","[2]","010","010","1","","","","","","",""
"","","","","","image-keyboard-response","313","406953","0.0-288.0","60cb3c4b9454f7a196355088","665500ab8938657b03fbdba8","665793595ab239deb9b9900e","341","stimuli/20100102.jpg"," ","","feedback_trial","2","","","","","","","","","","","","","","","","","","","","",""
"","","","","","image-keyboard-response","314","407628","0.0-289.0","60cb3c4b9454f7a196355088","665500ab8938657b03fbdba8","665793595ab239deb9b9900e","672","stimuli/1001001.jpg","1","","prediction_trial","1","","true","","1","true","true","true","true","true","true","[1]","001","001","1","","","","","","",""
"","","","","","image-keyboard-response","315","408018","0.0-290.0","60cb3c4b9454f7a196355088","665500ab8938657b03fbdba8","665793595ab239deb9b9900e","386","stimuli/10010011.jpg"," ","","feedback_trial","1","","","","","","","","","","","","","","","","","","","","",""
"","","","","","image-keyboard-response","316","408804","0.0-291.0","60cb3c4b9454f7a196355088","665500ab8938657b03fbdba8","665793595ab239deb9b9900e","783","stimuli/1110111.jpg","2","","prediction_trial","1","","false","","1","false","false","false","false","false","false","[0,1]","110","111","0","","","","","","",""
"","","","","","image-keyboard-response","317","409326","0.0-292.0","60cb3c4b9454f7a196355088","665500ab8938657b03fbdba8","665793595ab239deb9b9900e","520","stimuli/11101111.jpg"," ","","feedback_trial","0","","","","","","","","","","","","","","","","","","","","",""
"","","","","","survey-html-form","318","446687","0.0-293.0","60cb3c4b9454f7a196355088","665500ab8938657b03fbdba8","665793595ab239deb9b9900e","37356","","{""feedback"":""if I was able to see the ball versus if sam could see the ball"",""age"":""37"",""gender"":""Male"",""other_gender"":"""",""race"":""Black/African American"",""other_race"":"""",""ethnicity"":""Non-Hispanic""}","","exit_survey","","","","","","","","","","","","","","","","if I was able to see the ball versus if sam could see the ball","37","Non-Hispanic","Male","Black/African American","0.6597222222222222","0.6597222222222222"
