"success","timeout","failed_images","failed_audio","failed_video","trial_type","trial_index","time_elapsed","internal_node_id","prolific_id","prolific_study_id","prolific_session_id","rt","stimulus","response","view_history","trial","character_choice","stimulus_dict","accuracy","correct_response","ball_pos","ego_ball_visible","ego_can_infer","alter_ball_visible","alter_can_infer","collective_ball_visible","collective_can_infer","search_locations","alter_occluders","ego_occluders","accuracy_bool","feedback","age","ethnicity","gender","race","overall_accuracy","bonus"
"true","false","[]","[]","[]","preload","0","2470","0.0-0.0","5e0d256753e8464d64940925","665500ab8938657b03fbdba8","6657927ed4ef789b494b24d4","","","","","","","","","","","","","","","","","","","","","","","","","","",""
"true","","","","","fullscreen","1","11588","0.0-1.0","5e0d256753e8464d64940925","665500ab8938657b03fbdba8","6657927ed4ef789b494b24d4","","","","","","","","","","","","","","","","","","","","","","","","","","",""
"","","","","","html-button-response","2","14748","0.0-2.0","5e0d256753e8464d64940925","665500ab8938657b03fbdba8","6657927ed4ef789b494b24d4","3158","<p><b>Consent Form</b></p> <div style=""text-align:left;background-color:lightgrey; padding:20px; max-width:900px;""><p>Please consider this information carefully before deciding whether to participate in this research.</p> <p>The purpose of this research is to examine which factors influence social judgment and decision-making. You will be asked to make judgements about individuals and actions in social scenarios. We are simply interested in your judgement. The study will take less than 1 hour to complete, and you will receive less than $20 on Prolific. Your compensation and time commitment are specified in the study description. There are no anticipated risks associated with participating in this study. The effects of participating should be comparable to those you would ordinarily experience from viewing a computer monitor and using a mouse or keyboard for a similar amount of time. At the end of the study, we will provide an explanation of the questions that motivate this line of research and will describe the potential implications. </p><p> Your participation in this study is completely voluntary and you may refuse to participate or you may choose to withdraw at any time without penalty or loss of benefits to you which are otherwise entitled. Your participation in this study will remain confidential. No personally identifiable information will be associated with your data. Also, all analyses of the data will be averaged across all the participants, so your individual responses will never be specifically analyzed. </p><p> If you have questions or concerns about your participation or payment, or want to request a summary of research findings, please contact Dr. Jonathan Phillips at Jonathan.S.Phillips@dartmouth.edu. </p><p> Please save a copy of this form for your records. </p><p><b>Agreement: </b>The nature and purpose of this research have been sufficiently explained and I agree to participate in this study. I understand that I am free to withdraw at any time without incurring any penalty. Please consent by clicking the button below to continue. Otherwise, please exit the study at any time. </p>","0","","","","","","","","","","","","","","","","","","","","","","","",""
"","","","","","instructions","3","71075","0.0-3.0-0.0","5e0d256753e8464d64940925","665500ab8938657b03fbdba8","6657927ed4ef789b494b24d4","56326","","","[{""page_index"":0,""viewing_time"":1544},{""page_index"":1,""viewing_time"":1490},{""page_index"":2,""viewing_time"":2712},{""page_index"":3,""viewing_time"":5249},{""page_index"":4,""viewing_time"":4482},{""page_index"":5,""viewing_time"":3741},{""page_index"":6,""viewing_time"":4468},{""page_index"":7,""viewing_time"":1516},{""page_index"":8,""viewing_time"":2673},{""page_index"":9,""viewing_time"":1688},{""page_index"":10,""viewing_time"":12250},{""page_index"":11,""viewing_time"":7896},{""page_index"":12,""viewing_time"":5656},{""page_index"":13,""viewing_time"":963}]","intro","","","","","","","","","","","","","","","","","","","","","",""
"","","","","","image-keyboard-response","4","77743","0.0-3.0-1.0","5e0d256753e8464d64940925","665500ab8938657b03fbdba8","6657927ed4ef789b494b24d4","6666","stimuli/2101110.jpg","2","","prediction_practice","2","{""filepath"":""stimuli/2101110.jpg"",""ball_pos"":2,""ego_ball_visible"":true,""ego_can_infer"":true,""alter_ball_visible"":false,""alter_can_infer"":false,""collective_ball_visible"":false,""collective_can_infer"":false,""search_locations"":[0,2],""alter_occluders"":""101"",""ego_occluders"":""110""}","true","","","","","","","","","","","","","","","","","","",""
"","","","","","image-keyboard-response","5","79996","0.0-3.0-2.0","5e0d256753e8464d64940925","665500ab8938657b03fbdba8","6657927ed4ef789b494b24d4","2252","stimuli/21011102.jpg"," ","","practrice_feedback","0","","","","","","","","","","","","","","","","","","","","",""
"","","","","","image-keyboard-response","6","88589","0.0-3.0-3.0","5e0d256753e8464d64940925","665500ab8938657b03fbdba8","6657927ed4ef789b494b24d4","8593","stimuli/1100110.jpg","0","","prediction_practice","1","{""filepath"":""stimuli/1100110.jpg"",""ball_pos"":1,""ego_ball_visible"":false,""ego_can_infer"":false,""alter_ball_visible"":true,""alter_can_infer"":true,""collective_ball_visible"":false,""collective_can_infer"":false,""search_locations"":[1],""alter_occluders"":""100"",""ego_occluders"":""110""}","false","","","","","","","","","","","","","","","","","","",""
"","","","","","image-keyboard-response","7","94346","0.0-3.0-4.0","5e0d256753e8464d64940925","665500ab8938657b03fbdba8","6657927ed4ef789b494b24d4","5756","stimuli/11001101.jpg"," ","","practrice_feedback","1","","","","","","","","","","","","","","","","","","","","",""
"","","","","","image-keyboard-response","8","96663","0.0-3.0-5.0","5e0d256753e8464d64940925","665500ab8938657b03fbdba8","6657927ed4ef789b494b24d4","2316","stimuli/1001111.jpg","2","","prediction_practice","1","{""filepath"":""stimuli/1001111.jpg"",""ball_pos"":1,""ego_ball_visible"":false,""ego_can_infer"":false,""alter_ball_visible"":true,""alter_can_infer"":true,""collective_ball_visible"":false,""collective_can_infer"":false,""search_locations"":[1],""alter_occluders"":""001"",""ego_occluders"":""111""}","false","","","","","","","","","","","","","","","","","","",""
"","","","","","image-keyboard-response","9","102066","0.0-3.0-6.0","5e0d256753e8464d64940925","665500ab8938657b03fbdba8","6657927ed4ef789b494b24d4","5402","stimuli/10011111.jpg"," ","","practrice_feedback","1","","","","","","","","","","","","","","","","","","","","",""
"","","","","","image-keyboard-response","10","105977","0.0-3.0-7.0","5e0d256753e8464d64940925","665500ab8938657b03fbdba8","6657927ed4ef789b494b24d4","3910","stimuli/1011111.jpg","1","","prediction_practice","2","{""filepath"":""stimuli/1011111.jpg"",""ball_pos"":1,""ego_ball_visible"":false,""ego_can_infer"":false,""alter_ball_visible"":false,""alter_can_infer"":false,""collective_ball_visible"":false,""collective_can_infer"":false,""search_locations"":[1,2],""alter_occluders"":""011"",""ego_occluders"":""111""}","false","","","","","","","","","","","","","","","","","","",""
"","","","","","image-keyboard-response","11","108042","0.0-3.0-8.0","5e0d256753e8464d64940925","665500ab8938657b03fbdba8","6657927ed4ef789b494b24d4","2065","stimuli/10111112.jpg"," ","","practrice_feedback","1","","","","","","","","","","","","","","","","","","","","",""
"","","","","","image-keyboard-response","12","111227","0.0-3.0-9.0","5e0d256753e8464d64940925","665500ab8938657b03fbdba8","6657927ed4ef789b494b24d4","3180","stimuli/2001110.jpg","2","","prediction_practice","2","{""filepath"":""stimuli/2001110.jpg"",""ball_pos"":2,""ego_ball_visible"":true,""ego_can_infer"":true,""alter_ball_visible"":false,""alter_can_infer"":true,""collective_ball_visible"":false,""collective_can_infer"":true,""search_locations"":[2],""alter_occluders"":""001"",""ego_occluders"":""110""}","true","","","","","","","","","","","","","","","","","","",""
"","","","","","image-keyboard-response","13","112618","0.0-3.0-10.0","5e0d256753e8464d64940925","665500ab8938657b03fbdba8","6657927ed4ef789b494b24d4","1391","stimuli/20011102.jpg"," ","","practrice_feedback","2","","","","","","","","","","","","","","","","","","","","",""
"","","","","","image-keyboard-response","14","115060","0.0-3.0-11.0","5e0d256753e8464d64940925","665500ab8938657b03fbdba8","6657927ed4ef789b494b24d4","2440","stimuli/0011011.jpg","0","","prediction_practice","0","{""filepath"":""stimuli/0011011.jpg"",""ball_pos"":0,""ego_ball_visible"":true,""ego_can_infer"":true,""alter_ball_visible"":true,""alter_can_infer"":true,""collective_ball_visible"":true,""collective_can_infer"":true,""search_locations"":[0],""alter_occluders"":""011"",""ego_occluders"":""011""}","true","","","","","","","","","","","","","","","","","","",""
"","","","","","image-keyboard-response","15","116056","0.0-3.0-12.0","5e0d256753e8464d64940925","665500ab8938657b03fbdba8","6657927ed4ef789b494b24d4","996","stimuli/00110110.jpg"," ","","practrice_feedback","0","","","","","","","","","","","","","","","","","","","","",""
"","","","","","image-keyboard-response","16","122479","0.0-3.0-13.0","5e0d256753e8464d64940925","665500ab8938657b03fbdba8","6657927ed4ef789b494b24d4","6422","stimuli/1111010.jpg","1","","prediction_practice","1","{""filepath"":""stimuli/1111010.jpg"",""ball_pos"":1,""ego_ball_visible"":false,""ego_can_infer"":true,""alter_ball_visible"":false,""alter_can_infer"":false,""collective_ball_visible"":false,""collective_can_infer"":false,""search_locations"":[0,1,2],""alter_occluders"":""111"",""ego_occluders"":""010""}","true","","","","","","","","","","","","","","","","","","",""
"","","","","","image-keyboard-response","17","123522","0.0-3.0-14.0","5e0d256753e8464d64940925","665500ab8938657b03fbdba8","6657927ed4ef789b494b24d4","1042","stimuli/11110101.jpg"," ","","practrice_feedback","0","","","","","","","","","","","","","","","","","","","","",""
"","","","","","image-keyboard-response","18","125455","0.0-3.0-15.0","5e0d256753e8464d64940925","665500ab8938657b03fbdba8","6657927ed4ef789b494b24d4","1932","stimuli/2111111.jpg","2","","prediction_practice","2","{""filepath"":""stimuli/2111111.jpg"",""ball_pos"":2,""ego_ball_visible"":false,""ego_can_infer"":false,""alter_ball_visible"":false,""alter_can_infer"":false,""collective_ball_visible"":false,""collective_can_infer"":false,""search_locations"":[2,0,1],""alter_occluders"":""111"",""ego_occluders"":""111""}","true","","","","","","","","","","","","","","","","","","",""
"","","","","","image-keyboard-response","19","127087","0.0-3.0-16.0","5e0d256753e8464d64940925","665500ab8938657b03fbdba8","6657927ed4ef789b494b24d4","1631","stimuli/21111112.jpg"," ","","practrice_feedback","2","","","","","","","","","","","","","","","","","","","","",""
"","","","","","image-keyboard-response","20","128553","0.0-3.0-17.0","5e0d256753e8464d64940925","665500ab8938657b03fbdba8","6657927ed4ef789b494b24d4","1465","stimuli/0000000.jpg","0","","prediction_practice","0","{""filepath"":""stimuli/0000000.jpg"",""ball_pos"":0,""ego_ball_visible"":true,""ego_can_infer"":true,""alter_ball_visible"":true,""alter_can_infer"":true,""collective_ball_visible"":true,""collective_can_infer"":true,""search_locations"":[0],""alter_occluders"":""000"",""ego_occluders"":""000""}","true","","","","","","","","","","","","","","","","","","",""
"","","","","","image-keyboard-response","21","129488","0.0-3.0-18.0","5e0d256753e8464d64940925","665500ab8938657b03fbdba8","6657927ed4ef789b494b24d4","934","stimuli/00000000.jpg"," ","","practrice_feedback","0","","","","","","","","","","","","","","","","","","","","",""
"","","","","","image-keyboard-response","22","134320","0.0-3.0-19.0","5e0d256753e8464d64940925","665500ab8938657b03fbdba8","6657927ed4ef789b494b24d4","4831","stimuli/1001110.jpg","1","","prediction_practice","1","{""filepath"":""stimuli/1001110.jpg"",""ball_pos"":1,""ego_ball_visible"":false,""ego_can_infer"":false,""alter_ball_visible"":true,""alter_can_infer"":true,""collective_ball_visible"":false,""collective_can_infer"":false,""search_locations"":[1],""alter_occluders"":""001"",""ego_occluders"":""110""}","true","","","","","","","","","","","","","","","","","","",""
"","","","","","image-keyboard-response","23","135142","0.0-3.0-20.0","5e0d256753e8464d64940925","665500ab8938657b03fbdba8","6657927ed4ef789b494b24d4","821","stimuli/10011101.jpg"," ","","practrice_feedback","1","","","","","","","","","","","","","","","","","","","","",""
"","","","","","html-button-response","24","137139","0.0-3.0-21.0","5e0d256753e8464d64940925","665500ab8938657b03fbdba8","6657927ed4ef789b494b24d4","1997","Now that you've had some practice, you'll be tested with a couple of easy trials. If you correctly predict Sam's choice, you'll move on to complete the experiment!","0","","","","","","","","","","","","","","","","","","","","","","","",""
"","","","","","image-keyboard-response","25","138967","0.0-3.0-22.0-0.0","5e0d256753e8464d64940925","665500ab8938657b03fbdba8","6657927ed4ef789b494b24d4","1828","stimuli/0000011.jpg","arrowleft","","comprehension_quiz","","","true","arrowleft","","","","","","","","","","","","","","","","","",""
"","","","","","image-keyboard-response","26","140021","0.0-3.0-22.0-1.0","5e0d256753e8464d64940925","665500ab8938657b03fbdba8","6657927ed4ef789b494b24d4","1053","stimuli/00000110.jpg"," ","","comprehension_quiz","","","true"," ","","","","","","","","","","","","","","","","","",""
"","","","","","image-keyboard-response","27","141871","0.0-3.0-22.0-2.0","5e0d256753e8464d64940925","665500ab8938657b03fbdba8","6657927ed4ef789b494b24d4","1849","stimuli/1010010.jpg","arrowdown","","comprehension_quiz","","","true","arrowdown","","","","","","","","","","","","","","","","","",""
"","","","","","image-keyboard-response","28","142621","0.0-3.0-22.0-3.0","5e0d256753e8464d64940925","665500ab8938657b03fbdba8","6657927ed4ef789b494b24d4","749","stimuli/10100101.jpg"," ","","comprehension_quiz","","","true"," ","","","","","","","","","","","","","","","","","",""
"","","","","","html-button-response","29","143999","0.0-4.0","5e0d256753e8464d64940925","665500ab8938657b03fbdba8","6657927ed4ef789b494b24d4","1377","The experiment will now begin.","0","","","","","","","","","","","","","","","","","","","","","","","",""
"","","","","","image-keyboard-response","30","145331","0.0-5.0","5e0d256753e8464d64940925","665500ab8938657b03fbdba8","6657927ed4ef789b494b24d4","1331","stimuli/0011000.jpg","0","","prediction_trial","0","","true","","0","true","true","true","true","true","true","[0]","011","000","1","","","","","","",""
"","","","","","image-keyboard-response","31","146272","0.0-6.0","5e0d256753e8464d64940925","665500ab8938657b03fbdba8","6657927ed4ef789b494b24d4","940","stimuli/00110000.jpg"," ","","feedback_trial","0","","","","","","","","","","","","","","","","","","","","",""
"","","","","","image-keyboard-response","32","150919","0.0-7.0","5e0d256753e8464d64940925","665500ab8938657b03fbdba8","6657927ed4ef789b494b24d4","4642","stimuli/1101110.jpg","0","","prediction_trial","1","","false","","1","false","false","true","true","false","false","[1]","101","110","0","","","","","","",""
"","","","","","image-keyboard-response","33","151961","0.0-8.0","5e0d256753e8464d64940925","665500ab8938657b03fbdba8","6657927ed4ef789b494b24d4","1041","stimuli/11011101.jpg"," ","","feedback_trial","1","","","","","","","","","","","","","","","","","","","","",""
"","","","","","image-keyboard-response","34","153741","0.0-9.0","5e0d256753e8464d64940925","665500ab8938657b03fbdba8","6657927ed4ef789b494b24d4","1779","stimuli/2100000.jpg","2","","prediction_trial","2","","true","","2","true","true","true","true","true","true","[2]","100","000","1","","","","","","",""
"","","","","","image-keyboard-response","35","154797","0.0-10.0","5e0d256753e8464d64940925","665500ab8938657b03fbdba8","6657927ed4ef789b494b24d4","1055","stimuli/21000002.jpg"," ","","feedback_trial","2","","","","","","","","","","","","","","","","","","","","",""
"","","","","","image-keyboard-response","36","159168","0.0-11.0","5e0d256753e8464d64940925","665500ab8938657b03fbdba8","6657927ed4ef789b494b24d4","4370","stimuli/2011101.jpg","2","","prediction_trial","1","","false","","2","false","false","false","false","false","false","[1,2]","011","101","0","","","","","","",""
"","","","","","image-keyboard-response","37","164279","0.0-12.0","5e0d256753e8464d64940925","665500ab8938657b03fbdba8","6657927ed4ef789b494b24d4","5110","stimuli/20111011.jpg"," ","","feedback_trial","1","","","","","","","","","","","","","","","","","","","","",""
"","","","","","image-keyboard-response","38","165890","0.0-13.0","5e0d256753e8464d64940925","665500ab8938657b03fbdba8","6657927ed4ef789b494b24d4","1610","stimuli/1101100.jpg","1","","prediction_trial","1","","true","","1","true","true","true","true","true","true","[1]","101","100","1","","","","","","",""
"","","","","","image-keyboard-response","39","166735","0.0-14.0","5e0d256753e8464d64940925","665500ab8938657b03fbdba8","6657927ed4ef789b494b24d4","843","stimuli/11011001.jpg"," ","","feedback_trial","1","","","","","","","","","","","","","","","","","","","","",""
"","","","","","image-keyboard-response","40","170917","0.0-15.0","5e0d256753e8464d64940925","665500ab8938657b03fbdba8","6657927ed4ef789b494b24d4","4182","stimuli/1110010.jpg","1","","prediction_trial","1","","true","","1","false","true","false","false","false","false","[0,1]","110","010","1","","","","","","",""
"","","","","","image-keyboard-response","41","171813","0.0-16.0","5e0d256753e8464d64940925","665500ab8938657b03fbdba8","6657927ed4ef789b494b24d4","895","stimuli/11100101.jpg"," ","","feedback_trial","0","","","","","","","","","","","","","","","","","","","","",""
"","","","","","image-keyboard-response","42","175336","0.0-17.0","5e0d256753e8464d64940925","665500ab8938657b03fbdba8","6657927ed4ef789b494b24d4","3522","stimuli/0010110.jpg","0","","prediction_trial","0","","true","","0","false","false","true","true","false","false","[0]","010","110","1","","","","","","",""
"","","","","","image-keyboard-response","43","176110","0.0-18.0","5e0d256753e8464d64940925","665500ab8938657b03fbdba8","6657927ed4ef789b494b24d4","774","stimuli/00101100.jpg"," ","","feedback_trial","0","","","","","","","","","","","","","","","","","","","","",""
"","","","","","image-keyboard-response","44","178060","0.0-19.0","5e0d256753e8464d64940925","665500ab8938657b03fbdba8","6657927ed4ef789b494b24d4","1949","stimuli/2011011.jpg","1","","prediction_trial","1","","true","","2","false","false","false","false","false","false","[2,1]","011","011","1","","","","","","",""
"","","","","","image-keyboard-response","45","178811","0.0-20.0","5e0d256753e8464d64940925","665500ab8938657b03fbdba8","6657927ed4ef789b494b24d4","750","stimuli/20110111.jpg"," ","","feedback_trial","2","","","","","","","","","","","","","","","","","","","","",""
"","","","","","image-keyboard-response","46","182807","0.0-21.0","5e0d256753e8464d64940925","665500ab8938657b03fbdba8","6657927ed4ef789b494b24d4","3995","stimuli/2101111.jpg","2","","prediction_trial","0","","false","","2","false","false","false","false","false","false","[0,2]","101","111","0","","","","","","",""
"","","","","","image-keyboard-response","47","183738","0.0-22.0","5e0d256753e8464d64940925","665500ab8938657b03fbdba8","6657927ed4ef789b494b24d4","930","stimuli/21011110.jpg"," ","","feedback_trial","0","","","","","","","","","","","","","","","","","","","","",""
"","","","","","image-keyboard-response","48","186392","0.0-23.0","5e0d256753e8464d64940925","665500ab8938657b03fbdba8","6657927ed4ef789b494b24d4","2653","stimuli/0110101.jpg","0","","prediction_trial","0","","true","","0","false","false","false","false","false","false","[1,0]","110","101","1","","","","","","",""
"","","","","","image-keyboard-response","49","187809","0.0-24.0","5e0d256753e8464d64940925","665500ab8938657b03fbdba8","6657927ed4ef789b494b24d4","1416","stimuli/01101010.jpg"," ","","feedback_trial","1","","","","","","","","","","","","","","","","","","","","",""
"","","","","","image-keyboard-response","50","190442","0.0-25.0","5e0d256753e8464d64940925","665500ab8938657b03fbdba8","6657927ed4ef789b494b24d4","2630","stimuli/0110011.jpg","0","","prediction_trial","1","","false","","0","true","true","false","false","false","false","[0,1]","110","011","0","","","","","","",""
"","","","","","image-keyboard-response","51","191766","0.0-26.0","5e0d256753e8464d64940925","665500ab8938657b03fbdba8","6657927ed4ef789b494b24d4","1323","stimuli/01100111.jpg"," ","","feedback_trial","0","","","","","","","","","","","","","","","","","","","","",""
"","","","","","image-keyboard-response","52","193726","0.0-27.0","5e0d256753e8464d64940925","665500ab8938657b03fbdba8","6657927ed4ef789b494b24d4","1959","stimuli/2011010.jpg","2","","prediction_trial","1","","false","","2","true","true","false","false","false","false","[2,1]","011","010","0","","","","","","",""
"","","","","","image-keyboard-response","53","194436","0.0-28.0","5e0d256753e8464d64940925","665500ab8938657b03fbdba8","6657927ed4ef789b494b24d4","710","stimuli/20110101.jpg"," ","","feedback_trial","2","","","","","","","","","","","","","","","","","","","","",""
"","","","","","image-keyboard-response","54","195875","0.0-29.0","5e0d256753e8464d64940925","665500ab8938657b03fbdba8","6657927ed4ef789b494b24d4","1438","stimuli/1110000.jpg","1","","prediction_trial","0","","false","","1","true","true","false","false","false","false","[0,1]","110","000","0","","","","","","",""
"","","","","","image-keyboard-response","55","196549","0.0-30.0","5e0d256753e8464d64940925","665500ab8938657b03fbdba8","6657927ed4ef789b494b24d4","673","stimuli/11100000.jpg"," ","","feedback_trial","0","","","","","","","","","","","","","","","","","","","","",""
"","","","","","image-keyboard-response","56","200356","0.0-31.0","5e0d256753e8464d64940925","665500ab8938657b03fbdba8","6657927ed4ef789b494b24d4","3806","stimuli/0001100.jpg","0","","prediction_trial","0","","true","","0","false","true","true","true","false","true","[0]","001","100","1","","","","","","",""
"","","","","","image-keyboard-response","57","201548","0.0-32.0","5e0d256753e8464d64940925","665500ab8938657b03fbdba8","6657927ed4ef789b494b24d4","1191","stimuli/00011000.jpg"," ","","feedback_trial","0","","","","","","","","","","","","","","","","","","","","",""
"","","","","","image-keyboard-response","58","203741","0.0-33.0","5e0d256753e8464d64940925","665500ab8938657b03fbdba8","6657927ed4ef789b494b24d4","2192","stimuli/0100010.jpg","0","","prediction_trial","0","","true","","0","true","true","false","true","false","true","[0]","100","010","1","","","","","","",""
"","","","","","image-keyboard-response","59","204446","0.0-34.0","5e0d256753e8464d64940925","665500ab8938657b03fbdba8","6657927ed4ef789b494b24d4","705","stimuli/01000100.jpg"," ","","feedback_trial","0","","","","","","","","","","","","","","","","","","","","",""
"","","","","","image-keyboard-response","60","205989","0.0-35.0","5e0d256753e8464d64940925","665500ab8938657b03fbdba8","6657927ed4ef789b494b24d4","1542","stimuli/0100000.jpg","0","","prediction_trial","0","","true","","0","true","true","false","true","false","true","[0]","100","000","1","","","","","","",""
"","","","","","image-keyboard-response","61","206749","0.0-36.0","5e0d256753e8464d64940925","665500ab8938657b03fbdba8","6657927ed4ef789b494b24d4","759","stimuli/01000000.jpg"," ","","feedback_trial","0","","","","","","","","","","","","","","","","","","","","",""
"","","","","","image-keyboard-response","62","209719","0.0-37.0","5e0d256753e8464d64940925","665500ab8938657b03fbdba8","6657927ed4ef789b494b24d4","2969","stimuli/2010101.jpg","2","","prediction_trial","2","","true","","2","false","false","true","true","false","false","[2]","010","101","1","","","","","","",""
"","","","","","image-keyboard-response","63","210671","0.0-38.0","5e0d256753e8464d64940925","665500ab8938657b03fbdba8","6657927ed4ef789b494b24d4","952","stimuli/20101012.jpg"," ","","feedback_trial","2","","","","","","","","","","","","","","","","","","","","",""
"","","","","","image-keyboard-response","64","213823","0.0-39.0","5e0d256753e8464d64940925","665500ab8938657b03fbdba8","6657927ed4ef789b494b24d4","3151","stimuli/0111111.jpg","1","","prediction_trial","0","","false","","0","false","false","false","false","false","false","[0,2,1]","111","111","0","","","","","","",""
"","","","","","image-keyboard-response","65","214741","0.0-40.0","5e0d256753e8464d64940925","665500ab8938657b03fbdba8","6657927ed4ef789b494b24d4","918","stimuli/01111110.jpg"," ","","feedback_trial","0","","","","","","","","","","","","","","","","","","","","",""
"","","","","","image-keyboard-response","66","220471","0.0-41.0","5e0d256753e8464d64940925","665500ab8938657b03fbdba8","6657927ed4ef789b494b24d4","5729","stimuli/0100101.jpg","2","","prediction_trial","0","","false","","0","false","false","false","true","false","false","[0]","100","101","0","","","","","","",""
"","","","","","image-keyboard-response","67","221321","0.0-42.0","5e0d256753e8464d64940925","665500ab8938657b03fbdba8","6657927ed4ef789b494b24d4","850","stimuli/01001010.jpg"," ","","feedback_trial","0","","","","","","","","","","","","","","","","","","","","",""
"","","","","","image-keyboard-response","68","223959","0.0-43.0","5e0d256753e8464d64940925","665500ab8938657b03fbdba8","6657927ed4ef789b494b24d4","2634","stimuli/0000111.jpg","2","","prediction_trial","0","","false","","0","false","false","true","true","false","false","[0]","000","111","0","","","","","","",""
"","","","","","image-keyboard-response","69","224726","0.0-44.0","5e0d256753e8464d64940925","665500ab8938657b03fbdba8","6657927ed4ef789b494b24d4","767","stimuli/00001110.jpg"," ","","feedback_trial","0","","","","","","","","","","","","","","","","","","","","",""
"","","","","","image-keyboard-response","70","225908","0.0-45.0","5e0d256753e8464d64940925","665500ab8938657b03fbdba8","6657927ed4ef789b494b24d4","1181","stimuli/0000000.jpg","0","","prediction_trial","0","","true","","0","true","true","true","true","true","true","[0]","000","000","1","","","","","","",""
"","","","","","image-keyboard-response","71","226500","0.0-46.0","5e0d256753e8464d64940925","665500ab8938657b03fbdba8","6657927ed4ef789b494b24d4","592","stimuli/00000000.jpg"," ","","feedback_trial","0","","","","","","","","","","","","","","","","","","","","",""
"","","","","","image-keyboard-response","72","229715","0.0-47.0","5e0d256753e8464d64940925","665500ab8938657b03fbdba8","6657927ed4ef789b494b24d4","3214","stimuli/2001101.jpg","0","","prediction_trial","2","","false","","2","false","false","false","true","false","false","[2]","001","101","0","","","","","","",""
"","","","","","image-keyboard-response","73","232485","0.0-48.0","5e0d256753e8464d64940925","665500ab8938657b03fbdba8","6657927ed4ef789b494b24d4","2770","stimuli/20011012.jpg"," ","","feedback_trial","2","","","","","","","","","","","","","","","","","","","","",""
"","","","","","image-keyboard-response","74","233898","0.0-49.0","5e0d256753e8464d64940925","665500ab8938657b03fbdba8","6657927ed4ef789b494b24d4","1412","stimuli/0110110.jpg","1","","prediction_trial","0","","false","","0","false","false","false","false","false","false","[1,0]","110","110","0","","","","","","",""
"","","","","","image-keyboard-response","75","234462","0.0-50.0","5e0d256753e8464d64940925","665500ab8938657b03fbdba8","6657927ed4ef789b494b24d4","563","stimuli/01101100.jpg"," ","","feedback_trial","1","","","","","","","","","","","","","","","","","","","","",""
"","","","","","image-keyboard-response","76","235624","0.0-51.0","5e0d256753e8464d64940925","665500ab8938657b03fbdba8","6657927ed4ef789b494b24d4","1161","stimuli/1101101.jpg","1","","prediction_trial","1","","true","","1","true","true","true","true","true","true","[1]","101","101","1","","","","","","",""
"","","","","","image-keyboard-response","77","236091","0.0-52.0","5e0d256753e8464d64940925","665500ab8938657b03fbdba8","6657927ed4ef789b494b24d4","467","stimuli/11011011.jpg"," ","","feedback_trial","1","","","","","","","","","","","","","","","","","","","","",""
"","","","","","image-keyboard-response","78","237767","0.0-53.0","5e0d256753e8464d64940925","665500ab8938657b03fbdba8","6657927ed4ef789b494b24d4","1675","stimuli/2000011.jpg","1","","prediction_trial","2","","false","","2","false","false","true","true","false","false","[2]","000","011","0","","","","","","",""
"","","","","","image-keyboard-response","79","238198","0.0-54.0","5e0d256753e8464d64940925","665500ab8938657b03fbdba8","6657927ed4ef789b494b24d4","430","stimuli/20000112.jpg"," ","","feedback_trial","2","","","","","","","","","","","","","","","","","","","","",""
"","","","","","image-keyboard-response","80","240021","0.0-55.0","5e0d256753e8464d64940925","665500ab8938657b03fbdba8","6657927ed4ef789b494b24d4","1822","stimuli/0111011.jpg","0","","prediction_trial","1","","false","","0","true","true","false","false","false","false","[2,0,1]","111","011","0","","","","","","",""
"","","","","","image-keyboard-response","81","240582","0.0-56.0","5e0d256753e8464d64940925","665500ab8938657b03fbdba8","6657927ed4ef789b494b24d4","560","stimuli/01110111.jpg"," ","","feedback_trial","2","","","","","","","","","","","","","","","","","","","","",""
"","","","","","image-keyboard-response","82","242533","0.0-57.0","5e0d256753e8464d64940925","665500ab8938657b03fbdba8","6657927ed4ef789b494b24d4","1951","stimuli/0010010.jpg","0","","prediction_trial","0","","true","","0","true","true","true","true","true","true","[0]","010","010","1","","","","","","",""
"","","","","","image-keyboard-response","83","243022","0.0-58.0","5e0d256753e8464d64940925","665500ab8938657b03fbdba8","6657927ed4ef789b494b24d4","488","stimuli/00100100.jpg"," ","","feedback_trial","0","","","","","","","","","","","","","","","","","","","","",""
"","","","","","image-keyboard-response","84","244117","0.0-59.0","5e0d256753e8464d64940925","665500ab8938657b03fbdba8","6657927ed4ef789b494b24d4","1094","stimuli/1001100.jpg","1","","prediction_trial","1","","true","","1","true","true","true","true","true","true","[1]","001","100","1","","","","","","",""
"","","","","","image-keyboard-response","85","244612","0.0-60.0","5e0d256753e8464d64940925","665500ab8938657b03fbdba8","6657927ed4ef789b494b24d4","494","stimuli/10011001.jpg"," ","","feedback_trial","1","","","","","","","","","","","","","","","","","","","","",""
"","","","","","image-keyboard-response","86","246084","0.0-61.0","5e0d256753e8464d64940925","665500ab8938657b03fbdba8","6657927ed4ef789b494b24d4","1470","stimuli/0000110.jpg","1","","prediction_trial","0","","false","","0","false","false","true","true","false","false","[0]","000","110","0","","","","","","",""
"","","","","","image-keyboard-response","87","246538","0.0-62.0","5e0d256753e8464d64940925","665500ab8938657b03fbdba8","6657927ed4ef789b494b24d4","453","stimuli/00001100.jpg"," ","","feedback_trial","0","","","","","","","","","","","","","","","","","","","","",""
"","","","","","image-keyboard-response","88","248033","0.0-63.0","5e0d256753e8464d64940925","665500ab8938657b03fbdba8","6657927ed4ef789b494b24d4","1495","stimuli/2110110.jpg","2","","prediction_trial","2","","true","","2","true","true","true","true","true","true","[2]","110","110","1","","","","","","",""
"","","","","","image-keyboard-response","89","248512","0.0-64.0","5e0d256753e8464d64940925","665500ab8938657b03fbdba8","6657927ed4ef789b494b24d4","478","stimuli/21101102.jpg"," ","","feedback_trial","2","","","","","","","","","","","","","","","","","","","","",""
"","","","","","image-keyboard-response","90","251280","0.0-65.0","5e0d256753e8464d64940925","665500ab8938657b03fbdba8","6657927ed4ef789b494b24d4","2768","stimuli/2101000.jpg","2","","prediction_trial","2","","true","","2","true","true","false","false","false","false","[2,0]","101","000","1","","","","","","",""
"","","","","","image-keyboard-response","91","252024","0.0-66.0","5e0d256753e8464d64940925","665500ab8938657b03fbdba8","6657927ed4ef789b494b24d4","743","stimuli/21010002.jpg"," ","","feedback_trial","2","","","","","","","","","","","","","","","","","","","","",""
"","","","","","image-keyboard-response","92","255473","0.0-67.0","5e0d256753e8464d64940925","665500ab8938657b03fbdba8","6657927ed4ef789b494b24d4","3449","stimuli/2001111.jpg","2","","prediction_trial","2","","true","","2","false","false","false","true","false","false","[2]","001","111","1","","","","","","",""
"","","","","","image-keyboard-response","93","256363","0.0-68.0","5e0d256753e8464d64940925","665500ab8938657b03fbdba8","6657927ed4ef789b494b24d4","890","stimuli/20011112.jpg"," ","","feedback_trial","2","","","","","","","","","","","","","","","","","","","","",""
"","","","","","image-keyboard-response","94","258935","0.0-69.0","5e0d256753e8464d64940925","665500ab8938657b03fbdba8","6657927ed4ef789b494b24d4","2571","stimuli/0111001.jpg","0","","prediction_trial","2","","false","","0","true","true","false","false","false","false","[0,1,2]","111","001","0","","","","","","",""
"","","","","","image-keyboard-response","95","261031","0.0-70.0","5e0d256753e8464d64940925","665500ab8938657b03fbdba8","6657927ed4ef789b494b24d4","2095","stimuli/01110012.jpg"," ","","feedback_trial","0","","","","","","","","","","","","","","","","","","","","",""
"","","","","","image-keyboard-response","96","263348","0.0-71.0","5e0d256753e8464d64940925","665500ab8938657b03fbdba8","6657927ed4ef789b494b24d4","2316","stimuli/0110000.jpg","0","","prediction_trial","0","","true","","0","true","true","false","false","false","false","[0,1]","110","000","1","","","","","","",""
"","","","","","image-keyboard-response","97","263958","0.0-72.0","5e0d256753e8464d64940925","665500ab8938657b03fbdba8","6657927ed4ef789b494b24d4","609","stimuli/01100000.jpg"," ","","feedback_trial","0","","","","","","","","","","","","","","","","","","","","",""
"","","","","","image-keyboard-response","98","266146","0.0-73.0","5e0d256753e8464d64940925","665500ab8938657b03fbdba8","6657927ed4ef789b494b24d4","2188","stimuli/2001001.jpg","2","","prediction_trial","2","","true","","2","false","true","false","true","false","true","[2]","001","001","1","","","","","","",""
"","","","","","image-keyboard-response","99","266570","0.0-74.0","5e0d256753e8464d64940925","665500ab8938657b03fbdba8","6657927ed4ef789b494b24d4","423","stimuli/20010012.jpg"," ","","feedback_trial","2","","","","","","","","","","","","","","","","","","","","",""
"","","","","","image-keyboard-response","100","268516","0.0-75.0","5e0d256753e8464d64940925","665500ab8938657b03fbdba8","6657927ed4ef789b494b24d4","1945","stimuli/1111010.jpg","1","","prediction_trial","1","","true","","1","false","true","false","false","false","false","[0,1,2]","111","010","1","","","","","","",""
"","","","","","image-keyboard-response","101","269120","0.0-76.0","5e0d256753e8464d64940925","665500ab8938657b03fbdba8","6657927ed4ef789b494b24d4","603","stimuli/11110101.jpg"," ","","feedback_trial","0","","","","","","","","","","","","","","","","","","","","",""
"","","","","","image-keyboard-response","102","271433","0.0-77.0","5e0d256753e8464d64940925","665500ab8938657b03fbdba8","6657927ed4ef789b494b24d4","2313","stimuli/2100101.jpg","0","","prediction_trial","2","","false","","2","false","false","true","true","false","false","[2]","100","101","0","","","","","","",""
"","","","","","image-keyboard-response","103","272121","0.0-78.0","5e0d256753e8464d64940925","665500ab8938657b03fbdba8","6657927ed4ef789b494b24d4","687","stimuli/21001012.jpg"," ","","feedback_trial","2","","","","","","","","","","","","","","","","","","","","",""
"","","","","","image-keyboard-response","104","274018","0.0-79.0","5e0d256753e8464d64940925","665500ab8938657b03fbdba8","6657927ed4ef789b494b24d4","1895","stimuli/2001110.jpg","2","","prediction_trial","2","","true","","2","true","true","false","true","false","true","[2]","001","110","1","","","","","","",""
"","","","","","image-keyboard-response","105","274566","0.0-80.0","5e0d256753e8464d64940925","665500ab8938657b03fbdba8","6657927ed4ef789b494b24d4","547","stimuli/20011102.jpg"," ","","feedback_trial","2","","","","","","","","","","","","","","","","","","","","",""
"","","","","","image-keyboard-response","106","277394","0.0-81.0","5e0d256753e8464d64940925","665500ab8938657b03fbdba8","6657927ed4ef789b494b24d4","2827","stimuli/1111110.jpg","1","","prediction_trial","2","","false","","1","false","false","false","false","false","false","[0,2,1]","111","110","0","","","","","","",""
"","","","","","image-keyboard-response","107","277873","0.0-82.0","5e0d256753e8464d64940925","665500ab8938657b03fbdba8","6657927ed4ef789b494b24d4","478","stimuli/11111102.jpg"," ","","feedback_trial","0","","","","","","","","","","","","","","","","","","","","",""
"","","","","","image-keyboard-response","108","279364","0.0-83.0","5e0d256753e8464d64940925","665500ab8938657b03fbdba8","6657927ed4ef789b494b24d4","1490","stimuli/2010010.jpg","2","","prediction_trial","2","","true","","2","true","true","true","true","true","true","[2]","010","010","1","","","","","","",""
"","","","","","image-keyboard-response","109","279986","0.0-84.0","5e0d256753e8464d64940925","665500ab8938657b03fbdba8","6657927ed4ef789b494b24d4","621","stimuli/20100102.jpg"," ","","feedback_trial","2","","","","","","","","","","","","","","","","","","","","",""
"","","","","","image-keyboard-response","110","282015","0.0-85.0","5e0d256753e8464d64940925","665500ab8938657b03fbdba8","6657927ed4ef789b494b24d4","2028","stimuli/1011000.jpg","1","","prediction_trial","2","","false","","1","true","true","false","false","false","false","[1,2]","011","000","0","","","","","","",""
"","","","","","image-keyboard-response","111","282476","0.0-86.0","5e0d256753e8464d64940925","665500ab8938657b03fbdba8","6657927ed4ef789b494b24d4","460","stimuli/10110002.jpg"," ","","feedback_trial","1","","","","","","","","","","","","","","","","","","","","",""
"","","","","","image-keyboard-response","112","283858","0.0-87.0","5e0d256753e8464d64940925","665500ab8938657b03fbdba8","6657927ed4ef789b494b24d4","1382","stimuli/1111001.jpg","1","","prediction_trial","1","","true","","1","true","true","false","false","false","false","[0,2,1]","111","001","1","","","","","","",""
"","","","","","image-keyboard-response","113","284583","0.0-88.0","5e0d256753e8464d64940925","665500ab8938657b03fbdba8","6657927ed4ef789b494b24d4","723","stimuli/11110011.jpg"," ","","feedback_trial","0","","","","","","","","","","","","","","","","","","","","",""
"","","","","","image-keyboard-response","114","285831","0.0-89.0","5e0d256753e8464d64940925","665500ab8938657b03fbdba8","6657927ed4ef789b494b24d4","1247","stimuli/0000010.jpg","0","","prediction_trial","0","","true","","0","true","true","true","true","true","true","[0]","000","010","1","","","","","","",""
"","","","","","image-keyboard-response","115","286338","0.0-90.0","5e0d256753e8464d64940925","665500ab8938657b03fbdba8","6657927ed4ef789b494b24d4","516","stimuli/00000100.jpg"," ","","feedback_trial","0","","","","","","","","","","","","","","","","","","","","",""
"","","","","","image-keyboard-response","116","288457","0.0-91.0","5e0d256753e8464d64940925","665500ab8938657b03fbdba8","6657927ed4ef789b494b24d4","2119","stimuli/1101011.jpg","2","","prediction_trial","1","","false","","1","false","false","true","true","false","false","[1]","101","011","0","","","","","","",""
"","","","","","image-keyboard-response","117","288976","0.0-92.0","5e0d256753e8464d64940925","665500ab8938657b03fbdba8","6657927ed4ef789b494b24d4","517","stimuli/11010111.jpg"," ","","feedback_trial","1","","","","","","","","","","","","","","","","","","","","",""
"","","","","","image-keyboard-response","118","290418","0.0-93.0","5e0d256753e8464d64940925","665500ab8938657b03fbdba8","6657927ed4ef789b494b24d4","1441","stimuli/0011110.jpg","1","","prediction_trial","0","","false","","0","false","false","true","true","false","false","[0]","011","110","0","","","","","","",""
"","","","","","image-keyboard-response","119","291145","0.0-94.0","5e0d256753e8464d64940925","665500ab8938657b03fbdba8","6657927ed4ef789b494b24d4","727","stimuli/00111100.jpg"," ","","feedback_trial","0","","","","","","","","","","","","","","","","","","","","",""
"","","","","","image-keyboard-response","120","293187","0.0-95.0","5e0d256753e8464d64940925","665500ab8938657b03fbdba8","6657927ed4ef789b494b24d4","2041","stimuli/1000111.jpg","1","","prediction_trial","1","","true","","1","false","false","true","true","false","false","[1]","000","111","1","","","","","","",""
"","","","","","image-keyboard-response","121","293826","0.0-96.0","5e0d256753e8464d64940925","665500ab8938657b03fbdba8","6657927ed4ef789b494b24d4","638","stimuli/10001111.jpg"," ","","feedback_trial","1","","","","","","","","","","","","","","","","","","","","",""
"","","","","","image-keyboard-response","122","295249","0.0-97.0","5e0d256753e8464d64940925","665500ab8938657b03fbdba8","6657927ed4ef789b494b24d4","1418","stimuli/2111011.jpg","1","","prediction_trial","1","","true","","2","false","false","false","false","false","false","[1,2,0]","111","011","1","","","","","","",""
"","","","","","image-keyboard-response","123","295970","0.0-98.0","5e0d256753e8464d64940925","665500ab8938657b03fbdba8","6657927ed4ef789b494b24d4","720","stimuli/21110111.jpg"," ","","feedback_trial","1","","","","","","","","","","","","","","","","","","","","",""
"","","","","","image-keyboard-response","124","297529","0.0-99.0","5e0d256753e8464d64940925","665500ab8938657b03fbdba8","6657927ed4ef789b494b24d4","1558","stimuli/0111000.jpg","0","","prediction_trial","2","","false","","0","true","true","false","false","false","false","[0,2,1]","111","000","0","","","","","","",""
"","","","","","image-keyboard-response","125","298006","0.0-100.0","5e0d256753e8464d64940925","665500ab8938657b03fbdba8","6657927ed4ef789b494b24d4","476","stimuli/01110002.jpg"," ","","feedback_trial","0","","","","","","","","","","","","","","","","","","","","",""
"","","","","","image-keyboard-response","126","299169","0.0-101.0","5e0d256753e8464d64940925","665500ab8938657b03fbdba8","6657927ed4ef789b494b24d4","1162","stimuli/2110100.jpg","2","","prediction_trial","2","","true","","2","true","true","true","true","true","true","[2]","110","100","1","","","","","","",""
"","","","","","image-keyboard-response","127","299575","0.0-102.0","5e0d256753e8464d64940925","665500ab8938657b03fbdba8","6657927ed4ef789b494b24d4","406","stimuli/21101002.jpg"," ","","feedback_trial","2","","","","","","","","","","","","","","","","","","","","",""
"","","","","","image-keyboard-response","128","303377","0.0-103.0","5e0d256753e8464d64940925","665500ab8938657b03fbdba8","6657927ed4ef789b494b24d4","3801","stimuli/2100011.jpg","2","","prediction_trial","2","","true","","2","false","false","true","true","false","false","[2]","100","011","1","","","","","","",""
"","","","","","image-keyboard-response","129","303904","0.0-104.0","5e0d256753e8464d64940925","665500ab8938657b03fbdba8","6657927ed4ef789b494b24d4","526","stimuli/21000112.jpg"," ","","feedback_trial","2","","","","","","","","","","","","","","","","","","","","",""
"","","","","","image-keyboard-response","130","304897","0.0-105.0","5e0d256753e8464d64940925","665500ab8938657b03fbdba8","6657927ed4ef789b494b24d4","992","stimuli/1100000.jpg","1","","prediction_trial","1","","true","","1","true","true","true","true","true","true","[1]","100","000","1","","","","","","",""
"","","","","","image-keyboard-response","131","305288","0.0-106.0","5e0d256753e8464d64940925","665500ab8938657b03fbdba8","6657927ed4ef789b494b24d4","390","stimuli/11000001.jpg"," ","","feedback_trial","1","","","","","","","","","","","","","","","","","","","","",""
"","","","","","image-keyboard-response","132","307270","0.0-107.0","5e0d256753e8464d64940925","665500ab8938657b03fbdba8","6657927ed4ef789b494b24d4","1982","stimuli/2011110.jpg","2","","prediction_trial","2","","true","","2","true","true","false","false","false","false","[2,1]","011","110","1","","","","","","",""
"","","","","","image-keyboard-response","133","307857","0.0-108.0","5e0d256753e8464d64940925","665500ab8938657b03fbdba8","6657927ed4ef789b494b24d4","586","stimuli/20111102.jpg"," ","","feedback_trial","2","","","","","","","","","","","","","","","","","","","","",""
"","","","","","image-keyboard-response","134","311249","0.0-109.0","5e0d256753e8464d64940925","665500ab8938657b03fbdba8","6657927ed4ef789b494b24d4","3391","stimuli/2111101.jpg","2","","prediction_trial","0","","false","","2","false","false","false","false","false","false","[1,2,0]","111","101","0","","","","","","",""
"","","","","","image-keyboard-response","135","312213","0.0-110.0","5e0d256753e8464d64940925","665500ab8938657b03fbdba8","6657927ed4ef789b494b24d4","963","stimuli/21111010.jpg"," ","","feedback_trial","1","","","","","","","","","","","","","","","","","","","","",""
"","","","","","image-keyboard-response","136","313692","0.0-111.0","5e0d256753e8464d64940925","665500ab8938657b03fbdba8","6657927ed4ef789b494b24d4","1477","stimuli/1001110.jpg","1","","prediction_trial","1","","true","","1","false","false","true","true","false","false","[1]","001","110","1","","","","","","",""
"","","","","","image-keyboard-response","137","314186","0.0-112.0","5e0d256753e8464d64940925","665500ab8938657b03fbdba8","6657927ed4ef789b494b24d4","494","stimuli/10011101.jpg"," ","","feedback_trial","1","","","","","","","","","","","","","","","","","","","","",""
"","","","","","image-keyboard-response","138","315182","0.0-113.0","5e0d256753e8464d64940925","665500ab8938657b03fbdba8","6657927ed4ef789b494b24d4","995","stimuli/1100100.jpg","1","","prediction_trial","1","","true","","1","true","true","true","true","true","true","[1]","100","100","1","","","","","","",""
"","","","","","image-keyboard-response","139","315536","0.0-114.0","5e0d256753e8464d64940925","665500ab8938657b03fbdba8","6657927ed4ef789b494b24d4","354","stimuli/11001001.jpg"," ","","feedback_trial","1","","","","","","","","","","","","","","","","","","","","",""
"","","","","","image-keyboard-response","140","316613","0.0-115.0","5e0d256753e8464d64940925","665500ab8938657b03fbdba8","6657927ed4ef789b494b24d4","1076","stimuli/1101000.jpg","1","","prediction_trial","1","","true","","1","true","true","true","true","true","true","[1]","101","000","1","","","","","","",""
"","","","","","image-keyboard-response","141","316982","0.0-116.0","5e0d256753e8464d64940925","665500ab8938657b03fbdba8","6657927ed4ef789b494b24d4","368","stimuli/11010001.jpg"," ","","feedback_trial","1","","","","","","","","","","","","","","","","","","","","",""
"","","","","","image-keyboard-response","142","318216","0.0-117.0","5e0d256753e8464d64940925","665500ab8938657b03fbdba8","6657927ed4ef789b494b24d4","1232","stimuli/1000100.jpg","1","","prediction_trial","1","","true","","1","true","true","true","true","true","true","[1]","000","100","1","","","","","","",""
"","","","","","image-keyboard-response","143","318671","0.0-118.0","5e0d256753e8464d64940925","665500ab8938657b03fbdba8","6657927ed4ef789b494b24d4","455","stimuli/10001001.jpg"," ","","feedback_trial","1","","","","","","","","","","","","","","","","","","","","",""
"","","","","","image-keyboard-response","144","321640","0.0-119.0","5e0d256753e8464d64940925","665500ab8938657b03fbdba8","6657927ed4ef789b494b24d4","2968","stimuli/1010110.jpg","0","","prediction_trial","1","","false","","1","false","false","false","true","false","false","[1]","010","110","0","","","","","","",""
"","","","","","image-keyboard-response","145","322589","0.0-120.0","5e0d256753e8464d64940925","665500ab8938657b03fbdba8","6657927ed4ef789b494b24d4","949","stimuli/10101101.jpg"," ","","feedback_trial","1","","","","","","","","","","","","","","","","","","","","",""
"","","","","","image-keyboard-response","146","324116","0.0-121.0","5e0d256753e8464d64940925","665500ab8938657b03fbdba8","6657927ed4ef789b494b24d4","1526","stimuli/2000101.jpg","2","","prediction_trial","2","","true","","2","false","false","true","true","false","false","[2]","000","101","1","","","","","","",""
"","","","","","image-keyboard-response","147","324671","0.0-122.0","5e0d256753e8464d64940925","665500ab8938657b03fbdba8","6657927ed4ef789b494b24d4","554","stimuli/20001012.jpg"," ","","feedback_trial","2","","","","","","","","","","","","","","","","","","","","",""
"","","","","","image-keyboard-response","148","326165","0.0-123.0","5e0d256753e8464d64940925","665500ab8938657b03fbdba8","6657927ed4ef789b494b24d4","1493","stimuli/1011001.jpg","1","","prediction_trial","2","","false","","1","true","true","false","false","false","false","[1,2]","011","001","0","","","","","","",""
"","","","","","image-keyboard-response","149","326595","0.0-124.0","5e0d256753e8464d64940925","665500ab8938657b03fbdba8","6657927ed4ef789b494b24d4","429","stimuli/10110012.jpg"," ","","feedback_trial","1","","","","","","","","","","","","","","","","","","","","",""
"","","","","","image-keyboard-response","150","329057","0.0-125.0","5e0d256753e8464d64940925","665500ab8938657b03fbdba8","6657927ed4ef789b494b24d4","2461","stimuli/0100001.jpg","0","","prediction_trial","0","","true","","0","true","true","false","true","false","true","[0]","100","001","1","","","","","","",""
"","","","","","image-keyboard-response","151","329813","0.0-126.0","5e0d256753e8464d64940925","665500ab8938657b03fbdba8","6657927ed4ef789b494b24d4","756","stimuli/01000010.jpg"," ","","feedback_trial","0","","","","","","","","","","","","","","","","","","","","",""
"","","","","","image-keyboard-response","152","331349","0.0-127.0","5e0d256753e8464d64940925","665500ab8938657b03fbdba8","6657927ed4ef789b494b24d4","1535","stimuli/1111101.jpg","1","","prediction_trial","0","","false","","1","true","true","false","false","false","false","[2,1,0]","111","101","0","","","","","","",""
"","","","","","image-keyboard-response","153","331886","0.0-128.0","5e0d256753e8464d64940925","665500ab8938657b03fbdba8","6657927ed4ef789b494b24d4","537","stimuli/11111010.jpg"," ","","feedback_trial","2","","","","","","","","","","","","","","","","","","","","",""
"","","","","","image-keyboard-response","154","332907","0.0-129.0","5e0d256753e8464d64940925","665500ab8938657b03fbdba8","6657927ed4ef789b494b24d4","1020","stimuli/0011001.jpg","0","","prediction_trial","0","","true","","0","true","true","true","true","true","true","[0]","011","001","1","","","","","","",""
"","","","","","image-keyboard-response","155","333256","0.0-130.0","5e0d256753e8464d64940925","665500ab8938657b03fbdba8","6657927ed4ef789b494b24d4","349","stimuli/00110010.jpg"," ","","feedback_trial","0","","","","","","","","","","","","","","","","","","","","",""
"","","","","","image-keyboard-response","156","334424","0.0-131.0","5e0d256753e8464d64940925","665500ab8938657b03fbdba8","6657927ed4ef789b494b24d4","1168","stimuli/1111011.jpg","1","","prediction_trial","2","","false","","1","false","false","false","false","false","false","[1,0,2]","111","011","0","","","","","","",""
"","","","","","image-keyboard-response","157","334924","0.0-132.0","5e0d256753e8464d64940925","665500ab8938657b03fbdba8","6657927ed4ef789b494b24d4","499","stimuli/11110112.jpg"," ","","feedback_trial","1","","","","","","","","","","","","","","","","","","","","",""
"","","","","","image-keyboard-response","158","336769","0.0-133.0","5e0d256753e8464d64940925","665500ab8938657b03fbdba8","6657927ed4ef789b494b24d4","1844","stimuli/0110010.jpg","0","","prediction_trial","1","","false","","0","true","true","false","false","false","false","[1,0]","110","010","0","","","","","","",""
"","","","","","image-keyboard-response","159","337222","0.0-134.0","5e0d256753e8464d64940925","665500ab8938657b03fbdba8","6657927ed4ef789b494b24d4","453","stimuli/01100101.jpg"," ","","feedback_trial","1","","","","","","","","","","","","","","","","","","","","",""
"","","","","","image-keyboard-response","160","339741","0.0-135.0","5e0d256753e8464d64940925","665500ab8938657b03fbdba8","6657927ed4ef789b494b24d4","2518","stimuli/0010100.jpg","0","","prediction_trial","0","","true","","0","false","true","true","true","false","true","[0]","010","100","1","","","","","","",""
"","","","","","image-keyboard-response","161","340304","0.0-136.0","5e0d256753e8464d64940925","665500ab8938657b03fbdba8","6657927ed4ef789b494b24d4","563","stimuli/00101000.jpg"," ","","feedback_trial","0","","","","","","","","","","","","","","","","","","","","",""
"","","","","","image-keyboard-response","162","341440","0.0-137.0","5e0d256753e8464d64940925","665500ab8938657b03fbdba8","6657927ed4ef789b494b24d4","1135","stimuli/2000000.jpg","2","","prediction_trial","2","","true","","2","true","true","true","true","true","true","[2]","000","000","1","","","","","","",""
"","","","","","image-keyboard-response","163","341829","0.0-138.0","5e0d256753e8464d64940925","665500ab8938657b03fbdba8","6657927ed4ef789b494b24d4","388","stimuli/20000002.jpg"," ","","feedback_trial","2","","","","","","","","","","","","","","","","","","","","",""
"","","","","","image-keyboard-response","164","343945","0.0-139.0","5e0d256753e8464d64940925","665500ab8938657b03fbdba8","6657927ed4ef789b494b24d4","2115","stimuli/0000100.jpg","0","","prediction_trial","0","","true","","0","false","true","true","true","false","true","[0]","000","100","1","","","","","","",""
"","","","","","image-keyboard-response","165","344537","0.0-140.0","5e0d256753e8464d64940925","665500ab8938657b03fbdba8","6657927ed4ef789b494b24d4","592","stimuli/00001000.jpg"," ","","feedback_trial","0","","","","","","","","","","","","","","","","","","","","",""
"","","","","","image-keyboard-response","166","345664","0.0-141.0","5e0d256753e8464d64940925","665500ab8938657b03fbdba8","6657927ed4ef789b494b24d4","1126","stimuli/1110110.jpg","1","","prediction_trial","0","","false","","1","false","false","false","false","false","false","[1,0]","110","110","0","","","","","","",""
"","","","","","image-keyboard-response","167","346073","0.0-142.0","5e0d256753e8464d64940925","665500ab8938657b03fbdba8","6657927ed4ef789b494b24d4","409","stimuli/11101100.jpg"," ","","feedback_trial","1","","","","","","","","","","","","","","","","","","","","",""
"","","","","","image-keyboard-response","168","347025","0.0-143.0","5e0d256753e8464d64940925","665500ab8938657b03fbdba8","6657927ed4ef789b494b24d4","955","stimuli/1100011.jpg","1","","prediction_trial","1","","true","","1","false","false","true","true","false","false","[1]","100","011","1","","","","","","",""
"","","","","","image-keyboard-response","169","347493","0.0-144.0","5e0d256753e8464d64940925","665500ab8938657b03fbdba8","6657927ed4ef789b494b24d4","467","stimuli/11000111.jpg"," ","","feedback_trial","1","","","","","","","","","","","","","","","","","","","","",""
"","","","","","image-keyboard-response","170","348658","0.0-145.0","5e0d256753e8464d64940925","665500ab8938657b03fbdba8","6657927ed4ef789b494b24d4","1164","stimuli/2010110.jpg","2","","prediction_trial","2","","true","","2","true","true","true","true","true","true","[2]","010","110","1","","","","","","",""
"","","","","","image-keyboard-response","171","349007","0.0-146.0","5e0d256753e8464d64940925","665500ab8938657b03fbdba8","6657927ed4ef789b494b24d4","348","stimuli/20101102.jpg"," ","","feedback_trial","2","","","","","","","","","","","","","","","","","","","","",""
"","","","","","image-keyboard-response","172","351929","0.0-147.0","5e0d256753e8464d64940925","665500ab8938657b03fbdba8","6657927ed4ef789b494b24d4","2922","stimuli/2110101.jpg","0","","prediction_trial","2","","false","","2","false","false","true","true","false","false","[2]","110","101","0","","","","","","",""
"","","","","","image-keyboard-response","173","352556","0.0-148.0","5e0d256753e8464d64940925","665500ab8938657b03fbdba8","6657927ed4ef789b494b24d4","626","stimuli/21101012.jpg"," ","","feedback_trial","2","","","","","","","","","","","","","","","","","","","","",""
"","","","","","image-keyboard-response","174","354196","0.0-149.0","5e0d256753e8464d64940925","665500ab8938657b03fbdba8","6657927ed4ef789b494b24d4","1639","stimuli/1101111.jpg","1","","prediction_trial","1","","true","","1","false","false","true","true","false","false","[1]","101","111","1","","","","","","",""
"","","","","","image-keyboard-response","175","354970","0.0-150.0","5e0d256753e8464d64940925","665500ab8938657b03fbdba8","6657927ed4ef789b494b24d4","774","stimuli/11011111.jpg"," ","","feedback_trial","1","","","","","","","","","","","","","","","","","","","","",""
"","","","","","image-keyboard-response","176","356986","0.0-151.0","5e0d256753e8464d64940925","665500ab8938657b03fbdba8","6657927ed4ef789b494b24d4","2015","stimuli/0000011.jpg","0","","prediction_trial","0","","true","","0","true","true","true","true","true","true","[0]","000","011","1","","","","","","",""
"","","","","","image-keyboard-response","177","357616","0.0-152.0","5e0d256753e8464d64940925","665500ab8938657b03fbdba8","6657927ed4ef789b494b24d4","628","stimuli/00000110.jpg"," ","","feedback_trial","0","","","","","","","","","","","","","","","","","","","","",""
"","","","","","image-keyboard-response","178","360324","0.0-153.0","5e0d256753e8464d64940925","665500ab8938657b03fbdba8","6657927ed4ef789b494b24d4","2707","stimuli/0001110.jpg","1","","prediction_trial","0","","false","","0","false","false","true","true","false","false","[0]","001","110","0","","","","","","",""
"","","","","","image-keyboard-response","179","360935","0.0-154.0","5e0d256753e8464d64940925","665500ab8938657b03fbdba8","6657927ed4ef789b494b24d4","611","stimuli/00011100.jpg"," ","","feedback_trial","0","","","","","","","","","","","","","","","","","","","","",""
"","","","","","image-keyboard-response","180","362679","0.0-155.0","5e0d256753e8464d64940925","665500ab8938657b03fbdba8","6657927ed4ef789b494b24d4","1743","stimuli/0101101.jpg","2","","prediction_trial","2","","true","","0","false","false","false","false","false","false","[0,2]","101","101","1","","","","","","",""
"","","","","","image-keyboard-response","181","365210","0.0-156.0","5e0d256753e8464d64940925","665500ab8938657b03fbdba8","6657927ed4ef789b494b24d4","2530","stimuli/01011012.jpg"," ","","feedback_trial","0","","","","","","","","","","","","","","","","","","","","",""
"","","","","","image-keyboard-response","182","366732","0.0-157.0","5e0d256753e8464d64940925","665500ab8938657b03fbdba8","6657927ed4ef789b494b24d4","1522","stimuli/0100111.jpg","0","","prediction_trial","0","","true","","0","false","false","false","true","false","false","[0]","100","111","1","","","","","","",""
"","","","","","image-keyboard-response","183","368090","0.0-158.0","5e0d256753e8464d64940925","665500ab8938657b03fbdba8","6657927ed4ef789b494b24d4","1357","stimuli/01001110.jpg"," ","","feedback_trial","0","","","","","","","","","","","","","","","","","","","","",""
"","","","","","image-keyboard-response","184","369564","0.0-159.0","5e0d256753e8464d64940925","665500ab8938657b03fbdba8","6657927ed4ef789b494b24d4","1473","stimuli/1000010.jpg","1","","prediction_trial","1","","true","","1","false","true","true","true","false","true","[1]","000","010","1","","","","","","",""
"","","","","","image-keyboard-response","185","370194","0.0-160.0","5e0d256753e8464d64940925","665500ab8938657b03fbdba8","6657927ed4ef789b494b24d4","629","stimuli/10000101.jpg"," ","","feedback_trial","1","","","","","","","","","","","","","","","","","","","","",""
"","","","","","image-keyboard-response","186","372116","0.0-161.0","5e0d256753e8464d64940925","665500ab8938657b03fbdba8","6657927ed4ef789b494b24d4","1921","stimuli/0001111.jpg","2","","prediction_trial","0","","false","","0","false","false","true","true","false","false","[0]","001","111","0","","","","","","",""
"","","","","","image-keyboard-response","187","372818","0.0-162.0","5e0d256753e8464d64940925","665500ab8938657b03fbdba8","6657927ed4ef789b494b24d4","702","stimuli/00011110.jpg"," ","","feedback_trial","0","","","","","","","","","","","","","","","","","","","","",""
"","","","","","image-keyboard-response","188","373773","0.0-163.0","5e0d256753e8464d64940925","665500ab8938657b03fbdba8","6657927ed4ef789b494b24d4","954","stimuli/2100110.jpg","2","","prediction_trial","2","","true","","2","true","true","true","true","true","true","[2]","100","110","1","","","","","","",""
"","","","","","image-keyboard-response","189","374426","0.0-164.0","5e0d256753e8464d64940925","665500ab8938657b03fbdba8","6657927ed4ef789b494b24d4","652","stimuli/21001102.jpg"," ","","feedback_trial","2","","","","","","","","","","","","","","","","","","","","",""
"","","","","","image-keyboard-response","190","378336","0.0-165.0","5e0d256753e8464d64940925","665500ab8938657b03fbdba8","6657927ed4ef789b494b24d4","3909","stimuli/2110010.jpg","2","","prediction_trial","2","","true","","2","true","true","true","true","true","true","[2]","110","010","1","","","","","","",""
"","","","","","image-keyboard-response","191","379061","0.0-166.0","5e0d256753e8464d64940925","665500ab8938657b03fbdba8","6657927ed4ef789b494b24d4","724","stimuli/21100102.jpg"," ","","feedback_trial","2","","","","","","","","","","","","","","","","","","","","",""
"","","","","","image-keyboard-response","192","380276","0.0-167.0","5e0d256753e8464d64940925","665500ab8938657b03fbdba8","6657927ed4ef789b494b24d4","1215","stimuli/0001011.jpg","0","","prediction_trial","0","","true","","0","true","true","true","true","true","true","[0]","001","011","1","","","","","","",""
"","","","","","image-keyboard-response","193","380754","0.0-168.0","5e0d256753e8464d64940925","665500ab8938657b03fbdba8","6657927ed4ef789b494b24d4","477","stimuli/00010110.jpg"," ","","feedback_trial","0","","","","","","","","","","","","","","","","","","","","",""
"","","","","","image-keyboard-response","194","383355","0.0-169.0","5e0d256753e8464d64940925","665500ab8938657b03fbdba8","6657927ed4ef789b494b24d4","2600","stimuli/2101001.jpg","2","","prediction_trial","2","","true","","2","false","true","false","false","false","false","[2,0]","101","001","1","","","","","","",""
"","","","","","image-keyboard-response","195","384326","0.0-170.0","5e0d256753e8464d64940925","665500ab8938657b03fbdba8","6657927ed4ef789b494b24d4","970","stimuli/21010012.jpg"," ","","feedback_trial","2","","","","","","","","","","","","","","","","","","","","",""
"","","","","","image-keyboard-response","196","385529","0.0-171.0","5e0d256753e8464d64940925","665500ab8938657b03fbdba8","6657927ed4ef789b494b24d4","1203","stimuli/0000001.jpg","0","","prediction_trial","0","","true","","0","true","true","true","true","true","true","[0]","000","001","1","","","","","","",""
"","","","","","image-keyboard-response","197","385935","0.0-172.0","5e0d256753e8464d64940925","665500ab8938657b03fbdba8","6657927ed4ef789b494b24d4","404","stimuli/00000010.jpg"," ","","feedback_trial","0","","","","","","","","","","","","","","","","","","","","",""
"","","","","","image-keyboard-response","198","387761","0.0-173.0","5e0d256753e8464d64940925","665500ab8938657b03fbdba8","6657927ed4ef789b494b24d4","1826","stimuli/1010010.jpg","1","","prediction_trial","1","","true","","1","false","true","false","true","false","true","[1]","010","010","1","","","","","","",""
"","","","","","image-keyboard-response","199","388260","0.0-174.0","5e0d256753e8464d64940925","665500ab8938657b03fbdba8","6657927ed4ef789b494b24d4","498","stimuli/10100101.jpg"," ","","feedback_trial","1","","","","","","","","","","","","","","","","","","","","",""
"","","","","","image-keyboard-response","200","391642","0.0-175.0","5e0d256753e8464d64940925","665500ab8938657b03fbdba8","6657927ed4ef789b494b24d4","3382","stimuli/1001010.jpg","2","","prediction_trial","1","","false","","1","false","true","true","true","false","true","[1]","001","010","0","","","","","","",""
"","","","","","image-keyboard-response","201","392538","0.0-176.0","5e0d256753e8464d64940925","665500ab8938657b03fbdba8","6657927ed4ef789b494b24d4","895","stimuli/10010101.jpg"," ","","feedback_trial","1","","","","","","","","","","","","","","","","","","","","",""
"","","","","","image-keyboard-response","202","393777","0.0-177.0","5e0d256753e8464d64940925","665500ab8938657b03fbdba8","6657927ed4ef789b494b24d4","1238","stimuli/1000001.jpg","1","","prediction_trial","1","","true","","1","true","true","true","true","true","true","[1]","000","001","1","","","","","","",""
"","","","","","image-keyboard-response","203","394308","0.0-178.0","5e0d256753e8464d64940925","665500ab8938657b03fbdba8","6657927ed4ef789b494b24d4","530","stimuli/10000011.jpg"," ","","feedback_trial","1","","","","","","","","","","","","","","","","","","","","",""
"","","","","","image-keyboard-response","204","395663","0.0-179.0","5e0d256753e8464d64940925","665500ab8938657b03fbdba8","6657927ed4ef789b494b24d4","1354","stimuli/2111100.jpg","2","","prediction_trial","1","","false","","2","true","true","false","false","false","false","[1,0,2]","111","100","0","","","","","","",""
"","","","","","image-keyboard-response","205","396299","0.0-180.0","5e0d256753e8464d64940925","665500ab8938657b03fbdba8","6657927ed4ef789b494b24d4","635","stimuli/21111001.jpg"," ","","feedback_trial","1","","","","","","","","","","","","","","","","","","","","",""
"","","","","","image-keyboard-response","206","399183","0.0-181.0","5e0d256753e8464d64940925","665500ab8938657b03fbdba8","6657927ed4ef789b494b24d4","2883","stimuli/0101110.jpg","1","","prediction_trial","2","","false","","0","false","false","false","false","false","false","[0,2]","101","110","0","","","","","","",""
"","","","","","image-keyboard-response","207","400569","0.0-182.0","5e0d256753e8464d64940925","665500ab8938657b03fbdba8","6657927ed4ef789b494b24d4","1386","stimuli/01011102.jpg"," ","","feedback_trial","0","","","","","","","","","","","","","","","","","","","","",""
"","","","","","image-keyboard-response","208","402470","0.0-183.0","5e0d256753e8464d64940925","665500ab8938657b03fbdba8","6657927ed4ef789b494b24d4","1901","stimuli/1010011.jpg","1","","prediction_trial","1","","true","","1","false","false","false","true","false","false","[1]","010","011","1","","","","","","",""
"","","","","","image-keyboard-response","209","403186","0.0-184.0","5e0d256753e8464d64940925","665500ab8938657b03fbdba8","6657927ed4ef789b494b24d4","715","stimuli/10100111.jpg"," ","","feedback_trial","1","","","","","","","","","","","","","","","","","","","","",""
"","","","","","image-keyboard-response","210","404230","0.0-185.0","5e0d256753e8464d64940925","665500ab8938657b03fbdba8","6657927ed4ef789b494b24d4","1043","stimuli/2000010.jpg","2","","prediction_trial","2","","true","","2","true","true","true","true","true","true","[2]","000","010","1","","","","","","",""
"","","","","","image-keyboard-response","211","404853","0.0-186.0","5e0d256753e8464d64940925","665500ab8938657b03fbdba8","6657927ed4ef789b494b24d4","622","stimuli/20000102.jpg"," ","","feedback_trial","2","","","","","","","","","","","","","","","","","","","","",""
"","","","","","image-keyboard-response","212","406021","0.0-187.0","5e0d256753e8464d64940925","665500ab8938657b03fbdba8","6657927ed4ef789b494b24d4","1167","stimuli/2111111.jpg","1","","prediction_trial","0","","false","","2","false","false","false","false","false","false","[2,0,1]","111","111","0","","","","","","",""
"","","","","","image-keyboard-response","213","406488","0.0-188.0","5e0d256753e8464d64940925","665500ab8938657b03fbdba8","6657927ed4ef789b494b24d4","467","stimuli/21111110.jpg"," ","","feedback_trial","2","","","","","","","","","","","","","","","","","","","","",""
"","","","","","image-keyboard-response","214","407564","0.0-189.0","5e0d256753e8464d64940925","665500ab8938657b03fbdba8","6657927ed4ef789b494b24d4","1060","stimuli/0110111.jpg","1","","prediction_trial","1","","true","","0","false","false","false","false","false","false","[1,0]","110","111","1","","","","","","",""
"","","","","","image-keyboard-response","215","408429","0.0-190.0","5e0d256753e8464d64940925","665500ab8938657b03fbdba8","6657927ed4ef789b494b24d4","864","stimuli/01101111.jpg"," ","","feedback_trial","1","","","","","","","","","","","","","","","","","","","","",""
"","","","","","image-keyboard-response","216","411039","0.0-191.0","5e0d256753e8464d64940925","665500ab8938657b03fbdba8","6657927ed4ef789b494b24d4","2609","stimuli/2111010.jpg","1","","prediction_trial","0","","false","","2","true","true","false","false","false","false","[1,2,0]","111","010","0","","","","","","",""
"","","","","","image-keyboard-response","217","411937","0.0-192.0","5e0d256753e8464d64940925","665500ab8938657b03fbdba8","6657927ed4ef789b494b24d4","897","stimuli/21110100.jpg"," ","","feedback_trial","1","","","","","","","","","","","","","","","","","","","","",""
"","","","","","image-keyboard-response","218","414025","0.0-193.0","5e0d256753e8464d64940925","665500ab8938657b03fbdba8","6657927ed4ef789b494b24d4","2087","stimuli/0111010.jpg","0","","prediction_trial","2","","false","","0","true","true","false","false","false","false","[0,2,1]","111","010","0","","","","","","",""
"","","","","","image-keyboard-response","219","414690","0.0-194.0","5e0d256753e8464d64940925","665500ab8938657b03fbdba8","6657927ed4ef789b494b24d4","665","stimuli/01110102.jpg"," ","","feedback_trial","0","","","","","","","","","","","","","","","","","","","","",""
"","","","","","image-keyboard-response","220","415502","0.0-195.0","5e0d256753e8464d64940925","665500ab8938657b03fbdba8","6657927ed4ef789b494b24d4","811","stimuli/2011111.jpg","1","","prediction_trial","2","","false","","2","false","false","false","false","false","false","[1,2]","011","111","0","","","","","","",""
"","","","","","image-keyboard-response","221","416722","0.0-196.0","5e0d256753e8464d64940925","665500ab8938657b03fbdba8","6657927ed4ef789b494b24d4","1219","stimuli/20111112.jpg"," ","","feedback_trial","1","","","","","","","","","","","","","","","","","","","","",""
"","","","","","image-keyboard-response","222","418009","0.0-197.0","5e0d256753e8464d64940925","665500ab8938657b03fbdba8","6657927ed4ef789b494b24d4","1286","stimuli/1110001.jpg","1","","prediction_trial","1","","true","","1","true","true","false","false","false","false","[0,1]","110","001","1","","","","","","",""
"","","","","","image-keyboard-response","223","418699","0.0-198.0","5e0d256753e8464d64940925","665500ab8938657b03fbdba8","6657927ed4ef789b494b24d4","689","stimuli/11100011.jpg"," ","","feedback_trial","0","","","","","","","","","","","","","","","","","","","","",""
"","","","","","image-keyboard-response","224","420590","0.0-199.0","5e0d256753e8464d64940925","665500ab8938657b03fbdba8","6657927ed4ef789b494b24d4","1891","stimuli/1011011.jpg","1","","prediction_trial","1","","true","","1","false","false","false","false","false","false","[1,2]","011","011","1","","","","","","",""
"","","","","","image-keyboard-response","225","421377","0.0-200.0","5e0d256753e8464d64940925","665500ab8938657b03fbdba8","6657927ed4ef789b494b24d4","786","stimuli/10110111.jpg"," ","","feedback_trial","1","","","","","","","","","","","","","","","","","","","","",""
"","","","","","image-keyboard-response","226","423220","0.0-201.0","5e0d256753e8464d64940925","665500ab8938657b03fbdba8","6657927ed4ef789b494b24d4","1842","stimuli/0110001.jpg","1","","prediction_trial","1","","true","","0","true","true","false","false","false","false","[0,1]","110","001","1","","","","","","",""
"","","","","","image-keyboard-response","227","423743","0.0-202.0","5e0d256753e8464d64940925","665500ab8938657b03fbdba8","6657927ed4ef789b494b24d4","522","stimuli/01100011.jpg"," ","","feedback_trial","0","","","","","","","","","","","","","","","","","","","","",""
"","","","","","image-keyboard-response","228","425979","0.0-203.0","5e0d256753e8464d64940925","665500ab8938657b03fbdba8","6657927ed4ef789b494b24d4","2235","stimuli/0101111.jpg","2","","prediction_trial","0","","false","","0","false","false","false","false","false","false","[0,2]","101","111","0","","","","","","",""
"","","","","","image-keyboard-response","229","426605","0.0-204.0","5e0d256753e8464d64940925","665500ab8938657b03fbdba8","6657927ed4ef789b494b24d4","626","stimuli/01011110.jpg"," ","","feedback_trial","0","","","","","","","","","","","","","","","","","","","","",""
"","","","","","image-keyboard-response","230","429377","0.0-205.0","5e0d256753e8464d64940925","665500ab8938657b03fbdba8","6657927ed4ef789b494b24d4","2771","stimuli/1100010.jpg","1","","prediction_trial","1","","true","","1","false","true","true","true","false","true","[1]","100","010","1","","","","","","",""
"","","","","","image-keyboard-response","231","430015","0.0-206.0","5e0d256753e8464d64940925","665500ab8938657b03fbdba8","6657927ed4ef789b494b24d4","637","stimuli/11000101.jpg"," ","","feedback_trial","1","","","","","","","","","","","","","","","","","","","","",""
"","","","","","image-keyboard-response","232","431764","0.0-207.0","5e0d256753e8464d64940925","665500ab8938657b03fbdba8","6657927ed4ef789b494b24d4","1748","stimuli/0001101.jpg","2","","prediction_trial","0","","false","","0","false","false","true","true","false","false","[0]","001","101","0","","","","","","",""
"","","","","","image-keyboard-response","233","432470","0.0-208.0","5e0d256753e8464d64940925","665500ab8938657b03fbdba8","6657927ed4ef789b494b24d4","705","stimuli/00011010.jpg"," ","","feedback_trial","0","","","","","","","","","","","","","","","","","","","","",""
"","","","","","image-keyboard-response","234","435018","0.0-209.0","5e0d256753e8464d64940925","665500ab8938657b03fbdba8","6657927ed4ef789b494b24d4","2548","stimuli/1011100.jpg","2","","prediction_trial","1","","false","","1","true","true","false","false","false","false","[2,1]","011","100","0","","","","","","",""
"","","","","","image-keyboard-response","235","436037","0.0-210.0","5e0d256753e8464d64940925","665500ab8938657b03fbdba8","6657927ed4ef789b494b24d4","1018","stimuli/10111001.jpg"," ","","feedback_trial","2","","","","","","","","","","","","","","","","","","","","",""
"","","","","","image-keyboard-response","236","437371","0.0-211.0","5e0d256753e8464d64940925","665500ab8938657b03fbdba8","6657927ed4ef789b494b24d4","1333","stimuli/0110100.jpg","1","","prediction_trial","0","","false","","0","false","true","false","false","false","false","[0,1]","110","100","0","","","","","","",""
"","","","","","image-keyboard-response","237","438236","0.0-212.0","5e0d256753e8464d64940925","665500ab8938657b03fbdba8","6657927ed4ef789b494b24d4","864","stimuli/01101000.jpg"," ","","feedback_trial","0","","","","","","","","","","","","","","","","","","","","",""
"","","","","","image-keyboard-response","238","439923","0.0-213.0","5e0d256753e8464d64940925","665500ab8938657b03fbdba8","6657927ed4ef789b494b24d4","1686","stimuli/2000001.jpg","2","","prediction_trial","2","","true","","2","false","true","true","true","false","true","[2]","000","001","1","","","","","","",""
"","","","","","image-keyboard-response","239","440469","0.0-214.0","5e0d256753e8464d64940925","665500ab8938657b03fbdba8","6657927ed4ef789b494b24d4","545","stimuli/20000012.jpg"," ","","feedback_trial","2","","","","","","","","","","","","","","","","","","","","",""
"","","","","","image-keyboard-response","240","441520","0.0-215.0","5e0d256753e8464d64940925","665500ab8938657b03fbdba8","6657927ed4ef789b494b24d4","1051","stimuli/1111100.jpg","1","","prediction_trial","1","","true","","1","true","true","false","false","false","false","[1,2,0]","111","100","1","","","","","","",""
"","","","","","image-keyboard-response","241","442924","0.0-216.0","5e0d256753e8464d64940925","665500ab8938657b03fbdba8","6657927ed4ef789b494b24d4","1403","stimuli/11111001.jpg"," ","","feedback_trial","1","","","","","","","","","","","","","","","","","","","","",""
"","","","","","image-keyboard-response","242","444256","0.0-217.0","5e0d256753e8464d64940925","665500ab8938657b03fbdba8","6657927ed4ef789b494b24d4","1331","stimuli/0010011.jpg","0","","prediction_trial","0","","true","","0","true","true","true","true","true","true","[0]","010","011","1","","","","","","",""
"","","","","","image-keyboard-response","243","445101","0.0-218.0","5e0d256753e8464d64940925","665500ab8938657b03fbdba8","6657927ed4ef789b494b24d4","844","stimuli/00100110.jpg"," ","","feedback_trial","0","","","","","","","","","","","","","","","","","","","","",""
"","","","","","image-keyboard-response","244","446529","0.0-219.0","5e0d256753e8464d64940925","665500ab8938657b03fbdba8","6657927ed4ef789b494b24d4","1427","stimuli/0011100.jpg","0","","prediction_trial","0","","true","","0","false","true","true","true","false","true","[0]","011","100","1","","","","","","",""
"","","","","","image-keyboard-response","245","447701","0.0-220.0","5e0d256753e8464d64940925","665500ab8938657b03fbdba8","6657927ed4ef789b494b24d4","1171","stimuli/00111000.jpg"," ","","feedback_trial","0","","","","","","","","","","","","","","","","","","","","",""
"","","","","","image-keyboard-response","246","449989","0.0-221.0","5e0d256753e8464d64940925","665500ab8938657b03fbdba8","6657927ed4ef789b494b24d4","2287","stimuli/2011001.jpg","1","","prediction_trial","2","","false","","2","false","true","false","false","false","false","[1,2]","011","001","0","","","","","","",""
"","","","","","image-keyboard-response","247","450761","0.0-222.0","5e0d256753e8464d64940925","665500ab8938657b03fbdba8","6657927ed4ef789b494b24d4","772","stimuli/20110012.jpg"," ","","feedback_trial","1","","","","","","","","","","","","","","","","","","","","",""
"","","","","","image-keyboard-response","248","451615","0.0-223.0","5e0d256753e8464d64940925","665500ab8938657b03fbdba8","6657927ed4ef789b494b24d4","853","stimuli/2000111.jpg","1","","prediction_trial","2","","false","","2","false","false","true","true","false","false","[2]","000","111","0","","","","","","",""
"","","","","","image-keyboard-response","249","452107","0.0-224.0","5e0d256753e8464d64940925","665500ab8938657b03fbdba8","6657927ed4ef789b494b24d4","491","stimuli/20001112.jpg"," ","","feedback_trial","2","","","","","","","","","","","","","","","","","","","","",""
"","","","","","image-keyboard-response","250","453383","0.0-225.0","5e0d256753e8464d64940925","665500ab8938657b03fbdba8","6657927ed4ef789b494b24d4","1275","stimuli/2100010.jpg","2","","prediction_trial","2","","true","","2","true","true","true","true","true","true","[2]","100","010","1","","","","","","",""
"","","","","","image-keyboard-response","251","454167","0.0-226.0","5e0d256753e8464d64940925","665500ab8938657b03fbdba8","6657927ed4ef789b494b24d4","784","stimuli/21000102.jpg"," ","","feedback_trial","2","","","","","","","","","","","","","","","","","","","","",""
"","","","","","image-keyboard-response","252","455281","0.0-227.0","5e0d256753e8464d64940925","665500ab8938657b03fbdba8","6657927ed4ef789b494b24d4","1113","stimuli/0010001.jpg","0","","prediction_trial","0","","true","","0","true","true","true","true","true","true","[0]","010","001","1","","","","","","",""
"","","","","","image-keyboard-response","253","456054","0.0-228.0","5e0d256753e8464d64940925","665500ab8938657b03fbdba8","6657927ed4ef789b494b24d4","772","stimuli/00100010.jpg"," ","","feedback_trial","0","","","","","","","","","","","","","","","","","","","","",""
"","","","","","image-keyboard-response","254","459056","0.0-229.0","5e0d256753e8464d64940925","665500ab8938657b03fbdba8","6657927ed4ef789b494b24d4","3001","stimuli/1001011.jpg","2","","prediction_trial","1","","false","","1","false","false","true","true","false","false","[1]","001","011","0","","","","","","",""
"","","","","","image-keyboard-response","255","459880","0.0-230.0","5e0d256753e8464d64940925","665500ab8938657b03fbdba8","6657927ed4ef789b494b24d4","824","stimuli/10010111.jpg"," ","","feedback_trial","1","","","","","","","","","","","","","","","","","","","","",""
"","","","","","image-keyboard-response","256","460851","0.0-231.0","5e0d256753e8464d64940925","665500ab8938657b03fbdba8","6657927ed4ef789b494b24d4","970","stimuli/0001000.jpg","0","","prediction_trial","0","","true","","0","true","true","true","true","true","true","[0]","001","000","1","","","","","","",""
"","","","","","image-keyboard-response","257","462057","0.0-232.0","5e0d256753e8464d64940925","665500ab8938657b03fbdba8","6657927ed4ef789b494b24d4","1205","stimuli/00010000.jpg"," ","","feedback_trial","0","","","","","","","","","","","","","","","","","","","","",""
"","","","","","image-keyboard-response","258","463124","0.0-233.0","5e0d256753e8464d64940925","665500ab8938657b03fbdba8","6657927ed4ef789b494b24d4","1066","stimuli/1010100.jpg","1","","prediction_trial","1","","true","","1","true","true","false","true","false","true","[1]","010","100","1","","","","","","",""
"","","","","","image-keyboard-response","259","464684","0.0-234.0","5e0d256753e8464d64940925","665500ab8938657b03fbdba8","6657927ed4ef789b494b24d4","1560","stimuli/10101001.jpg"," ","","feedback_trial","1","","","","","","","","","","","","","","","","","","","","",""
"","","","","","image-keyboard-response","260","466082","0.0-235.0","5e0d256753e8464d64940925","665500ab8938657b03fbdba8","6657927ed4ef789b494b24d4","1396","stimuli/1101001.jpg","1","","prediction_trial","1","","true","","1","true","true","true","true","true","true","[1]","101","001","1","","","","","","",""
"","","","","","image-keyboard-response","261","466574","0.0-236.0","5e0d256753e8464d64940925","665500ab8938657b03fbdba8","6657927ed4ef789b494b24d4","492","stimuli/11010011.jpg"," ","","feedback_trial","1","","","","","","","","","","","","","","","","","","","","",""
"","","","","","image-keyboard-response","262","469369","0.0-237.0","5e0d256753e8464d64940925","665500ab8938657b03fbdba8","6657927ed4ef789b494b24d4","2800","stimuli/2101110.jpg","2","","prediction_trial","0","","false","","2","true","true","false","false","false","false","[0,2]","101","110","0","","","","","","",""
"","","","","","image-keyboard-response","263","470173","0.0-238.0","5e0d256753e8464d64940925","665500ab8938657b03fbdba8","6657927ed4ef789b494b24d4","803","stimuli/21011100.jpg"," ","","feedback_trial","0","","","","","","","","","","","","","","","","","","","","",""
"","","","","","image-keyboard-response","264","472858","0.0-239.0","5e0d256753e8464d64940925","665500ab8938657b03fbdba8","6657927ed4ef789b494b24d4","2685","stimuli/2010111.jpg","1","","prediction_trial","2","","false","","2","false","false","true","true","false","false","[2]","010","111","0","","","","","","",""
"","","","","","image-keyboard-response","265","473715","0.0-240.0","5e0d256753e8464d64940925","665500ab8938657b03fbdba8","6657927ed4ef789b494b24d4","855","stimuli/20101112.jpg"," ","","feedback_trial","2","","","","","","","","","","","","","","","","","","","","",""
"","","","","","image-keyboard-response","266","475961","0.0-241.0","5e0d256753e8464d64940925","665500ab8938657b03fbdba8","6657927ed4ef789b494b24d4","2245","stimuli/0101001.jpg","0","","prediction_trial","2","","false","","0","true","true","false","false","false","false","[2,0]","101","001","0","","","","","","",""
"","","","","","image-keyboard-response","267","476579","0.0-242.0","5e0d256753e8464d64940925","665500ab8938657b03fbdba8","6657927ed4ef789b494b24d4","618","stimuli/01010012.jpg"," ","","feedback_trial","2","","","","","","","","","","","","","","","","","","","","",""
"","","","","","image-keyboard-response","268","477720","0.0-243.0","5e0d256753e8464d64940925","665500ab8938657b03fbdba8","6657927ed4ef789b494b24d4","1140","stimuli/1000000.jpg","1","","prediction_trial","1","","true","","1","true","true","true","true","true","true","[1]","000","000","1","","","","","","",""
"","","","","","image-keyboard-response","269","478199","0.0-244.0","5e0d256753e8464d64940925","665500ab8938657b03fbdba8","6657927ed4ef789b494b24d4","478","stimuli/10000001.jpg"," ","","feedback_trial","1","","","","","","","","","","","","","","","","","","","","",""
"","","","","","image-keyboard-response","270","480093","0.0-245.0","5e0d256753e8464d64940925","665500ab8938657b03fbdba8","6657927ed4ef789b494b24d4","1893","stimuli/2010001.jpg","2","","prediction_trial","2","","true","","2","false","true","true","true","false","true","[2]","010","001","1","","","","","","",""
"","","","","","image-keyboard-response","271","480788","0.0-246.0","5e0d256753e8464d64940925","665500ab8938657b03fbdba8","6657927ed4ef789b494b24d4","695","stimuli/20100012.jpg"," ","","feedback_trial","2","","","","","","","","","","","","","","","","","","","","",""
"","","","","","image-keyboard-response","272","483408","0.0-247.0","5e0d256753e8464d64940925","665500ab8938657b03fbdba8","6657927ed4ef789b494b24d4","2619","stimuli/1001111.jpg","2","","prediction_trial","1","","false","","1","false","false","true","true","false","false","[1]","001","111","0","","","","","","",""
"","","","","","image-keyboard-response","273","484338","0.0-248.0","5e0d256753e8464d64940925","665500ab8938657b03fbdba8","6657927ed4ef789b494b24d4","929","stimuli/10011111.jpg"," ","","feedback_trial","1","","","","","","","","","","","","","","","","","","","","",""
"","","","","","image-keyboard-response","274","486042","0.0-249.0","5e0d256753e8464d64940925","665500ab8938657b03fbdba8","6657927ed4ef789b494b24d4","1702","stimuli/1011010.jpg","2","","prediction_trial","1","","false","","1","false","true","false","false","false","false","[2,1]","011","010","0","","","","","","",""
"","","","","","image-keyboard-response","275","487216","0.0-250.0","5e0d256753e8464d64940925","665500ab8938657b03fbdba8","6657927ed4ef789b494b24d4","1173","stimuli/10110101.jpg"," ","","feedback_trial","2","","","","","","","","","","","","","","","","","","","","",""
"","","","","","image-keyboard-response","276","488092","0.0-251.0","5e0d256753e8464d64940925","665500ab8938657b03fbdba8","6657927ed4ef789b494b24d4","875","stimuli/0011111.jpg","2","","prediction_trial","0","","false","","0","false","false","true","true","false","false","[0]","011","111","0","","","","","","",""
"","","","","","image-keyboard-response","277","489771","0.0-252.0","5e0d256753e8464d64940925","665500ab8938657b03fbdba8","6657927ed4ef789b494b24d4","1679","stimuli/00111110.jpg"," ","","feedback_trial","0","","","","","","","","","","","","","","","","","","","","",""
"","","","","","image-keyboard-response","278","490730","0.0-253.0","5e0d256753e8464d64940925","665500ab8938657b03fbdba8","6657927ed4ef789b494b24d4","958","stimuli/2111000.jpg","2","","prediction_trial","0","","false","","2","true","true","false","false","false","false","[0,2,1]","111","000","0","","","","","","",""
"","","","","","image-keyboard-response","279","491404","0.0-254.0","5e0d256753e8464d64940925","665500ab8938657b03fbdba8","6657927ed4ef789b494b24d4","673","stimuli/21110000.jpg"," ","","feedback_trial","0","","","","","","","","","","","","","","","","","","","","",""
"","","","","","image-keyboard-response","280","492464","0.0-255.0","5e0d256753e8464d64940925","665500ab8938657b03fbdba8","6657927ed4ef789b494b24d4","1059","stimuli/2001100.jpg","2","","prediction_trial","2","","true","","2","true","true","false","true","false","true","[2]","001","100","1","","","","","","",""
"","","","","","image-keyboard-response","281","492928","0.0-256.0","5e0d256753e8464d64940925","665500ab8938657b03fbdba8","6657927ed4ef789b494b24d4","463","stimuli/20011002.jpg"," ","","feedback_trial","2","","","","","","","","","","","","","","","","","","","","",""
"","","","","","image-keyboard-response","282","495294","0.0-257.0","5e0d256753e8464d64940925","665500ab8938657b03fbdba8","6657927ed4ef789b494b24d4","2366","stimuli/2000110.jpg","2","","prediction_trial","2","","true","","2","true","true","true","true","true","true","[2]","000","110","1","","","","","","",""
"","","","","","image-keyboard-response","283","495851","0.0-258.0","5e0d256753e8464d64940925","665500ab8938657b03fbdba8","6657927ed4ef789b494b24d4","556","stimuli/20001102.jpg"," ","","feedback_trial","2","","","","","","","","","","","","","","","","","","","","",""
"","","","","","image-keyboard-response","284","498549","0.0-259.0","5e0d256753e8464d64940925","665500ab8938657b03fbdba8","6657927ed4ef789b494b24d4","2695","stimuli/0010101.jpg","1","","prediction_trial","0","","false","","0","false","false","true","true","false","false","[0]","010","101","0","","","","","","",""
"","","","","","image-keyboard-response","285","502270","0.0-260.0","5e0d256753e8464d64940925","665500ab8938657b03fbdba8","6657927ed4ef789b494b24d4","3720","stimuli/00101010.jpg"," ","","feedback_trial","0","","","","","","","","","","","","","","","","","","","","",""
"","","","","","image-keyboard-response","286","503265","0.0-261.0","5e0d256753e8464d64940925","665500ab8938657b03fbdba8","6657927ed4ef789b494b24d4","993","stimuli/1001101.jpg","1","","prediction_trial","1","","true","","1","true","true","true","true","true","true","[1]","001","101","1","","","","","","",""
"","","","","","image-keyboard-response","287","503693","0.0-262.0","5e0d256753e8464d64940925","665500ab8938657b03fbdba8","6657927ed4ef789b494b24d4","428","stimuli/10011011.jpg"," ","","feedback_trial","1","","","","","","","","","","","","","","","","","","","","",""
"","","","","","image-keyboard-response","288","505046","0.0-263.0","5e0d256753e8464d64940925","665500ab8938657b03fbdba8","6657927ed4ef789b494b24d4","1352","stimuli/1110111.jpg","1","","prediction_trial","0","","false","","1","false","false","false","false","false","false","[0,1]","110","111","0","","","","","","",""
"","","","","","image-keyboard-response","289","505571","0.0-264.0","5e0d256753e8464d64940925","665500ab8938657b03fbdba8","6657927ed4ef789b494b24d4","524","stimuli/11101110.jpg"," ","","feedback_trial","0","","","","","","","","","","","","","","","","","","","","",""
"","","","","","image-keyboard-response","290","506318","0.0-265.0","5e0d256753e8464d64940925","665500ab8938657b03fbdba8","6657927ed4ef789b494b24d4","747","stimuli/1011110.jpg","1","","prediction_trial","1","","true","","1","false","false","false","false","false","false","[1,2]","011","110","1","","","","","","",""
"","","","","","image-keyboard-response","291","506937","0.0-266.0","5e0d256753e8464d64940925","665500ab8938657b03fbdba8","6657927ed4ef789b494b24d4","618","stimuli/10111101.jpg"," ","","feedback_trial","1","","","","","","","","","","","","","","","","","","","","",""
"","","","","","image-keyboard-response","292","508138","0.0-267.0","5e0d256753e8464d64940925","665500ab8938657b03fbdba8","6657927ed4ef789b494b24d4","1200","stimuli/2100100.jpg","2","","prediction_trial","2","","true","","2","true","true","true","true","true","true","[2]","100","100","1","","","","","","",""
"","","","","","image-keyboard-response","293","508562","0.0-268.0","5e0d256753e8464d64940925","665500ab8938657b03fbdba8","6657927ed4ef789b494b24d4","423","stimuli/21001002.jpg"," ","","feedback_trial","2","","","","","","","","","","","","","","","","","","","","",""
"","","","","","image-keyboard-response","294","510013","0.0-269.0","5e0d256753e8464d64940925","665500ab8938657b03fbdba8","6657927ed4ef789b494b24d4","1450","stimuli/1110100.jpg","1","","prediction_trial","1","","true","","1","true","true","false","false","false","false","[0,1]","110","100","1","","","","","","",""
"","","","","","image-keyboard-response","295","510623","0.0-270.0","5e0d256753e8464d64940925","665500ab8938657b03fbdba8","6657927ed4ef789b494b24d4","609","stimuli/11101001.jpg"," ","","feedback_trial","0","","","","","","","","","","","","","","","","","","","","",""
"","","","","","image-keyboard-response","296","511861","0.0-271.0","5e0d256753e8464d64940925","665500ab8938657b03fbdba8","6657927ed4ef789b494b24d4","1237","stimuli/1111000.jpg","1","","prediction_trial","2","","false","","1","true","true","false","false","false","false","[0,1,2]","111","000","0","","","","","","",""
"","","","","","image-keyboard-response","297","512400","0.0-272.0","5e0d256753e8464d64940925","665500ab8938657b03fbdba8","6657927ed4ef789b494b24d4","539","stimuli/11110002.jpg"," ","","feedback_trial","0","","","","","","","","","","","","","","","","","","","","",""
"","","","","","image-keyboard-response","298","513792","0.0-273.0","5e0d256753e8464d64940925","665500ab8938657b03fbdba8","6657927ed4ef789b494b24d4","1391","stimuli/0001001.jpg","0","","prediction_trial","0","","true","","0","true","true","true","true","true","true","[0]","001","001","1","","","","","","",""
"","","","","","image-keyboard-response","299","514335","0.0-274.0","5e0d256753e8464d64940925","665500ab8938657b03fbdba8","6657927ed4ef789b494b24d4","542","stimuli/00010010.jpg"," ","","feedback_trial","0","","","","","","","","","","","","","","","","","","","","",""
"","","","","","image-keyboard-response","300","515471","0.0-275.0","5e0d256753e8464d64940925","665500ab8938657b03fbdba8","6657927ed4ef789b494b24d4","1135","stimuli/0011010.jpg","0","","prediction_trial","0","","true","","0","true","true","true","true","true","true","[0]","011","010","1","","","","","","",""
"","","","","","image-keyboard-response","301","515943","0.0-276.0","5e0d256753e8464d64940925","665500ab8938657b03fbdba8","6657927ed4ef789b494b24d4","471","stimuli/00110100.jpg"," ","","feedback_trial","0","","","","","","","","","","","","","","","","","","","","",""
"","","","","","image-keyboard-response","302","517140","0.0-277.0","5e0d256753e8464d64940925","665500ab8938657b03fbdba8","6657927ed4ef789b494b24d4","1194","stimuli/1011101.jpg","1","","prediction_trial","1","","true","","1","true","true","false","false","false","false","[2,1]","011","101","1","","","","","","",""
"","","","","","image-keyboard-response","303","517784","0.0-278.0","5e0d256753e8464d64940925","665500ab8938657b03fbdba8","6657927ed4ef789b494b24d4","643","stimuli/10111011.jpg"," ","","feedback_trial","2","","","","","","","","","","","","","","","","","","","","",""
"","","","","","image-keyboard-response","304","518770","0.0-279.0","5e0d256753e8464d64940925","665500ab8938657b03fbdba8","6657927ed4ef789b494b24d4","985","stimuli/2010100.jpg","2","","prediction_trial","2","","true","","2","true","true","true","true","true","true","[2]","010","100","1","","","","","","",""
"","","","","","image-keyboard-response","305","519253","0.0-280.0","5e0d256753e8464d64940925","665500ab8938657b03fbdba8","6657927ed4ef789b494b24d4","483","stimuli/20101002.jpg"," ","","feedback_trial","2","","","","","","","","","","","","","","","","","","","","",""
"","","","","","image-keyboard-response","306","520096","0.0-281.0","5e0d256753e8464d64940925","665500ab8938657b03fbdba8","6657927ed4ef789b494b24d4","841","stimuli/1001001.jpg","1","","prediction_trial","1","","true","","1","true","true","true","true","true","true","[1]","001","001","1","","","","","","",""
"","","","","","image-keyboard-response","307","520494","0.0-282.0","5e0d256753e8464d64940925","665500ab8938657b03fbdba8","6657927ed4ef789b494b24d4","397","stimuli/10010011.jpg"," ","","feedback_trial","1","","","","","","","","","","","","","","","","","","","","",""
"","","","","","image-keyboard-response","308","521966","0.0-283.0","5e0d256753e8464d64940925","665500ab8938657b03fbdba8","6657927ed4ef789b494b24d4","1471","stimuli/0011101.jpg","0","","prediction_trial","0","","true","","0","false","false","true","true","false","false","[0]","011","101","1","","","","","","",""
"","","","","","image-keyboard-response","309","522747","0.0-284.0","5e0d256753e8464d64940925","665500ab8938657b03fbdba8","6657927ed4ef789b494b24d4","780","stimuli/00111010.jpg"," ","","feedback_trial","0","","","","","","","","","","","","","","","","","","","","",""
"","","","","","image-keyboard-response","310","523750","0.0-285.0","5e0d256753e8464d64940925","665500ab8938657b03fbdba8","6657927ed4ef789b494b24d4","1002","stimuli/2110111.jpg","1","","prediction_trial","2","","false","","2","false","false","true","true","false","false","[2]","110","111","0","","","","","","",""
"","","","","","image-keyboard-response","311","524408","0.0-286.0","5e0d256753e8464d64940925","665500ab8938657b03fbdba8","6657927ed4ef789b494b24d4","657","stimuli/21101112.jpg"," ","","feedback_trial","2","","","","","","","","","","","","","","","","","","","","",""
"","","","","","image-keyboard-response","312","526639","0.0-287.0","5e0d256753e8464d64940925","665500ab8938657b03fbdba8","6657927ed4ef789b494b24d4","2231","stimuli/2110001.jpg","1","","prediction_trial","2","","false","","2","false","true","true","true","false","true","[2]","110","001","0","","","","","","",""
"","","","","","image-keyboard-response","313","527817","0.0-288.0","5e0d256753e8464d64940925","665500ab8938657b03fbdba8","6657927ed4ef789b494b24d4","1177","stimuli/21100012.jpg"," ","","feedback_trial","2","","","","","","","","","","","","","","","","","","","","",""
"","","","","","image-keyboard-response","314","530215","0.0-289.0","5e0d256753e8464d64940925","665500ab8938657b03fbdba8","6657927ed4ef789b494b24d4","2392","stimuli/2111110.jpg","2","","prediction_trial","2","","true","","2","true","true","false","false","false","false","[1,0,2]","111","110","1","","","","","","",""
"","","","","","image-keyboard-response","315","531080","0.0-290.0","5e0d256753e8464d64940925","665500ab8938657b03fbdba8","6657927ed4ef789b494b24d4","864","stimuli/21111102.jpg"," ","","feedback_trial","1","","","","","","","","","","","","","","","","","","","","",""
"","","","","","image-keyboard-response","316","532351","0.0-291.0","5e0d256753e8464d64940925","665500ab8938657b03fbdba8","6657927ed4ef789b494b24d4","1271","stimuli/2101101.jpg","2","","prediction_trial","0","","false","","2","false","false","false","false","false","false","[0,2]","101","101","0","","","","","","",""
"","","","","","image-keyboard-response","317","533000","0.0-292.0","5e0d256753e8464d64940925","665500ab8938657b03fbdba8","6657927ed4ef789b494b24d4","648","stimuli/21011010.jpg"," ","","feedback_trial","0","","","","","","","","","","","","","","","","","","","","",""
"","","","","","survey-html-form","318","556112","0.0-293.0","5e0d256753e8464d64940925","665500ab8938657b03fbdba8","6657927ed4ef789b494b24d4","23110","","{""feedback"":""If I knew where it was it was easy, otherwise, I guessed"",""age"":""57"",""gender"":""Female"",""other_gender"":"""",""race"":""White"",""other_race"":"""",""ethnicity"":""Non-Hispanic""}","","exit_survey","","","","","","","","","","","","","","","","If I knew where it was it was easy, otherwise, I guessed","57","Non-Hispanic","Female","White","0.5972222222222222","0.5972222222222222"
