"success","timeout","failed_images","failed_audio","failed_video","trial_type","trial_index","time_elapsed","internal_node_id","prolific_id","prolific_study_id","prolific_session_id","rt","stimulus","response","view_history","trial","character_choice","stimulus_dict","accuracy","correct_response","ball_pos","ego_ball_visible","ego_can_infer","alter_ball_visible","alter_can_infer","collective_ball_visible","collective_can_infer","search_locations","alter_occluders","ego_occluders","accuracy_bool","feedback","age","ethnicity","gender","race","overall_accuracy","bonus"
"true","false","[]","[]","[]","preload","0","9796","0.0-0.0","611341c34be95409850e4341","665500ab8938657b03fbdba8","66577c5743f15a7927283df0","","","","","","","","","","","","","","","","","","","","","","","","","","",""
"true","","","","","fullscreen","1","13051","0.0-1.0","611341c34be95409850e4341","665500ab8938657b03fbdba8","66577c5743f15a7927283df0","","","","","","","","","","","","","","","","","","","","","","","","","","",""
"","","","","","html-button-response","2","22899","0.0-2.0","611341c34be95409850e4341","665500ab8938657b03fbdba8","66577c5743f15a7927283df0","9841","<p><b>Consent Form</b></p> <div style=""text-align:left;background-color:lightgrey; padding:20px; max-width:900px;""><p>Please consider this information carefully before deciding whether to participate in this research.</p> <p>The purpose of this research is to examine which factors influence social judgment and decision-making. You will be asked to make judgements about individuals and actions in social scenarios. We are simply interested in your judgement. The study will take less than 1 hour to complete, and you will receive less than $20 on Prolific. Your compensation and time commitment are specified in the study description. There are no anticipated risks associated with participating in this study. The effects of participating should be comparable to those you would ordinarily experience from viewing a computer monitor and using a mouse or keyboard for a similar amount of time. At the end of the study, we will provide an explanation of the questions that motivate this line of research and will describe the potential implications. </p><p> Your participation in this study is completely voluntary and you may refuse to participate or you may choose to withdraw at any time without penalty or loss of benefits to you which are otherwise entitled. Your participation in this study will remain confidential. No personally identifiable information will be associated with your data. Also, all analyses of the data will be averaged across all the participants, so your individual responses will never be specifically analyzed. </p><p> If you have questions or concerns about your participation or payment, or want to request a summary of research findings, please contact Dr. Jonathan Phillips at Jonathan.S.Phillips@dartmouth.edu. </p><p> Please save a copy of this form for your records. </p><p><b>Agreement: </b>The nature and purpose of this research have been sufficiently explained and I agree to participate in this study. I understand that I am free to withdraw at any time without incurring any penalty. Please consent by clicking the button below to continue. Otherwise, please exit the study at any time. </p>","0","","","","","","","","","","","","","","","","","","","","","","","",""
"","","","","","instructions","3","167035","0.0-3.0-0.0","611341c34be95409850e4341","665500ab8938657b03fbdba8","66577c5743f15a7927283df0","144130","","","[{""page_index"":0,""viewing_time"":2313},{""page_index"":1,""viewing_time"":14327},{""page_index"":2,""viewing_time"":4169},{""page_index"":3,""viewing_time"":13578},{""page_index"":4,""viewing_time"":10078},{""page_index"":5,""viewing_time"":6744},{""page_index"":6,""viewing_time"":7672},{""page_index"":7,""viewing_time"":6296},{""page_index"":8,""viewing_time"":8425},{""page_index"":9,""viewing_time"":5913},{""page_index"":10,""viewing_time"":33215},{""page_index"":11,""viewing_time"":24480},{""page_index"":12,""viewing_time"":5094},{""page_index"":13,""viewing_time"":1825}]","intro","","","","","","","","","","","","","","","","","","","","","",""
"","","","","","image-keyboard-response","4","174417","0.0-3.0-1.0","611341c34be95409850e4341","665500ab8938657b03fbdba8","66577c5743f15a7927283df0","7356","stimuli/0111001.jpg","1","","prediction_practice","1","{""filepath"":""stimuli/0111001.jpg"",""ball_pos"":0,""ego_ball_visible"":true,""ego_can_infer"":true,""alter_ball_visible"":false,""alter_can_infer"":false,""collective_ball_visible"":false,""collective_can_infer"":false,""search_locations"":[2,0,1],""alter_occluders"":""111"",""ego_occluders"":""001""}","true","","","","","","","","","","","","","","","","","","",""
"","","","","","image-keyboard-response","5","177369","0.0-3.0-2.0","611341c34be95409850e4341","665500ab8938657b03fbdba8","66577c5743f15a7927283df0","2914","stimuli/01110011.jpg"," ","","practrice_feedback","2","","","","","","","","","","","","","","","","","","","","",""
"","","","","","image-keyboard-response","6","185899","0.0-3.0-3.0","611341c34be95409850e4341","665500ab8938657b03fbdba8","66577c5743f15a7927283df0","8499","stimuli/0010110.jpg","0","","prediction_practice","0","{""filepath"":""stimuli/0010110.jpg"",""ball_pos"":0,""ego_ball_visible"":false,""ego_can_infer"":false,""alter_ball_visible"":true,""alter_can_infer"":true,""collective_ball_visible"":false,""collective_can_infer"":false,""search_locations"":[0],""alter_occluders"":""010"",""ego_occluders"":""110""}","true","","","","","","","","","","","","","","","","","","",""
"","","","","","image-keyboard-response","7","188755","0.0-3.0-4.0","611341c34be95409850e4341","665500ab8938657b03fbdba8","66577c5743f15a7927283df0","2834","stimuli/00101100.jpg"," ","","practrice_feedback","0","","","","","","","","","","","","","","","","","","","","",""
"","","","","","image-keyboard-response","8","190845","0.0-3.0-5.0","611341c34be95409850e4341","665500ab8938657b03fbdba8","66577c5743f15a7927283df0","2058","stimuli/1100000.jpg","1","","prediction_practice","1","{""filepath"":""stimuli/1100000.jpg"",""ball_pos"":1,""ego_ball_visible"":true,""ego_can_infer"":true,""alter_ball_visible"":true,""alter_can_infer"":true,""collective_ball_visible"":true,""collective_can_infer"":true,""search_locations"":[1],""alter_occluders"":""100"",""ego_occluders"":""000""}","true","","","","","","","","","","","","","","","","","","",""
"","","","","","image-keyboard-response","9","192794","0.0-3.0-6.0","611341c34be95409850e4341","665500ab8938657b03fbdba8","66577c5743f15a7927283df0","1923","stimuli/11000001.jpg"," ","","practrice_feedback","1","","","","","","","","","","","","","","","","","","","","",""
"","","","","","image-keyboard-response","10","201339","0.0-3.0-7.0","611341c34be95409850e4341","665500ab8938657b03fbdba8","66577c5743f15a7927283df0","8520","stimuli/1111100.jpg","1","","prediction_practice","1","{""filepath"":""stimuli/1111100.jpg"",""ball_pos"":1,""ego_ball_visible"":true,""ego_can_infer"":true,""alter_ball_visible"":false,""alter_can_infer"":false,""collective_ball_visible"":false,""collective_can_infer"":false,""search_locations"":[1,2,0],""alter_occluders"":""111"",""ego_occluders"":""100""}","true","","","","","","","","","","","","","","","","","","",""
"","","","","","image-keyboard-response","11","202770","0.0-3.0-8.0","611341c34be95409850e4341","665500ab8938657b03fbdba8","66577c5743f15a7927283df0","1400","stimuli/11111001.jpg"," ","","practrice_feedback","1","","","","","","","","","","","","","","","","","","","","",""
"","","","","","image-keyboard-response","12","206779","0.0-3.0-9.0","611341c34be95409850e4341","665500ab8938657b03fbdba8","66577c5743f15a7927283df0","3973","stimuli/2101101.jpg","2","","prediction_practice","0","{""filepath"":""stimuli/2101101.jpg"",""ball_pos"":2,""ego_ball_visible"":false,""ego_can_infer"":false,""alter_ball_visible"":false,""alter_can_infer"":false,""collective_ball_visible"":false,""collective_can_infer"":false,""search_locations"":[0,2],""alter_occluders"":""101"",""ego_occluders"":""101""}","false","","","","","","","","","","","","","","","","","","",""
"","","","","","image-keyboard-response","13","209434","0.0-3.0-10.0","611341c34be95409850e4341","665500ab8938657b03fbdba8","66577c5743f15a7927283df0","2628","stimuli/21011010.jpg"," ","","practrice_feedback","0","","","","","","","","","","","","","","","","","","","","",""
"","","","","","image-keyboard-response","14","213602","0.0-3.0-11.0","611341c34be95409850e4341","665500ab8938657b03fbdba8","66577c5743f15a7927283df0","4134","stimuli/1110100.jpg","1","","prediction_practice","0","{""filepath"":""stimuli/1110100.jpg"",""ball_pos"":1,""ego_ball_visible"":true,""ego_can_infer"":true,""alter_ball_visible"":false,""alter_can_infer"":false,""collective_ball_visible"":false,""collective_can_infer"":false,""search_locations"":[0,1],""alter_occluders"":""110"",""ego_occluders"":""100""}","false","","","","","","","","","","","","","","","","","","",""
"","","","","","image-keyboard-response","15","215806","0.0-3.0-12.0","611341c34be95409850e4341","665500ab8938657b03fbdba8","66577c5743f15a7927283df0","2169","stimuli/11101000.jpg"," ","","practrice_feedback","0","","","","","","","","","","","","","","","","","","","","",""
"","","","","","image-keyboard-response","16","220823","0.0-3.0-13.0","611341c34be95409850e4341","665500ab8938657b03fbdba8","66577c5743f15a7927283df0","4992","stimuli/0100101.jpg","2","","prediction_practice","0","{""filepath"":""stimuli/0100101.jpg"",""ball_pos"":0,""ego_ball_visible"":false,""ego_can_infer"":false,""alter_ball_visible"":false,""alter_can_infer"":true,""collective_ball_visible"":false,""collective_can_infer"":false,""search_locations"":[0],""alter_occluders"":""100"",""ego_occluders"":""101""}","false","","","","","","","","","","","","","","","","","","",""
"","","","","","image-keyboard-response","17","222599","0.0-3.0-14.0","611341c34be95409850e4341","665500ab8938657b03fbdba8","66577c5743f15a7927283df0","1753","stimuli/01001010.jpg"," ","","practrice_feedback","0","","","","","","","","","","","","","","","","","","","","",""
"","","","","","image-keyboard-response","18","228503","0.0-3.0-15.0","611341c34be95409850e4341","665500ab8938657b03fbdba8","66577c5743f15a7927283df0","5871","stimuli/2011010.jpg","1","","prediction_practice","1","{""filepath"":""stimuli/2011010.jpg"",""ball_pos"":2,""ego_ball_visible"":true,""ego_can_infer"":true,""alter_ball_visible"":false,""alter_can_infer"":false,""collective_ball_visible"":false,""collective_can_infer"":false,""search_locations"":[2,1],""alter_occluders"":""011"",""ego_occluders"":""010""}","true","","","","","","","","","","","","","","","","","","",""
"","","","","","image-keyboard-response","19","230085","0.0-3.0-16.0","611341c34be95409850e4341","665500ab8938657b03fbdba8","66577c5743f15a7927283df0","1543","stimuli/20110101.jpg"," ","","practrice_feedback","2","","","","","","","","","","","","","","","","","","","","",""
"","","","","","image-keyboard-response","20","238998","0.0-3.0-17.0","611341c34be95409850e4341","665500ab8938657b03fbdba8","66577c5743f15a7927283df0","8885","stimuli/2111110.jpg","0","","prediction_practice","0","{""filepath"":""stimuli/2111110.jpg"",""ball_pos"":2,""ego_ball_visible"":true,""ego_can_infer"":true,""alter_ball_visible"":false,""alter_can_infer"":false,""collective_ball_visible"":false,""collective_can_infer"":false,""search_locations"":[2,1,0],""alter_occluders"":""111"",""ego_occluders"":""110""}","true","","","","","","","","","","","","","","","","","","",""
"","","","","","image-keyboard-response","21","240594","0.0-3.0-18.0","611341c34be95409850e4341","665500ab8938657b03fbdba8","66577c5743f15a7927283df0","1572","stimuli/21111100.jpg"," ","","practrice_feedback","2","","","","","","","","","","","","","","","","","","","","",""
"","","","","","image-keyboard-response","22","247983","0.0-3.0-19.0","611341c34be95409850e4341","665500ab8938657b03fbdba8","66577c5743f15a7927283df0","7355","stimuli/0110010.jpg","1","","prediction_practice","0","{""filepath"":""stimuli/0110010.jpg"",""ball_pos"":0,""ego_ball_visible"":true,""ego_can_infer"":true,""alter_ball_visible"":false,""alter_can_infer"":false,""collective_ball_visible"":false,""collective_can_infer"":false,""search_locations"":[0,1],""alter_occluders"":""110"",""ego_occluders"":""010""}","false","","","","","","","","","","","","","","","","","","",""
"","","","","","image-keyboard-response","23","250235","0.0-3.0-20.0","611341c34be95409850e4341","665500ab8938657b03fbdba8","66577c5743f15a7927283df0","2218","stimuli/01100100.jpg"," ","","practrice_feedback","0","","","","","","","","","","","","","","","","","","","","",""
"","","","","","html-button-response","24","258373","0.0-3.0-21.0","611341c34be95409850e4341","665500ab8938657b03fbdba8","66577c5743f15a7927283df0","8136","Now that you've had some practice, you'll be tested with a couple of easy trials. If you correctly predict Sam's choice, you'll move on to complete the experiment!","0","","","","","","","","","","","","","","","","","","","","","","","",""
"","","","","","image-keyboard-response","25","260305","0.0-3.0-22.0-0.0","611341c34be95409850e4341","665500ab8938657b03fbdba8","66577c5743f15a7927283df0","1902","stimuli/0000011.jpg","arrowleft","","comprehension_quiz","","","true","arrowleft","","","","","","","","","","","","","","","","","",""
"","","","","","image-keyboard-response","26","261804","0.0-3.0-22.0-1.0","611341c34be95409850e4341","665500ab8938657b03fbdba8","66577c5743f15a7927283df0","1463","stimuli/00000110.jpg"," ","","comprehension_quiz","","","true"," ","","","","","","","","","","","","","","","","","",""
"","","","","","image-keyboard-response","27","264069","0.0-3.0-22.0-2.0","611341c34be95409850e4341","665500ab8938657b03fbdba8","66577c5743f15a7927283df0","2252","stimuli/1010010.jpg","arrowdown","","comprehension_quiz","","","true","arrowdown","","","","","","","","","","","","","","","","","",""
"","","","","","image-keyboard-response","28","265644","0.0-3.0-22.0-3.0","611341c34be95409850e4341","665500ab8938657b03fbdba8","66577c5743f15a7927283df0","1561","stimuli/10100101.jpg"," ","","comprehension_quiz","","","true"," ","","","","","","","","","","","","","","","","","",""
"","","","","","html-button-response","29","268146","0.0-4.0","611341c34be95409850e4341","665500ab8938657b03fbdba8","66577c5743f15a7927283df0","2500","The experiment will now begin.","0","","","","","","","","","","","","","","","","","","","","","","","",""
"","","","","","image-keyboard-response","30","270286","0.0-5.0","611341c34be95409850e4341","665500ab8938657b03fbdba8","66577c5743f15a7927283df0","2106","stimuli/1000011.jpg","1","","prediction_trial","1","","true","","1","false","false","true","true","false","false","[1]","000","011","1","","","","","","",""
"","","","","","image-keyboard-response","31","271530","0.0-6.0","611341c34be95409850e4341","665500ab8938657b03fbdba8","66577c5743f15a7927283df0","1219","stimuli/10000111.jpg"," ","","feedback_trial","1","","","","","","","","","","","","","","","","","","","","",""
"","","","","","image-keyboard-response","32","276225","0.0-7.0","611341c34be95409850e4341","665500ab8938657b03fbdba8","66577c5743f15a7927283df0","4665","stimuli/2111111.jpg","0","","prediction_trial","2","","false","","2","false","false","false","false","false","false","[0,2,1]","111","111","0","","","","","","",""
"","","","","","image-keyboard-response","33","278249","0.0-8.0","611341c34be95409850e4341","665500ab8938657b03fbdba8","66577c5743f15a7927283df0","1998","stimuli/21111112.jpg"," ","","feedback_trial","0","","","","","","","","","","","","","","","","","","","","",""
"","","","","","image-keyboard-response","34","281498","0.0-9.0","611341c34be95409850e4341","665500ab8938657b03fbdba8","66577c5743f15a7927283df0","3217","stimuli/0111001.jpg","0","","prediction_trial","1","","false","","0","true","true","false","false","false","false","[2,0,1]","111","001","0","","","","","","",""
"","","","","","image-keyboard-response","35","283131","0.0-10.0","611341c34be95409850e4341","665500ab8938657b03fbdba8","66577c5743f15a7927283df0","1598","stimuli/01110011.jpg"," ","","feedback_trial","2","","","","","","","","","","","","","","","","","","","","",""
"","","","","","image-keyboard-response","36","286220","0.0-11.0","611341c34be95409850e4341","665500ab8938657b03fbdba8","66577c5743f15a7927283df0","3065","stimuli/0111110.jpg","0","","prediction_trial","0","","true","","0","false","false","false","false","false","false","[2,0,1]","111","110","1","","","","","","",""
"","","","","","image-keyboard-response","37","287320","0.0-12.0","611341c34be95409850e4341","665500ab8938657b03fbdba8","66577c5743f15a7927283df0","1087","stimuli/01111100.jpg"," ","","feedback_trial","2","","","","","","","","","","","","","","","","","","","","",""
"","","","","","image-keyboard-response","38","292774","0.0-13.0","611341c34be95409850e4341","665500ab8938657b03fbdba8","66577c5743f15a7927283df0","5441","stimuli/0101111.jpg","0","","prediction_trial","0","","true","","0","false","false","false","false","false","false","[2,0]","101","111","1","","","","","","",""
"","","","","","image-keyboard-response","39","293996","0.0-14.0","611341c34be95409850e4341","665500ab8938657b03fbdba8","66577c5743f15a7927283df0","1192","stimuli/01011110.jpg"," ","","feedback_trial","2","","","","","","","","","","","","","","","","","","","","",""
"","","","","","image-keyboard-response","40","295640","0.0-15.0","611341c34be95409850e4341","665500ab8938657b03fbdba8","66577c5743f15a7927283df0","1605","stimuli/2110100.jpg","2","","prediction_trial","2","","true","","2","true","true","true","true","true","true","[2]","110","100","1","","","","","","",""
"","","","","","image-keyboard-response","41","296680","0.0-16.0","611341c34be95409850e4341","665500ab8938657b03fbdba8","66577c5743f15a7927283df0","1016","stimuli/21101002.jpg"," ","","feedback_trial","2","","","","","","","","","","","","","","","","","","","","",""
"","","","","","image-keyboard-response","42","298210","0.0-17.0","611341c34be95409850e4341","665500ab8938657b03fbdba8","66577c5743f15a7927283df0","1501","stimuli/0010000.jpg","0","","prediction_trial","0","","true","","0","true","true","true","true","true","true","[0]","010","000","1","","","","","","",""
"","","","","","image-keyboard-response","43","299243","0.0-18.0","611341c34be95409850e4341","665500ab8938657b03fbdba8","66577c5743f15a7927283df0","1002","stimuli/00100000.jpg"," ","","feedback_trial","0","","","","","","","","","","","","","","","","","","","","",""
"","","","","","image-keyboard-response","44","304715","0.0-19.0","611341c34be95409850e4341","665500ab8938657b03fbdba8","66577c5743f15a7927283df0","5457","stimuli/1110011.jpg","1","","prediction_trial","0","","false","","1","false","false","false","false","false","false","[0,1]","110","011","0","","","","","","",""
"","","","","","image-keyboard-response","45","306414","0.0-20.0","611341c34be95409850e4341","665500ab8938657b03fbdba8","66577c5743f15a7927283df0","1666","stimuli/11100110.jpg"," ","","feedback_trial","0","","","","","","","","","","","","","","","","","","","","",""
"","","","","","image-keyboard-response","46","311265","0.0-21.0","611341c34be95409850e4341","665500ab8938657b03fbdba8","66577c5743f15a7927283df0","4816","stimuli/2010001.jpg","1","","prediction_trial","2","","false","","2","false","true","true","true","false","true","[2]","010","001","0","","","","","","",""
"","","","","","image-keyboard-response","47","318744","0.0-22.0","611341c34be95409850e4341","665500ab8938657b03fbdba8","66577c5743f15a7927283df0","7452","stimuli/20100012.jpg"," ","","feedback_trial","2","","","","","","","","","","","","","","","","","","","","",""
"","","","","","image-keyboard-response","48","323234","0.0-23.0","611341c34be95409850e4341","665500ab8938657b03fbdba8","66577c5743f15a7927283df0","4467","stimuli/2000111.jpg","1","","prediction_trial","2","","false","","2","false","false","true","true","false","false","[2]","000","111","0","","","","","","",""
"","","","","","image-keyboard-response","49","324810","0.0-24.0","611341c34be95409850e4341","665500ab8938657b03fbdba8","66577c5743f15a7927283df0","1549","stimuli/20001112.jpg"," ","","feedback_trial","2","","","","","","","","","","","","","","","","","","","","",""
"","","","","","image-keyboard-response","50","330226","0.0-25.0","611341c34be95409850e4341","665500ab8938657b03fbdba8","66577c5743f15a7927283df0","5397","stimuli/1110100.jpg","1","","prediction_trial","1","","true","","1","true","true","false","false","false","false","[0,1]","110","100","1","","","","","","",""
"","","","","","image-keyboard-response","51","331425","0.0-26.0","611341c34be95409850e4341","665500ab8938657b03fbdba8","66577c5743f15a7927283df0","1175","stimuli/11101001.jpg"," ","","feedback_trial","0","","","","","","","","","","","","","","","","","","","","",""
"","","","","","image-keyboard-response","52","338249","0.0-27.0","611341c34be95409850e4341","665500ab8938657b03fbdba8","66577c5743f15a7927283df0","6797","stimuli/2101111.jpg","0","","prediction_trial","2","","false","","2","false","false","false","false","false","false","[0,2]","101","111","0","","","","","","",""
"","","","","","image-keyboard-response","53","340002","0.0-28.0","611341c34be95409850e4341","665500ab8938657b03fbdba8","66577c5743f15a7927283df0","1717","stimuli/21011112.jpg"," ","","feedback_trial","0","","","","","","","","","","","","","","","","","","","","",""
"","","","","","image-keyboard-response","54","348320","0.0-29.0","611341c34be95409850e4341","665500ab8938657b03fbdba8","66577c5743f15a7927283df0","8289","stimuli/1100111.jpg","0","","prediction_trial","1","","false","","1","false","false","true","true","false","false","[1]","100","111","0","","","","","","",""
"","","","","","image-keyboard-response","55","349929","0.0-30.0","611341c34be95409850e4341","665500ab8938657b03fbdba8","66577c5743f15a7927283df0","1585","stimuli/11001111.jpg"," ","","feedback_trial","1","","","","","","","","","","","","","","","","","","","","",""
"","","","","","image-keyboard-response","56","355193","0.0-31.0","611341c34be95409850e4341","665500ab8938657b03fbdba8","66577c5743f15a7927283df0","5234","stimuli/1010111.jpg","1","","prediction_trial","1","","true","","1","false","false","false","true","false","false","[1]","010","111","1","","","","","","",""
"","","","","","image-keyboard-response","57","356577","0.0-32.0","611341c34be95409850e4341","665500ab8938657b03fbdba8","66577c5743f15a7927283df0","1347","stimuli/10101111.jpg"," ","","feedback_trial","1","","","","","","","","","","","","","","","","","","","","",""
"","","","","","image-keyboard-response","58","363177","0.0-33.0","611341c34be95409850e4341","665500ab8938657b03fbdba8","66577c5743f15a7927283df0","6569","stimuli/0111011.jpg","1","","prediction_trial","2","","false","","0","true","true","false","false","false","false","[1,0,2]","111","011","0","","","","","","",""
"","","","","","image-keyboard-response","59","364403","0.0-34.0","611341c34be95409850e4341","665500ab8938657b03fbdba8","66577c5743f15a7927283df0","1207","stimuli/01110112.jpg"," ","","feedback_trial","1","","","","","","","","","","","","","","","","","","","","",""
"","","","","","image-keyboard-response","60","369672","0.0-35.0","611341c34be95409850e4341","665500ab8938657b03fbdba8","66577c5743f15a7927283df0","5249","stimuli/1110001.jpg","1","","prediction_trial","0","","false","","1","true","true","false","false","false","false","[0,1]","110","001","0","","","","","","",""
"","","","","","image-keyboard-response","61","370919","0.0-36.0","611341c34be95409850e4341","665500ab8938657b03fbdba8","66577c5743f15a7927283df0","1216","stimuli/11100010.jpg"," ","","feedback_trial","0","","","","","","","","","","","","","","","","","","","","",""
"","","","","","image-keyboard-response","62","373174","0.0-37.0","611341c34be95409850e4341","665500ab8938657b03fbdba8","66577c5743f15a7927283df0","2227","stimuli/1101001.jpg","1","","prediction_trial","1","","true","","1","true","true","true","true","true","true","[1]","101","001","1","","","","","","",""
"","","","","","image-keyboard-response","63","374107","0.0-38.0","611341c34be95409850e4341","665500ab8938657b03fbdba8","66577c5743f15a7927283df0","899","stimuli/11010011.jpg"," ","","feedback_trial","1","","","","","","","","","","","","","","","","","","","","",""
"","","","","","image-keyboard-response","64","379178","0.0-39.0","611341c34be95409850e4341","665500ab8938657b03fbdba8","66577c5743f15a7927283df0","5038","stimuli/1101110.jpg","0","","prediction_trial","1","","false","","1","false","false","true","true","false","false","[1]","101","110","0","","","","","","",""
"","","","","","image-keyboard-response","65","380820","0.0-40.0","611341c34be95409850e4341","665500ab8938657b03fbdba8","66577c5743f15a7927283df0","1611","stimuli/11011101.jpg"," ","","feedback_trial","1","","","","","","","","","","","","","","","","","","","","",""
"","","","","","image-keyboard-response","66","385986","0.0-41.0","611341c34be95409850e4341","665500ab8938657b03fbdba8","66577c5743f15a7927283df0","5131","stimuli/1011001.jpg","1","","prediction_trial","2","","false","","1","true","true","false","false","false","false","[2,1]","011","001","0","","","","","","",""
"","","","","","image-keyboard-response","67","387172","0.0-42.0","611341c34be95409850e4341","665500ab8938657b03fbdba8","66577c5743f15a7927283df0","1172","stimuli/10110012.jpg"," ","","feedback_trial","2","","","","","","","","","","","","","","","","","","","","",""
"","","","","","image-keyboard-response","68","389460","0.0-43.0","611341c34be95409850e4341","665500ab8938657b03fbdba8","66577c5743f15a7927283df0","2258","stimuli/0000101.jpg","0","","prediction_trial","0","","true","","0","false","false","true","true","false","false","[0]","000","101","1","","","","","","",""
"","","","","","image-keyboard-response","69","390514","0.0-44.0","611341c34be95409850e4341","665500ab8938657b03fbdba8","66577c5743f15a7927283df0","1019","stimuli/00001010.jpg"," ","","feedback_trial","0","","","","","","","","","","","","","","","","","","","","",""
"","","","","","image-keyboard-response","70","392935","0.0-45.0","611341c34be95409850e4341","665500ab8938657b03fbdba8","66577c5743f15a7927283df0","2387","stimuli/2100000.jpg","2","","prediction_trial","2","","true","","2","true","true","true","true","true","true","[2]","100","000","1","","","","","","",""
"","","","","","image-keyboard-response","71","393759","0.0-46.0","611341c34be95409850e4341","665500ab8938657b03fbdba8","66577c5743f15a7927283df0","787","stimuli/21000002.jpg"," ","","feedback_trial","2","","","","","","","","","","","","","","","","","","","","",""
"","","","","","image-keyboard-response","72","395180","0.0-47.0","611341c34be95409850e4341","665500ab8938657b03fbdba8","66577c5743f15a7927283df0","1392","stimuli/1000100.jpg","1","","prediction_trial","1","","true","","1","true","true","true","true","true","true","[1]","000","100","1","","","","","","",""
"","","","","","image-keyboard-response","73","395925","0.0-48.0","611341c34be95409850e4341","665500ab8938657b03fbdba8","66577c5743f15a7927283df0","721","stimuli/10001001.jpg"," ","","feedback_trial","1","","","","","","","","","","","","","","","","","","","","",""
"","","","","","image-keyboard-response","74","398673","0.0-49.0","611341c34be95409850e4341","665500ab8938657b03fbdba8","66577c5743f15a7927283df0","2719","stimuli/0101101.jpg","2","","prediction_trial","2","","true","","0","false","false","false","false","false","false","[0,2]","101","101","1","","","","","","",""
"","","","","","image-keyboard-response","75","399842","0.0-50.0","611341c34be95409850e4341","665500ab8938657b03fbdba8","66577c5743f15a7927283df0","1136","stimuli/01011012.jpg"," ","","feedback_trial","0","","","","","","","","","","","","","","","","","","","","",""
"","","","","","image-keyboard-response","76","405684","0.0-51.0","611341c34be95409850e4341","665500ab8938657b03fbdba8","66577c5743f15a7927283df0","5809","stimuli/1111010.jpg","1","","prediction_trial","1","","true","","1","false","true","false","false","false","false","[0,2,1]","111","010","1","","","","","","",""
"","","","","","image-keyboard-response","77","407165","0.0-52.0","611341c34be95409850e4341","665500ab8938657b03fbdba8","66577c5743f15a7927283df0","1438","stimuli/11110101.jpg"," ","","feedback_trial","0","","","","","","","","","","","","","","","","","","","","",""
"","","","","","image-keyboard-response","78","415382","0.0-53.0","611341c34be95409850e4341","665500ab8938657b03fbdba8","66577c5743f15a7927283df0","8182","stimuli/2010011.jpg","2","","prediction_trial","2","","true","","2","false","false","true","true","false","false","[2]","010","011","1","","","","","","",""
"","","","","","image-keyboard-response","79","416486","0.0-54.0","611341c34be95409850e4341","665500ab8938657b03fbdba8","66577c5743f15a7927283df0","1067","stimuli/20100112.jpg"," ","","feedback_trial","2","","","","","","","","","","","","","","","","","","","","",""
"","","","","","image-keyboard-response","80","422750","0.0-55.0","611341c34be95409850e4341","665500ab8938657b03fbdba8","66577c5743f15a7927283df0","6226","stimuli/0010100.jpg","0","","prediction_trial","0","","true","","0","false","true","true","true","false","true","[0]","010","100","1","","","","","","",""
"","","","","","image-keyboard-response","81","424001","0.0-56.0","611341c34be95409850e4341","665500ab8938657b03fbdba8","66577c5743f15a7927283df0","1227","stimuli/00101000.jpg"," ","","feedback_trial","0","","","","","","","","","","","","","","","","","","","","",""
"","","","","","image-keyboard-response","82","432530","0.0-57.0","611341c34be95409850e4341","665500ab8938657b03fbdba8","66577c5743f15a7927283df0","8499","stimuli/2001101.jpg","2","","prediction_trial","2","","true","","2","false","false","false","true","false","false","[2]","001","101","1","","","","","","",""
"","","","","","image-keyboard-response","83","433925","0.0-58.0","611341c34be95409850e4341","665500ab8938657b03fbdba8","66577c5743f15a7927283df0","1372","stimuli/20011012.jpg"," ","","feedback_trial","2","","","","","","","","","","","","","","","","","","","","",""
"","","","","","image-keyboard-response","84","437980","0.0-59.0","611341c34be95409850e4341","665500ab8938657b03fbdba8","66577c5743f15a7927283df0","4024","stimuli/0101010.jpg","0","","prediction_trial","0","","true","","0","true","true","false","false","false","false","[0,2]","101","010","1","","","","","","",""
"","","","","","image-keyboard-response","85","438896","0.0-60.0","611341c34be95409850e4341","665500ab8938657b03fbdba8","66577c5743f15a7927283df0","885","stimuli/01010100.jpg"," ","","feedback_trial","0","","","","","","","","","","","","","","","","","","","","",""
"","","","","","image-keyboard-response","86","441014","0.0-61.0","611341c34be95409850e4341","665500ab8938657b03fbdba8","66577c5743f15a7927283df0","2078","stimuli/0100000.jpg","0","","prediction_trial","0","","true","","0","true","true","false","true","false","true","[0]","100","000","1","","","","","","",""
"","","","","","image-keyboard-response","87","442046","0.0-62.0","611341c34be95409850e4341","665500ab8938657b03fbdba8","66577c5743f15a7927283df0","1005","stimuli/01000000.jpg"," ","","feedback_trial","0","","","","","","","","","","","","","","","","","","","","",""
"","","","","","image-keyboard-response","88","446082","0.0-63.0","611341c34be95409850e4341","665500ab8938657b03fbdba8","66577c5743f15a7927283df0","4003","stimuli/1111100.jpg","1","","prediction_trial","2","","false","","1","true","true","false","false","false","false","[1,2,0]","111","100","0","","","","","","",""
"","","","","","image-keyboard-response","89","447276","0.0-64.0","611341c34be95409850e4341","665500ab8938657b03fbdba8","66577c5743f15a7927283df0","1167","stimuli/11111002.jpg"," ","","feedback_trial","1","","","","","","","","","","","","","","","","","","","","",""
"","","","","","image-keyboard-response","90","450701","0.0-65.0","611341c34be95409850e4341","665500ab8938657b03fbdba8","66577c5743f15a7927283df0","3393","stimuli/2000001.jpg","2","","prediction_trial","2","","true","","2","false","true","true","true","false","true","[2]","000","001","1","","","","","","",""
"","","","","","image-keyboard-response","91","451124","0.0-66.0","611341c34be95409850e4341","665500ab8938657b03fbdba8","66577c5743f15a7927283df0","396","stimuli/20000012.jpg"," ","","feedback_trial","2","","","","","","","","","","","","","","","","","","","","",""
"","","","","","image-keyboard-response","92","456715","0.0-67.0","611341c34be95409850e4341","665500ab8938657b03fbdba8","66577c5743f15a7927283df0","5565","stimuli/2001011.jpg","1","","prediction_trial","2","","false","","2","false","false","false","true","false","false","[2]","001","011","0","","","","","","",""
"","","","","","image-keyboard-response","93","457816","0.0-68.0","611341c34be95409850e4341","665500ab8938657b03fbdba8","66577c5743f15a7927283df0","1069","stimuli/20010112.jpg"," ","","feedback_trial","2","","","","","","","","","","","","","","","","","","","","",""
"","","","","","image-keyboard-response","94","461622","0.0-69.0","611341c34be95409850e4341","665500ab8938657b03fbdba8","66577c5743f15a7927283df0","3782","stimuli/0100110.jpg","1","","prediction_trial","0","","false","","0","false","false","false","true","false","false","[0]","100","110","0","","","","","","",""
"","","","","","image-keyboard-response","95","462720","0.0-70.0","611341c34be95409850e4341","665500ab8938657b03fbdba8","66577c5743f15a7927283df0","1071","stimuli/01001100.jpg"," ","","feedback_trial","0","","","","","","","","","","","","","","","","","","","","",""
"","","","","","image-keyboard-response","96","467334","0.0-71.0","611341c34be95409850e4341","665500ab8938657b03fbdba8","66577c5743f15a7927283df0","4582","stimuli/2100101.jpg","0","","prediction_trial","2","","false","","2","false","false","true","true","false","false","[2]","100","101","0","","","","","","",""
"","","","","","image-keyboard-response","97","468955","0.0-72.0","611341c34be95409850e4341","665500ab8938657b03fbdba8","66577c5743f15a7927283df0","1585","stimuli/21001012.jpg"," ","","feedback_trial","2","","","","","","","","","","","","","","","","","","","","",""
"","","","","","image-keyboard-response","98","474304","0.0-73.0","611341c34be95409850e4341","665500ab8938657b03fbdba8","66577c5743f15a7927283df0","5313","stimuli/0101100.jpg","0","","prediction_trial","0","","true","","0","false","true","false","false","false","false","[2,0]","101","100","1","","","","","","",""
"","","","","","image-keyboard-response","99","475142","0.0-74.0","611341c34be95409850e4341","665500ab8938657b03fbdba8","66577c5743f15a7927283df0","803","stimuli/01011000.jpg"," ","","feedback_trial","2","","","","","","","","","","","","","","","","","","","","",""
"","","","","","image-keyboard-response","100","477036","0.0-75.0","611341c34be95409850e4341","665500ab8938657b03fbdba8","66577c5743f15a7927283df0","1858","stimuli/1111111.jpg","1","","prediction_trial","1","","true","","1","false","false","false","false","false","false","[0,1,2]","111","111","1","","","","","","",""
"","","","","","image-keyboard-response","101","478022","0.0-76.0","611341c34be95409850e4341","665500ab8938657b03fbdba8","66577c5743f15a7927283df0","952","stimuli/11111111.jpg"," ","","feedback_trial","0","","","","","","","","","","","","","","","","","","","","",""
"","","","","","image-keyboard-response","102","482689","0.0-77.0","611341c34be95409850e4341","665500ab8938657b03fbdba8","66577c5743f15a7927283df0","4635","stimuli/2001110.jpg","2","","prediction_trial","2","","true","","2","true","true","false","true","false","true","[2]","001","110","1","","","","","","",""
"","","","","","image-keyboard-response","103","483527","0.0-78.0","611341c34be95409850e4341","665500ab8938657b03fbdba8","66577c5743f15a7927283df0","816","stimuli/20011102.jpg"," ","","feedback_trial","2","","","","","","","","","","","","","","","","","","","","",""
"","","","","","image-keyboard-response","104","485709","0.0-79.0","611341c34be95409850e4341","665500ab8938657b03fbdba8","66577c5743f15a7927283df0","2158","stimuli/1010010.jpg","1","","prediction_trial","1","","true","","1","false","true","false","true","false","true","[1]","010","010","1","","","","","","",""
"","","","","","image-keyboard-response","105","486406","0.0-80.0","611341c34be95409850e4341","665500ab8938657b03fbdba8","66577c5743f15a7927283df0","669","stimuli/10100101.jpg"," ","","feedback_trial","1","","","","","","","","","","","","","","","","","","","","",""
"","","","","","image-keyboard-response","106","488829","0.0-81.0","611341c34be95409850e4341","665500ab8938657b03fbdba8","66577c5743f15a7927283df0","2399","stimuli/1010101.jpg","1","","prediction_trial","1","","true","","1","true","true","false","true","false","true","[1]","010","101","1","","","","","","",""
"","","","","","image-keyboard-response","107","489504","0.0-82.0","611341c34be95409850e4341","665500ab8938657b03fbdba8","66577c5743f15a7927283df0","645","stimuli/10101011.jpg"," ","","feedback_trial","1","","","","","","","","","","","","","","","","","","","","",""
"","","","","","image-keyboard-response","108","497693","0.0-83.0","611341c34be95409850e4341","665500ab8938657b03fbdba8","66577c5743f15a7927283df0","8170","stimuli/2111101.jpg","0","","prediction_trial","0","","true","","2","false","false","false","false","false","false","[1,0,2]","111","101","1","","","","","","",""
"","","","","","image-keyboard-response","109","498663","0.0-84.0","611341c34be95409850e4341","665500ab8938657b03fbdba8","66577c5743f15a7927283df0","949","stimuli/21111010.jpg"," ","","feedback_trial","1","","","","","","","","","","","","","","","","","","","","",""
"","","","","","image-keyboard-response","110","500397","0.0-85.0","611341c34be95409850e4341","665500ab8938657b03fbdba8","66577c5743f15a7927283df0","1700","stimuli/2110110.jpg","2","","prediction_trial","2","","true","","2","true","true","true","true","true","true","[2]","110","110","1","","","","","","",""
"","","","","","image-keyboard-response","111","501497","0.0-86.0","611341c34be95409850e4341","665500ab8938657b03fbdba8","66577c5743f15a7927283df0","1062","stimuli/21101102.jpg"," ","","feedback_trial","2","","","","","","","","","","","","","","","","","","","","",""
"","","","","","image-keyboard-response","112","503747","0.0-87.0","611341c34be95409850e4341","665500ab8938657b03fbdba8","66577c5743f15a7927283df0","2227","stimuli/1111000.jpg","1","","prediction_trial","0","","false","","1","true","true","false","false","false","false","[0,2,1]","111","000","0","","","","","","",""
"","","","","","image-keyboard-response","113","504799","0.0-88.0","611341c34be95409850e4341","665500ab8938657b03fbdba8","66577c5743f15a7927283df0","1029","stimuli/11110000.jpg"," ","","feedback_trial","0","","","","","","","","","","","","","","","","","","","","",""
"","","","","","image-keyboard-response","114","507681","0.0-89.0","611341c34be95409850e4341","665500ab8938657b03fbdba8","66577c5743f15a7927283df0","2859","stimuli/2010100.jpg","2","","prediction_trial","2","","true","","2","true","true","true","true","true","true","[2]","010","100","1","","","","","","",""
"","","","","","image-keyboard-response","115","508332","0.0-90.0","611341c34be95409850e4341","665500ab8938657b03fbdba8","66577c5743f15a7927283df0","628","stimuli/20101002.jpg"," ","","feedback_trial","2","","","","","","","","","","","","","","","","","","","","",""
"","","","","","image-keyboard-response","116","509815","0.0-91.0","611341c34be95409850e4341","665500ab8938657b03fbdba8","66577c5743f15a7927283df0","1455","stimuli/1100001.jpg","1","","prediction_trial","1","","true","","1","true","true","true","true","true","true","[1]","100","001","1","","","","","","",""
"","","","","","image-keyboard-response","117","510423","0.0-92.0","611341c34be95409850e4341","665500ab8938657b03fbdba8","66577c5743f15a7927283df0","575","stimuli/11000011.jpg"," ","","feedback_trial","1","","","","","","","","","","","","","","","","","","","","",""
"","","","","","image-keyboard-response","118","514185","0.0-93.0","611341c34be95409850e4341","665500ab8938657b03fbdba8","66577c5743f15a7927283df0","3730","stimuli/1011111.jpg","1","","prediction_trial","1","","true","","1","false","false","false","false","false","false","[2,1]","011","111","1","","","","","","",""
"","","","","","image-keyboard-response","119","515117","0.0-94.0","611341c34be95409850e4341","665500ab8938657b03fbdba8","66577c5743f15a7927283df0","907","stimuli/10111111.jpg"," ","","feedback_trial","2","","","","","","","","","","","","","","","","","","","","",""
"","","","","","image-keyboard-response","120","517435","0.0-95.0","611341c34be95409850e4341","665500ab8938657b03fbdba8","66577c5743f15a7927283df0","2295","stimuli/1101010.jpg","1","","prediction_trial","1","","true","","1","false","true","true","true","false","true","[1]","101","010","1","","","","","","",""
"","","","","","image-keyboard-response","121","518203","0.0-96.0","611341c34be95409850e4341","665500ab8938657b03fbdba8","66577c5743f15a7927283df0","731","stimuli/11010101.jpg"," ","","feedback_trial","1","","","","","","","","","","","","","","","","","","","","",""
"","","","","","image-keyboard-response","122","523822","0.0-97.0","611341c34be95409850e4341","665500ab8938657b03fbdba8","66577c5743f15a7927283df0","5593","stimuli/2110011.jpg","2","","prediction_trial","2","","true","","2","false","false","true","true","false","false","[2]","110","011","1","","","","","","",""
"","","","","","image-keyboard-response","123","524672","0.0-98.0","611341c34be95409850e4341","665500ab8938657b03fbdba8","66577c5743f15a7927283df0","812","stimuli/21100112.jpg"," ","","feedback_trial","2","","","","","","","","","","","","","","","","","","","","",""
"","","","","","image-keyboard-response","124","528152","0.0-99.0","611341c34be95409850e4341","665500ab8938657b03fbdba8","66577c5743f15a7927283df0","3448","stimuli/1011100.jpg","1","","prediction_trial","1","","true","","1","true","true","false","false","false","false","[2,1]","011","100","1","","","","","","",""
"","","","","","image-keyboard-response","125","529007","0.0-100.0","611341c34be95409850e4341","665500ab8938657b03fbdba8","66577c5743f15a7927283df0","819","stimuli/10111001.jpg"," ","","feedback_trial","2","","","","","","","","","","","","","","","","","","","","",""
"","","","","","image-keyboard-response","126","530677","0.0-101.0","611341c34be95409850e4341","665500ab8938657b03fbdba8","66577c5743f15a7927283df0","1642","stimuli/2001000.jpg","2","","prediction_trial","2","","true","","2","true","true","false","true","false","true","[2]","001","000","1","","","","","","",""
"","","","","","image-keyboard-response","127","531254","0.0-102.0","611341c34be95409850e4341","665500ab8938657b03fbdba8","66577c5743f15a7927283df0","545","stimuli/20010002.jpg"," ","","feedback_trial","2","","","","","","","","","","","","","","","","","","","","",""
"","","","","","image-keyboard-response","128","535708","0.0-103.0","611341c34be95409850e4341","665500ab8938657b03fbdba8","66577c5743f15a7927283df0","4425","stimuli/1000110.jpg","1","","prediction_trial","1","","true","","1","false","false","true","true","false","false","[1]","000","110","1","","","","","","",""
"","","","","","image-keyboard-response","129","536575","0.0-104.0","611341c34be95409850e4341","665500ab8938657b03fbdba8","66577c5743f15a7927283df0","828","stimuli/10001101.jpg"," ","","feedback_trial","1","","","","","","","","","","","","","","","","","","","","",""
"","","","","","image-keyboard-response","130","539739","0.0-105.0","611341c34be95409850e4341","665500ab8938657b03fbdba8","66577c5743f15a7927283df0","3143","stimuli/2101000.jpg","0","","prediction_trial","2","","false","","2","true","true","false","false","false","false","[0,2]","101","000","0","","","","","","",""
"","","","","","image-keyboard-response","131","541943","0.0-106.0","611341c34be95409850e4341","665500ab8938657b03fbdba8","66577c5743f15a7927283df0","2173","stimuli/21010002.jpg"," ","","feedback_trial","0","","","","","","","","","","","","","","","","","","","","",""
"","","","","","image-keyboard-response","132","546552","0.0-107.0","611341c34be95409850e4341","665500ab8938657b03fbdba8","66577c5743f15a7927283df0","4585","stimuli/2000010.jpg","2","","prediction_trial","2","","true","","2","true","true","true","true","true","true","[2]","000","010","1","","","","","","",""
"","","","","","image-keyboard-response","133","547105","0.0-108.0","611341c34be95409850e4341","665500ab8938657b03fbdba8","66577c5743f15a7927283df0","521","stimuli/20000102.jpg"," ","","feedback_trial","2","","","","","","","","","","","","","","","","","","","","",""
"","","","","","image-keyboard-response","134","549988","0.0-109.0","611341c34be95409850e4341","665500ab8938657b03fbdba8","66577c5743f15a7927283df0","2863","stimuli/0001001.jpg","0","","prediction_trial","0","","true","","0","true","true","true","true","true","true","[0]","001","001","1","","","","","","",""
"","","","","","image-keyboard-response","135","550673","0.0-110.0","611341c34be95409850e4341","665500ab8938657b03fbdba8","66577c5743f15a7927283df0","646","stimuli/00010010.jpg"," ","","feedback_trial","0","","","","","","","","","","","","","","","","","","","","",""
"","","","","","image-keyboard-response","136","554762","0.0-111.0","611341c34be95409850e4341","665500ab8938657b03fbdba8","66577c5743f15a7927283df0","4066","stimuli/1110101.jpg","1","","prediction_trial","0","","false","","1","true","true","false","false","false","false","[0,1]","110","101","0","","","","","","",""
"","","","","","image-keyboard-response","137","556107","0.0-112.0","611341c34be95409850e4341","665500ab8938657b03fbdba8","66577c5743f15a7927283df0","1314","stimuli/11101010.jpg"," ","","feedback_trial","0","","","","","","","","","","","","","","","","","","","","",""
"","","","","","image-keyboard-response","138","563124","0.0-113.0","611341c34be95409850e4341","665500ab8938657b03fbdba8","66577c5743f15a7927283df0","6987","stimuli/0110101.jpg","0","","prediction_trial","1","","false","","0","false","false","false","false","false","false","[1,0]","110","101","0","","","","","","",""
"","","","","","image-keyboard-response","139","566423","0.0-114.0","611341c34be95409850e4341","665500ab8938657b03fbdba8","66577c5743f15a7927283df0","3262","stimuli/01101011.jpg"," ","","feedback_trial","1","","","","","","","","","","","","","","","","","","","","",""
"","","","","","image-keyboard-response","140","569185","0.0-115.0","611341c34be95409850e4341","665500ab8938657b03fbdba8","66577c5743f15a7927283df0","2741","stimuli/0101000.jpg","0","","prediction_trial","0","","true","","0","true","true","false","false","false","false","[0,2]","101","000","1","","","","","","",""
"","","","","","image-keyboard-response","141","570115","0.0-116.0","611341c34be95409850e4341","665500ab8938657b03fbdba8","66577c5743f15a7927283df0","891","stimuli/01010000.jpg"," ","","feedback_trial","0","","","","","","","","","","","","","","","","","","","","",""
"","","","","","image-keyboard-response","142","571484","0.0-117.0","611341c34be95409850e4341","665500ab8938657b03fbdba8","66577c5743f15a7927283df0","1331","stimuli/2000000.jpg","2","","prediction_trial","2","","true","","2","true","true","true","true","true","true","[2]","000","000","1","","","","","","",""
"","","","","","image-keyboard-response","143","572354","0.0-118.0","611341c34be95409850e4341","665500ab8938657b03fbdba8","66577c5743f15a7927283df0","845","stimuli/20000002.jpg"," ","","feedback_trial","2","","","","","","","","","","","","","","","","","","","","",""
"","","","","","image-keyboard-response","144","574205","0.0-119.0","611341c34be95409850e4341","665500ab8938657b03fbdba8","66577c5743f15a7927283df0","1826","stimuli/0100011.jpg","0","","prediction_trial","0","","true","","0","true","true","false","true","false","true","[0]","100","011","1","","","","","","",""
"","","","","","image-keyboard-response","145","575272","0.0-120.0","611341c34be95409850e4341","665500ab8938657b03fbdba8","66577c5743f15a7927283df0","1051","stimuli/01000110.jpg"," ","","feedback_trial","0","","","","","","","","","","","","","","","","","","","","",""
"","","","","","image-keyboard-response","146","577106","0.0-121.0","611341c34be95409850e4341","665500ab8938657b03fbdba8","66577c5743f15a7927283df0","1814","stimuli/1111001.jpg","1","","prediction_trial","1","","true","","1","true","true","false","false","false","false","[0,2,1]","111","001","1","","","","","","",""
"","","","","","image-keyboard-response","147","578106","0.0-122.0","611341c34be95409850e4341","665500ab8938657b03fbdba8","66577c5743f15a7927283df0","965","stimuli/11110011.jpg"," ","","feedback_trial","0","","","","","","","","","","","","","","","","","","","","",""
"","","","","","image-keyboard-response","148","584742","0.0-123.0","611341c34be95409850e4341","665500ab8938657b03fbdba8","66577c5743f15a7927283df0","6601","stimuli/0110100.jpg","0","","prediction_trial","1","","false","","0","false","true","false","false","false","false","[0,1]","110","100","0","","","","","","",""
"","","","","","image-keyboard-response","149","585706","0.0-124.0","611341c34be95409850e4341","665500ab8938657b03fbdba8","66577c5743f15a7927283df0","936","stimuli/01101001.jpg"," ","","feedback_trial","0","","","","","","","","","","","","","","","","","","","","",""
"","","","","","image-keyboard-response","150","588834","0.0-125.0","611341c34be95409850e4341","665500ab8938657b03fbdba8","66577c5743f15a7927283df0","3101","stimuli/0100001.jpg","0","","prediction_trial","0","","true","","0","true","true","false","true","false","true","[0]","100","001","1","","","","","","",""
"","","","","","image-keyboard-response","151","589514","0.0-126.0","611341c34be95409850e4341","665500ab8938657b03fbdba8","66577c5743f15a7927283df0","661","stimuli/01000010.jpg"," ","","feedback_trial","0","","","","","","","","","","","","","","","","","","","","",""
"","","","","","image-keyboard-response","152","592667","0.0-127.0","611341c34be95409850e4341","665500ab8938657b03fbdba8","66577c5743f15a7927283df0","3125","stimuli/1001010.jpg","1","","prediction_trial","1","","true","","1","false","true","true","true","false","true","[1]","001","010","1","","","","","","",""
"","","","","","image-keyboard-response","153","593583","0.0-128.0","611341c34be95409850e4341","665500ab8938657b03fbdba8","66577c5743f15a7927283df0","891","stimuli/10010101.jpg"," ","","feedback_trial","1","","","","","","","","","","","","","","","","","","","","",""
"","","","","","image-keyboard-response","154","601893","0.0-129.0","611341c34be95409850e4341","665500ab8938657b03fbdba8","66577c5743f15a7927283df0","8275","stimuli/1100011.jpg","2","","prediction_trial","1","","false","","1","false","false","true","true","false","false","[1]","100","011","0","","","","","","",""
"","","","","","image-keyboard-response","155","603227","0.0-130.0","611341c34be95409850e4341","665500ab8938657b03fbdba8","66577c5743f15a7927283df0","1298","stimuli/11000111.jpg"," ","","feedback_trial","1","","","","","","","","","","","","","","","","","","","","",""
"","","","","","image-keyboard-response","156","605988","0.0-131.0","611341c34be95409850e4341","665500ab8938657b03fbdba8","66577c5743f15a7927283df0","2736","stimuli/0110110.jpg","1","","prediction_trial","0","","false","","0","false","false","false","false","false","false","[1,0]","110","110","0","","","","","","",""
"","","","","","image-keyboard-response","157","606937","0.0-132.0","611341c34be95409850e4341","665500ab8938657b03fbdba8","66577c5743f15a7927283df0","925","stimuli/01101100.jpg"," ","","feedback_trial","1","","","","","","","","","","","","","","","","","","","","",""
"","","","","","image-keyboard-response","158","610774","0.0-133.0","611341c34be95409850e4341","665500ab8938657b03fbdba8","66577c5743f15a7927283df0","3806","stimuli/0101011.jpg","0","","prediction_trial","2","","false","","0","true","true","false","false","false","false","[2,0]","101","011","0","","","","","","",""
"","","","","","image-keyboard-response","159","611686","0.0-134.0","611341c34be95409850e4341","665500ab8938657b03fbdba8","66577c5743f15a7927283df0","878","stimuli/01010112.jpg"," ","","feedback_trial","2","","","","","","","","","","","","","","","","","","","","",""
"","","","","","image-keyboard-response","160","613914","0.0-135.0","611341c34be95409850e4341","665500ab8938657b03fbdba8","66577c5743f15a7927283df0","2204","stimuli/1011010.jpg","1","","prediction_trial","1","","true","","1","false","true","false","false","false","false","[1,2]","011","010","1","","","","","","",""
"","","","","","image-keyboard-response","161","614849","0.0-136.0","611341c34be95409850e4341","665500ab8938657b03fbdba8","66577c5743f15a7927283df0","912","stimuli/10110101.jpg"," ","","feedback_trial","1","","","","","","","","","","","","","","","","","","","","",""
"","","","","","image-keyboard-response","162","621203","0.0-137.0","611341c34be95409850e4341","665500ab8938657b03fbdba8","66577c5743f15a7927283df0","6316","stimuli/2111010.jpg","2","","prediction_trial","0","","false","","2","true","true","false","false","false","false","[2,1,0]","111","010","0","","","","","","",""
"","","","","","image-keyboard-response","163","622163","0.0-138.0","611341c34be95409850e4341","665500ab8938657b03fbdba8","66577c5743f15a7927283df0","937","stimuli/21110100.jpg"," ","","feedback_trial","2","","","","","","","","","","","","","","","","","","","","",""
"","","","","","image-keyboard-response","164","624910","0.0-139.0","611341c34be95409850e4341","665500ab8938657b03fbdba8","66577c5743f15a7927283df0","2706","stimuli/0011000.jpg","0","","prediction_trial","0","","true","","0","true","true","true","true","true","true","[0]","011","000","1","","","","","","",""
"","","","","","image-keyboard-response","165","625819","0.0-140.0","611341c34be95409850e4341","665500ab8938657b03fbdba8","66577c5743f15a7927283df0","879","stimuli/00110000.jpg"," ","","feedback_trial","0","","","","","","","","","","","","","","","","","","","","",""
"","","","","","image-keyboard-response","166","626919","0.0-141.0","611341c34be95409850e4341","665500ab8938657b03fbdba8","66577c5743f15a7927283df0","1072","stimuli/1100100.jpg","1","","prediction_trial","1","","true","","1","true","true","true","true","true","true","[1]","100","100","1","","","","","","",""
"","","","","","image-keyboard-response","167","627503","0.0-142.0","611341c34be95409850e4341","665500ab8938657b03fbdba8","66577c5743f15a7927283df0","555","stimuli/11001001.jpg"," ","","feedback_trial","1","","","","","","","","","","","","","","","","","","","","",""
"","","","","","image-keyboard-response","168","633466","0.0-143.0","611341c34be95409850e4341","665500ab8938657b03fbdba8","66577c5743f15a7927283df0","5928","stimuli/1011110.jpg","1","","prediction_trial","1","","true","","1","false","false","false","false","false","false","[2,1]","011","110","1","","","","","","",""
"","","","","","image-keyboard-response","169","634236","0.0-144.0","611341c34be95409850e4341","665500ab8938657b03fbdba8","66577c5743f15a7927283df0","745","stimuli/10111101.jpg"," ","","feedback_trial","2","","","","","","","","","","","","","","","","","","","","",""
"","","","","","image-keyboard-response","170","642793","0.0-145.0","611341c34be95409850e4341","665500ab8938657b03fbdba8","66577c5743f15a7927283df0","8528","stimuli/0111111.jpg","2","","prediction_trial","2","","true","","0","false","false","false","false","false","false","[1,2,0]","111","111","1","","","","","","",""
"","","","","","image-keyboard-response","171","643590","0.0-146.0","611341c34be95409850e4341","665500ab8938657b03fbdba8","66577c5743f15a7927283df0","770","stimuli/01111112.jpg"," ","","feedback_trial","1","","","","","","","","","","","","","","","","","","","","",""
"","","","","","image-keyboard-response","172","648637","0.0-147.0","611341c34be95409850e4341","665500ab8938657b03fbdba8","66577c5743f15a7927283df0","5010","stimuli/0100111.jpg","1","","prediction_trial","0","","false","","0","false","false","false","true","false","false","[0]","100","111","0","","","","","","",""
"","","","","","image-keyboard-response","173","649777","0.0-148.0","611341c34be95409850e4341","665500ab8938657b03fbdba8","66577c5743f15a7927283df0","1109","stimuli/01001110.jpg"," ","","feedback_trial","0","","","","","","","","","","","","","","","","","","","","",""
"","","","","","image-keyboard-response","174","652714","0.0-149.0","611341c34be95409850e4341","665500ab8938657b03fbdba8","66577c5743f15a7927283df0","2908","stimuli/0111000.jpg","1","","prediction_trial","1","","true","","0","true","true","false","false","false","false","[0,2,1]","111","000","1","","","","","","",""
"","","","","","image-keyboard-response","175","653387","0.0-150.0","611341c34be95409850e4341","665500ab8938657b03fbdba8","66577c5743f15a7927283df0","638","stimuli/01110001.jpg"," ","","feedback_trial","0","","","","","","","","","","","","","","","","","","","","",""
"","","","","","image-keyboard-response","176","655653","0.0-151.0","611341c34be95409850e4341","665500ab8938657b03fbdba8","66577c5743f15a7927283df0","2240","stimuli/0001011.jpg","0","","prediction_trial","0","","true","","0","true","true","true","true","true","true","[0]","001","011","1","","","","","","",""
"","","","","","image-keyboard-response","177","656614","0.0-152.0","611341c34be95409850e4341","665500ab8938657b03fbdba8","66577c5743f15a7927283df0","929","stimuli/00010110.jpg"," ","","feedback_trial","0","","","","","","","","","","","","","","","","","","","","",""
"","","","","","image-keyboard-response","178","664157","0.0-153.0","611341c34be95409850e4341","665500ab8938657b03fbdba8","66577c5743f15a7927283df0","7510","stimuli/2101110.jpg","2","","prediction_trial","0","","false","","2","true","true","false","false","false","false","[0,2]","101","110","0","","","","","","",""
"","","","","","image-keyboard-response","179","665084","0.0-154.0","611341c34be95409850e4341","665500ab8938657b03fbdba8","66577c5743f15a7927283df0","897","stimuli/21011100.jpg"," ","","feedback_trial","0","","","","","","","","","","","","","","","","","","","","",""
"","","","","","image-keyboard-response","180","670268","0.0-155.0","611341c34be95409850e4341","665500ab8938657b03fbdba8","66577c5743f15a7927283df0","5157","stimuli/0101001.jpg","0","","prediction_trial","2","","false","","0","true","true","false","false","false","false","[0,2]","101","001","0","","","","","","",""
"","","","","","image-keyboard-response","181","671638","0.0-156.0","611341c34be95409850e4341","665500ab8938657b03fbdba8","66577c5743f15a7927283df0","1339","stimuli/01010012.jpg"," ","","feedback_trial","0","","","","","","","","","","","","","","","","","","","","",""
"","","","","","image-keyboard-response","182","676603","0.0-157.0","611341c34be95409850e4341","665500ab8938657b03fbdba8","66577c5743f15a7927283df0","4951","stimuli/0001101.jpg","2","","prediction_trial","0","","false","","0","false","false","true","true","false","false","[0]","001","101","0","","","","","","",""
"","","","","","image-keyboard-response","183","677533","0.0-158.0","611341c34be95409850e4341","665500ab8938657b03fbdba8","66577c5743f15a7927283df0","902","stimuli/00011010.jpg"," ","","feedback_trial","0","","","","","","","","","","","","","","","","","","","","",""
"","","","","","image-keyboard-response","184","680268","0.0-159.0","611341c34be95409850e4341","665500ab8938657b03fbdba8","66577c5743f15a7927283df0","2708","stimuli/0110010.jpg","1","","prediction_trial","1","","true","","0","true","true","false","false","false","false","[0,1]","110","010","1","","","","","","",""
"","","","","","image-keyboard-response","185","680845","0.0-160.0","611341c34be95409850e4341","665500ab8938657b03fbdba8","66577c5743f15a7927283df0","554","stimuli/01100101.jpg"," ","","feedback_trial","0","","","","","","","","","","","","","","","","","","","","",""
"","","","","","image-keyboard-response","186","683401","0.0-161.0","611341c34be95409850e4341","665500ab8938657b03fbdba8","66577c5743f15a7927283df0","2521","stimuli/2110010.jpg","0","","prediction_trial","2","","false","","2","true","true","true","true","true","true","[2]","110","010","0","","","","","","",""
"","","","","","image-keyboard-response","187","688850","0.0-162.0","611341c34be95409850e4341","665500ab8938657b03fbdba8","66577c5743f15a7927283df0","5413","stimuli/21100102.jpg"," ","","feedback_trial","2","","","","","","","","","","","","","","","","","","","","",""
"","","","","","image-keyboard-response","188","693181","0.0-163.0","611341c34be95409850e4341","665500ab8938657b03fbdba8","66577c5743f15a7927283df0","4307","stimuli/1111011.jpg","1","","prediction_trial","1","","true","","1","false","false","false","false","false","false","[0,2,1]","111","011","1","","","","","","",""
"","","","","","image-keyboard-response","189","693738","0.0-164.0","611341c34be95409850e4341","665500ab8938657b03fbdba8","66577c5743f15a7927283df0","522","stimuli/11110111.jpg"," ","","feedback_trial","0","","","","","","","","","","","","","","","","","","","","",""
"","","","","","image-keyboard-response","190","696242","0.0-165.0","611341c34be95409850e4341","665500ab8938657b03fbdba8","66577c5743f15a7927283df0","2481","stimuli/1100010.jpg","1","","prediction_trial","1","","true","","1","false","true","true","true","false","true","[1]","100","010","1","","","","","","",""
"","","","","","image-keyboard-response","191","696911","0.0-166.0","611341c34be95409850e4341","665500ab8938657b03fbdba8","66577c5743f15a7927283df0","634","stimuli/11000101.jpg"," ","","feedback_trial","1","","","","","","","","","","","","","","","","","","","","",""
"","","","","","image-keyboard-response","192","698211","0.0-167.0","611341c34be95409850e4341","665500ab8938657b03fbdba8","66577c5743f15a7927283df0","1274","stimuli/0001000.jpg","0","","prediction_trial","0","","true","","0","true","true","true","true","true","true","[0]","001","000","1","","","","","","",""
"","","","","","image-keyboard-response","193","698793","0.0-168.0","611341c34be95409850e4341","665500ab8938657b03fbdba8","66577c5743f15a7927283df0","550","stimuli/00010000.jpg"," ","","feedback_trial","0","","","","","","","","","","","","","","","","","","","","",""
"","","","","","image-keyboard-response","194","699977","0.0-169.0","611341c34be95409850e4341","665500ab8938657b03fbdba8","66577c5743f15a7927283df0","1151","stimuli/2010010.jpg","2","","prediction_trial","2","","true","","2","true","true","true","true","true","true","[2]","010","010","1","","","","","","",""
"","","","","","image-keyboard-response","195","700752","0.0-170.0","611341c34be95409850e4341","665500ab8938657b03fbdba8","66577c5743f15a7927283df0","752","stimuli/20100102.jpg"," ","","feedback_trial","2","","","","","","","","","","","","","","","","","","","","",""
"","","","","","image-keyboard-response","196","701856","0.0-171.0","611341c34be95409850e4341","665500ab8938657b03fbdba8","66577c5743f15a7927283df0","1078","stimuli/1100101.jpg","1","","prediction_trial","1","","true","","1","true","true","true","true","true","true","[1]","100","101","1","","","","","","",""
"","","","","","image-keyboard-response","197","702386","0.0-172.0","611341c34be95409850e4341","665500ab8938657b03fbdba8","66577c5743f15a7927283df0","499","stimuli/11001011.jpg"," ","","feedback_trial","1","","","","","","","","","","","","","","","","","","","","",""
"","","","","","image-keyboard-response","198","707274","0.0-173.0","611341c34be95409850e4341","665500ab8938657b03fbdba8","66577c5743f15a7927283df0","4858","stimuli/2011100.jpg","1","","prediction_trial","1","","true","","2","true","true","false","false","false","false","[2,1]","011","100","1","","","","","","",""
"","","","","","image-keyboard-response","199","708083","0.0-174.0","611341c34be95409850e4341","665500ab8938657b03fbdba8","66577c5743f15a7927283df0","785","stimuli/20111001.jpg"," ","","feedback_trial","2","","","","","","","","","","","","","","","","","","","","",""
"","","","","","image-keyboard-response","200","712013","0.0-175.0","611341c34be95409850e4341","665500ab8938657b03fbdba8","66577c5743f15a7927283df0","3892","stimuli/0011111.jpg","2","","prediction_trial","0","","false","","0","false","false","true","true","false","false","[0]","011","111","0","","","","","","",""
"","","","","","image-keyboard-response","201","713242","0.0-176.0","611341c34be95409850e4341","665500ab8938657b03fbdba8","66577c5743f15a7927283df0","1193","stimuli/00111110.jpg"," ","","feedback_trial","0","","","","","","","","","","","","","","","","","","","","",""
"","","","","","image-keyboard-response","202","716415","0.0-177.0","611341c34be95409850e4341","665500ab8938657b03fbdba8","66577c5743f15a7927283df0","3138","stimuli/1111110.jpg","1","","prediction_trial","0","","false","","1","false","false","false","false","false","false","[2,1,0]","111","110","0","","","","","","",""
"","","","","","image-keyboard-response","203","717573","0.0-178.0","611341c34be95409850e4341","665500ab8938657b03fbdba8","66577c5743f15a7927283df0","1131","stimuli/11111100.jpg"," ","","feedback_trial","2","","","","","","","","","","","","","","","","","","","","",""
"","","","","","image-keyboard-response","204","720863","0.0-179.0","611341c34be95409850e4341","665500ab8938657b03fbdba8","66577c5743f15a7927283df0","3255","stimuli/0000110.jpg","1","","prediction_trial","0","","false","","0","false","false","true","true","false","false","[0]","000","110","0","","","","","","",""
"","","","","","image-keyboard-response","205","721774","0.0-180.0","611341c34be95409850e4341","665500ab8938657b03fbdba8","66577c5743f15a7927283df0","869","stimuli/00001100.jpg"," ","","feedback_trial","0","","","","","","","","","","","","","","","","","","","","",""
"","","","","","image-keyboard-response","206","723392","0.0-181.0","611341c34be95409850e4341","665500ab8938657b03fbdba8","66577c5743f15a7927283df0","1584","stimuli/1101100.jpg","1","","prediction_trial","1","","true","","1","true","true","true","true","true","true","[1]","101","100","1","","","","","","",""
"","","","","","image-keyboard-response","207","724455","0.0-182.0","611341c34be95409850e4341","665500ab8938657b03fbdba8","66577c5743f15a7927283df0","1029","stimuli/11011001.jpg"," ","","feedback_trial","1","","","","","","","","","","","","","","","","","","","","",""
"","","","","","image-keyboard-response","208","725832","0.0-183.0","611341c34be95409850e4341","665500ab8938657b03fbdba8","66577c5743f15a7927283df0","1351","stimuli/0000000.jpg","0","","prediction_trial","0","","true","","0","true","true","true","true","true","true","[0]","000","000","1","","","","","","",""
"","","","","","image-keyboard-response","209","726743","0.0-184.0","611341c34be95409850e4341","665500ab8938657b03fbdba8","66577c5743f15a7927283df0","885","stimuli/00000000.jpg"," ","","feedback_trial","0","","","","","","","","","","","","","","","","","","","","",""
"","","","","","image-keyboard-response","210","732623","0.0-185.0","611341c34be95409850e4341","665500ab8938657b03fbdba8","66577c5743f15a7927283df0","5866","stimuli/0100101.jpg","2","","prediction_trial","0","","false","","0","false","false","false","true","false","false","[0]","100","101","0","","","","","","",""
"","","","","","image-keyboard-response","211","733567","0.0-186.0","611341c34be95409850e4341","665500ab8938657b03fbdba8","66577c5743f15a7927283df0","922","stimuli/01001010.jpg"," ","","feedback_trial","0","","","","","","","","","","","","","","","","","","","","",""
"","","","","","image-keyboard-response","212","742622","0.0-187.0","611341c34be95409850e4341","665500ab8938657b03fbdba8","66577c5743f15a7927283df0","9024","stimuli/2010101.jpg","2","","prediction_trial","2","","true","","2","false","false","true","true","false","false","[2]","010","101","1","","","","","","",""
"","","","","","image-keyboard-response","213","743336","0.0-188.0","611341c34be95409850e4341","665500ab8938657b03fbdba8","66577c5743f15a7927283df0","699","stimuli/20101012.jpg"," ","","feedback_trial","2","","","","","","","","","","","","","","","","","","","","",""
"","","","","","image-keyboard-response","214","746952","0.0-189.0","611341c34be95409850e4341","665500ab8938657b03fbdba8","66577c5743f15a7927283df0","3581","stimuli/0111010.jpg","1","","prediction_trial","1","","true","","0","true","true","false","false","false","false","[1,0,2]","111","010","1","","","","","","",""
"","","","","","image-keyboard-response","215","748724","0.0-190.0","611341c34be95409850e4341","665500ab8938657b03fbdba8","66577c5743f15a7927283df0","1742","stimuli/01110101.jpg"," ","","feedback_trial","1","","","","","","","","","","","","","","","","","","","","",""
"","","","","","image-keyboard-response","216","753714","0.0-191.0","611341c34be95409850e4341","665500ab8938657b03fbdba8","66577c5743f15a7927283df0","4960","stimuli/2000011.jpg","2","","prediction_trial","2","","true","","2","false","false","true","true","false","false","[2]","000","011","1","","","","","","",""
"","","","","","image-keyboard-response","217","754453","0.0-192.0","611341c34be95409850e4341","665500ab8938657b03fbdba8","66577c5743f15a7927283df0","702","stimuli/20000112.jpg"," ","","feedback_trial","2","","","","","","","","","","","","","","","","","","","","",""
"","","","","","image-keyboard-response","218","756279","0.0-193.0","611341c34be95409850e4341","665500ab8938657b03fbdba8","66577c5743f15a7927283df0","1797","stimuli/0011010.jpg","0","","prediction_trial","0","","true","","0","true","true","true","true","true","true","[0]","011","010","1","","","","","","",""
"","","","","","image-keyboard-response","219","757544","0.0-194.0","611341c34be95409850e4341","665500ab8938657b03fbdba8","66577c5743f15a7927283df0","1233","stimuli/00110100.jpg"," ","","feedback_trial","0","","","","","","","","","","","","","","","","","","","","",""
"","","","","","image-keyboard-response","220","759951","0.0-195.0","611341c34be95409850e4341","665500ab8938657b03fbdba8","66577c5743f15a7927283df0","2380","stimuli/0010001.jpg","0","","prediction_trial","0","","true","","0","true","true","true","true","true","true","[0]","010","001","1","","","","","","",""
"","","","","","image-keyboard-response","221","761066","0.0-196.0","611341c34be95409850e4341","665500ab8938657b03fbdba8","66577c5743f15a7927283df0","1094","stimuli/00100010.jpg"," ","","feedback_trial","0","","","","","","","","","","","","","","","","","","","","",""
"","","","","","image-keyboard-response","222","764044","0.0-197.0","611341c34be95409850e4341","665500ab8938657b03fbdba8","66577c5743f15a7927283df0","2947","stimuli/0110000.jpg","1","","prediction_trial","1","","true","","0","true","true","false","false","false","false","[1,0]","110","000","1","","","","","","",""
"","","","","","image-keyboard-response","223","765069","0.0-198.0","611341c34be95409850e4341","665500ab8938657b03fbdba8","66577c5743f15a7927283df0","991","stimuli/01100001.jpg"," ","","feedback_trial","1","","","","","","","","","","","","","","","","","","","","",""
"","","","","","image-keyboard-response","224","770777","0.0-199.0","611341c34be95409850e4341","665500ab8938657b03fbdba8","66577c5743f15a7927283df0","5680","stimuli/2011101.jpg","2","","prediction_trial","1","","false","","2","false","false","false","false","false","false","[2,1]","011","101","0","","","","","","",""
"","","","","","image-keyboard-response","225","772400","0.0-200.0","611341c34be95409850e4341","665500ab8938657b03fbdba8","66577c5743f15a7927283df0","1599","stimuli/20111011.jpg"," ","","feedback_trial","2","","","","","","","","","","","","","","","","","","","","",""
"","","","","","image-keyboard-response","226","774394","0.0-201.0","611341c34be95409850e4341","665500ab8938657b03fbdba8","66577c5743f15a7927283df0","1972","stimuli/2100010.jpg","2","","prediction_trial","2","","true","","2","true","true","true","true","true","true","[2]","100","010","1","","","","","","",""
"","","","","","image-keyboard-response","227","774993","0.0-202.0","611341c34be95409850e4341","665500ab8938657b03fbdba8","66577c5743f15a7927283df0","568","stimuli/21000102.jpg"," ","","feedback_trial","2","","","","","","","","","","","","","","","","","","","","",""
"","","","","","image-keyboard-response","228","778732","0.0-203.0","611341c34be95409850e4341","665500ab8938657b03fbdba8","66577c5743f15a7927283df0","3707","stimuli/0011110.jpg","1","","prediction_trial","0","","false","","0","false","false","true","true","false","false","[0]","011","110","0","","","","","","",""
"","","","","","image-keyboard-response","229","780244","0.0-204.0","611341c34be95409850e4341","665500ab8938657b03fbdba8","66577c5743f15a7927283df0","1477","stimuli/00111100.jpg"," ","","feedback_trial","0","","","","","","","","","","","","","","","","","","","","",""
"","","","","","image-keyboard-response","230","784396","0.0-205.0","611341c34be95409850e4341","665500ab8938657b03fbdba8","66577c5743f15a7927283df0","4120","stimuli/0100010.jpg","0","","prediction_trial","0","","true","","0","true","true","false","true","false","true","[0]","100","010","1","","","","","","",""
"","","","","","image-keyboard-response","231","785888","0.0-206.0","611341c34be95409850e4341","665500ab8938657b03fbdba8","66577c5743f15a7927283df0","1465","stimuli/01000100.jpg"," ","","feedback_trial","0","","","","","","","","","","","","","","","","","","","","",""
"","","","","","image-keyboard-response","232","789794","0.0-207.0","611341c34be95409850e4341","665500ab8938657b03fbdba8","66577c5743f15a7927283df0","3873","stimuli/1101111.jpg","1","","prediction_trial","1","","true","","1","false","false","true","true","false","false","[1]","101","111","1","","","","","","",""
"","","","","","image-keyboard-response","233","790796","0.0-208.0","611341c34be95409850e4341","665500ab8938657b03fbdba8","66577c5743f15a7927283df0","970","stimuli/11011111.jpg"," ","","feedback_trial","1","","","","","","","","","","","","","","","","","","","","",""
"","","","","","image-keyboard-response","234","793024","0.0-209.0","611341c34be95409850e4341","665500ab8938657b03fbdba8","66577c5743f15a7927283df0","2210","stimuli/0000100.jpg","0","","prediction_trial","0","","true","","0","false","true","true","true","false","true","[0]","000","100","1","","","","","","",""
"","","","","","image-keyboard-response","235","793690","0.0-210.0","611341c34be95409850e4341","665500ab8938657b03fbdba8","66577c5743f15a7927283df0","634","stimuli/00001000.jpg"," ","","feedback_trial","0","","","","","","","","","","","","","","","","","","","","",""
"","","","","","image-keyboard-response","236","794745","0.0-211.0","611341c34be95409850e4341","665500ab8938657b03fbdba8","66577c5743f15a7927283df0","1041","stimuli/0010011.jpg","0","","prediction_trial","0","","true","","0","true","true","true","true","true","true","[0]","010","011","1","","","","","","",""
"","","","","","image-keyboard-response","237","795735","0.0-212.0","611341c34be95409850e4341","665500ab8938657b03fbdba8","66577c5743f15a7927283df0","962","stimuli/00100110.jpg"," ","","feedback_trial","0","","","","","","","","","","","","","","","","","","","","",""
"","","","","","image-keyboard-response","238","799174","0.0-213.0","611341c34be95409850e4341","665500ab8938657b03fbdba8","66577c5743f15a7927283df0","3413","stimuli/2111110.jpg","1","","prediction_trial","1","","true","","2","true","true","false","false","false","false","[2,1,0]","111","110","1","","","","","","",""
"","","","","","image-keyboard-response","239","800004","0.0-214.0","611341c34be95409850e4341","665500ab8938657b03fbdba8","66577c5743f15a7927283df0","796","stimuli/21111101.jpg"," ","","feedback_trial","2","","","","","","","","","","","","","","","","","","","","",""
"","","","","","image-keyboard-response","240","807626","0.0-215.0","611341c34be95409850e4341","665500ab8938657b03fbdba8","66577c5743f15a7927283df0","7584","stimuli/2111011.jpg","2","","prediction_trial","1","","false","","2","false","false","false","false","false","false","[0,2,1]","111","011","0","","","","","","",""
"","","","","","image-keyboard-response","241","808835","0.0-216.0","611341c34be95409850e4341","665500ab8938657b03fbdba8","66577c5743f15a7927283df0","1192","stimuli/21110111.jpg"," ","","feedback_trial","0","","","","","","","","","","","","","","","","","","","","",""
"","","","","","image-keyboard-response","242","810373","0.0-217.0","611341c34be95409850e4341","665500ab8938657b03fbdba8","66577c5743f15a7927283df0","1506","stimuli/0001010.jpg","0","","prediction_trial","0","","true","","0","true","true","true","true","true","true","[0]","001","010","1","","","","","","",""
"","","","","","image-keyboard-response","243","810935","0.0-218.0","611341c34be95409850e4341","665500ab8938657b03fbdba8","66577c5743f15a7927283df0","537","stimuli/00010100.jpg"," ","","feedback_trial","0","","","","","","","","","","","","","","","","","","","","",""
"","","","","","image-keyboard-response","244","817001","0.0-219.0","611341c34be95409850e4341","665500ab8938657b03fbdba8","66577c5743f15a7927283df0","6033","stimuli/2101001.jpg","0","","prediction_trial","0","","true","","2","false","true","false","false","false","false","[2,0]","101","001","1","","","","","","",""
"","","","","","image-keyboard-response","245","817933","0.0-220.0","611341c34be95409850e4341","665500ab8938657b03fbdba8","66577c5743f15a7927283df0","904","stimuli/21010010.jpg"," ","","feedback_trial","2","","","","","","","","","","","","","","","","","","","","",""
"","","","","","image-keyboard-response","246","820772","0.0-221.0","611341c34be95409850e4341","665500ab8938657b03fbdba8","66577c5743f15a7927283df0","2810","stimuli/2011000.jpg","1","","prediction_trial","1","","true","","2","true","true","false","false","false","false","[2,1]","011","000","1","","","","","","",""
"","","","","","image-keyboard-response","247","821385","0.0-222.0","611341c34be95409850e4341","665500ab8938657b03fbdba8","66577c5743f15a7927283df0","576","stimuli/20110001.jpg"," ","","feedback_trial","2","","","","","","","","","","","","","","","","","","","","",""
"","","","","","image-keyboard-response","248","828181","0.0-223.0","611341c34be95409850e4341","665500ab8938657b03fbdba8","66577c5743f15a7927283df0","6772","stimuli/2110101.jpg","2","","prediction_trial","2","","true","","2","false","false","true","true","false","false","[2]","110","101","1","","","","","","",""
"","","","","","image-keyboard-response","249","829012","0.0-224.0","611341c34be95409850e4341","665500ab8938657b03fbdba8","66577c5743f15a7927283df0","793","stimuli/21101012.jpg"," ","","feedback_trial","2","","","","","","","","","","","","","","","","","","","","",""
"","","","","","image-keyboard-response","250","829988","0.0-225.0","611341c34be95409850e4341","665500ab8938657b03fbdba8","66577c5743f15a7927283df0","938","stimuli/2010110.jpg","2","","prediction_trial","2","","true","","2","true","true","true","true","true","true","[2]","010","110","1","","","","","","",""
"","","","","","image-keyboard-response","251","830638","0.0-226.0","611341c34be95409850e4341","665500ab8938657b03fbdba8","66577c5743f15a7927283df0","636","stimuli/20101102.jpg"," ","","feedback_trial","2","","","","","","","","","","","","","","","","","","","","",""
"","","","","","image-keyboard-response","252","833262","0.0-227.0","611341c34be95409850e4341","665500ab8938657b03fbdba8","66577c5743f15a7927283df0","2604","stimuli/1111101.jpg","1","","prediction_trial","1","","true","","1","true","true","false","false","false","false","[2,1,0]","111","101","1","","","","","","",""
"","","","","","image-keyboard-response","253","833860","0.0-228.0","611341c34be95409850e4341","665500ab8938657b03fbdba8","66577c5743f15a7927283df0","570","stimuli/11111011.jpg"," ","","feedback_trial","2","","","","","","","","","","","","","","","","","","","","",""
"","","","","","image-keyboard-response","254","835289","0.0-229.0","611341c34be95409850e4341","665500ab8938657b03fbdba8","66577c5743f15a7927283df0","1396","stimuli/2001001.jpg","2","","prediction_trial","2","","true","","2","false","true","false","true","false","true","[2]","001","001","1","","","","","","",""
"","","","","","image-keyboard-response","255","835874","0.0-230.0","611341c34be95409850e4341","665500ab8938657b03fbdba8","66577c5743f15a7927283df0","550","stimuli/20010012.jpg"," ","","feedback_trial","2","","","","","","","","","","","","","","","","","","","","",""
"","","","","","image-keyboard-response","256","841652","0.0-231.0","611341c34be95409850e4341","665500ab8938657b03fbdba8","66577c5743f15a7927283df0","5749","stimuli/1001011.jpg","1","","prediction_trial","1","","true","","1","false","false","true","true","false","false","[1]","001","011","1","","","","","","",""
"","","","","","image-keyboard-response","257","842286","0.0-232.0","611341c34be95409850e4341","665500ab8938657b03fbdba8","66577c5743f15a7927283df0","596","stimuli/10010111.jpg"," ","","feedback_trial","1","","","","","","","","","","","","","","","","","","","","",""
"","","","","","image-keyboard-response","258","843524","0.0-233.0","611341c34be95409850e4341","665500ab8938657b03fbdba8","66577c5743f15a7927283df0","1207","stimuli/2100100.jpg","2","","prediction_trial","2","","true","","2","true","true","true","true","true","true","[2]","100","100","1","","","","","","",""
"","","","","","image-keyboard-response","259","844133","0.0-234.0","611341c34be95409850e4341","665500ab8938657b03fbdba8","66577c5743f15a7927283df0","583","stimuli/21001002.jpg"," ","","feedback_trial","2","","","","","","","","","","","","","","","","","","","","",""
"","","","","","image-keyboard-response","260","845665","0.0-235.0","611341c34be95409850e4341","665500ab8938657b03fbdba8","66577c5743f15a7927283df0","1510","stimuli/1001100.jpg","1","","prediction_trial","1","","true","","1","true","true","true","true","true","true","[1]","001","100","1","","","","","","",""
"","","","","","image-keyboard-response","261","846229","0.0-236.0","611341c34be95409850e4341","665500ab8938657b03fbdba8","66577c5743f15a7927283df0","541","stimuli/10011001.jpg"," ","","feedback_trial","1","","","","","","","","","","","","","","","","","","","","",""
"","","","","","image-keyboard-response","262","848824","0.0-237.0","611341c34be95409850e4341","665500ab8938657b03fbdba8","66577c5743f15a7927283df0","2568","stimuli/2011011.jpg","1","","prediction_trial","2","","false","","2","false","false","false","false","false","false","[1,2]","011","011","0","","","","","","",""
"","","","","","image-keyboard-response","263","849846","0.0-238.0","611341c34be95409850e4341","665500ab8938657b03fbdba8","66577c5743f15a7927283df0","983","stimuli/20110112.jpg"," ","","feedback_trial","1","","","","","","","","","","","","","","","","","","","","",""
"","","","","","image-keyboard-response","264","852824","0.0-239.0","611341c34be95409850e4341","665500ab8938657b03fbdba8","66577c5743f15a7927283df0","2944","stimuli/1110110.jpg","1","","prediction_trial","1","","true","","1","false","false","false","false","false","false","[0,1]","110","110","1","","","","","","",""
"","","","","","image-keyboard-response","265","853479","0.0-240.0","611341c34be95409850e4341","665500ab8938657b03fbdba8","66577c5743f15a7927283df0","625","stimuli/11101101.jpg"," ","","feedback_trial","0","","","","","","","","","","","","","","","","","","","","",""
"","","","","","image-keyboard-response","266","857514","0.0-241.0","611341c34be95409850e4341","665500ab8938657b03fbdba8","66577c5743f15a7927283df0","4005","stimuli/0011101.jpg","0","","prediction_trial","0","","true","","0","false","false","true","true","false","false","[0]","011","101","1","","","","","","",""
"","","","","","image-keyboard-response","267","858672","0.0-242.0","611341c34be95409850e4341","665500ab8938657b03fbdba8","66577c5743f15a7927283df0","1119","stimuli/00111010.jpg"," ","","feedback_trial","0","","","","","","","","","","","","","","","","","","","","",""
"","","","","","image-keyboard-response","268","867414","0.0-243.0","611341c34be95409850e4341","665500ab8938657b03fbdba8","66577c5743f15a7927283df0","8715","stimuli/0010101.jpg","2","","prediction_trial","0","","false","","0","false","false","true","true","false","false","[0]","010","101","0","","","","","","",""
"","","","","","image-keyboard-response","269","868559","0.0-244.0","611341c34be95409850e4341","665500ab8938657b03fbdba8","66577c5743f15a7927283df0","1105","stimuli/00101010.jpg"," ","","feedback_trial","0","","","","","","","","","","","","","","","","","","","","",""
"","","","","","image-keyboard-response","270","874266","0.0-245.0","611341c34be95409850e4341","665500ab8938657b03fbdba8","66577c5743f15a7927283df0","5666","stimuli/1010011.jpg","2","","prediction_trial","1","","false","","1","false","false","false","true","false","false","[1]","010","011","0","","","","","","",""
"","","","","","image-keyboard-response","271","875345","0.0-246.0","611341c34be95409850e4341","665500ab8938657b03fbdba8","66577c5743f15a7927283df0","1044","stimuli/10100111.jpg"," ","","feedback_trial","1","","","","","","","","","","","","","","","","","","","","",""
"","","","","","image-keyboard-response","272","877557","0.0-247.0","611341c34be95409850e4341","665500ab8938657b03fbdba8","66577c5743f15a7927283df0","2180","stimuli/2011110.jpg","1","","prediction_trial","2","","false","","2","true","true","false","false","false","false","[1,2]","011","110","0","","","","","","",""
"","","","","","image-keyboard-response","273","878780","0.0-248.0","611341c34be95409850e4341","665500ab8938657b03fbdba8","66577c5743f15a7927283df0","1191","stimuli/20111102.jpg"," ","","feedback_trial","1","","","","","","","","","","","","","","","","","","","","",""
"","","","","","image-keyboard-response","274","880272","0.0-249.0","611341c34be95409850e4341","665500ab8938657b03fbdba8","66577c5743f15a7927283df0","1477","stimuli/0000001.jpg","0","","prediction_trial","0","","true","","0","true","true","true","true","true","true","[0]","000","001","1","","","","","","",""
"","","","","","image-keyboard-response","275","880950","0.0-250.0","611341c34be95409850e4341","665500ab8938657b03fbdba8","66577c5743f15a7927283df0","664","stimuli/00000010.jpg"," ","","feedback_trial","0","","","","","","","","","","","","","","","","","","","","",""
"","","","","","image-keyboard-response","276","888023","0.0-251.0","611341c34be95409850e4341","665500ab8938657b03fbdba8","66577c5743f15a7927283df0","7059","stimuli/1000111.jpg","2","","prediction_trial","1","","false","","1","false","false","true","true","false","false","[1]","000","111","0","","","","","","",""
"","","","","","image-keyboard-response","277","888927","0.0-252.0","611341c34be95409850e4341","665500ab8938657b03fbdba8","66577c5743f15a7927283df0","870","stimuli/10001111.jpg"," ","","feedback_trial","1","","","","","","","","","","","","","","","","","","","","",""
"","","","","","image-keyboard-response","278","890208","0.0-253.0","611341c34be95409850e4341","665500ab8938657b03fbdba8","66577c5743f15a7927283df0","1249","stimuli/2100001.jpg","2","","prediction_trial","2","","true","","2","false","true","true","true","false","true","[2]","100","001","1","","","","","","",""
"","","","","","image-keyboard-response","279","892195","0.0-254.0","611341c34be95409850e4341","665500ab8938657b03fbdba8","66577c5743f15a7927283df0","1960","stimuli/21000012.jpg"," ","","feedback_trial","2","","","","","","","","","","","","","","","","","","","","",""
"","","","","","image-keyboard-response","280","896175","0.0-255.0","611341c34be95409850e4341","665500ab8938657b03fbdba8","66577c5743f15a7927283df0","3941","stimuli/2011001.jpg","1","","prediction_trial","2","","false","","2","false","true","false","false","false","false","[2,1]","011","001","0","","","","","","",""
"","","","","","image-keyboard-response","281","897178","0.0-256.0","611341c34be95409850e4341","665500ab8938657b03fbdba8","66577c5743f15a7927283df0","977","stimuli/20110012.jpg"," ","","feedback_trial","2","","","","","","","","","","","","","","","","","","","","",""
"","","","","","image-keyboard-response","282","898203","0.0-257.0","611341c34be95409850e4341","665500ab8938657b03fbdba8","66577c5743f15a7927283df0","993","stimuli/2010000.jpg","2","","prediction_trial","2","","true","","2","true","true","true","true","true","true","[2]","010","000","1","","","","","","",""
"","","","","","image-keyboard-response","283","898787","0.0-258.0","611341c34be95409850e4341","665500ab8938657b03fbdba8","66577c5743f15a7927283df0","551","stimuli/20100002.jpg"," ","","feedback_trial","2","","","","","","","","","","","","","","","","","","","","",""
"","","","","","image-keyboard-response","284","905967","0.0-259.0","611341c34be95409850e4341","665500ab8938657b03fbdba8","66577c5743f15a7927283df0","7155","stimuli/2100011.jpg","2","","prediction_trial","2","","true","","2","false","false","true","true","false","false","[2]","100","011","1","","","","","","",""
"","","","","","image-keyboard-response","285","906684","0.0-260.0","611341c34be95409850e4341","665500ab8938657b03fbdba8","66577c5743f15a7927283df0","676","stimuli/21000112.jpg"," ","","feedback_trial","2","","","","","","","","","","","","","","","","","","","","",""
"","","","","","image-keyboard-response","286","908825","0.0-261.0","611341c34be95409850e4341","665500ab8938657b03fbdba8","66577c5743f15a7927283df0","2117","stimuli/1011000.jpg","1","","prediction_trial","2","","false","","1","true","true","false","false","false","false","[1,2]","011","000","0","","","","","","",""
"","","","","","image-keyboard-response","287","909979","0.0-262.0","611341c34be95409850e4341","665500ab8938657b03fbdba8","66577c5743f15a7927283df0","1118","stimuli/10110002.jpg"," ","","feedback_trial","1","","","","","","","","","","","","","","","","","","","","",""
"","","","","","image-keyboard-response","288","911194","0.0-263.0","611341c34be95409850e4341","665500ab8938657b03fbdba8","66577c5743f15a7927283df0","1188","stimuli/2000110.jpg","2","","prediction_trial","2","","true","","2","true","true","true","true","true","true","[2]","000","110","1","","","","","","",""
"","","","","","image-keyboard-response","289","911809","0.0-264.0","611341c34be95409850e4341","665500ab8938657b03fbdba8","66577c5743f15a7927283df0","583","stimuli/20001102.jpg"," ","","feedback_trial","2","","","","","","","","","","","","","","","","","","","","",""
"","","","","","image-keyboard-response","290","916245","0.0-265.0","611341c34be95409850e4341","665500ab8938657b03fbdba8","66577c5743f15a7927283df0","4410","stimuli/1110111.jpg","1","","prediction_trial","1","","true","","1","false","false","false","false","false","false","[0,1]","110","111","1","","","","","","",""
"","","","","","image-keyboard-response","291","916968","0.0-266.0","611341c34be95409850e4341","665500ab8938657b03fbdba8","66577c5743f15a7927283df0","692","stimuli/11101111.jpg"," ","","feedback_trial","0","","","","","","","","","","","","","","","","","","","","",""
"","","","","","image-keyboard-response","292","920739","0.0-267.0","611341c34be95409850e4341","665500ab8938657b03fbdba8","66577c5743f15a7927283df0","3745","stimuli/2010111.jpg","0","","prediction_trial","2","","false","","2","false","false","true","true","false","false","[2]","010","111","0","","","","","","",""
"","","","","","image-keyboard-response","293","921752","0.0-268.0","611341c34be95409850e4341","665500ab8938657b03fbdba8","66577c5743f15a7927283df0","979","stimuli/20101112.jpg"," ","","feedback_trial","2","","","","","","","","","","","","","","","","","","","","",""
"","","","","","image-keyboard-response","294","923782","0.0-269.0","611341c34be95409850e4341","665500ab8938657b03fbdba8","66577c5743f15a7927283df0","1999","stimuli/2000100.jpg","2","","prediction_trial","2","","true","","2","true","true","true","true","true","true","[2]","000","100","1","","","","","","",""
"","","","","","image-keyboard-response","295","924327","0.0-270.0","611341c34be95409850e4341","665500ab8938657b03fbdba8","66577c5743f15a7927283df0","531","stimuli/20001002.jpg"," ","","feedback_trial","2","","","","","","","","","","","","","","","","","","","","",""
"","","","","","image-keyboard-response","296","925596","0.0-271.0","611341c34be95409850e4341","665500ab8938657b03fbdba8","66577c5743f15a7927283df0","1239","stimuli/0000010.jpg","0","","prediction_trial","0","","true","","0","true","true","true","true","true","true","[0]","000","010","1","","","","","","",""
"","","","","","image-keyboard-response","297","926095","0.0-272.0","611341c34be95409850e4341","665500ab8938657b03fbdba8","66577c5743f15a7927283df0","466","stimuli/00000100.jpg"," ","","feedback_trial","0","","","","","","","","","","","","","","","","","","","","",""
"","","","","","image-keyboard-response","298","930343","0.0-273.0","611341c34be95409850e4341","665500ab8938657b03fbdba8","66577c5743f15a7927283df0","4215","stimuli/0000111.jpg","1","","prediction_trial","0","","false","","0","false","false","true","true","false","false","[0]","000","111","0","","","","","","",""
"","","","","","image-keyboard-response","299","931445","0.0-274.0","611341c34be95409850e4341","665500ab8938657b03fbdba8","66577c5743f15a7927283df0","1072","stimuli/00001110.jpg"," ","","feedback_trial","0","","","","","","","","","","","","","","","","","","","","",""
"","","","","","image-keyboard-response","300","933893","0.0-275.0","611341c34be95409850e4341","665500ab8938657b03fbdba8","66577c5743f15a7927283df0","2414","stimuli/0011100.jpg","0","","prediction_trial","0","","true","","0","false","true","true","true","false","true","[0]","011","100","1","","","","","","",""
"","","","","","image-keyboard-response","301","934678","0.0-276.0","611341c34be95409850e4341","665500ab8938657b03fbdba8","66577c5743f15a7927283df0","745","stimuli/00111000.jpg"," ","","feedback_trial","0","","","","","","","","","","","","","","","","","","","","",""
"","","","","","image-keyboard-response","302","935845","0.0-277.0","611341c34be95409850e4341","665500ab8938657b03fbdba8","66577c5743f15a7927283df0","1129","stimuli/0011011.jpg","0","","prediction_trial","0","","true","","0","true","true","true","true","true","true","[0]","011","011","1","","","","","","",""
"","","","","","image-keyboard-response","303","936362","0.0-278.0","611341c34be95409850e4341","665500ab8938657b03fbdba8","66577c5743f15a7927283df0","496","stimuli/00110110.jpg"," ","","feedback_trial","0","","","","","","","","","","","","","","","","","","","","",""
"","","","","","image-keyboard-response","304","939314","0.0-279.0","611341c34be95409850e4341","665500ab8938657b03fbdba8","66577c5743f15a7927283df0","2921","stimuli/2101101.jpg","2","","prediction_trial","0","","false","","2","false","false","false","false","false","false","[0,2]","101","101","0","","","","","","",""
"","","","","","image-keyboard-response","305","940674","0.0-280.0","611341c34be95409850e4341","665500ab8938657b03fbdba8","66577c5743f15a7927283df0","1332","stimuli/21011010.jpg"," ","","feedback_trial","0","","","","","","","","","","","","","","","","","","","","",""
"","","","","","image-keyboard-response","306","941881","0.0-281.0","611341c34be95409850e4341","665500ab8938657b03fbdba8","66577c5743f15a7927283df0","1175","stimuli/0000011.jpg","0","","prediction_trial","0","","true","","0","true","true","true","true","true","true","[0]","000","011","1","","","","","","",""
"","","","","","image-keyboard-response","307","942980","0.0-282.0","611341c34be95409850e4341","665500ab8938657b03fbdba8","66577c5743f15a7927283df0","1070","stimuli/00000110.jpg"," ","","feedback_trial","0","","","","","","","","","","","","","","","","","","","","",""
"","","","","","image-keyboard-response","308","947715","0.0-283.0","611341c34be95409850e4341","665500ab8938657b03fbdba8","66577c5743f15a7927283df0","4712","stimuli/2001111.jpg","1","","prediction_trial","2","","false","","2","false","false","false","true","false","false","[2]","001","111","0","","","","","","",""
"","","","","","image-keyboard-response","309","948724","0.0-284.0","611341c34be95409850e4341","665500ab8938657b03fbdba8","66577c5743f15a7927283df0","982","stimuli/20011112.jpg"," ","","feedback_trial","2","","","","","","","","","","","","","","","","","","","","",""
"","","","","","image-keyboard-response","310","952055","0.0-285.0","611341c34be95409850e4341","665500ab8938657b03fbdba8","66577c5743f15a7927283df0","3300","stimuli/0111101.jpg","1","","prediction_trial","0","","false","","0","false","false","false","false","false","false","[2,0,1]","111","101","0","","","","","","",""
"","","","","","image-keyboard-response","311","953053","0.0-286.0","611341c34be95409850e4341","665500ab8938657b03fbdba8","66577c5743f15a7927283df0","964","stimuli/01111010.jpg"," ","","feedback_trial","2","","","","","","","","","","","","","","","","","","","","",""
"","","","","","image-keyboard-response","312","954174","0.0-287.0","611341c34be95409850e4341","665500ab8938657b03fbdba8","66577c5743f15a7927283df0","1093","stimuli/0011001.jpg","0","","prediction_trial","0","","true","","0","true","true","true","true","true","true","[0]","011","001","1","","","","","","",""
"","","","","","image-keyboard-response","313","954872","0.0-288.0","611341c34be95409850e4341","665500ab8938657b03fbdba8","66577c5743f15a7927283df0","663","stimuli/00110010.jpg"," ","","feedback_trial","0","","","","","","","","","","","","","","","","","","","","",""
"","","","","","image-keyboard-response","314","956113","0.0-289.0","611341c34be95409850e4341","665500ab8938657b03fbdba8","66577c5743f15a7927283df0","1209","stimuli/1101101.jpg","1","","prediction_trial","1","","true","","1","true","true","true","true","true","true","[1]","101","101","1","","","","","","",""
"","","","","","image-keyboard-response","315","956729","0.0-290.0","611341c34be95409850e4341","665500ab8938657b03fbdba8","66577c5743f15a7927283df0","584","stimuli/11011011.jpg"," ","","feedback_trial","1","","","","","","","","","","","","","","","","","","","","",""
"","","","","","image-keyboard-response","316","960883","0.0-291.0","611341c34be95409850e4341","665500ab8938657b03fbdba8","66577c5743f15a7927283df0","4114","stimuli/1101011.jpg","2","","prediction_trial","1","","false","","1","false","false","true","true","false","false","[1]","101","011","0","","","","","","",""
"","","","","","image-keyboard-response","317","962294","0.0-292.0","611341c34be95409850e4341","665500ab8938657b03fbdba8","66577c5743f15a7927283df0","1379","stimuli/11010111.jpg"," ","","feedback_trial","1","","","","","","","","","","","","","","","","","","","","",""
"","","","","","survey-html-form","318","1023754","0.0-293.0","611341c34be95409850e4341","665500ab8938657b03fbdba8","66577c5743f15a7927283df0","61444","","{""feedback"":""Well, if we both could see it then I picked that one.  I tried to discern a pattern but I'm not sure how successful I was in doing so."",""age"":""53"",""gender"":""Female"",""other_gender"":"""",""race"":""White"",""other_race"":"""",""ethnicity"":""Non-Hispanic""}","","exit_survey","","","","","","","","","","","","","","","","Well, if we both could see it then I picked that one.  I tried to discern a pattern but I'm not sure how successful I was in doing so.","53","Non-Hispanic","Female","White","0.6597222222222222","0.6597222222222222"
