"success","timeout","failed_images","failed_audio","failed_video","trial_type","trial_index","time_elapsed","internal_node_id","prolific_id","prolific_study_id","prolific_session_id","rt","stimulus","response","view_history","trial","character_choice","stimulus_dict","accuracy","correct_response","ball_pos","ego_ball_visible","ego_can_infer","alter_ball_visible","alter_can_infer","collective_ball_visible","collective_can_infer","search_locations","alter_occluders","ego_occluders","accuracy_bool","feedback","age","ethnicity","gender","race","overall_accuracy","bonus"
"true","false","[]","[]","[]","preload","0","1099","0.0-0.0","62c2e95abeb001900b8ab0cb","665500ab8938657b03fbdba8","66579291476020bd2f6040ac","","","","","","","","","","","","","","","","","","","","","","","","","","",""
"true","","","","","fullscreen","1","33673","0.0-1.0","62c2e95abeb001900b8ab0cb","665500ab8938657b03fbdba8","66579291476020bd2f6040ac","","","","","","","","","","","","","","","","","","","","","","","","","","",""
"","","","","","html-button-response","2","55736","0.0-2.0","62c2e95abeb001900b8ab0cb","665500ab8938657b03fbdba8","66579291476020bd2f6040ac","22061","<p><b>Consent Form</b></p> <div style=""text-align:left;background-color:lightgrey; padding:20px; max-width:900px;""><p>Please consider this information carefully before deciding whether to participate in this research.</p> <p>The purpose of this research is to examine which factors influence social judgment and decision-making. You will be asked to make judgements about individuals and actions in social scenarios. We are simply interested in your judgement. The study will take less than 1 hour to complete, and you will receive less than $20 on Prolific. Your compensation and time commitment are specified in the study description. There are no anticipated risks associated with participating in this study. The effects of participating should be comparable to those you would ordinarily experience from viewing a computer monitor and using a mouse or keyboard for a similar amount of time. At the end of the study, we will provide an explanation of the questions that motivate this line of research and will describe the potential implications. </p><p> Your participation in this study is completely voluntary and you may refuse to participate or you may choose to withdraw at any time without penalty or loss of benefits to you which are otherwise entitled. Your participation in this study will remain confidential. No personally identifiable information will be associated with your data. Also, all analyses of the data will be averaged across all the participants, so your individual responses will never be specifically analyzed. </p><p> If you have questions or concerns about your participation or payment, or want to request a summary of research findings, please contact Dr. Jonathan Phillips at Jonathan.S.Phillips@dartmouth.edu. </p><p> Please save a copy of this form for your records. </p><p><b>Agreement: </b>The nature and purpose of this research have been sufficiently explained and I agree to participate in this study. I understand that I am free to withdraw at any time without incurring any penalty. Please consent by clicking the button below to continue. Otherwise, please exit the study at any time. </p>","0","","","","","","","","","","","","","","","","","","","","","","","",""
"","","","","","instructions","3","812747","0.0-3.0-0.0","62c2e95abeb001900b8ab0cb","665500ab8938657b03fbdba8","66579291476020bd2f6040ac","757011","","","[{""page_index"":0,""viewing_time"":13718},{""page_index"":1,""viewing_time"":10618},{""page_index"":2,""viewing_time"":6020},{""page_index"":3,""viewing_time"":16725},{""page_index"":4,""viewing_time"":21944},{""page_index"":5,""viewing_time"":22674},{""page_index"":6,""viewing_time"":5550},{""page_index"":7,""viewing_time"":8957},{""page_index"":8,""viewing_time"":5282},{""page_index"":9,""viewing_time"":5091},{""page_index"":10,""viewing_time"":626545},{""page_index"":11,""viewing_time"":6316},{""page_index"":12,""viewing_time"":4780},{""page_index"":13,""viewing_time"":2789}]","intro","","","","","","","","","","","","","","","","","","","","","",""
"","","","","","image-keyboard-response","4","815700","0.0-3.0-1.0","62c2e95abeb001900b8ab0cb","665500ab8938657b03fbdba8","66579291476020bd2f6040ac","2952","stimuli/0110001.jpg","0","","prediction_practice","0","{""filepath"":""stimuli/0110001.jpg"",""ball_pos"":0,""ego_ball_visible"":true,""ego_can_infer"":true,""alter_ball_visible"":false,""alter_can_infer"":false,""collective_ball_visible"":false,""collective_can_infer"":false,""search_locations"":[1,0],""alter_occluders"":""110"",""ego_occluders"":""001""}","true","","","","","","","","","","","","","","","","","","",""
"","","","","","image-keyboard-response","5","818074","0.0-3.0-2.0","62c2e95abeb001900b8ab0cb","665500ab8938657b03fbdba8","66579291476020bd2f6040ac","2373","stimuli/01100010.jpg"," ","","practrice_feedback","1","","","","","","","","","","","","","","","","","","","","",""
"","","","","","image-keyboard-response","6","820136","0.0-3.0-3.0","62c2e95abeb001900b8ab0cb","665500ab8938657b03fbdba8","66579291476020bd2f6040ac","2060","stimuli/1111010.jpg","1","","prediction_practice","2","{""filepath"":""stimuli/1111010.jpg"",""ball_pos"":1,""ego_ball_visible"":false,""ego_can_infer"":true,""alter_ball_visible"":false,""alter_can_infer"":false,""collective_ball_visible"":false,""collective_can_infer"":false,""search_locations"":[0,2,1],""alter_occluders"":""111"",""ego_occluders"":""010""}","false","","","","","","","","","","","","","","","","","","",""
"","","","","","image-keyboard-response","7","821364","0.0-3.0-4.0","62c2e95abeb001900b8ab0cb","665500ab8938657b03fbdba8","66579291476020bd2f6040ac","1227","stimuli/11110102.jpg"," ","","practrice_feedback","0","","","","","","","","","","","","","","","","","","","","",""
"","","","","","image-keyboard-response","8","822889","0.0-3.0-5.0","62c2e95abeb001900b8ab0cb","665500ab8938657b03fbdba8","66579291476020bd2f6040ac","1523","stimuli/1111000.jpg","1","","prediction_practice","0","{""filepath"":""stimuli/1111000.jpg"",""ball_pos"":1,""ego_ball_visible"":true,""ego_can_infer"":true,""alter_ball_visible"":false,""alter_can_infer"":false,""collective_ball_visible"":false,""collective_can_infer"":false,""search_locations"":[2,1,0],""alter_occluders"":""111"",""ego_occluders"":""000""}","false","","","","","","","","","","","","","","","","","","",""
"","","","","","image-keyboard-response","9","824017","0.0-3.0-6.0","62c2e95abeb001900b8ab0cb","665500ab8938657b03fbdba8","66579291476020bd2f6040ac","1127","stimuli/11110000.jpg"," ","","practrice_feedback","2","","","","","","","","","","","","","","","","","","","","",""
"","","","","","image-keyboard-response","10","826509","0.0-3.0-7.0","62c2e95abeb001900b8ab0cb","665500ab8938657b03fbdba8","66579291476020bd2f6040ac","2491","stimuli/1010110.jpg","0","","prediction_practice","1","{""filepath"":""stimuli/1010110.jpg"",""ball_pos"":1,""ego_ball_visible"":false,""ego_can_infer"":false,""alter_ball_visible"":false,""alter_can_infer"":true,""collective_ball_visible"":false,""collective_can_infer"":false,""search_locations"":[1],""alter_occluders"":""010"",""ego_occluders"":""110""}","false","","","","","","","","","","","","","","","","","","",""
"","","","","","image-keyboard-response","11","827478","0.0-3.0-8.0","62c2e95abeb001900b8ab0cb","665500ab8938657b03fbdba8","66579291476020bd2f6040ac","967","stimuli/10101101.jpg"," ","","practrice_feedback","1","","","","","","","","","","","","","","","","","","","","",""
"","","","","","image-keyboard-response","12","828687","0.0-3.0-9.0","62c2e95abeb001900b8ab0cb","665500ab8938657b03fbdba8","66579291476020bd2f6040ac","1208","stimuli/1100001.jpg","1","","prediction_practice","1","{""filepath"":""stimuli/1100001.jpg"",""ball_pos"":1,""ego_ball_visible"":true,""ego_can_infer"":true,""alter_ball_visible"":true,""alter_can_infer"":true,""collective_ball_visible"":true,""collective_can_infer"":true,""search_locations"":[1],""alter_occluders"":""100"",""ego_occluders"":""001""}","true","","","","","","","","","","","","","","","","","","",""
"","","","","","image-keyboard-response","13","829679","0.0-3.0-10.0","62c2e95abeb001900b8ab0cb","665500ab8938657b03fbdba8","66579291476020bd2f6040ac","990","stimuli/11000011.jpg"," ","","practrice_feedback","1","","","","","","","","","","","","","","","","","","","","",""
"","","","","","image-keyboard-response","14","833010","0.0-3.0-11.0","62c2e95abeb001900b8ab0cb","665500ab8938657b03fbdba8","66579291476020bd2f6040ac","3330","stimuli/1011010.jpg","1","","prediction_practice","2","{""filepath"":""stimuli/1011010.jpg"",""ball_pos"":1,""ego_ball_visible"":false,""ego_can_infer"":true,""alter_ball_visible"":false,""alter_can_infer"":false,""collective_ball_visible"":false,""collective_can_infer"":false,""search_locations"":[1,2],""alter_occluders"":""011"",""ego_occluders"":""010""}","false","","","","","","","","","","","","","","","","","","",""
"","","","","","image-keyboard-response","15","833988","0.0-3.0-12.0","62c2e95abeb001900b8ab0cb","665500ab8938657b03fbdba8","66579291476020bd2f6040ac","977","stimuli/10110102.jpg"," ","","practrice_feedback","1","","","","","","","","","","","","","","","","","","","","",""
"","","","","","image-keyboard-response","16","835812","0.0-3.0-13.0","62c2e95abeb001900b8ab0cb","665500ab8938657b03fbdba8","66579291476020bd2f6040ac","1823","stimuli/2001110.jpg","2","","prediction_practice","2","{""filepath"":""stimuli/2001110.jpg"",""ball_pos"":2,""ego_ball_visible"":true,""ego_can_infer"":true,""alter_ball_visible"":false,""alter_can_infer"":true,""collective_ball_visible"":false,""collective_can_infer"":true,""search_locations"":[2],""alter_occluders"":""001"",""ego_occluders"":""110""}","true","","","","","","","","","","","","","","","","","","",""
"","","","","","image-keyboard-response","17","836603","0.0-3.0-14.0","62c2e95abeb001900b8ab0cb","665500ab8938657b03fbdba8","66579291476020bd2f6040ac","790","stimuli/20011102.jpg"," ","","practrice_feedback","2","","","","","","","","","","","","","","","","","","","","",""
"","","","","","image-keyboard-response","18","838265","0.0-3.0-15.0","62c2e95abeb001900b8ab0cb","665500ab8938657b03fbdba8","66579291476020bd2f6040ac","1660","stimuli/0101000.jpg","0","","prediction_practice","2","{""filepath"":""stimuli/0101000.jpg"",""ball_pos"":0,""ego_ball_visible"":true,""ego_can_infer"":true,""alter_ball_visible"":false,""alter_can_infer"":false,""collective_ball_visible"":false,""collective_can_infer"":false,""search_locations"":[0,2],""alter_occluders"":""101"",""ego_occluders"":""000""}","false","","","","","","","","","","","","","","","","","","",""
"","","","","","image-keyboard-response","19","839020","0.0-3.0-16.0","62c2e95abeb001900b8ab0cb","665500ab8938657b03fbdba8","66579291476020bd2f6040ac","754","stimuli/01010002.jpg"," ","","practrice_feedback","0","","","","","","","","","","","","","","","","","","","","",""
"","","","","","image-keyboard-response","20","840603","0.0-3.0-17.0","62c2e95abeb001900b8ab0cb","665500ab8938657b03fbdba8","66579291476020bd2f6040ac","1582","stimuli/2101101.jpg","2","","prediction_practice","2","{""filepath"":""stimuli/2101101.jpg"",""ball_pos"":2,""ego_ball_visible"":false,""ego_can_infer"":false,""alter_ball_visible"":false,""alter_can_infer"":false,""collective_ball_visible"":false,""collective_can_infer"":false,""search_locations"":[0,2],""alter_occluders"":""101"",""ego_occluders"":""101""}","true","","","","","","","","","","","","","","","","","","",""
"","","","","","image-keyboard-response","21","841478","0.0-3.0-18.0","62c2e95abeb001900b8ab0cb","665500ab8938657b03fbdba8","66579291476020bd2f6040ac","874","stimuli/21011012.jpg"," ","","practrice_feedback","0","","","","","","","","","","","","","","","","","","","","",""
"","","","","","image-keyboard-response","22","843009","0.0-3.0-19.0","62c2e95abeb001900b8ab0cb","665500ab8938657b03fbdba8","66579291476020bd2f6040ac","1529","stimuli/2011101.jpg","0","","prediction_practice","2","{""filepath"":""stimuli/2011101.jpg"",""ball_pos"":2,""ego_ball_visible"":false,""ego_can_infer"":false,""alter_ball_visible"":false,""alter_can_infer"":false,""collective_ball_visible"":false,""collective_can_infer"":false,""search_locations"":[2,1],""alter_occluders"":""011"",""ego_occluders"":""101""}","false","","","","","","","","","","","","","","","","","","",""
"","","","","","image-keyboard-response","23","843890","0.0-3.0-20.0","62c2e95abeb001900b8ab0cb","665500ab8938657b03fbdba8","66579291476020bd2f6040ac","880","stimuli/20111012.jpg"," ","","practrice_feedback","2","","","","","","","","","","","","","","","","","","","","",""
"","","","","","html-button-response","24","851027","0.0-3.0-21.0","62c2e95abeb001900b8ab0cb","665500ab8938657b03fbdba8","66579291476020bd2f6040ac","7137","Now that you've had some practice, you'll be tested with a couple of easy trials. If you correctly predict Sam's choice, you'll move on to complete the experiment!","0","","","","","","","","","","","","","","","","","","","","","","","",""
"","","","","","image-keyboard-response","25","851997","0.0-3.0-22.0-0.0","62c2e95abeb001900b8ab0cb","665500ab8938657b03fbdba8","66579291476020bd2f6040ac","968","stimuli/0000011.jpg","arrowleft","","comprehension_quiz","","","true","arrowleft","","","","","","","","","","","","","","","","","",""
"","","","","","image-keyboard-response","26","852837","0.0-3.0-22.0-1.0","62c2e95abeb001900b8ab0cb","665500ab8938657b03fbdba8","66579291476020bd2f6040ac","838","stimuli/00000110.jpg"," ","","comprehension_quiz","","","true"," ","","","","","","","","","","","","","","","","","",""
"","","","","","image-keyboard-response","27","854354","0.0-3.0-22.0-2.0","62c2e95abeb001900b8ab0cb","665500ab8938657b03fbdba8","66579291476020bd2f6040ac","1515","stimuli/1010010.jpg","arrowdown","","comprehension_quiz","","","true","arrowdown","","","","","","","","","","","","","","","","","",""
"","","","","","image-keyboard-response","28","855810","0.0-3.0-22.0-3.0","62c2e95abeb001900b8ab0cb","665500ab8938657b03fbdba8","66579291476020bd2f6040ac","1455","stimuli/10100101.jpg"," ","","comprehension_quiz","","","true"," ","","","","","","","","","","","","","","","","","",""
"","","","","","html-button-response","29","858291","0.0-4.0","62c2e95abeb001900b8ab0cb","665500ab8938657b03fbdba8","66579291476020bd2f6040ac","2479","The experiment will now begin.","0","","","","","","","","","","","","","","","","","","","","","","","",""
"","","","","","image-keyboard-response","30","860281","0.0-5.0","62c2e95abeb001900b8ab0cb","665500ab8938657b03fbdba8","66579291476020bd2f6040ac","1990","stimuli/2111100.jpg","2","","prediction_trial","2","","true","","2","true","true","false","false","false","false","[2,0,1]","111","100","1","","","","","","",""
"","","","","","image-keyboard-response","31","861802","0.0-6.0","62c2e95abeb001900b8ab0cb","665500ab8938657b03fbdba8","66579291476020bd2f6040ac","1520","stimuli/21111002.jpg"," ","","feedback_trial","2","","","","","","","","","","","","","","","","","","","","",""
"","","","","","image-keyboard-response","32","864326","0.0-7.0","62c2e95abeb001900b8ab0cb","665500ab8938657b03fbdba8","66579291476020bd2f6040ac","2522","stimuli/2111010.jpg","2","","prediction_trial","2","","true","","2","true","true","false","false","false","false","[1,2,0]","111","010","1","","","","","","",""
"","","","","","image-keyboard-response","33","865175","0.0-8.0","62c2e95abeb001900b8ab0cb","665500ab8938657b03fbdba8","66579291476020bd2f6040ac","848","stimuli/21110102.jpg"," ","","feedback_trial","1","","","","","","","","","","","","","","","","","","","","",""
"","","","","","image-keyboard-response","34","866954","0.0-9.0","62c2e95abeb001900b8ab0cb","665500ab8938657b03fbdba8","66579291476020bd2f6040ac","1778","stimuli/2000001.jpg","2","","prediction_trial","2","","true","","2","false","true","true","true","false","true","[2]","000","001","1","","","","","","",""
"","","","","","image-keyboard-response","35","867588","0.0-10.0","62c2e95abeb001900b8ab0cb","665500ab8938657b03fbdba8","66579291476020bd2f6040ac","633","stimuli/20000012.jpg"," ","","feedback_trial","2","","","","","","","","","","","","","","","","","","","","",""
"","","","","","image-keyboard-response","36","869151","0.0-11.0","62c2e95abeb001900b8ab0cb","665500ab8938657b03fbdba8","66579291476020bd2f6040ac","1561","stimuli/0001110.jpg","1","","prediction_trial","0","","false","","0","false","false","true","true","false","false","[0]","001","110","0","","","","","","",""
"","","","","","image-keyboard-response","37","869983","0.0-12.0","62c2e95abeb001900b8ab0cb","665500ab8938657b03fbdba8","66579291476020bd2f6040ac","831","stimuli/00011100.jpg"," ","","feedback_trial","0","","","","","","","","","","","","","","","","","","","","",""
"","","","","","image-keyboard-response","38","871226","0.0-13.0","62c2e95abeb001900b8ab0cb","665500ab8938657b03fbdba8","66579291476020bd2f6040ac","1241","stimuli/2100000.jpg","2","","prediction_trial","2","","true","","2","true","true","true","true","true","true","[2]","100","000","1","","","","","","",""
"","","","","","image-keyboard-response","39","871857","0.0-14.0","62c2e95abeb001900b8ab0cb","665500ab8938657b03fbdba8","66579291476020bd2f6040ac","631","stimuli/21000002.jpg"," ","","feedback_trial","2","","","","","","","","","","","","","","","","","","","","",""
"","","","","","image-keyboard-response","40","873054","0.0-15.0","62c2e95abeb001900b8ab0cb","665500ab8938657b03fbdba8","66579291476020bd2f6040ac","1196","stimuli/0100011.jpg","0","","prediction_trial","0","","true","","0","true","true","false","true","false","true","[0]","100","011","1","","","","","","",""
"","","","","","image-keyboard-response","41","873655","0.0-16.0","62c2e95abeb001900b8ab0cb","665500ab8938657b03fbdba8","66579291476020bd2f6040ac","599","stimuli/01000110.jpg"," ","","feedback_trial","0","","","","","","","","","","","","","","","","","","","","",""
"","","","","","image-keyboard-response","42","874997","0.0-17.0","62c2e95abeb001900b8ab0cb","665500ab8938657b03fbdba8","66579291476020bd2f6040ac","1341","stimuli/2111101.jpg","0","","prediction_trial","1","","false","","2","false","false","false","false","false","false","[1,0,2]","111","101","0","","","","","","",""
"","","","","","image-keyboard-response","43","875702","0.0-18.0","62c2e95abeb001900b8ab0cb","665500ab8938657b03fbdba8","66579291476020bd2f6040ac","704","stimuli/21111011.jpg"," ","","feedback_trial","1","","","","","","","","","","","","","","","","","","","","",""
"","","","","","image-keyboard-response","44","876751","0.0-19.0","62c2e95abeb001900b8ab0cb","665500ab8938657b03fbdba8","66579291476020bd2f6040ac","1047","stimuli/0110010.jpg","0","","prediction_trial","0","","true","","0","true","true","false","false","false","false","[1,0]","110","010","1","","","","","","",""
"","","","","","image-keyboard-response","45","877410","0.0-20.0","62c2e95abeb001900b8ab0cb","665500ab8938657b03fbdba8","66579291476020bd2f6040ac","659","stimuli/01100100.jpg"," ","","feedback_trial","1","","","","","","","","","","","","","","","","","","","","",""
"","","","","","image-keyboard-response","46","878559","0.0-21.0","62c2e95abeb001900b8ab0cb","665500ab8938657b03fbdba8","66579291476020bd2f6040ac","1147","stimuli/0100101.jpg","2","","prediction_trial","0","","false","","0","false","false","false","true","false","false","[0]","100","101","0","","","","","","",""
"","","","","","image-keyboard-response","47","879215","0.0-22.0","62c2e95abeb001900b8ab0cb","665500ab8938657b03fbdba8","66579291476020bd2f6040ac","655","stimuli/01001010.jpg"," ","","feedback_trial","0","","","","","","","","","","","","","","","","","","","","",""
"","","","","","image-keyboard-response","48","880142","0.0-23.0","62c2e95abeb001900b8ab0cb","665500ab8938657b03fbdba8","66579291476020bd2f6040ac","926","stimuli/2110100.jpg","2","","prediction_trial","2","","true","","2","true","true","true","true","true","true","[2]","110","100","1","","","","","","",""
"","","","","","image-keyboard-response","49","880704","0.0-24.0","62c2e95abeb001900b8ab0cb","665500ab8938657b03fbdba8","66579291476020bd2f6040ac","560","stimuli/21101002.jpg"," ","","feedback_trial","2","","","","","","","","","","","","","","","","","","","","",""
"","","","","","image-keyboard-response","50","881545","0.0-25.0","62c2e95abeb001900b8ab0cb","665500ab8938657b03fbdba8","66579291476020bd2f6040ac","840","stimuli/2101000.jpg","2","","prediction_trial","0","","false","","2","true","true","false","false","false","false","[0,2]","101","000","0","","","","","","",""
"","","","","","image-keyboard-response","51","882061","0.0-26.0","62c2e95abeb001900b8ab0cb","665500ab8938657b03fbdba8","66579291476020bd2f6040ac","515","stimuli/21010000.jpg"," ","","feedback_trial","0","","","","","","","","","","","","","","","","","","","","",""
"","","","","","image-keyboard-response","52","882996","0.0-27.0","62c2e95abeb001900b8ab0cb","665500ab8938657b03fbdba8","66579291476020bd2f6040ac","935","stimuli/1100000.jpg","1","","prediction_trial","1","","true","","1","true","true","true","true","true","true","[1]","100","000","1","","","","","","",""
"","","","","","image-keyboard-response","53","883586","0.0-28.0","62c2e95abeb001900b8ab0cb","665500ab8938657b03fbdba8","66579291476020bd2f6040ac","590","stimuli/11000001.jpg"," ","","feedback_trial","1","","","","","","","","","","","","","","","","","","","","",""
"","","","","","image-keyboard-response","54","885511","0.0-29.0","62c2e95abeb001900b8ab0cb","665500ab8938657b03fbdba8","66579291476020bd2f6040ac","1923","stimuli/1111101.jpg","1","","prediction_trial","0","","false","","1","true","true","false","false","false","false","[0,2,1]","111","101","0","","","","","","",""
"","","","","","image-keyboard-response","55","886164","0.0-30.0","62c2e95abeb001900b8ab0cb","665500ab8938657b03fbdba8","66579291476020bd2f6040ac","652","stimuli/11111010.jpg"," ","","feedback_trial","0","","","","","","","","","","","","","","","","","","","","",""
"","","","","","image-keyboard-response","56","887324","0.0-31.0","62c2e95abeb001900b8ab0cb","665500ab8938657b03fbdba8","66579291476020bd2f6040ac","1158","stimuli/0100100.jpg","0","","prediction_trial","0","","true","","0","false","true","false","true","false","true","[0]","100","100","1","","","","","","",""
"","","","","","image-keyboard-response","57","888011","0.0-32.0","62c2e95abeb001900b8ab0cb","665500ab8938657b03fbdba8","66579291476020bd2f6040ac","686","stimuli/01001000.jpg"," ","","feedback_trial","0","","","","","","","","","","","","","","","","","","","","",""
"","","","","","image-keyboard-response","58","891570","0.0-33.0","62c2e95abeb001900b8ab0cb","665500ab8938657b03fbdba8","66579291476020bd2f6040ac","3558","stimuli/2100101.jpg","2","","prediction_trial","2","","true","","2","false","false","true","true","false","false","[2]","100","101","1","","","","","","",""
"","","","","","image-keyboard-response","59","892272","0.0-34.0","62c2e95abeb001900b8ab0cb","665500ab8938657b03fbdba8","66579291476020bd2f6040ac","701","stimuli/21001012.jpg"," ","","feedback_trial","2","","","","","","","","","","","","","","","","","","","","",""
"","","","","","image-keyboard-response","60","894545","0.0-35.0","62c2e95abeb001900b8ab0cb","665500ab8938657b03fbdba8","66579291476020bd2f6040ac","2271","stimuli/2101011.jpg","1","","prediction_trial","2","","false","","2","false","false","false","false","false","false","[0,2]","101","011","0","","","","","","",""
"","","","","","image-keyboard-response","61","895264","0.0-36.0","62c2e95abeb001900b8ab0cb","665500ab8938657b03fbdba8","66579291476020bd2f6040ac","719","stimuli/21010112.jpg"," ","","feedback_trial","0","","","","","","","","","","","","","","","","","","","","",""
"","","","","","image-keyboard-response","62","896725","0.0-37.0","62c2e95abeb001900b8ab0cb","665500ab8938657b03fbdba8","66579291476020bd2f6040ac","1460","stimuli/0011110.jpg","1","","prediction_trial","0","","false","","0","false","false","true","true","false","false","[0]","011","110","0","","","","","","",""
"","","","","","image-keyboard-response","63","897346","0.0-38.0","62c2e95abeb001900b8ab0cb","665500ab8938657b03fbdba8","66579291476020bd2f6040ac","620","stimuli/00111100.jpg"," ","","feedback_trial","0","","","","","","","","","","","","","","","","","","","","",""
"","","","","","image-keyboard-response","64","898445","0.0-39.0","62c2e95abeb001900b8ab0cb","665500ab8938657b03fbdba8","66579291476020bd2f6040ac","1098","stimuli/0100000.jpg","0","","prediction_trial","0","","true","","0","true","true","false","true","false","true","[0]","100","000","1","","","","","","",""
"","","","","","image-keyboard-response","65","899133","0.0-40.0","62c2e95abeb001900b8ab0cb","665500ab8938657b03fbdba8","66579291476020bd2f6040ac","686","stimuli/01000000.jpg"," ","","feedback_trial","0","","","","","","","","","","","","","","","","","","","","",""
"","","","","","image-keyboard-response","66","900260","0.0-41.0","62c2e95abeb001900b8ab0cb","665500ab8938657b03fbdba8","66579291476020bd2f6040ac","1126","stimuli/0011000.jpg","0","","prediction_trial","0","","true","","0","true","true","true","true","true","true","[0]","011","000","1","","","","","","",""
"","","","","","image-keyboard-response","67","901155","0.0-42.0","62c2e95abeb001900b8ab0cb","665500ab8938657b03fbdba8","66579291476020bd2f6040ac","895","stimuli/00110000.jpg"," ","","feedback_trial","0","","","","","","","","","","","","","","","","","","","","",""
"","","","","","image-keyboard-response","68","903105","0.0-43.0","62c2e95abeb001900b8ab0cb","665500ab8938657b03fbdba8","66579291476020bd2f6040ac","1949","stimuli/2011010.jpg","2","","prediction_trial","1","","false","","2","true","true","false","false","false","false","[2,1]","011","010","0","","","","","","",""
"","","","","","image-keyboard-response","69","904085","0.0-44.0","62c2e95abeb001900b8ab0cb","665500ab8938657b03fbdba8","66579291476020bd2f6040ac","978","stimuli/20110101.jpg"," ","","feedback_trial","2","","","","","","","","","","","","","","","","","","","","",""
"","","","","","image-keyboard-response","70","905787","0.0-45.0","62c2e95abeb001900b8ab0cb","665500ab8938657b03fbdba8","66579291476020bd2f6040ac","1701","stimuli/2100111.jpg","1","","prediction_trial","2","","false","","2","false","false","true","true","false","false","[2]","100","111","0","","","","","","",""
"","","","","","image-keyboard-response","71","906697","0.0-46.0","62c2e95abeb001900b8ab0cb","665500ab8938657b03fbdba8","66579291476020bd2f6040ac","909","stimuli/21001112.jpg"," ","","feedback_trial","2","","","","","","","","","","","","","","","","","","","","",""
"","","","","","image-keyboard-response","72","908827","0.0-47.0","62c2e95abeb001900b8ab0cb","665500ab8938657b03fbdba8","66579291476020bd2f6040ac","2129","stimuli/2010101.jpg","0","","prediction_trial","2","","false","","2","false","false","true","true","false","false","[2]","010","101","0","","","","","","",""
"","","","","","image-keyboard-response","73","909646","0.0-48.0","62c2e95abeb001900b8ab0cb","665500ab8938657b03fbdba8","66579291476020bd2f6040ac","818","stimuli/20101012.jpg"," ","","feedback_trial","2","","","","","","","","","","","","","","","","","","","","",""
"","","","","","image-keyboard-response","74","910851","0.0-49.0","62c2e95abeb001900b8ab0cb","665500ab8938657b03fbdba8","66579291476020bd2f6040ac","1203","stimuli/0001010.jpg","0","","prediction_trial","0","","true","","0","true","true","true","true","true","true","[0]","001","010","1","","","","","","",""
"","","","","","image-keyboard-response","75","911498","0.0-50.0","62c2e95abeb001900b8ab0cb","665500ab8938657b03fbdba8","66579291476020bd2f6040ac","646","stimuli/00010100.jpg"," ","","feedback_trial","0","","","","","","","","","","","","","","","","","","","","",""
"","","","","","image-keyboard-response","76","912751","0.0-51.0","62c2e95abeb001900b8ab0cb","665500ab8938657b03fbdba8","66579291476020bd2f6040ac","1252","stimuli/1110011.jpg","2","","prediction_trial","1","","false","","1","false","false","false","false","false","false","[1,0]","110","011","0","","","","","","",""
"","","","","","image-keyboard-response","77","913389","0.0-52.0","62c2e95abeb001900b8ab0cb","665500ab8938657b03fbdba8","66579291476020bd2f6040ac","637","stimuli/11100111.jpg"," ","","feedback_trial","1","","","","","","","","","","","","","","","","","","","","",""
"","","","","","image-keyboard-response","78","915307","0.0-53.0","62c2e95abeb001900b8ab0cb","665500ab8938657b03fbdba8","66579291476020bd2f6040ac","1917","stimuli/1001111.jpg","1","","prediction_trial","1","","true","","1","false","false","true","true","false","false","[1]","001","111","1","","","","","","",""
"","","","","","image-keyboard-response","79","916121","0.0-54.0","62c2e95abeb001900b8ab0cb","665500ab8938657b03fbdba8","66579291476020bd2f6040ac","812","stimuli/10011111.jpg"," ","","feedback_trial","1","","","","","","","","","","","","","","","","","","","","",""
"","","","","","image-keyboard-response","80","918112","0.0-55.0","62c2e95abeb001900b8ab0cb","665500ab8938657b03fbdba8","66579291476020bd2f6040ac","1989","stimuli/1011011.jpg","2","","prediction_trial","1","","false","","1","false","false","false","false","false","false","[2,1]","011","011","0","","","","","","",""
"","","","","","image-keyboard-response","81","918777","0.0-56.0","62c2e95abeb001900b8ab0cb","665500ab8938657b03fbdba8","66579291476020bd2f6040ac","664","stimuli/10110111.jpg"," ","","feedback_trial","2","","","","","","","","","","","","","","","","","","","","",""
"","","","","","image-keyboard-response","82","919846","0.0-57.0","62c2e95abeb001900b8ab0cb","665500ab8938657b03fbdba8","66579291476020bd2f6040ac","1068","stimuli/1110101.jpg","1","","prediction_trial","1","","true","","1","true","true","false","false","false","false","[1,0]","110","101","1","","","","","","",""
"","","","","","image-keyboard-response","83","920488","0.0-58.0","62c2e95abeb001900b8ab0cb","665500ab8938657b03fbdba8","66579291476020bd2f6040ac","642","stimuli/11101011.jpg"," ","","feedback_trial","1","","","","","","","","","","","","","","","","","","","","",""
"","","","","","image-keyboard-response","84","921706","0.0-59.0","62c2e95abeb001900b8ab0cb","665500ab8938657b03fbdba8","66579291476020bd2f6040ac","1217","stimuli/0010000.jpg","0","","prediction_trial","0","","true","","0","true","true","true","true","true","true","[0]","010","000","1","","","","","","",""
"","","","","","image-keyboard-response","85","922631","0.0-60.0","62c2e95abeb001900b8ab0cb","665500ab8938657b03fbdba8","66579291476020bd2f6040ac","924","stimuli/00100000.jpg"," ","","feedback_trial","0","","","","","","","","","","","","","","","","","","","","",""
"","","","","","image-keyboard-response","86","924096","0.0-61.0","62c2e95abeb001900b8ab0cb","665500ab8938657b03fbdba8","66579291476020bd2f6040ac","1463","stimuli/0111011.jpg","0","","prediction_trial","1","","false","","0","true","true","false","false","false","false","[1,2,0]","111","011","0","","","","","","",""
"","","","","","image-keyboard-response","87","924726","0.0-62.0","62c2e95abeb001900b8ab0cb","665500ab8938657b03fbdba8","66579291476020bd2f6040ac","629","stimuli/01110111.jpg"," ","","feedback_trial","1","","","","","","","","","","","","","","","","","","","","",""
"","","","","","image-keyboard-response","88","926044","0.0-63.0","62c2e95abeb001900b8ab0cb","665500ab8938657b03fbdba8","66579291476020bd2f6040ac","1317","stimuli/2001000.jpg","2","","prediction_trial","2","","true","","2","true","true","false","true","false","true","[2]","001","000","1","","","","","","",""
"","","","","","image-keyboard-response","89","926771","0.0-64.0","62c2e95abeb001900b8ab0cb","665500ab8938657b03fbdba8","66579291476020bd2f6040ac","725","stimuli/20010002.jpg"," ","","feedback_trial","2","","","","","","","","","","","","","","","","","","","","",""
"","","","","","image-keyboard-response","90","928584","0.0-65.0","62c2e95abeb001900b8ab0cb","665500ab8938657b03fbdba8","66579291476020bd2f6040ac","1813","stimuli/2001100.jpg","2","","prediction_trial","2","","true","","2","true","true","false","true","false","true","[2]","001","100","1","","","","","","",""
"","","","","","image-keyboard-response","91","929292","0.0-66.0","62c2e95abeb001900b8ab0cb","665500ab8938657b03fbdba8","66579291476020bd2f6040ac","706","stimuli/20011002.jpg"," ","","feedback_trial","2","","","","","","","","","","","","","","","","","","","","",""
"","","","","","image-keyboard-response","92","931430","0.0-67.0","62c2e95abeb001900b8ab0cb","665500ab8938657b03fbdba8","66579291476020bd2f6040ac","2137","stimuli/2111011.jpg","1","","prediction_trial","0","","false","","2","false","false","false","false","false","false","[2,1,0]","111","011","0","","","","","","",""
"","","","","","image-keyboard-response","93","932052","0.0-68.0","62c2e95abeb001900b8ab0cb","665500ab8938657b03fbdba8","66579291476020bd2f6040ac","621","stimuli/21110110.jpg"," ","","feedback_trial","2","","","","","","","","","","","","","","","","","","","","",""
"","","","","","image-keyboard-response","94","933692","0.0-69.0","62c2e95abeb001900b8ab0cb","665500ab8938657b03fbdba8","66579291476020bd2f6040ac","1638","stimuli/0101011.jpg","0","","prediction_trial","0","","true","","0","true","true","false","false","false","false","[0,2]","101","011","1","","","","","","",""
"","","","","","image-keyboard-response","95","934752","0.0-70.0","62c2e95abeb001900b8ab0cb","665500ab8938657b03fbdba8","66579291476020bd2f6040ac","1059","stimuli/01010110.jpg"," ","","feedback_trial","0","","","","","","","","","","","","","","","","","","","","",""
"","","","","","image-keyboard-response","96","936689","0.0-71.0","62c2e95abeb001900b8ab0cb","665500ab8938657b03fbdba8","66579291476020bd2f6040ac","1936","stimuli/1111011.jpg","2","","prediction_trial","0","","false","","1","false","false","false","false","false","false","[2,0,1]","111","011","0","","","","","","",""
"","","","","","image-keyboard-response","97","937344","0.0-72.0","62c2e95abeb001900b8ab0cb","665500ab8938657b03fbdba8","66579291476020bd2f6040ac","654","stimuli/11110110.jpg"," ","","feedback_trial","2","","","","","","","","","","","","","","","","","","","","",""
"","","","","","image-keyboard-response","98","939187","0.0-73.0","62c2e95abeb001900b8ab0cb","665500ab8938657b03fbdba8","66579291476020bd2f6040ac","1841","stimuli/2110000.jpg","2","","prediction_trial","2","","true","","2","true","true","true","true","true","true","[2]","110","000","1","","","","","","",""
"","","","","","image-keyboard-response","99","939930","0.0-74.0","62c2e95abeb001900b8ab0cb","665500ab8938657b03fbdba8","66579291476020bd2f6040ac","742","stimuli/21100002.jpg"," ","","feedback_trial","2","","","","","","","","","","","","","","","","","","","","",""
"","","","","","image-keyboard-response","100","941989","0.0-75.0","62c2e95abeb001900b8ab0cb","665500ab8938657b03fbdba8","66579291476020bd2f6040ac","2057","stimuli/2101100.jpg","2","","prediction_trial","0","","false","","2","true","true","false","false","false","false","[0,2]","101","100","0","","","","","","",""
"","","","","","image-keyboard-response","101","942562","0.0-76.0","62c2e95abeb001900b8ab0cb","665500ab8938657b03fbdba8","66579291476020bd2f6040ac","572","stimuli/21011000.jpg"," ","","feedback_trial","0","","","","","","","","","","","","","","","","","","","","",""
"","","","","","image-keyboard-response","102","944151","0.0-77.0","62c2e95abeb001900b8ab0cb","665500ab8938657b03fbdba8","66579291476020bd2f6040ac","1586","stimuli/0011001.jpg","0","","prediction_trial","0","","true","","0","true","true","true","true","true","true","[0]","011","001","1","","","","","","",""
"","","","","","image-keyboard-response","103","945182","0.0-78.0","62c2e95abeb001900b8ab0cb","665500ab8938657b03fbdba8","66579291476020bd2f6040ac","1030","stimuli/00110010.jpg"," ","","feedback_trial","0","","","","","","","","","","","","","","","","","","","","",""
"","","","","","image-keyboard-response","104","946690","0.0-79.0","62c2e95abeb001900b8ab0cb","665500ab8938657b03fbdba8","66579291476020bd2f6040ac","1506","stimuli/1010111.jpg","1","","prediction_trial","1","","true","","1","false","false","false","true","false","false","[1]","010","111","1","","","","","","",""
"","","","","","image-keyboard-response","105","947929","0.0-80.0","62c2e95abeb001900b8ab0cb","665500ab8938657b03fbdba8","66579291476020bd2f6040ac","1238","stimuli/10101111.jpg"," ","","feedback_trial","1","","","","","","","","","","","","","","","","","","","","",""
"","","","","","image-keyboard-response","106","949552","0.0-81.0","62c2e95abeb001900b8ab0cb","665500ab8938657b03fbdba8","66579291476020bd2f6040ac","1622","stimuli/1111001.jpg","1","","prediction_trial","0","","false","","1","true","true","false","false","false","false","[0,2,1]","111","001","0","","","","","","",""
"","","","","","image-keyboard-response","107","950395","0.0-82.0","62c2e95abeb001900b8ab0cb","665500ab8938657b03fbdba8","66579291476020bd2f6040ac","842","stimuli/11110010.jpg"," ","","feedback_trial","0","","","","","","","","","","","","","","","","","","","","",""
"","","","","","image-keyboard-response","108","951979","0.0-83.0","62c2e95abeb001900b8ab0cb","665500ab8938657b03fbdba8","66579291476020bd2f6040ac","1582","stimuli/2110111.jpg","2","","prediction_trial","2","","true","","2","false","false","true","true","false","false","[2]","110","111","1","","","","","","",""
"","","","","","image-keyboard-response","109","952906","0.0-84.0","62c2e95abeb001900b8ab0cb","665500ab8938657b03fbdba8","66579291476020bd2f6040ac","925","stimuli/21101112.jpg"," ","","feedback_trial","2","","","","","","","","","","","","","","","","","","","","",""
"","","","","","image-keyboard-response","110","954466","0.0-85.0","62c2e95abeb001900b8ab0cb","665500ab8938657b03fbdba8","66579291476020bd2f6040ac","1558","stimuli/0001101.jpg","0","","prediction_trial","0","","true","","0","false","false","true","true","false","false","[0]","001","101","1","","","","","","",""
"","","","","","image-keyboard-response","111","955158","0.0-86.0","62c2e95abeb001900b8ab0cb","665500ab8938657b03fbdba8","66579291476020bd2f6040ac","690","stimuli/00011010.jpg"," ","","feedback_trial","0","","","","","","","","","","","","","","","","","","","","",""
"","","","","","image-keyboard-response","112","956349","0.0-87.0","62c2e95abeb001900b8ab0cb","665500ab8938657b03fbdba8","66579291476020bd2f6040ac","1191","stimuli/2111000.jpg","2","","prediction_trial","0","","false","","2","true","true","false","false","false","false","[1,2,0]","111","000","0","","","","","","",""
"","","","","","image-keyboard-response","113","956991","0.0-88.0","62c2e95abeb001900b8ab0cb","665500ab8938657b03fbdba8","66579291476020bd2f6040ac","640","stimuli/21110000.jpg"," ","","feedback_trial","1","","","","","","","","","","","","","","","","","","","","",""
"","","","","","image-keyboard-response","114","958372","0.0-89.0","62c2e95abeb001900b8ab0cb","665500ab8938657b03fbdba8","66579291476020bd2f6040ac","1380","stimuli/2000111.jpg","1","","prediction_trial","2","","false","","2","false","false","true","true","false","false","[2]","000","111","0","","","","","","",""
"","","","","","image-keyboard-response","115","958978","0.0-90.0","62c2e95abeb001900b8ab0cb","665500ab8938657b03fbdba8","66579291476020bd2f6040ac","605","stimuli/20001112.jpg"," ","","feedback_trial","2","","","","","","","","","","","","","","","","","","","","",""
"","","","","","image-keyboard-response","116","959889","0.0-91.0","62c2e95abeb001900b8ab0cb","665500ab8938657b03fbdba8","66579291476020bd2f6040ac","909","stimuli/0101000.jpg","0","","prediction_trial","2","","false","","0","true","true","false","false","false","false","[0,2]","101","000","0","","","","","","",""
"","","","","","image-keyboard-response","117","960542","0.0-92.0","62c2e95abeb001900b8ab0cb","665500ab8938657b03fbdba8","66579291476020bd2f6040ac","651","stimuli/01010002.jpg"," ","","feedback_trial","0","","","","","","","","","","","","","","","","","","","","",""
"","","","","","image-keyboard-response","118","961655","0.0-93.0","62c2e95abeb001900b8ab0cb","665500ab8938657b03fbdba8","66579291476020bd2f6040ac","1112","stimuli/2001101.jpg","0","","prediction_trial","2","","false","","2","false","false","false","true","false","false","[2]","001","101","0","","","","","","",""
"","","","","","image-keyboard-response","119","962442","0.0-94.0","62c2e95abeb001900b8ab0cb","665500ab8938657b03fbdba8","66579291476020bd2f6040ac","786","stimuli/20011012.jpg"," ","","feedback_trial","2","","","","","","","","","","","","","","","","","","","","",""
"","","","","","image-keyboard-response","120","963536","0.0-95.0","62c2e95abeb001900b8ab0cb","665500ab8938657b03fbdba8","66579291476020bd2f6040ac","1091","stimuli/0111110.jpg","2","","prediction_trial","2","","true","","0","false","false","false","false","false","false","[2,1,0]","111","110","1","","","","","","",""
"","","","","","image-keyboard-response","121","964676","0.0-96.0","62c2e95abeb001900b8ab0cb","665500ab8938657b03fbdba8","66579291476020bd2f6040ac","1139","stimuli/01111102.jpg"," ","","feedback_trial","2","","","","","","","","","","","","","","","","","","","","",""
"","","","","","image-keyboard-response","122","965618","0.0-97.0","62c2e95abeb001900b8ab0cb","665500ab8938657b03fbdba8","66579291476020bd2f6040ac","940","stimuli/0110100.jpg","0","","prediction_trial","1","","false","","0","false","true","false","false","false","false","[0,1]","110","100","0","","","","","","",""
"","","","","","image-keyboard-response","123","966451","0.0-98.0","62c2e95abeb001900b8ab0cb","665500ab8938657b03fbdba8","66579291476020bd2f6040ac","832","stimuli/01101001.jpg"," ","","feedback_trial","0","","","","","","","","","","","","","","","","","","","","",""
"","","","","","image-keyboard-response","124","967436","0.0-99.0","62c2e95abeb001900b8ab0cb","665500ab8938657b03fbdba8","66579291476020bd2f6040ac","983","stimuli/2000000.jpg","2","","prediction_trial","2","","true","","2","true","true","true","true","true","true","[2]","000","000","1","","","","","","",""
"","","","","","image-keyboard-response","125","968087","0.0-100.0","62c2e95abeb001900b8ab0cb","665500ab8938657b03fbdba8","66579291476020bd2f6040ac","650","stimuli/20000002.jpg"," ","","feedback_trial","2","","","","","","","","","","","","","","","","","","","","",""
"","","","","","image-keyboard-response","126","969237","0.0-101.0","62c2e95abeb001900b8ab0cb","665500ab8938657b03fbdba8","66579291476020bd2f6040ac","1148","stimuli/1001100.jpg","1","","prediction_trial","1","","true","","1","true","true","true","true","true","true","[1]","001","100","1","","","","","","",""
"","","","","","image-keyboard-response","127","969695","0.0-102.0","62c2e95abeb001900b8ab0cb","665500ab8938657b03fbdba8","66579291476020bd2f6040ac","457","stimuli/10011001.jpg"," ","","feedback_trial","1","","","","","","","","","","","","","","","","","","","","",""
"","","","","","image-keyboard-response","128","974693","0.0-103.0","62c2e95abeb001900b8ab0cb","665500ab8938657b03fbdba8","66579291476020bd2f6040ac","4997","stimuli/1101000.jpg","1","","prediction_trial","1","","true","","1","true","true","true","true","true","true","[1]","101","000","1","","","","","","",""
"","","","","","image-keyboard-response","129","975759","0.0-104.0","62c2e95abeb001900b8ab0cb","665500ab8938657b03fbdba8","66579291476020bd2f6040ac","1065","stimuli/11010001.jpg"," ","","feedback_trial","1","","","","","","","","","","","","","","","","","","","","",""
"","","","","","image-keyboard-response","130","977214","0.0-105.0","62c2e95abeb001900b8ab0cb","665500ab8938657b03fbdba8","66579291476020bd2f6040ac","1454","stimuli/1100100.jpg","1","","prediction_trial","1","","true","","1","true","true","true","true","true","true","[1]","100","100","1","","","","","","",""
"","","","","","image-keyboard-response","131","977760","0.0-106.0","62c2e95abeb001900b8ab0cb","665500ab8938657b03fbdba8","66579291476020bd2f6040ac","544","stimuli/11001001.jpg"," ","","feedback_trial","1","","","","","","","","","","","","","","","","","","","","",""
"","","","","","image-keyboard-response","132","979070","0.0-107.0","62c2e95abeb001900b8ab0cb","665500ab8938657b03fbdba8","66579291476020bd2f6040ac","1309","stimuli/1000010.jpg","1","","prediction_trial","1","","true","","1","false","true","true","true","false","true","[1]","000","010","1","","","","","","",""
"","","","","","image-keyboard-response","133","979615","0.0-108.0","62c2e95abeb001900b8ab0cb","665500ab8938657b03fbdba8","66579291476020bd2f6040ac","544","stimuli/10000101.jpg"," ","","feedback_trial","1","","","","","","","","","","","","","","","","","","","","",""
"","","","","","image-keyboard-response","134","980733","0.0-109.0","62c2e95abeb001900b8ab0cb","665500ab8938657b03fbdba8","66579291476020bd2f6040ac","1117","stimuli/2100110.jpg","2","","prediction_trial","2","","true","","2","true","true","true","true","true","true","[2]","100","110","1","","","","","","",""
"","","","","","image-keyboard-response","135","981349","0.0-110.0","62c2e95abeb001900b8ab0cb","665500ab8938657b03fbdba8","66579291476020bd2f6040ac","615","stimuli/21001102.jpg"," ","","feedback_trial","2","","","","","","","","","","","","","","","","","","","","",""
"","","","","","image-keyboard-response","136","984599","0.0-111.0","62c2e95abeb001900b8ab0cb","665500ab8938657b03fbdba8","66579291476020bd2f6040ac","3249","stimuli/0110101.jpg","2","","prediction_trial","0","","false","","0","false","false","false","false","false","false","[0,1]","110","101","0","","","","","","",""
"","","","","","image-keyboard-response","137","993281","0.0-112.0","62c2e95abeb001900b8ab0cb","665500ab8938657b03fbdba8","66579291476020bd2f6040ac","8682","stimuli/01101010.jpg"," ","","feedback_trial","0","","","","","","","","","","","","","","","","","","","","",""
"","","","","","image-keyboard-response","138","994232","0.0-113.0","62c2e95abeb001900b8ab0cb","665500ab8938657b03fbdba8","66579291476020bd2f6040ac","949","stimuli/1000111.jpg","1","","prediction_trial","1","","true","","1","false","false","true","true","false","false","[1]","000","111","1","","","","","","",""
"","","","","","image-keyboard-response","139","994867","0.0-114.0","62c2e95abeb001900b8ab0cb","665500ab8938657b03fbdba8","66579291476020bd2f6040ac","635","stimuli/10001111.jpg"," ","","feedback_trial","1","","","","","","","","","","","","","","","","","","","","",""
"","","","","","image-keyboard-response","140","996148","0.0-115.0","62c2e95abeb001900b8ab0cb","665500ab8938657b03fbdba8","66579291476020bd2f6040ac","1279","stimuli/1010000.jpg","1","","prediction_trial","1","","true","","1","true","true","false","true","false","true","[1]","010","000","1","","","","","","",""
"","","","","","image-keyboard-response","141","996699","0.0-116.0","62c2e95abeb001900b8ab0cb","665500ab8938657b03fbdba8","66579291476020bd2f6040ac","550","stimuli/10100001.jpg"," ","","feedback_trial","1","","","","","","","","","","","","","","","","","","","","",""
"","","","","","image-keyboard-response","142","997881","0.0-117.0","62c2e95abeb001900b8ab0cb","665500ab8938657b03fbdba8","66579291476020bd2f6040ac","1181","stimuli/0000010.jpg","0","","prediction_trial","0","","true","","0","true","true","true","true","true","true","[0]","000","010","1","","","","","","",""
"","","","","","image-keyboard-response","143","998397","0.0-118.0","62c2e95abeb001900b8ab0cb","665500ab8938657b03fbdba8","66579291476020bd2f6040ac","514","stimuli/00000100.jpg"," ","","feedback_trial","0","","","","","","","","","","","","","","","","","","","","",""
"","","","","","image-keyboard-response","144","999489","0.0-119.0","62c2e95abeb001900b8ab0cb","665500ab8938657b03fbdba8","66579291476020bd2f6040ac","1091","stimuli/1111100.jpg","1","","prediction_trial","0","","false","","1","true","true","false","false","false","false","[1,2,0]","111","100","0","","","","","","",""
"","","","","","image-keyboard-response","145","1000390","0.0-120.0","62c2e95abeb001900b8ab0cb","665500ab8938657b03fbdba8","66579291476020bd2f6040ac","901","stimuli/11111000.jpg"," ","","feedback_trial","1","","","","","","","","","","","","","","","","","","","","",""
"","","","","","image-keyboard-response","146","1001989","0.0-121.0","62c2e95abeb001900b8ab0cb","665500ab8938657b03fbdba8","66579291476020bd2f6040ac","1597","stimuli/2010011.jpg","1","","prediction_trial","2","","false","","2","false","false","true","true","false","false","[2]","010","011","0","","","","","","",""
"","","","","","image-keyboard-response","147","1007488","0.0-122.0","62c2e95abeb001900b8ab0cb","665500ab8938657b03fbdba8","66579291476020bd2f6040ac","5497","stimuli/20100112.jpg"," ","","feedback_trial","2","","","","","","","","","","","","","","","","","","","","",""
"","","","","","image-keyboard-response","148","1008829","0.0-123.0","62c2e95abeb001900b8ab0cb","665500ab8938657b03fbdba8","66579291476020bd2f6040ac","1341","stimuli/1101111.jpg","1","","prediction_trial","1","","true","","1","false","false","true","true","false","false","[1]","101","111","1","","","","","","",""
"","","","","","image-keyboard-response","149","1013783","0.0-124.0","62c2e95abeb001900b8ab0cb","665500ab8938657b03fbdba8","66579291476020bd2f6040ac","4953","stimuli/11011111.jpg"," ","","feedback_trial","1","","","","","","","","","","","","","","","","","","","","",""
"","","","","","image-keyboard-response","150","1015520","0.0-125.0","62c2e95abeb001900b8ab0cb","665500ab8938657b03fbdba8","66579291476020bd2f6040ac","1735","stimuli/0010111.jpg","1","","prediction_trial","0","","false","","0","false","false","true","true","false","false","[0]","010","111","0","","","","","","",""
"","","","","","image-keyboard-response","151","1016359","0.0-126.0","62c2e95abeb001900b8ab0cb","665500ab8938657b03fbdba8","66579291476020bd2f6040ac","839","stimuli/00101110.jpg"," ","","feedback_trial","0","","","","","","","","","","","","","","","","","","","","",""
"","","","","","image-keyboard-response","152","1017540","0.0-127.0","62c2e95abeb001900b8ab0cb","665500ab8938657b03fbdba8","66579291476020bd2f6040ac","1179","stimuli/2101111.jpg","1","","prediction_trial","2","","false","","2","false","false","false","false","false","false","[2,0]","101","111","0","","","","","","",""
"","","","","","image-keyboard-response","153","1018479","0.0-128.0","62c2e95abeb001900b8ab0cb","665500ab8938657b03fbdba8","66579291476020bd2f6040ac","938","stimuli/21011112.jpg"," ","","feedback_trial","2","","","","","","","","","","","","","","","","","","","","",""
"","","","","","image-keyboard-response","154","1022490","0.0-129.0","62c2e95abeb001900b8ab0cb","665500ab8938657b03fbdba8","66579291476020bd2f6040ac","4010","stimuli/2111111.jpg","1","","prediction_trial","0","","false","","2","false","false","false","false","false","false","[2,1,0]","111","111","0","","","","","","",""
"","","","","","image-keyboard-response","155","1023440","0.0-130.0","62c2e95abeb001900b8ab0cb","665500ab8938657b03fbdba8","66579291476020bd2f6040ac","948","stimuli/21111110.jpg"," ","","feedback_trial","2","","","","","","","","","","","","","","","","","","","","",""
"","","","","","image-keyboard-response","156","1024451","0.0-131.0","62c2e95abeb001900b8ab0cb","665500ab8938657b03fbdba8","66579291476020bd2f6040ac","1011","stimuli/1110100.jpg","1","","prediction_trial","0","","false","","1","true","true","false","false","false","false","[1,0]","110","100","0","","","","","","",""
"","","","","","image-keyboard-response","157","1024878","0.0-132.0","62c2e95abeb001900b8ab0cb","665500ab8938657b03fbdba8","66579291476020bd2f6040ac","426","stimuli/11101000.jpg"," ","","feedback_trial","1","","","","","","","","","","","","","","","","","","","","",""
"","","","","","image-keyboard-response","158","1232309","0.0-133.0","62c2e95abeb001900b8ab0cb","665500ab8938657b03fbdba8","66579291476020bd2f6040ac","207430","stimuli/0011100.jpg","2","","prediction_trial","0","","false","","0","false","true","true","true","false","true","[0]","011","100","0","","","","","","",""
"","","","","","image-keyboard-response","159","1234708","0.0-134.0","62c2e95abeb001900b8ab0cb","665500ab8938657b03fbdba8","66579291476020bd2f6040ac","2396","stimuli/00111000.jpg"," ","","feedback_trial","0","","","","","","","","","","","","","","","","","","","","",""
"","","","","","image-keyboard-response","160","1236438","0.0-135.0","62c2e95abeb001900b8ab0cb","665500ab8938657b03fbdba8","66579291476020bd2f6040ac","1730","stimuli/0110111.jpg","2","","prediction_trial","1","","false","","0","false","false","false","false","false","false","[0,1]","110","111","0","","","","","","",""
"","","","","","image-keyboard-response","161","1237130","0.0-136.0","62c2e95abeb001900b8ab0cb","665500ab8938657b03fbdba8","66579291476020bd2f6040ac","690","stimuli/01101111.jpg"," ","","feedback_trial","0","","","","","","","","","","","","","","","","","","","","",""
"","","","","","image-keyboard-response","162","1238885","0.0-137.0","62c2e95abeb001900b8ab0cb","665500ab8938657b03fbdba8","66579291476020bd2f6040ac","1754","stimuli/0111001.jpg","0","","prediction_trial","1","","false","","0","true","true","false","false","false","false","[1,0,2]","111","001","0","","","","","","",""
"","","","","","image-keyboard-response","163","1239532","0.0-138.0","62c2e95abeb001900b8ab0cb","665500ab8938657b03fbdba8","66579291476020bd2f6040ac","645","stimuli/01110011.jpg"," ","","feedback_trial","1","","","","","","","","","","","","","","","","","","","","",""
"","","","","","image-keyboard-response","164","1241118","0.0-139.0","62c2e95abeb001900b8ab0cb","665500ab8938657b03fbdba8","66579291476020bd2f6040ac","1585","stimuli/1101100.jpg","1","","prediction_trial","1","","true","","1","true","true","true","true","true","true","[1]","101","100","1","","","","","","",""
"","","","","","image-keyboard-response","165","1241709","0.0-140.0","62c2e95abeb001900b8ab0cb","665500ab8938657b03fbdba8","66579291476020bd2f6040ac","591","stimuli/11011001.jpg"," ","","feedback_trial","1","","","","","","","","","","","","","","","","","","","","",""
"","","","","","image-keyboard-response","166","1242908","0.0-141.0","62c2e95abeb001900b8ab0cb","665500ab8938657b03fbdba8","66579291476020bd2f6040ac","1198","stimuli/1000110.jpg","1","","prediction_trial","1","","true","","1","false","false","true","true","false","false","[1]","000","110","1","","","","","","",""
"","","","","","image-keyboard-response","167","1243515","0.0-142.0","62c2e95abeb001900b8ab0cb","665500ab8938657b03fbdba8","66579291476020bd2f6040ac","606","stimuli/10001101.jpg"," ","","feedback_trial","1","","","","","","","","","","","","","","","","","","","","",""
"","","","","","image-keyboard-response","168","1245787","0.0-143.0","62c2e95abeb001900b8ab0cb","665500ab8938657b03fbdba8","66579291476020bd2f6040ac","2271","stimuli/2010111.jpg","2","","prediction_trial","2","","true","","2","false","false","true","true","false","false","[2]","010","111","1","","","","","","",""
"","","","","","image-keyboard-response","169","1246313","0.0-144.0","62c2e95abeb001900b8ab0cb","665500ab8938657b03fbdba8","66579291476020bd2f6040ac","525","stimuli/20101112.jpg"," ","","feedback_trial","2","","","","","","","","","","","","","","","","","","","","",""
"","","","","","image-keyboard-response","170","1247361","0.0-145.0","62c2e95abeb001900b8ab0cb","665500ab8938657b03fbdba8","66579291476020bd2f6040ac","1047","stimuli/2110001.jpg","2","","prediction_trial","2","","true","","2","false","true","true","true","false","true","[2]","110","001","1","","","","","","",""
"","","","","","image-keyboard-response","171","1247905","0.0-146.0","62c2e95abeb001900b8ab0cb","665500ab8938657b03fbdba8","66579291476020bd2f6040ac","541","stimuli/21100012.jpg"," ","","feedback_trial","2","","","","","","","","","","","","","","","","","","","","",""
"","","","","","image-keyboard-response","172","1248853","0.0-147.0","62c2e95abeb001900b8ab0cb","665500ab8938657b03fbdba8","66579291476020bd2f6040ac","947","stimuli/1101011.jpg","1","","prediction_trial","1","","true","","1","false","false","true","true","false","false","[1]","101","011","1","","","","","","",""
"","","","","","image-keyboard-response","173","1249363","0.0-148.0","62c2e95abeb001900b8ab0cb","665500ab8938657b03fbdba8","66579291476020bd2f6040ac","510","stimuli/11010111.jpg"," ","","feedback_trial","1","","","","","","","","","","","","","","","","","","","","",""
"","","","","","image-keyboard-response","174","1250395","0.0-149.0","62c2e95abeb001900b8ab0cb","665500ab8938657b03fbdba8","66579291476020bd2f6040ac","1031","stimuli/0100110.jpg","1","","prediction_trial","0","","false","","0","false","false","false","true","false","false","[0]","100","110","0","","","","","","",""
"","","","","","image-keyboard-response","175","1251071","0.0-150.0","62c2e95abeb001900b8ab0cb","665500ab8938657b03fbdba8","66579291476020bd2f6040ac","675","stimuli/01001100.jpg"," ","","feedback_trial","0","","","","","","","","","","","","","","","","","","","","",""
"","","","","","image-keyboard-response","176","1251920","0.0-151.0","62c2e95abeb001900b8ab0cb","665500ab8938657b03fbdba8","66579291476020bd2f6040ac","847","stimuli/2000011.jpg","2","","prediction_trial","2","","true","","2","false","false","true","true","false","false","[2]","000","011","1","","","","","","",""
"","","","","","image-keyboard-response","177","1252596","0.0-152.0","62c2e95abeb001900b8ab0cb","665500ab8938657b03fbdba8","66579291476020bd2f6040ac","675","stimuli/20000112.jpg"," ","","feedback_trial","2","","","","","","","","","","","","","","","","","","","","",""
"","","","","","image-keyboard-response","178","1253741","0.0-153.0","62c2e95abeb001900b8ab0cb","665500ab8938657b03fbdba8","66579291476020bd2f6040ac","1144","stimuli/2110101.jpg","2","","prediction_trial","2","","true","","2","false","false","true","true","false","false","[2]","110","101","1","","","","","","",""
"","","","","","image-keyboard-response","179","1254441","0.0-154.0","62c2e95abeb001900b8ab0cb","665500ab8938657b03fbdba8","66579291476020bd2f6040ac","700","stimuli/21101012.jpg"," ","","feedback_trial","2","","","","","","","","","","","","","","","","","","","","",""
"","","","","","image-keyboard-response","180","1255320","0.0-155.0","62c2e95abeb001900b8ab0cb","665500ab8938657b03fbdba8","66579291476020bd2f6040ac","878","stimuli/2000010.jpg","2","","prediction_trial","2","","true","","2","true","true","true","true","true","true","[2]","000","010","1","","","","","","",""
"","","","","","image-keyboard-response","181","1255751","0.0-156.0","62c2e95abeb001900b8ab0cb","665500ab8938657b03fbdba8","66579291476020bd2f6040ac","429","stimuli/20000102.jpg"," ","","feedback_trial","2","","","","","","","","","","","","","","","","","","","","",""
"","","","","","image-keyboard-response","182","1257020","0.0-157.0","62c2e95abeb001900b8ab0cb","665500ab8938657b03fbdba8","66579291476020bd2f6040ac","1269","stimuli/2011000.jpg","2","","prediction_trial","1","","false","","2","true","true","false","false","false","false","[2,1]","011","000","0","","","","","","",""
"","","","","","image-keyboard-response","183","1257425","0.0-158.0","62c2e95abeb001900b8ab0cb","665500ab8938657b03fbdba8","66579291476020bd2f6040ac","404","stimuli/20110001.jpg"," ","","feedback_trial","2","","","","","","","","","","","","","","","","","","","","",""
"","","","","","image-keyboard-response","184","1258595","0.0-159.0","62c2e95abeb001900b8ab0cb","665500ab8938657b03fbdba8","66579291476020bd2f6040ac","1169","stimuli/1110000.jpg","1","","prediction_trial","1","","true","","1","true","true","false","false","false","false","[0,1]","110","000","1","","","","","","",""
"","","","","","image-keyboard-response","185","1259150","0.0-160.0","62c2e95abeb001900b8ab0cb","665500ab8938657b03fbdba8","66579291476020bd2f6040ac","553","stimuli/11100001.jpg"," ","","feedback_trial","0","","","","","","","","","","","","","","","","","","","","",""
"","","","","","image-keyboard-response","186","1261602","0.0-161.0","62c2e95abeb001900b8ab0cb","665500ab8938657b03fbdba8","66579291476020bd2f6040ac","2451","stimuli/0110001.jpg","0","","prediction_trial","1","","false","","0","true","true","false","false","false","false","[1,0]","110","001","0","","","","","","",""
"","","","","","image-keyboard-response","187","1276896","0.0-162.0","62c2e95abeb001900b8ab0cb","665500ab8938657b03fbdba8","66579291476020bd2f6040ac","15293","stimuli/01100011.jpg"," ","","feedback_trial","1","","","","","","","","","","","","","","","","","","","","",""
"","","","","","image-keyboard-response","188","1278665","0.0-163.0","62c2e95abeb001900b8ab0cb","665500ab8938657b03fbdba8","66579291476020bd2f6040ac","1767","stimuli/0001100.jpg","2","","prediction_trial","0","","false","","0","false","true","true","true","false","true","[0]","001","100","0","","","","","","",""
"","","","","","image-keyboard-response","189","1279609","0.0-164.0","62c2e95abeb001900b8ab0cb","665500ab8938657b03fbdba8","66579291476020bd2f6040ac","942","stimuli/00011000.jpg"," ","","feedback_trial","0","","","","","","","","","","","","","","","","","","","","",""
"","","","","","image-keyboard-response","190","1280584","0.0-165.0","62c2e95abeb001900b8ab0cb","665500ab8938657b03fbdba8","66579291476020bd2f6040ac","974","stimuli/0011011.jpg","0","","prediction_trial","0","","true","","0","true","true","true","true","true","true","[0]","011","011","1","","","","","","",""
"","","","","","image-keyboard-response","191","1281084","0.0-166.0","62c2e95abeb001900b8ab0cb","665500ab8938657b03fbdba8","66579291476020bd2f6040ac","499","stimuli/00110110.jpg"," ","","feedback_trial","0","","","","","","","","","","","","","","","","","","","","",""
"","","","","","image-keyboard-response","192","1283084","0.0-167.0","62c2e95abeb001900b8ab0cb","665500ab8938657b03fbdba8","66579291476020bd2f6040ac","1999","stimuli/1101101.jpg","1","","prediction_trial","1","","true","","1","true","true","true","true","true","true","[1]","101","101","1","","","","","","",""
"","","","","","image-keyboard-response","193","1283525","0.0-168.0","62c2e95abeb001900b8ab0cb","665500ab8938657b03fbdba8","66579291476020bd2f6040ac","440","stimuli/11011011.jpg"," ","","feedback_trial","1","","","","","","","","","","","","","","","","","","","","",""
"","","","","","image-keyboard-response","194","1284444","0.0-169.0","62c2e95abeb001900b8ab0cb","665500ab8938657b03fbdba8","66579291476020bd2f6040ac","917","stimuli/2000100.jpg","2","","prediction_trial","2","","true","","2","true","true","true","true","true","true","[2]","000","100","1","","","","","","",""
"","","","","","image-keyboard-response","195","1284927","0.0-170.0","62c2e95abeb001900b8ab0cb","665500ab8938657b03fbdba8","66579291476020bd2f6040ac","482","stimuli/20001002.jpg"," ","","feedback_trial","2","","","","","","","","","","","","","","","","","","","","",""
"","","","","","image-keyboard-response","196","1285846","0.0-171.0","62c2e95abeb001900b8ab0cb","665500ab8938657b03fbdba8","66579291476020bd2f6040ac","918","stimuli/2110110.jpg","2","","prediction_trial","2","","true","","2","true","true","true","true","true","true","[2]","110","110","1","","","","","","",""
"","","","","","image-keyboard-response","197","1286181","0.0-172.0","62c2e95abeb001900b8ab0cb","665500ab8938657b03fbdba8","66579291476020bd2f6040ac","334","stimuli/21101102.jpg"," ","","feedback_trial","2","","","","","","","","","","","","","","","","","","","","",""
"","","","","","image-keyboard-response","198","1287198","0.0-173.0","62c2e95abeb001900b8ab0cb","665500ab8938657b03fbdba8","66579291476020bd2f6040ac","1016","stimuli/1100111.jpg","1","","prediction_trial","1","","true","","1","false","false","true","true","false","false","[1]","100","111","1","","","","","","",""
"","","","","","image-keyboard-response","199","1287518","0.0-174.0","62c2e95abeb001900b8ab0cb","665500ab8938657b03fbdba8","66579291476020bd2f6040ac","319","stimuli/11001111.jpg"," ","","feedback_trial","1","","","","","","","","","","","","","","","","","","","","",""
"","","","","","image-keyboard-response","200","1288374","0.0-175.0","62c2e95abeb001900b8ab0cb","665500ab8938657b03fbdba8","66579291476020bd2f6040ac","855","stimuli/0010100.jpg","2","","prediction_trial","0","","false","","0","false","true","true","true","false","true","[0]","010","100","0","","","","","","",""
"","","","","","image-keyboard-response","201","1289179","0.0-176.0","62c2e95abeb001900b8ab0cb","665500ab8938657b03fbdba8","66579291476020bd2f6040ac","804","stimuli/00101000.jpg"," ","","feedback_trial","0","","","","","","","","","","","","","","","","","","","","",""
"","","","","","image-keyboard-response","202","1290472","0.0-177.0","62c2e95abeb001900b8ab0cb","665500ab8938657b03fbdba8","66579291476020bd2f6040ac","1285","stimuli/0101100.jpg","0","","prediction_trial","0","","true","","0","false","true","false","false","false","false","[0,2]","101","100","1","","","","","","",""
"","","","","","image-keyboard-response","203","1290927","0.0-178.0","62c2e95abeb001900b8ab0cb","665500ab8938657b03fbdba8","66579291476020bd2f6040ac","454","stimuli/01011000.jpg"," ","","feedback_trial","0","","","","","","","","","","","","","","","","","","","","",""
"","","","","","image-keyboard-response","204","2048187","0.0-179.0","62c2e95abeb001900b8ab0cb","665500ab8938657b03fbdba8","66579291476020bd2f6040ac","757258","stimuli/1111110.jpg","0","","prediction_trial","1","","false","","1","false","false","false","false","false","false","[0,1,2]","111","110","0","","","","","","",""
"","","","","","image-keyboard-response","205","2051262","0.0-180.0","62c2e95abeb001900b8ab0cb","665500ab8938657b03fbdba8","66579291476020bd2f6040ac","3074","stimuli/11111101.jpg"," ","","feedback_trial","0","","","","","","","","","","","","","","","","","","","","",""
"","","","","","image-keyboard-response","206","2052066","0.0-181.0","62c2e95abeb001900b8ab0cb","665500ab8938657b03fbdba8","66579291476020bd2f6040ac","803","stimuli/2001111.jpg","1","","prediction_trial","2","","false","","2","false","false","false","true","false","false","[2]","001","111","0","","","","","","",""
"","","","","","image-keyboard-response","207","2052145","0.0-182.0","62c2e95abeb001900b8ab0cb","665500ab8938657b03fbdba8","66579291476020bd2f6040ac","79","stimuli/20011112.jpg"," ","","feedback_trial","2","","","","","","","","","","","","","","","","","","","","",""
"","","","","","image-keyboard-response","208","2053204","0.0-183.0","62c2e95abeb001900b8ab0cb","665500ab8938657b03fbdba8","66579291476020bd2f6040ac","1058","stimuli/1011010.jpg","2","","prediction_trial","2","","true","","1","false","true","false","false","false","false","[1,2]","011","010","1","","","","","","",""
"","","","","","image-keyboard-response","209","2053887","0.0-184.0","62c2e95abeb001900b8ab0cb","665500ab8938657b03fbdba8","66579291476020bd2f6040ac","682","stimuli/10110102.jpg"," ","","feedback_trial","1","","","","","","","","","","","","","","","","","","","","",""
"","","","","","image-keyboard-response","210","2054963","0.0-185.0","62c2e95abeb001900b8ab0cb","665500ab8938657b03fbdba8","66579291476020bd2f6040ac","1075","stimuli/1100001.jpg","1","","prediction_trial","1","","true","","1","true","true","true","true","true","true","[1]","100","001","1","","","","","","",""
"","","","","","image-keyboard-response","211","2055426","0.0-186.0","62c2e95abeb001900b8ab0cb","665500ab8938657b03fbdba8","66579291476020bd2f6040ac","462","stimuli/11000011.jpg"," ","","feedback_trial","1","","","","","","","","","","","","","","","","","","","","",""
"","","","","","image-keyboard-response","212","2056304","0.0-187.0","62c2e95abeb001900b8ab0cb","665500ab8938657b03fbdba8","66579291476020bd2f6040ac","867","stimuli/1111010.jpg","1","","prediction_trial","1","","true","","1","false","true","false","false","false","false","[0,2,1]","111","010","1","","","","","","",""
"","","","","","image-keyboard-response","213","2056699","0.0-188.0","62c2e95abeb001900b8ab0cb","665500ab8938657b03fbdba8","66579291476020bd2f6040ac","395","stimuli/11110101.jpg"," ","","feedback_trial","0","","","","","","","","","","","","","","","","","","","","",""
"","","","","","image-keyboard-response","214","2057752","0.0-189.0","62c2e95abeb001900b8ab0cb","665500ab8938657b03fbdba8","66579291476020bd2f6040ac","1051","stimuli/1100010.jpg","0","","prediction_trial","1","","false","","1","false","true","true","true","false","true","[1]","100","010","0","","","","","","",""
"","","","","","image-keyboard-response","215","2058353","0.0-190.0","62c2e95abeb001900b8ab0cb","665500ab8938657b03fbdba8","66579291476020bd2f6040ac","600","stimuli/11000101.jpg"," ","","feedback_trial","1","","","","","","","","","","","","","","","","","","","","",""
"","","","","","image-keyboard-response","216","2059333","0.0-191.0","62c2e95abeb001900b8ab0cb","665500ab8938657b03fbdba8","66579291476020bd2f6040ac","979","stimuli/1001011.jpg","1","","prediction_trial","1","","true","","1","false","false","true","true","false","false","[1]","001","011","1","","","","","","",""
"","","","","","image-keyboard-response","217","2059862","0.0-192.0","62c2e95abeb001900b8ab0cb","665500ab8938657b03fbdba8","66579291476020bd2f6040ac","528","stimuli/10010111.jpg"," ","","feedback_trial","1","","","","","","","","","","","","","","","","","","","","",""
"","","","","","image-keyboard-response","218","2060733","0.0-193.0","62c2e95abeb001900b8ab0cb","665500ab8938657b03fbdba8","66579291476020bd2f6040ac","862","stimuli/2010100.jpg","2","","prediction_trial","2","","true","","2","true","true","true","true","true","true","[2]","010","100","1","","","","","","",""
"","","","","","image-keyboard-response","219","2061180","0.0-194.0","62c2e95abeb001900b8ab0cb","665500ab8938657b03fbdba8","66579291476020bd2f6040ac","447","stimuli/20101002.jpg"," ","","feedback_trial","2","","","","","","","","","","","","","","","","","","","","",""
"","","","","","image-keyboard-response","220","2062124","0.0-195.0","62c2e95abeb001900b8ab0cb","665500ab8938657b03fbdba8","66579291476020bd2f6040ac","942","stimuli/2101010.jpg","2","","prediction_trial","0","","false","","2","true","true","false","false","false","false","[2,0]","101","010","0","","","","","","",""
"","","","","","image-keyboard-response","221","2062456","0.0-196.0","62c2e95abeb001900b8ab0cb","665500ab8938657b03fbdba8","66579291476020bd2f6040ac","331","stimuli/21010100.jpg"," ","","feedback_trial","2","","","","","","","","","","","","","","","","","","","","",""
"","","","","","image-keyboard-response","222","2063282","0.0-197.0","62c2e95abeb001900b8ab0cb","665500ab8938657b03fbdba8","66579291476020bd2f6040ac","826","stimuli/0001111.jpg","1","","prediction_trial","0","","false","","0","false","false","true","true","false","false","[0]","001","111","0","","","","","","",""
"","","","","","image-keyboard-response","223","2064563","0.0-198.0","62c2e95abeb001900b8ab0cb","665500ab8938657b03fbdba8","66579291476020bd2f6040ac","1280","stimuli/00011110.jpg"," ","","feedback_trial","0","","","","","","","","","","","","","","","","","","","","",""
"","","","","","image-keyboard-response","224","2065573","0.0-199.0","62c2e95abeb001900b8ab0cb","665500ab8938657b03fbdba8","66579291476020bd2f6040ac","1009","stimuli/2110010.jpg","2","","prediction_trial","2","","true","","2","true","true","true","true","true","true","[2]","110","010","1","","","","","","",""
"","","","","","image-keyboard-response","225","2065935","0.0-200.0","62c2e95abeb001900b8ab0cb","665500ab8938657b03fbdba8","66579291476020bd2f6040ac","361","stimuli/21100102.jpg"," ","","feedback_trial","2","","","","","","","","","","","","","","","","","","","","",""
"","","","","","image-keyboard-response","226","2066660","0.0-201.0","62c2e95abeb001900b8ab0cb","665500ab8938657b03fbdba8","66579291476020bd2f6040ac","723","stimuli/2110011.jpg","0","","prediction_trial","2","","false","","2","false","false","true","true","false","false","[2]","110","011","0","","","","","","",""
"","","","","","image-keyboard-response","227","2067202","0.0-202.0","62c2e95abeb001900b8ab0cb","665500ab8938657b03fbdba8","66579291476020bd2f6040ac","541","stimuli/21100112.jpg"," ","","feedback_trial","2","","","","","","","","","","","","","","","","","","","","",""
"","","","","","image-keyboard-response","228","2068389","0.0-203.0","62c2e95abeb001900b8ab0cb","665500ab8938657b03fbdba8","66579291476020bd2f6040ac","1176","stimuli/0111101.jpg","2","","prediction_trial","1","","false","","0","false","false","false","false","false","false","[0,1,2]","111","101","0","","","","","","",""
"","","","","","image-keyboard-response","229","2068912","0.0-204.0","62c2e95abeb001900b8ab0cb","665500ab8938657b03fbdba8","66579291476020bd2f6040ac","522","stimuli/01111011.jpg"," ","","feedback_trial","0","","","","","","","","","","","","","","","","","","","","",""
"","","","","","image-keyboard-response","230","2069834","0.0-205.0","62c2e95abeb001900b8ab0cb","665500ab8938657b03fbdba8","66579291476020bd2f6040ac","920","stimuli/1011110.jpg","1","","prediction_trial","1","","true","","1","false","false","false","false","false","false","[2,1]","011","110","1","","","","","","",""
"","","","","","image-keyboard-response","231","2070260","0.0-206.0","62c2e95abeb001900b8ab0cb","665500ab8938657b03fbdba8","66579291476020bd2f6040ac","425","stimuli/10111101.jpg"," ","","feedback_trial","2","","","","","","","","","","","","","","","","","","","","",""
"","","","","","image-keyboard-response","232","2071358","0.0-207.0","62c2e95abeb001900b8ab0cb","665500ab8938657b03fbdba8","66579291476020bd2f6040ac","1098","stimuli/0010001.jpg","0","","prediction_trial","0","","true","","0","true","true","true","true","true","true","[0]","010","001","1","","","","","","",""
"","","","","","image-keyboard-response","233","2071696","0.0-208.0","62c2e95abeb001900b8ab0cb","665500ab8938657b03fbdba8","66579291476020bd2f6040ac","336","stimuli/00100010.jpg"," ","","feedback_trial","0","","","","","","","","","","","","","","","","","","","","",""
"","","","","","image-keyboard-response","234","2072826","0.0-209.0","62c2e95abeb001900b8ab0cb","665500ab8938657b03fbdba8","66579291476020bd2f6040ac","1129","stimuli/1111111.jpg","2","","prediction_trial","1","","false","","1","false","false","false","false","false","false","[1,2,0]","111","111","0","","","","","","",""
"","","","","","image-keyboard-response","235","2073419","0.0-210.0","62c2e95abeb001900b8ab0cb","665500ab8938657b03fbdba8","66579291476020bd2f6040ac","591","stimuli/11111111.jpg"," ","","feedback_trial","1","","","","","","","","","","","","","","","","","","","","",""
"","","","","","image-keyboard-response","236","2074005","0.0-211.0","62c2e95abeb001900b8ab0cb","665500ab8938657b03fbdba8","66579291476020bd2f6040ac","585","stimuli/0111111.jpg","1","","prediction_trial","0","","false","","0","false","false","false","false","false","false","[0,2,1]","111","111","0","","","","","","",""
"","","","","","image-keyboard-response","237","2074376","0.0-212.0","62c2e95abeb001900b8ab0cb","665500ab8938657b03fbdba8","66579291476020bd2f6040ac","370","stimuli/01111110.jpg"," ","","feedback_trial","0","","","","","","","","","","","","","","","","","","","","",""
"","","","","","image-keyboard-response","238","2075027","0.0-213.0","62c2e95abeb001900b8ab0cb","665500ab8938657b03fbdba8","66579291476020bd2f6040ac","648","stimuli/0011010.jpg","2","","prediction_trial","0","","false","","0","true","true","true","true","true","true","[0]","011","010","0","","","","","","",""
"","","","","","image-keyboard-response","239","2075415","0.0-214.0","62c2e95abeb001900b8ab0cb","665500ab8938657b03fbdba8","66579291476020bd2f6040ac","387","stimuli/00110100.jpg"," ","","feedback_trial","0","","","","","","","","","","","","","","","","","","","","",""
"","","","","","image-keyboard-response","240","2076376","0.0-215.0","62c2e95abeb001900b8ab0cb","665500ab8938657b03fbdba8","66579291476020bd2f6040ac","960","stimuli/1010011.jpg","1","","prediction_trial","1","","true","","1","false","false","false","true","false","false","[1]","010","011","1","","","","","","",""
"","","","","","image-keyboard-response","241","2076876","0.0-216.0","62c2e95abeb001900b8ab0cb","665500ab8938657b03fbdba8","66579291476020bd2f6040ac","497","stimuli/10100111.jpg"," ","","feedback_trial","1","","","","","","","","","","","","","","","","","","","","",""
"","","","","","image-keyboard-response","242","2077684","0.0-217.0","62c2e95abeb001900b8ab0cb","665500ab8938657b03fbdba8","66579291476020bd2f6040ac","808","stimuli/2100010.jpg","2","","prediction_trial","2","","true","","2","true","true","true","true","true","true","[2]","100","010","1","","","","","","",""
"","","","","","image-keyboard-response","243","2077895","0.0-218.0","62c2e95abeb001900b8ab0cb","665500ab8938657b03fbdba8","66579291476020bd2f6040ac","209","stimuli/21000102.jpg"," ","","feedback_trial","2","","","","","","","","","","","","","","","","","","","","",""
"","","","","","image-keyboard-response","244","2078678","0.0-219.0","62c2e95abeb001900b8ab0cb","665500ab8938657b03fbdba8","66579291476020bd2f6040ac","781","stimuli/2101001.jpg","1","","prediction_trial","2","","false","","2","false","true","false","false","false","false","[2,0]","101","001","0","","","","","","",""
"","","","","","image-keyboard-response","245","2079516","0.0-220.0","62c2e95abeb001900b8ab0cb","665500ab8938657b03fbdba8","66579291476020bd2f6040ac","837","stimuli/21010012.jpg"," ","","feedback_trial","2","","","","","","","","","","","","","","","","","","","","",""
"","","","","","image-keyboard-response","246","2081053","0.0-221.0","62c2e95abeb001900b8ab0cb","665500ab8938657b03fbdba8","66579291476020bd2f6040ac","1536","stimuli/2100001.jpg","2","","prediction_trial","2","","true","","2","false","true","true","true","false","true","[2]","100","001","1","","","","","","",""
"","","","","","image-keyboard-response","247","2081319","0.0-222.0","62c2e95abeb001900b8ab0cb","665500ab8938657b03fbdba8","66579291476020bd2f6040ac","265","stimuli/21000012.jpg"," ","","feedback_trial","2","","","","","","","","","","","","","","","","","","","","",""
"","","","","","image-keyboard-response","248","2082614","0.0-223.0","62c2e95abeb001900b8ab0cb","665500ab8938657b03fbdba8","66579291476020bd2f6040ac","1292","stimuli/1001110.jpg","1","","prediction_trial","1","","true","","1","false","false","true","true","false","false","[1]","001","110","1","","","","","","",""
"","","","","","image-keyboard-response","249","2083411","0.0-224.0","62c2e95abeb001900b8ab0cb","665500ab8938657b03fbdba8","66579291476020bd2f6040ac","797","stimuli/10011101.jpg"," ","","feedback_trial","1","","","","","","","","","","","","","","","","","","","","",""
"","","","","","image-keyboard-response","250","2084302","0.0-225.0","62c2e95abeb001900b8ab0cb","665500ab8938657b03fbdba8","66579291476020bd2f6040ac","889","stimuli/0000111.jpg","1","","prediction_trial","0","","false","","0","false","false","true","true","false","false","[0]","000","111","0","","","","","","",""
"","","","","","image-keyboard-response","251","2084893","0.0-226.0","62c2e95abeb001900b8ab0cb","665500ab8938657b03fbdba8","66579291476020bd2f6040ac","590","stimuli/00001110.jpg"," ","","feedback_trial","0","","","","","","","","","","","","","","","","","","","","",""
"","","","","","image-keyboard-response","252","2085769","0.0-227.0","62c2e95abeb001900b8ab0cb","665500ab8938657b03fbdba8","66579291476020bd2f6040ac","875","stimuli/1101010.jpg","2","","prediction_trial","1","","false","","1","false","true","true","true","false","true","[1]","101","010","0","","","","","","",""
"","","","","","image-keyboard-response","253","2086544","0.0-228.0","62c2e95abeb001900b8ab0cb","665500ab8938657b03fbdba8","66579291476020bd2f6040ac","774","stimuli/11010101.jpg"," ","","feedback_trial","1","","","","","","","","","","","","","","","","","","","","",""
"","","","","","image-keyboard-response","254","2088044","0.0-229.0","62c2e95abeb001900b8ab0cb","665500ab8938657b03fbdba8","66579291476020bd2f6040ac","1499","stimuli/1111000.jpg","1","","prediction_trial","0","","false","","1","true","true","false","false","false","false","[2,1,0]","111","000","0","","","","","","",""
"","","","","","image-keyboard-response","255","2092196","0.0-230.0","62c2e95abeb001900b8ab0cb","665500ab8938657b03fbdba8","66579291476020bd2f6040ac","4151","stimuli/11110000.jpg"," ","","feedback_trial","2","","","","","","","","","","","","","","","","","","","","",""
"","","","","","image-keyboard-response","256","2093471","0.0-231.0","62c2e95abeb001900b8ab0cb","665500ab8938657b03fbdba8","66579291476020bd2f6040ac","1273","stimuli/0110110.jpg","2","","prediction_trial","1","","false","","0","false","false","false","false","false","false","[1,0]","110","110","0","","","","","","",""
"","","","","","image-keyboard-response","257","2093966","0.0-232.0","62c2e95abeb001900b8ab0cb","665500ab8938657b03fbdba8","66579291476020bd2f6040ac","494","stimuli/01101101.jpg"," ","","feedback_trial","1","","","","","","","","","","","","","","","","","","","","",""
"","","","","","image-keyboard-response","258","2094853","0.0-233.0","62c2e95abeb001900b8ab0cb","665500ab8938657b03fbdba8","66579291476020bd2f6040ac","886","stimuli/1000001.jpg","1","","prediction_trial","1","","true","","1","true","true","true","true","true","true","[1]","000","001","1","","","","","","",""
"","","","","","image-keyboard-response","259","2095312","0.0-234.0","62c2e95abeb001900b8ab0cb","665500ab8938657b03fbdba8","66579291476020bd2f6040ac","458","stimuli/10000011.jpg"," ","","feedback_trial","1","","","","","","","","","","","","","","","","","","","","",""
"","","","","","image-keyboard-response","260","2096138","0.0-235.0","62c2e95abeb001900b8ab0cb","665500ab8938657b03fbdba8","66579291476020bd2f6040ac","824","stimuli/2000110.jpg","2","","prediction_trial","2","","true","","2","true","true","true","true","true","true","[2]","000","110","1","","","","","","",""
"","","","","","image-keyboard-response","261","2096461","0.0-236.0","62c2e95abeb001900b8ab0cb","665500ab8938657b03fbdba8","66579291476020bd2f6040ac","321","stimuli/20001102.jpg"," ","","feedback_trial","2","","","","","","","","","","","","","","","","","","","","",""
"","","","","","image-keyboard-response","262","2097604","0.0-237.0","62c2e95abeb001900b8ab0cb","665500ab8938657b03fbdba8","66579291476020bd2f6040ac","1142","stimuli/1011111.jpg","1","","prediction_trial","2","","false","","1","false","false","false","false","false","false","[1,2]","011","111","0","","","","","","",""
"","","","","","image-keyboard-response","263","2098304","0.0-238.0","62c2e95abeb001900b8ab0cb","665500ab8938657b03fbdba8","66579291476020bd2f6040ac","698","stimuli/10111112.jpg"," ","","feedback_trial","1","","","","","","","","","","","","","","","","","","","","",""
"","","","","","image-keyboard-response","264","2099309","0.0-239.0","62c2e95abeb001900b8ab0cb","665500ab8938657b03fbdba8","66579291476020bd2f6040ac","1003","stimuli/0101111.jpg","1","","prediction_trial","0","","false","","0","false","false","false","false","false","false","[2,0]","101","111","0","","","","","","",""
"","","","","","image-keyboard-response","265","2100049","0.0-240.0","62c2e95abeb001900b8ab0cb","665500ab8938657b03fbdba8","66579291476020bd2f6040ac","739","stimuli/01011110.jpg"," ","","feedback_trial","2","","","","","","","","","","","","","","","","","","","","",""
"","","","","","image-keyboard-response","266","2100967","0.0-241.0","62c2e95abeb001900b8ab0cb","665500ab8938657b03fbdba8","66579291476020bd2f6040ac","917","stimuli/0101010.jpg","0","","prediction_trial","0","","true","","0","true","true","false","false","false","false","[0,2]","101","010","1","","","","","","",""
"","","","","","image-keyboard-response","267","2101529","0.0-242.0","62c2e95abeb001900b8ab0cb","665500ab8938657b03fbdba8","66579291476020bd2f6040ac","561","stimuli/01010100.jpg"," ","","feedback_trial","0","","","","","","","","","","","","","","","","","","","","",""
"","","","","","image-keyboard-response","268","2102511","0.0-243.0","62c2e95abeb001900b8ab0cb","665500ab8938657b03fbdba8","66579291476020bd2f6040ac","980","stimuli/1011000.jpg","1","","prediction_trial","1","","true","","1","true","true","false","false","false","false","[2,1]","011","000","1","","","","","","",""
"","","","","","image-keyboard-response","269","2103162","0.0-244.0","62c2e95abeb001900b8ab0cb","665500ab8938657b03fbdba8","66579291476020bd2f6040ac","649","stimuli/10110001.jpg"," ","","feedback_trial","2","","","","","","","","","","","","","","","","","","","","",""
"","","","","","image-keyboard-response","270","2103999","0.0-245.0","62c2e95abeb001900b8ab0cb","665500ab8938657b03fbdba8","66579291476020bd2f6040ac","836","stimuli/2010001.jpg","2","","prediction_trial","2","","true","","2","false","true","true","true","false","true","[2]","010","001","1","","","","","","",""
"","","","","","image-keyboard-response","271","2104612","0.0-246.0","62c2e95abeb001900b8ab0cb","665500ab8938657b03fbdba8","66579291476020bd2f6040ac","611","stimuli/20100012.jpg"," ","","feedback_trial","2","","","","","","","","","","","","","","","","","","","","",""
"","","","","","image-keyboard-response","272","2105539","0.0-247.0","62c2e95abeb001900b8ab0cb","665500ab8938657b03fbdba8","66579291476020bd2f6040ac","926","stimuli/0001000.jpg","0","","prediction_trial","0","","true","","0","true","true","true","true","true","true","[0]","001","000","1","","","","","","",""
"","","","","","image-keyboard-response","273","2105967","0.0-248.0","62c2e95abeb001900b8ab0cb","665500ab8938657b03fbdba8","66579291476020bd2f6040ac","427","stimuli/00010000.jpg"," ","","feedback_trial","0","","","","","","","","","","","","","","","","","","","","",""
"","","","","","image-keyboard-response","274","2106852","0.0-249.0","62c2e95abeb001900b8ab0cb","665500ab8938657b03fbdba8","66579291476020bd2f6040ac","873","stimuli/1011101.jpg","1","","prediction_trial","2","","false","","1","true","true","false","false","false","false","[1,2]","011","101","0","","","","","","",""
"","","","","","image-keyboard-response","275","2107306","0.0-250.0","62c2e95abeb001900b8ab0cb","665500ab8938657b03fbdba8","66579291476020bd2f6040ac","453","stimuli/10111012.jpg"," ","","feedback_trial","1","","","","","","","","","","","","","","","","","","","","",""
"","","","","","image-keyboard-response","276","2108193","0.0-251.0","62c2e95abeb001900b8ab0cb","665500ab8938657b03fbdba8","66579291476020bd2f6040ac","885","stimuli/0001011.jpg","0","","prediction_trial","0","","true","","0","true","true","true","true","true","true","[0]","001","011","1","","","","","","",""
"","","","","","image-keyboard-response","277","2108978","0.0-252.0","62c2e95abeb001900b8ab0cb","665500ab8938657b03fbdba8","66579291476020bd2f6040ac","784","stimuli/00010110.jpg"," ","","feedback_trial","0","","","","","","","","","","","","","","","","","","","","",""
"","","","","","image-keyboard-response","278","2109916","0.0-253.0","62c2e95abeb001900b8ab0cb","665500ab8938657b03fbdba8","66579291476020bd2f6040ac","937","stimuli/1110010.jpg","1","","prediction_trial","1","","true","","1","false","true","false","false","false","false","[0,1]","110","010","1","","","","","","",""
"","","","","","image-keyboard-response","279","2110430","0.0-254.0","62c2e95abeb001900b8ab0cb","665500ab8938657b03fbdba8","66579291476020bd2f6040ac","512","stimuli/11100101.jpg"," ","","feedback_trial","0","","","","","","","","","","","","","","","","","","","","",""
"","","","","","image-keyboard-response","280","2111227","0.0-255.0","62c2e95abeb001900b8ab0cb","665500ab8938657b03fbdba8","66579291476020bd2f6040ac","796","stimuli/1000000.jpg","1","","prediction_trial","1","","true","","1","true","true","true","true","true","true","[1]","000","000","1","","","","","","",""
"","","","","","image-keyboard-response","281","2111675","0.0-256.0","62c2e95abeb001900b8ab0cb","665500ab8938657b03fbdba8","66579291476020bd2f6040ac","447","stimuli/10000001.jpg"," ","","feedback_trial","1","","","","","","","","","","","","","","","","","","","","",""
"","","","","","image-keyboard-response","282","2112739","0.0-257.0","62c2e95abeb001900b8ab0cb","665500ab8938657b03fbdba8","66579291476020bd2f6040ac","1063","stimuli/2011111.jpg","0","","prediction_trial","2","","false","","2","false","false","false","false","false","false","[2,1]","011","111","0","","","","","","",""
"","","","","","image-keyboard-response","283","2113109","0.0-258.0","62c2e95abeb001900b8ab0cb","665500ab8938657b03fbdba8","66579291476020bd2f6040ac","370","stimuli/20111112.jpg"," ","","feedback_trial","2","","","","","","","","","","","","","","","","","","","","",""
"","","","","","image-keyboard-response","284","2113874","0.0-259.0","62c2e95abeb001900b8ab0cb","665500ab8938657b03fbdba8","66579291476020bd2f6040ac","764","stimuli/1011001.jpg","1","","prediction_trial","1","","true","","1","true","true","false","false","false","false","[2,1]","011","001","1","","","","","","",""
"","","","","","image-keyboard-response","285","2114252","0.0-260.0","62c2e95abeb001900b8ab0cb","665500ab8938657b03fbdba8","66579291476020bd2f6040ac","378","stimuli/10110011.jpg"," ","","feedback_trial","2","","","","","","","","","","","","","","","","","","","","",""
"","","","","","image-keyboard-response","286","2115161","0.0-261.0","62c2e95abeb001900b8ab0cb","665500ab8938657b03fbdba8","66579291476020bd2f6040ac","908","stimuli/2001010.jpg","2","","prediction_trial","2","","true","","2","true","true","false","true","false","true","[2]","001","010","1","","","","","","",""
"","","","","","image-keyboard-response","287","2115642","0.0-262.0","62c2e95abeb001900b8ab0cb","665500ab8938657b03fbdba8","66579291476020bd2f6040ac","479","stimuli/20010102.jpg"," ","","feedback_trial","2","","","","","","","","","","","","","","","","","","","","",""
"","","","","","image-keyboard-response","288","2116433","0.0-263.0","62c2e95abeb001900b8ab0cb","665500ab8938657b03fbdba8","66579291476020bd2f6040ac","791","stimuli/1010101.jpg","1","","prediction_trial","1","","true","","1","true","true","false","true","false","true","[1]","010","101","1","","","","","","",""
"","","","","","image-keyboard-response","289","2116779","0.0-264.0","62c2e95abeb001900b8ab0cb","665500ab8938657b03fbdba8","66579291476020bd2f6040ac","345","stimuli/10101011.jpg"," ","","feedback_trial","1","","","","","","","","","","","","","","","","","","","","",""
"","","","","","image-keyboard-response","290","2117782","0.0-265.0","62c2e95abeb001900b8ab0cb","665500ab8938657b03fbdba8","66579291476020bd2f6040ac","1003","stimuli/0000110.jpg","1","","prediction_trial","0","","false","","0","false","false","true","true","false","false","[0]","000","110","0","","","","","","",""
"","","","","","image-keyboard-response","291","2118402","0.0-266.0","62c2e95abeb001900b8ab0cb","665500ab8938657b03fbdba8","66579291476020bd2f6040ac","619","stimuli/00001100.jpg"," ","","feedback_trial","0","","","","","","","","","","","","","","","","","","","","",""
"","","","","","image-keyboard-response","292","2119059","0.0-267.0","62c2e95abeb001900b8ab0cb","665500ab8938657b03fbdba8","66579291476020bd2f6040ac","655","stimuli/1000101.jpg","1","","prediction_trial","1","","true","","1","true","true","true","true","true","true","[1]","000","101","1","","","","","","",""
"","","","","","image-keyboard-response","293","2119511","0.0-268.0","62c2e95abeb001900b8ab0cb","665500ab8938657b03fbdba8","66579291476020bd2f6040ac","440","stimuli/10001011.jpg"," ","","feedback_trial","1","","","","","","","","","","","","","","","","","","","","",""
"","","","","","image-keyboard-response","294","2120544","0.0-269.0","62c2e95abeb001900b8ab0cb","665500ab8938657b03fbdba8","66579291476020bd2f6040ac","1032","stimuli/0001001.jpg","0","","prediction_trial","0","","true","","0","true","true","true","true","true","true","[0]","001","001","1","","","","","","",""
"","","","","","image-keyboard-response","295","2121146","0.0-270.0","62c2e95abeb001900b8ab0cb","665500ab8938657b03fbdba8","66579291476020bd2f6040ac","600","stimuli/00010010.jpg"," ","","feedback_trial","0","","","","","","","","","","","","","","","","","","","","",""
"","","","","","image-keyboard-response","296","2121953","0.0-271.0","62c2e95abeb001900b8ab0cb","665500ab8938657b03fbdba8","66579291476020bd2f6040ac","807","stimuli/0000001.jpg","0","","prediction_trial","0","","true","","0","true","true","true","true","true","true","[0]","000","001","1","","","","","","",""
"","","","","","image-keyboard-response","297","2122530","0.0-272.0","62c2e95abeb001900b8ab0cb","665500ab8938657b03fbdba8","66579291476020bd2f6040ac","575","stimuli/00000010.jpg"," ","","feedback_trial","0","","","","","","","","","","","","","","","","","","","","",""
"","","","","","image-keyboard-response","298","2123336","0.0-273.0","62c2e95abeb001900b8ab0cb","665500ab8938657b03fbdba8","66579291476020bd2f6040ac","805","stimuli/2010110.jpg","2","","prediction_trial","2","","true","","2","true","true","true","true","true","true","[2]","010","110","1","","","","","","",""
"","","","","","image-keyboard-response","299","2123636","0.0-274.0","62c2e95abeb001900b8ab0cb","665500ab8938657b03fbdba8","66579291476020bd2f6040ac","299","stimuli/20101102.jpg"," ","","feedback_trial","2","","","","","","","","","","","","","","","","","","","","",""
"","","","","","image-keyboard-response","300","2124748","0.0-275.0","62c2e95abeb001900b8ab0cb","665500ab8938657b03fbdba8","66579291476020bd2f6040ac","1111","stimuli/0111100.jpg","0","","prediction_trial","1","","false","","0","false","true","false","false","false","false","[1,0,2]","111","100","0","","","","","","",""
"","","","","","image-keyboard-response","301","2125081","0.0-276.0","62c2e95abeb001900b8ab0cb","665500ab8938657b03fbdba8","66579291476020bd2f6040ac","332","stimuli/01111001.jpg"," ","","feedback_trial","1","","","","","","","","","","","","","","","","","","","","",""
"","","","","","image-keyboard-response","302","2125966","0.0-277.0","62c2e95abeb001900b8ab0cb","665500ab8938657b03fbdba8","66579291476020bd2f6040ac","884","stimuli/0010011.jpg","1","","prediction_trial","0","","false","","0","true","true","true","true","true","true","[0]","010","011","0","","","","","","",""
"","","","","","image-keyboard-response","303","2126782","0.0-278.0","62c2e95abeb001900b8ab0cb","665500ab8938657b03fbdba8","66579291476020bd2f6040ac","804","stimuli/00100110.jpg"," ","","feedback_trial","0","","","","","","","","","","","","","","","","","","","","",""
"","","","","","image-keyboard-response","304","2127644","0.0-279.0","62c2e95abeb001900b8ab0cb","665500ab8938657b03fbdba8","66579291476020bd2f6040ac","861","stimuli/2011001.jpg","2","","prediction_trial","1","","false","","2","false","true","false","false","false","false","[1,2]","011","001","0","","","","","","",""
"","","","","","image-keyboard-response","305","2128102","0.0-280.0","62c2e95abeb001900b8ab0cb","665500ab8938657b03fbdba8","66579291476020bd2f6040ac","457","stimuli/20110011.jpg"," ","","feedback_trial","1","","","","","","","","","","","","","","","","","","","","",""
"","","","","","image-keyboard-response","306","2129015","0.0-281.0","62c2e95abeb001900b8ab0cb","665500ab8938657b03fbdba8","66579291476020bd2f6040ac","912","stimuli/2001110.jpg","2","","prediction_trial","2","","true","","2","true","true","false","true","false","true","[2]","001","110","1","","","","","","",""
"","","","","","image-keyboard-response","307","2129529","0.0-282.0","62c2e95abeb001900b8ab0cb","665500ab8938657b03fbdba8","66579291476020bd2f6040ac","512","stimuli/20011102.jpg"," ","","feedback_trial","2","","","","","","","","","","","","","","","","","","","","",""
"","","","","","image-keyboard-response","308","2130411","0.0-283.0","62c2e95abeb001900b8ab0cb","665500ab8938657b03fbdba8","66579291476020bd2f6040ac","881","stimuli/1001101.jpg","1","","prediction_trial","1","","true","","1","true","true","true","true","true","true","[1]","001","101","1","","","","","","",""
"","","","","","image-keyboard-response","309","2130601","0.0-284.0","62c2e95abeb001900b8ab0cb","665500ab8938657b03fbdba8","66579291476020bd2f6040ac","190","stimuli/10011011.jpg"," ","","feedback_trial","1","","","","","","","","","","","","","","","","","","","","",""
"","","","","","image-keyboard-response","310","2131717","0.0-285.0","62c2e95abeb001900b8ab0cb","665500ab8938657b03fbdba8","66579291476020bd2f6040ac","1115","stimuli/0000101.jpg","2","","prediction_trial","0","","false","","0","false","false","true","true","false","false","[0]","000","101","0","","","","","","",""
"","","","","","image-keyboard-response","311","2132408","0.0-286.0","62c2e95abeb001900b8ab0cb","665500ab8938657b03fbdba8","66579291476020bd2f6040ac","690","stimuli/00001010.jpg"," ","","feedback_trial","0","","","","","","","","","","","","","","","","","","","","",""
"","","","","","image-keyboard-response","312","2133463","0.0-287.0","62c2e95abeb001900b8ab0cb","665500ab8938657b03fbdba8","66579291476020bd2f6040ac","1044","stimuli/0111000.jpg","0","","prediction_trial","0","","true","","0","true","true","false","false","false","false","[1,2,0]","111","000","1","","","","","","",""
"","","","","","image-keyboard-response","313","2133803","0.0-288.0","62c2e95abeb001900b8ab0cb","665500ab8938657b03fbdba8","66579291476020bd2f6040ac","339","stimuli/01110000.jpg"," ","","feedback_trial","1","","","","","","","","","","","","","","","","","","","","",""
"","","","","","image-keyboard-response","314","2134860","0.0-289.0","62c2e95abeb001900b8ab0cb","665500ab8938657b03fbdba8","66579291476020bd2f6040ac","1055","stimuli/0000100.jpg","0","","prediction_trial","0","","true","","0","false","true","true","true","false","true","[0]","000","100","1","","","","","","",""
"","","","","","image-keyboard-response","315","2135183","0.0-290.0","62c2e95abeb001900b8ab0cb","665500ab8938657b03fbdba8","66579291476020bd2f6040ac","323","stimuli/00001000.jpg"," ","","feedback_trial","0","","","","","","","","","","","","","","","","","","","","",""
"","","","","","image-keyboard-response","316","2136661","0.0-291.0","62c2e95abeb001900b8ab0cb","665500ab8938657b03fbdba8","66579291476020bd2f6040ac","1476","stimuli/2101101.jpg","0","","prediction_trial","2","","false","","2","false","false","false","false","false","false","[0,2]","101","101","0","","","","","","",""
"","","","","","image-keyboard-response","317","2137095","0.0-292.0","62c2e95abeb001900b8ab0cb","665500ab8938657b03fbdba8","66579291476020bd2f6040ac","433","stimuli/21011012.jpg"," ","","feedback_trial","0","","","","","","","","","","","","","","","","","","","","",""
"","","","","","survey-html-form","318","2174959","0.0-293.0","62c2e95abeb001900b8ab0cb","665500ab8938657b03fbdba8","66579291476020bd2f6040ac","37862","","{""feedback"":""I went with the ones I saw and the best prediction I could make for Sam."",""age"":""34"",""gender"":""Male"",""other_gender"":"""",""race"":""Black/African American"",""other_race"":"""",""ethnicity"":""Non-Hispanic""}","","exit_survey","","","","","","","","","","","","","","","","I went with the ones I saw and the best prediction I could make for Sam.","34","Non-Hispanic","Male","Black/African American","0.5694444444444444","0.5694444444444444"
