"success","timeout","failed_images","failed_audio","failed_video","trial_type","trial_index","time_elapsed","internal_node_id","prolific_id","prolific_study_id","prolific_session_id","rt","stimulus","response","view_history","trial","character_choice","stimulus_dict","accuracy","correct_response","ball_pos","ego_ball_visible","ego_can_infer","alter_ball_visible","alter_can_infer","collective_ball_visible","collective_can_infer","search_locations","alter_occluders","ego_occluders","accuracy_bool","feedback","age","ethnicity","gender","race","overall_accuracy","bonus"
"true","false","[]","[]","[]","preload","0","1566","0.0-0.0","5a4c1ecaefd8df0001d34305","665500ab8938657b03fbdba8","6657978989971b4f6cbee3ea","","","","","","","","","","","","","","","","","","","","","","","","","","",""
"true","","","","","fullscreen","1","4257","0.0-1.0","5a4c1ecaefd8df0001d34305","665500ab8938657b03fbdba8","6657978989971b4f6cbee3ea","","","","","","","","","","","","","","","","","","","","","","","","","","",""
"","","","","","html-button-response","2","5666","0.0-2.0","5a4c1ecaefd8df0001d34305","665500ab8938657b03fbdba8","6657978989971b4f6cbee3ea","1409","<p><b>Consent Form</b></p> <div style=""text-align:left;background-color:lightgrey; padding:20px; max-width:900px;""><p>Please consider this information carefully before deciding whether to participate in this research.</p> <p>The purpose of this research is to examine which factors influence social judgment and decision-making. You will be asked to make judgements about individuals and actions in social scenarios. We are simply interested in your judgement. The study will take less than 1 hour to complete, and you will receive less than $20 on Prolific. Your compensation and time commitment are specified in the study description. There are no anticipated risks associated with participating in this study. The effects of participating should be comparable to those you would ordinarily experience from viewing a computer monitor and using a mouse or keyboard for a similar amount of time. At the end of the study, we will provide an explanation of the questions that motivate this line of research and will describe the potential implications. </p><p> Your participation in this study is completely voluntary and you may refuse to participate or you may choose to withdraw at any time without penalty or loss of benefits to you which are otherwise entitled. Your participation in this study will remain confidential. No personally identifiable information will be associated with your data. Also, all analyses of the data will be averaged across all the participants, so your individual responses will never be specifically analyzed. </p><p> If you have questions or concerns about your participation or payment, or want to request a summary of research findings, please contact Dr. Jonathan Phillips at Jonathan.S.Phillips@dartmouth.edu. </p><p> Please save a copy of this form for your records. </p><p><b>Agreement: </b>The nature and purpose of this research have been sufficiently explained and I agree to participate in this study. I understand that I am free to withdraw at any time without incurring any penalty. Please consent by clicking the button below to continue. Otherwise, please exit the study at any time. </p>","0","","","","","","","","","","","","","","","","","","","","","","","",""
"","","","","","instructions","3","18098","0.0-3.0-0.0","5a4c1ecaefd8df0001d34305","665500ab8938657b03fbdba8","6657978989971b4f6cbee3ea","12431","","","[{""page_index"":0,""viewing_time"":1154},{""page_index"":1,""viewing_time"":1162},{""page_index"":2,""viewing_time"":590},{""page_index"":3,""viewing_time"":516},{""page_index"":4,""viewing_time"":459},{""page_index"":5,""viewing_time"":463},{""page_index"":6,""viewing_time"":433},{""page_index"":7,""viewing_time"":451},{""page_index"":8,""viewing_time"":471},{""page_index"":9,""viewing_time"":470},{""page_index"":10,""viewing_time"":2628},{""page_index"":11,""viewing_time"":1493},{""page_index"":12,""viewing_time"":1272},{""page_index"":13,""viewing_time"":869}]","intro","","","","","","","","","","","","","","","","","","","","","",""
"","","","","","image-keyboard-response","4","19389","0.0-3.0-1.0","5a4c1ecaefd8df0001d34305","665500ab8938657b03fbdba8","6657978989971b4f6cbee3ea","1289","stimuli/0101111.jpg","0","","prediction_practice","2","{""filepath"":""stimuli/0101111.jpg"",""ball_pos"":0,""ego_ball_visible"":false,""ego_can_infer"":false,""alter_ball_visible"":false,""alter_can_infer"":false,""collective_ball_visible"":false,""collective_can_infer"":false,""search_locations"":[2,0],""alter_occluders"":""101"",""ego_occluders"":""111""}","false","","","","","","","","","","","","","","","","","","",""
"","","","","","image-keyboard-response","5","19768","0.0-3.0-2.0","5a4c1ecaefd8df0001d34305","665500ab8938657b03fbdba8","6657978989971b4f6cbee3ea","378","stimuli/01011112.jpg"," ","","practrice_feedback","2","","","","","","","","","","","","","","","","","","","","",""
"","","","","","image-keyboard-response","6","20304","0.0-3.0-3.0","5a4c1ecaefd8df0001d34305","665500ab8938657b03fbdba8","6657978989971b4f6cbee3ea","535","stimuli/0001100.jpg","0","","prediction_practice","0","{""filepath"":""stimuli/0001100.jpg"",""ball_pos"":0,""ego_ball_visible"":false,""ego_can_infer"":true,""alter_ball_visible"":true,""alter_can_infer"":true,""collective_ball_visible"":false,""collective_can_infer"":true,""search_locations"":[0],""alter_occluders"":""001"",""ego_occluders"":""100""}","true","","","","","","","","","","","","","","","","","","",""
"","","","","","image-keyboard-response","7","20415","0.0-3.0-4.0","5a4c1ecaefd8df0001d34305","665500ab8938657b03fbdba8","6657978989971b4f6cbee3ea","110","stimuli/00011000.jpg"," ","","practrice_feedback","0","","","","","","","","","","","","","","","","","","","","",""
"","","","","","image-keyboard-response","8","20676","0.0-3.0-5.0","5a4c1ecaefd8df0001d34305","665500ab8938657b03fbdba8","6657978989971b4f6cbee3ea","260","stimuli/1100100.jpg","2","","prediction_practice","1","{""filepath"":""stimuli/1100100.jpg"",""ball_pos"":1,""ego_ball_visible"":true,""ego_can_infer"":true,""alter_ball_visible"":true,""alter_can_infer"":true,""collective_ball_visible"":true,""collective_can_infer"":true,""search_locations"":[1],""alter_occluders"":""100"",""ego_occluders"":""100""}","false","","","","","","","","","","","","","","","","","","",""
"","","","","","image-keyboard-response","9","20912","0.0-3.0-6.0","5a4c1ecaefd8df0001d34305","665500ab8938657b03fbdba8","6657978989971b4f6cbee3ea","235","stimuli/11001001.jpg"," ","","practrice_feedback","1","","","","","","","","","","","","","","","","","","","","",""
"","","","","","image-keyboard-response","10","20954","0.0-3.0-7.0","5a4c1ecaefd8df0001d34305","665500ab8938657b03fbdba8","6657978989971b4f6cbee3ea","41","stimuli/0000000.jpg","0","","prediction_practice","0","{""filepath"":""stimuli/0000000.jpg"",""ball_pos"":0,""ego_ball_visible"":true,""ego_can_infer"":true,""alter_ball_visible"":true,""alter_can_infer"":true,""collective_ball_visible"":true,""collective_can_infer"":true,""search_locations"":[0],""alter_occluders"":""000"",""ego_occluders"":""000""}","true","","","","","","","","","","","","","","","","","","",""
"","","","","","image-keyboard-response","11","21374","0.0-3.0-8.0","5a4c1ecaefd8df0001d34305","665500ab8938657b03fbdba8","6657978989971b4f6cbee3ea","420","stimuli/00000000.jpg"," ","","practrice_feedback","0","","","","","","","","","","","","","","","","","","","","",""
"","","","","","image-keyboard-response","12","21421","0.0-3.0-9.0","5a4c1ecaefd8df0001d34305","665500ab8938657b03fbdba8","6657978989971b4f6cbee3ea","46","stimuli/1101111.jpg","0","","prediction_practice","1","{""filepath"":""stimuli/1101111.jpg"",""ball_pos"":1,""ego_ball_visible"":false,""ego_can_infer"":false,""alter_ball_visible"":true,""alter_can_infer"":true,""collective_ball_visible"":false,""collective_can_infer"":false,""search_locations"":[1],""alter_occluders"":""101"",""ego_occluders"":""111""}","false","","","","","","","","","","","","","","","","","","",""
"","","","","","image-keyboard-response","13","21941","0.0-3.0-10.0","5a4c1ecaefd8df0001d34305","665500ab8938657b03fbdba8","6657978989971b4f6cbee3ea","520","stimuli/11011111.jpg"," ","","practrice_feedback","1","","","","","","","","","","","","","","","","","","","","",""
"","","","","","image-keyboard-response","14","22262","0.0-3.0-11.0","5a4c1ecaefd8df0001d34305","665500ab8938657b03fbdba8","6657978989971b4f6cbee3ea","320","stimuli/0111001.jpg","0","","prediction_practice","0","{""filepath"":""stimuli/0111001.jpg"",""ball_pos"":0,""ego_ball_visible"":true,""ego_can_infer"":true,""alter_ball_visible"":false,""alter_can_infer"":false,""collective_ball_visible"":false,""collective_can_infer"":false,""search_locations"":[0,2,1],""alter_occluders"":""111"",""ego_occluders"":""001""}","true","","","","","","","","","","","","","","","","","","",""
"","","","","","image-keyboard-response","15","22450","0.0-3.0-12.0","5a4c1ecaefd8df0001d34305","665500ab8938657b03fbdba8","6657978989971b4f6cbee3ea","187","stimuli/01110010.jpg"," ","","practrice_feedback","0","","","","","","","","","","","","","","","","","","","","",""
"","","","","","image-keyboard-response","16","22651","0.0-3.0-13.0","5a4c1ecaefd8df0001d34305","665500ab8938657b03fbdba8","6657978989971b4f6cbee3ea","201","stimuli/0101010.jpg","0","","prediction_practice","2","{""filepath"":""stimuli/0101010.jpg"",""ball_pos"":0,""ego_ball_visible"":true,""ego_can_infer"":true,""alter_ball_visible"":false,""alter_can_infer"":false,""collective_ball_visible"":false,""collective_can_infer"":false,""search_locations"":[0,2],""alter_occluders"":""101"",""ego_occluders"":""010""}","false","","","","","","","","","","","","","","","","","","",""
"","","","","","image-keyboard-response","17","22844","0.0-3.0-14.0","5a4c1ecaefd8df0001d34305","665500ab8938657b03fbdba8","6657978989971b4f6cbee3ea","193","stimuli/01010102.jpg"," ","","practrice_feedback","0","","","","","","","","","","","","","","","","","","","","",""
"","","","","","image-keyboard-response","18","23085","0.0-3.0-15.0","5a4c1ecaefd8df0001d34305","665500ab8938657b03fbdba8","6657978989971b4f6cbee3ea","240","stimuli/2101110.jpg","0","","prediction_practice","2","{""filepath"":""stimuli/2101110.jpg"",""ball_pos"":2,""ego_ball_visible"":true,""ego_can_infer"":true,""alter_ball_visible"":false,""alter_can_infer"":false,""collective_ball_visible"":false,""collective_can_infer"":false,""search_locations"":[0,2],""alter_occluders"":""101"",""ego_occluders"":""110""}","false","","","","","","","","","","","","","","","","","","",""
"","","","","","image-keyboard-response","19","23457","0.0-3.0-16.0","5a4c1ecaefd8df0001d34305","665500ab8938657b03fbdba8","6657978989971b4f6cbee3ea","372","stimuli/21011102.jpg"," ","","practrice_feedback","0","","","","","","","","","","","","","","","","","","","","",""
"","","","","","image-keyboard-response","20","24024","0.0-3.0-17.0","5a4c1ecaefd8df0001d34305","665500ab8938657b03fbdba8","6657978989971b4f6cbee3ea","566","stimuli/0110110.jpg","2","","prediction_practice","0","{""filepath"":""stimuli/0110110.jpg"",""ball_pos"":0,""ego_ball_visible"":false,""ego_can_infer"":false,""alter_ball_visible"":false,""alter_can_infer"":false,""collective_ball_visible"":false,""collective_can_infer"":false,""search_locations"":[0,1],""alter_occluders"":""110"",""ego_occluders"":""110""}","false","","","","","","","","","","","","","","","","","","",""
"","","","","","image-keyboard-response","21","24204","0.0-3.0-18.0","5a4c1ecaefd8df0001d34305","665500ab8938657b03fbdba8","6657978989971b4f6cbee3ea","180","stimuli/01101100.jpg"," ","","practrice_feedback","0","","","","","","","","","","","","","","","","","","","","",""
"","","","","","image-keyboard-response","22","25104","0.0-3.0-19.0","5a4c1ecaefd8df0001d34305","665500ab8938657b03fbdba8","6657978989971b4f6cbee3ea","899","stimuli/2000000.jpg","2","","prediction_practice","2","{""filepath"":""stimuli/2000000.jpg"",""ball_pos"":2,""ego_ball_visible"":true,""ego_can_infer"":true,""alter_ball_visible"":true,""alter_can_infer"":true,""collective_ball_visible"":true,""collective_can_infer"":true,""search_locations"":[2],""alter_occluders"":""000"",""ego_occluders"":""000""}","true","","","","","","","","","","","","","","","","","","",""
"","","","","","image-keyboard-response","23","25297","0.0-3.0-20.0","5a4c1ecaefd8df0001d34305","665500ab8938657b03fbdba8","6657978989971b4f6cbee3ea","193","stimuli/20000002.jpg"," ","","practrice_feedback","2","","","","","","","","","","","","","","","","","","","","",""
"","","","","","html-button-response","24","27960","0.0-3.0-21.0","5a4c1ecaefd8df0001d34305","665500ab8938657b03fbdba8","6657978989971b4f6cbee3ea","2662","Now that you've had some practice, you'll be tested with a couple of easy trials. If you correctly predict Sam's choice, you'll move on to complete the experiment!","0","","","","","","","","","","","","","","","","","","","","","","","",""
"","","","","","image-keyboard-response","25","29073","0.0-3.0-22.0-0.0","5a4c1ecaefd8df0001d34305","665500ab8938657b03fbdba8","6657978989971b4f6cbee3ea","1112","stimuli/0000011.jpg","arrowleft","","comprehension_quiz","","","true","arrowleft","","","","","","","","","","","","","","","","","",""
"","","","","","image-keyboard-response","26","29216","0.0-3.0-22.0-1.0","5a4c1ecaefd8df0001d34305","665500ab8938657b03fbdba8","6657978989971b4f6cbee3ea","142","stimuli/00000110.jpg"," ","","comprehension_quiz","","","true"," ","","","","","","","","","","","","","","","","","",""
"","","","","","image-keyboard-response","27","30708","0.0-3.0-22.0-2.0","5a4c1ecaefd8df0001d34305","665500ab8938657b03fbdba8","6657978989971b4f6cbee3ea","1492","stimuli/1010010.jpg","arrowdown","","comprehension_quiz","","","true","arrowdown","","","","","","","","","","","","","","","","","",""
"","","","","","image-keyboard-response","28","30884","0.0-3.0-22.0-3.0","5a4c1ecaefd8df0001d34305","665500ab8938657b03fbdba8","6657978989971b4f6cbee3ea","176","stimuli/10100101.jpg"," ","","comprehension_quiz","","","true"," ","","","","","","","","","","","","","","","","","",""
"","","","","","html-button-response","29","32676","0.0-4.0","5a4c1ecaefd8df0001d34305","665500ab8938657b03fbdba8","6657978989971b4f6cbee3ea","1791","The experiment will now begin.","0","","","","","","","","","","","","","","","","","","","","","","","",""
"","","","","","image-keyboard-response","30","34000","0.0-5.0","5a4c1ecaefd8df0001d34305","665500ab8938657b03fbdba8","6657978989971b4f6cbee3ea","1324","stimuli/0111000.jpg","0","","prediction_trial","2","","false","","0","true","true","false","false","false","false","[0,1,2]","111","000","0","","","","","","",""
"","","","","","image-keyboard-response","31","34717","0.0-6.0","5a4c1ecaefd8df0001d34305","665500ab8938657b03fbdba8","6657978989971b4f6cbee3ea","716","stimuli/01110002.jpg"," ","","feedback_trial","0","","","","","","","","","","","","","","","","","","","","",""
"","","","","","image-keyboard-response","32","34872","0.0-7.0","5a4c1ecaefd8df0001d34305","665500ab8938657b03fbdba8","6657978989971b4f6cbee3ea","154","stimuli/0000110.jpg","0","","prediction_trial","0","","true","","0","false","false","true","true","false","false","[0]","000","110","1","","","","","","",""
"","","","","","image-keyboard-response","33","35143","0.0-8.0","5a4c1ecaefd8df0001d34305","665500ab8938657b03fbdba8","6657978989971b4f6cbee3ea","270","stimuli/00001100.jpg"," ","","feedback_trial","0","","","","","","","","","","","","","","","","","","","","",""
"","","","","","image-keyboard-response","34","35374","0.0-9.0","5a4c1ecaefd8df0001d34305","665500ab8938657b03fbdba8","6657978989971b4f6cbee3ea","230","stimuli/1101110.jpg","0","","prediction_trial","1","","false","","1","false","false","true","true","false","false","[1]","101","110","0","","","","","","",""
"","","","","","image-keyboard-response","35","35622","0.0-10.0","5a4c1ecaefd8df0001d34305","665500ab8938657b03fbdba8","6657978989971b4f6cbee3ea","247","stimuli/11011101.jpg"," ","","feedback_trial","1","","","","","","","","","","","","","","","","","","","","",""
"","","","","","image-keyboard-response","36","36123","0.0-11.0","5a4c1ecaefd8df0001d34305","665500ab8938657b03fbdba8","6657978989971b4f6cbee3ea","501","stimuli/1001010.jpg","0","","prediction_trial","1","","false","","1","false","true","true","true","false","true","[1]","001","010","0","","","","","","",""
"","","","","","image-keyboard-response","37","36310","0.0-12.0","5a4c1ecaefd8df0001d34305","665500ab8938657b03fbdba8","6657978989971b4f6cbee3ea","186","stimuli/10010101.jpg"," ","","feedback_trial","1","","","","","","","","","","","","","","","","","","","","",""
"","","","","","image-keyboard-response","38","36732","0.0-13.0","5a4c1ecaefd8df0001d34305","665500ab8938657b03fbdba8","6657978989971b4f6cbee3ea","422","stimuli/0010101.jpg","0","","prediction_trial","0","","true","","0","false","false","true","true","false","false","[0]","010","101","1","","","","","","",""
"","","","","","image-keyboard-response","39","36885","0.0-14.0","5a4c1ecaefd8df0001d34305","665500ab8938657b03fbdba8","6657978989971b4f6cbee3ea","153","stimuli/00101010.jpg"," ","","feedback_trial","0","","","","","","","","","","","","","","","","","","","","",""
"","","","","","image-keyboard-response","40","37237","0.0-15.0","5a4c1ecaefd8df0001d34305","665500ab8938657b03fbdba8","6657978989971b4f6cbee3ea","352","stimuli/1100110.jpg","0","","prediction_trial","1","","false","","1","false","false","true","true","false","false","[1]","100","110","0","","","","","","",""
"","","","","","image-keyboard-response","41","37415","0.0-16.0","5a4c1ecaefd8df0001d34305","665500ab8938657b03fbdba8","6657978989971b4f6cbee3ea","177","stimuli/11001101.jpg"," ","","feedback_trial","1","","","","","","","","","","","","","","","","","","","","",""
"","","","","","image-keyboard-response","42","37888","0.0-17.0","5a4c1ecaefd8df0001d34305","665500ab8938657b03fbdba8","6657978989971b4f6cbee3ea","472","stimuli/1011110.jpg","0","","prediction_trial","1","","false","","1","false","false","false","false","false","false","[1,2]","011","110","0","","","","","","",""
"","","","","","image-keyboard-response","43","38377","0.0-18.0","5a4c1ecaefd8df0001d34305","665500ab8938657b03fbdba8","6657978989971b4f6cbee3ea","488","stimuli/10111101.jpg"," ","","feedback_trial","1","","","","","","","","","","","","","","","","","","","","",""
"","","","","","image-keyboard-response","44","38669","0.0-19.0","5a4c1ecaefd8df0001d34305","665500ab8938657b03fbdba8","6657978989971b4f6cbee3ea","291","stimuli/2111010.jpg","1","","prediction_trial","0","","false","","2","true","true","false","false","false","false","[2,1,0]","111","010","0","","","","","","",""
"","","","","","image-keyboard-response","45","39220","0.0-20.0","5a4c1ecaefd8df0001d34305","665500ab8938657b03fbdba8","6657978989971b4f6cbee3ea","550","stimuli/21110100.jpg"," ","","feedback_trial","2","","","","","","","","","","","","","","","","","","","","",""
"","","","","","image-keyboard-response","46","40091","0.0-21.0","5a4c1ecaefd8df0001d34305","665500ab8938657b03fbdba8","6657978989971b4f6cbee3ea","870","stimuli/0000101.jpg","1","","prediction_trial","0","","false","","0","false","false","true","true","false","false","[0]","000","101","0","","","","","","",""
"","","","","","image-keyboard-response","47","40834","0.0-22.0","5a4c1ecaefd8df0001d34305","665500ab8938657b03fbdba8","6657978989971b4f6cbee3ea","742","stimuli/00001010.jpg"," ","","feedback_trial","0","","","","","","","","","","","","","","","","","","","","",""
"","","","","","image-keyboard-response","48","41443","0.0-23.0","5a4c1ecaefd8df0001d34305","665500ab8938657b03fbdba8","6657978989971b4f6cbee3ea","608","stimuli/2011110.jpg","2","","prediction_trial","1","","false","","2","true","true","false","false","false","false","[1,2]","011","110","0","","","","","","",""
"","","","","","image-keyboard-response","49","41666","0.0-24.0","5a4c1ecaefd8df0001d34305","665500ab8938657b03fbdba8","6657978989971b4f6cbee3ea","223","stimuli/20111101.jpg"," ","","feedback_trial","1","","","","","","","","","","","","","","","","","","","","",""
"","","","","","image-keyboard-response","50","42287","0.0-25.0","5a4c1ecaefd8df0001d34305","665500ab8938657b03fbdba8","6657978989971b4f6cbee3ea","621","stimuli/1010110.jpg","2","","prediction_trial","1","","false","","1","false","false","false","true","false","false","[1]","010","110","0","","","","","","",""
"","","","","","image-keyboard-response","51","42433","0.0-26.0","5a4c1ecaefd8df0001d34305","665500ab8938657b03fbdba8","6657978989971b4f6cbee3ea","145","stimuli/10101101.jpg"," ","","feedback_trial","1","","","","","","","","","","","","","","","","","","","","",""
"","","","","","image-keyboard-response","52","43176","0.0-27.0","5a4c1ecaefd8df0001d34305","665500ab8938657b03fbdba8","6657978989971b4f6cbee3ea","742","stimuli/0011000.jpg","1","","prediction_trial","0","","false","","0","true","true","true","true","true","true","[0]","011","000","0","","","","","","",""
"","","","","","image-keyboard-response","53","43951","0.0-28.0","5a4c1ecaefd8df0001d34305","665500ab8938657b03fbdba8","6657978989971b4f6cbee3ea","774","stimuli/00110000.jpg"," ","","feedback_trial","0","","","","","","","","","","","","","","","","","","","","",""
"","","","","","image-keyboard-response","54","44698","0.0-29.0","5a4c1ecaefd8df0001d34305","665500ab8938657b03fbdba8","6657978989971b4f6cbee3ea","747","stimuli/0000011.jpg","0","","prediction_trial","0","","true","","0","true","true","true","true","true","true","[0]","000","011","1","","","","","","",""
"","","","","","image-keyboard-response","55","46004","0.0-30.0","5a4c1ecaefd8df0001d34305","665500ab8938657b03fbdba8","6657978989971b4f6cbee3ea","1304","stimuli/00000110.jpg"," ","","feedback_trial","0","","","","","","","","","","","","","","","","","","","","",""
"","","","","","image-keyboard-response","56","47376","0.0-31.0","5a4c1ecaefd8df0001d34305","665500ab8938657b03fbdba8","6657978989971b4f6cbee3ea","1371","stimuli/0110111.jpg","0","","prediction_trial","1","","false","","0","false","false","false","false","false","false","[0,1]","110","111","0","","","","","","",""
"","","","","","image-keyboard-response","57","47625","0.0-32.0","5a4c1ecaefd8df0001d34305","665500ab8938657b03fbdba8","6657978989971b4f6cbee3ea","248","stimuli/01101111.jpg"," ","","feedback_trial","0","","","","","","","","","","","","","","","","","","","","",""
"","","","","","image-keyboard-response","58","48168","0.0-33.0","5a4c1ecaefd8df0001d34305","665500ab8938657b03fbdba8","6657978989971b4f6cbee3ea","543","stimuli/2101111.jpg","0","","prediction_trial","2","","false","","2","false","false","false","false","false","false","[2,0]","101","111","0","","","","","","",""
"","","","","","image-keyboard-response","59","48350","0.0-34.0","5a4c1ecaefd8df0001d34305","665500ab8938657b03fbdba8","6657978989971b4f6cbee3ea","181","stimuli/21011112.jpg"," ","","feedback_trial","2","","","","","","","","","","","","","","","","","","","","",""
"","","","","","image-keyboard-response","60","49200","0.0-35.0","5a4c1ecaefd8df0001d34305","665500ab8938657b03fbdba8","6657978989971b4f6cbee3ea","849","stimuli/1010000.jpg","1","","prediction_trial","1","","true","","1","true","true","false","true","false","true","[1]","010","000","1","","","","","","",""
"","","","","","image-keyboard-response","61","49374","0.0-36.0","5a4c1ecaefd8df0001d34305","665500ab8938657b03fbdba8","6657978989971b4f6cbee3ea","173","stimuli/10100001.jpg"," ","","feedback_trial","1","","","","","","","","","","","","","","","","","","","","",""
"","","","","","image-keyboard-response","62","50297","0.0-37.0","5a4c1ecaefd8df0001d34305","665500ab8938657b03fbdba8","6657978989971b4f6cbee3ea","923","stimuli/1100010.jpg","0","","prediction_trial","1","","false","","1","false","true","true","true","false","true","[1]","100","010","0","","","","","","",""
"","","","","","image-keyboard-response","63","50829","0.0-38.0","5a4c1ecaefd8df0001d34305","665500ab8938657b03fbdba8","6657978989971b4f6cbee3ea","531","stimuli/11000101.jpg"," ","","feedback_trial","1","","","","","","","","","","","","","","","","","","","","",""
"","","","","","image-keyboard-response","64","51046","0.0-39.0","5a4c1ecaefd8df0001d34305","665500ab8938657b03fbdba8","6657978989971b4f6cbee3ea","216","stimuli/2100010.jpg","0","","prediction_trial","2","","false","","2","true","true","true","true","true","true","[2]","100","010","0","","","","","","",""
"","","","","","image-keyboard-response","65","52222","0.0-40.0","5a4c1ecaefd8df0001d34305","665500ab8938657b03fbdba8","6657978989971b4f6cbee3ea","1176","stimuli/21000102.jpg"," ","","feedback_trial","2","","","","","","","","","","","","","","","","","","","","",""
"","","","","","image-keyboard-response","66","53280","0.0-41.0","5a4c1ecaefd8df0001d34305","665500ab8938657b03fbdba8","6657978989971b4f6cbee3ea","1057","stimuli/1011010.jpg","2","","prediction_trial","1","","false","","1","false","true","false","false","false","false","[2,1]","011","010","0","","","","","","",""
"","","","","","image-keyboard-response","67","53683","0.0-42.0","5a4c1ecaefd8df0001d34305","665500ab8938657b03fbdba8","6657978989971b4f6cbee3ea","402","stimuli/10110101.jpg"," ","","feedback_trial","2","","","","","","","","","","","","","","","","","","","","",""
"","","","","","image-keyboard-response","68","55016","0.0-43.0","5a4c1ecaefd8df0001d34305","665500ab8938657b03fbdba8","6657978989971b4f6cbee3ea","1332","stimuli/2000110.jpg","2","","prediction_trial","2","","true","","2","true","true","true","true","true","true","[2]","000","110","1","","","","","","",""
"","","","","","image-keyboard-response","69","55307","0.0-44.0","5a4c1ecaefd8df0001d34305","665500ab8938657b03fbdba8","6657978989971b4f6cbee3ea","290","stimuli/20001102.jpg"," ","","feedback_trial","2","","","","","","","","","","","","","","","","","","","","",""
"","","","","","image-keyboard-response","70","56232","0.0-45.0","5a4c1ecaefd8df0001d34305","665500ab8938657b03fbdba8","6657978989971b4f6cbee3ea","924","stimuli/0000111.jpg","1","","prediction_trial","0","","false","","0","false","false","true","true","false","false","[0]","000","111","0","","","","","","",""
"","","","","","image-keyboard-response","71","56533","0.0-46.0","5a4c1ecaefd8df0001d34305","665500ab8938657b03fbdba8","6657978989971b4f6cbee3ea","301","stimuli/00001110.jpg"," ","","feedback_trial","0","","","","","","","","","","","","","","","","","","","","",""
"","","","","","image-keyboard-response","72","57116","0.0-47.0","5a4c1ecaefd8df0001d34305","665500ab8938657b03fbdba8","6657978989971b4f6cbee3ea","583","stimuli/0110110.jpg","1","","prediction_trial","0","","false","","0","false","false","false","false","false","false","[0,1]","110","110","0","","","","","","",""
"","","","","","image-keyboard-response","73","57294","0.0-48.0","5a4c1ecaefd8df0001d34305","665500ab8938657b03fbdba8","6657978989971b4f6cbee3ea","178","stimuli/01101100.jpg"," ","","feedback_trial","0","","","","","","","","","","","","","","","","","","","","",""
"","","","","","image-keyboard-response","74","57568","0.0-49.0","5a4c1ecaefd8df0001d34305","665500ab8938657b03fbdba8","6657978989971b4f6cbee3ea","273","stimuli/0101100.jpg","1","","prediction_trial","0","","false","","0","false","true","false","false","false","false","[0,2]","101","100","0","","","","","","",""
"","","","","","image-keyboard-response","75","57841","0.0-50.0","5a4c1ecaefd8df0001d34305","665500ab8938657b03fbdba8","6657978989971b4f6cbee3ea","272","stimuli/01011000.jpg"," ","","feedback_trial","0","","","","","","","","","","","","","","","","","","","","",""
"","","","","","image-keyboard-response","76","58140","0.0-51.0","5a4c1ecaefd8df0001d34305","665500ab8938657b03fbdba8","6657978989971b4f6cbee3ea","299","stimuli/1000100.jpg","1","","prediction_trial","1","","true","","1","true","true","true","true","true","true","[1]","000","100","1","","","","","","",""
"","","","","","image-keyboard-response","77","58404","0.0-52.0","5a4c1ecaefd8df0001d34305","665500ab8938657b03fbdba8","6657978989971b4f6cbee3ea","263","stimuli/10001001.jpg"," ","","feedback_trial","1","","","","","","","","","","","","","","","","","","","","",""
"","","","","","image-keyboard-response","78","58765","0.0-53.0","5a4c1ecaefd8df0001d34305","665500ab8938657b03fbdba8","6657978989971b4f6cbee3ea","360","stimuli/1100101.jpg","1","","prediction_trial","1","","true","","1","true","true","true","true","true","true","[1]","100","101","1","","","","","","",""
"","","","","","image-keyboard-response","79","59135","0.0-54.0","5a4c1ecaefd8df0001d34305","665500ab8938657b03fbdba8","6657978989971b4f6cbee3ea","369","stimuli/11001011.jpg"," ","","feedback_trial","1","","","","","","","","","","","","","","","","","","","","",""
"","","","","","image-keyboard-response","80","59756","0.0-55.0","5a4c1ecaefd8df0001d34305","665500ab8938657b03fbdba8","6657978989971b4f6cbee3ea","621","stimuli/1100011.jpg","1","","prediction_trial","1","","true","","1","false","false","true","true","false","false","[1]","100","011","1","","","","","","",""
"","","","","","image-keyboard-response","81","59988","0.0-56.0","5a4c1ecaefd8df0001d34305","665500ab8938657b03fbdba8","6657978989971b4f6cbee3ea","231","stimuli/11000111.jpg"," ","","feedback_trial","1","","","","","","","","","","","","","","","","","","","","",""
"","","","","","image-keyboard-response","82","60684","0.0-57.0","5a4c1ecaefd8df0001d34305","665500ab8938657b03fbdba8","6657978989971b4f6cbee3ea","695","stimuli/2010111.jpg","1","","prediction_trial","2","","false","","2","false","false","true","true","false","false","[2]","010","111","0","","","","","","",""
"","","","","","image-keyboard-response","83","60859","0.0-58.0","5a4c1ecaefd8df0001d34305","665500ab8938657b03fbdba8","6657978989971b4f6cbee3ea","174","stimuli/20101112.jpg"," ","","feedback_trial","2","","","","","","","","","","","","","","","","","","","","",""
"","","","","","image-keyboard-response","84","62091","0.0-59.0","5a4c1ecaefd8df0001d34305","665500ab8938657b03fbdba8","6657978989971b4f6cbee3ea","1231","stimuli/1011001.jpg","0","","prediction_trial","2","","false","","1","true","true","false","false","false","false","[1,2]","011","001","0","","","","","","",""
"","","","","","image-keyboard-response","85","62881","0.0-60.0","5a4c1ecaefd8df0001d34305","665500ab8938657b03fbdba8","6657978989971b4f6cbee3ea","790","stimuli/10110012.jpg"," ","","feedback_trial","1","","","","","","","","","","","","","","","","","","","","",""
"","","","","","image-keyboard-response","86","64046","0.0-61.0","5a4c1ecaefd8df0001d34305","665500ab8938657b03fbdba8","6657978989971b4f6cbee3ea","1164","stimuli/1110111.jpg","0","","prediction_trial","0","","true","","1","false","false","false","false","false","false","[1,0]","110","111","1","","","","","","",""
"","","","","","image-keyboard-response","87","64321","0.0-62.0","5a4c1ecaefd8df0001d34305","665500ab8938657b03fbdba8","6657978989971b4f6cbee3ea","275","stimuli/11101110.jpg"," ","","feedback_trial","1","","","","","","","","","","","","","","","","","","","","",""
"","","","","","image-keyboard-response","88","64958","0.0-63.0","5a4c1ecaefd8df0001d34305","665500ab8938657b03fbdba8","6657978989971b4f6cbee3ea","636","stimuli/0110011.jpg","0","","prediction_trial","0","","true","","0","true","true","false","false","false","false","[0,1]","110","011","1","","","","","","",""
"","","","","","image-keyboard-response","89","65206","0.0-64.0","5a4c1ecaefd8df0001d34305","665500ab8938657b03fbdba8","6657978989971b4f6cbee3ea","248","stimuli/01100110.jpg"," ","","feedback_trial","0","","","","","","","","","","","","","","","","","","","","",""
"","","","","","image-keyboard-response","90","66538","0.0-65.0","5a4c1ecaefd8df0001d34305","665500ab8938657b03fbdba8","6657978989971b4f6cbee3ea","1331","stimuli/1010011.jpg","1","","prediction_trial","1","","true","","1","false","false","false","true","false","false","[1]","010","011","1","","","","","","",""
"","","","","","image-keyboard-response","91","66796","0.0-66.0","5a4c1ecaefd8df0001d34305","665500ab8938657b03fbdba8","6657978989971b4f6cbee3ea","258","stimuli/10100111.jpg"," ","","feedback_trial","1","","","","","","","","","","","","","","","","","","","","",""
"","","","","","image-keyboard-response","92","68169","0.0-67.0","5a4c1ecaefd8df0001d34305","665500ab8938657b03fbdba8","6657978989971b4f6cbee3ea","1372","stimuli/0101010.jpg","0","","prediction_trial","2","","false","","0","true","true","false","false","false","false","[0,2]","101","010","0","","","","","","",""
"","","","","","image-keyboard-response","93","68714","0.0-68.0","5a4c1ecaefd8df0001d34305","665500ab8938657b03fbdba8","6657978989971b4f6cbee3ea","544","stimuli/01010102.jpg"," ","","feedback_trial","0","","","","","","","","","","","","","","","","","","","","",""
"","","","","","image-keyboard-response","94","68863","0.0-69.0","5a4c1ecaefd8df0001d34305","665500ab8938657b03fbdba8","6657978989971b4f6cbee3ea","149","stimuli/1111001.jpg","0","","prediction_trial","0","","true","","1","true","true","false","false","false","false","[2,1,0]","111","001","1","","","","","","",""
"","","","","","image-keyboard-response","95","69785","0.0-70.0","5a4c1ecaefd8df0001d34305","665500ab8938657b03fbdba8","6657978989971b4f6cbee3ea","921","stimuli/11110010.jpg"," ","","feedback_trial","2","","","","","","","","","","","","","","","","","","","","",""
"","","","","","image-keyboard-response","96","70442","0.0-71.0","5a4c1ecaefd8df0001d34305","665500ab8938657b03fbdba8","6657978989971b4f6cbee3ea","657","stimuli/0101011.jpg","0","","prediction_trial","2","","false","","0","true","true","false","false","false","false","[2,0]","101","011","0","","","","","","",""
"","","","","","image-keyboard-response","97","70672","0.0-72.0","5a4c1ecaefd8df0001d34305","665500ab8938657b03fbdba8","6657978989971b4f6cbee3ea","229","stimuli/01010112.jpg"," ","","feedback_trial","2","","","","","","","","","","","","","","","","","","","","",""
"","","","","","image-keyboard-response","98","72046","0.0-73.0","5a4c1ecaefd8df0001d34305","665500ab8938657b03fbdba8","6657978989971b4f6cbee3ea","1373","stimuli/0000010.jpg","0","","prediction_trial","0","","true","","0","true","true","true","true","true","true","[0]","000","010","1","","","","","","",""
"","","","","","image-keyboard-response","99","72298","0.0-74.0","5a4c1ecaefd8df0001d34305","665500ab8938657b03fbdba8","6657978989971b4f6cbee3ea","252","stimuli/00000100.jpg"," ","","feedback_trial","0","","","","","","","","","","","","","","","","","","","","",""
"","","","","","image-keyboard-response","100","74067","0.0-75.0","5a4c1ecaefd8df0001d34305","665500ab8938657b03fbdba8","6657978989971b4f6cbee3ea","1768","stimuli/2010101.jpg","0","","prediction_trial","2","","false","","2","false","false","true","true","false","false","[2]","010","101","0","","","","","","",""
"","","","","","image-keyboard-response","101","74304","0.0-76.0","5a4c1ecaefd8df0001d34305","665500ab8938657b03fbdba8","6657978989971b4f6cbee3ea","236","stimuli/20101012.jpg"," ","","feedback_trial","2","","","","","","","","","","","","","","","","","","","","",""
"","","","","","image-keyboard-response","102","75584","0.0-77.0","5a4c1ecaefd8df0001d34305","665500ab8938657b03fbdba8","6657978989971b4f6cbee3ea","1279","stimuli/2110011.jpg","1","","prediction_trial","2","","false","","2","false","false","true","true","false","false","[2]","110","011","0","","","","","","",""
"","","","","","image-keyboard-response","103","75756","0.0-78.0","5a4c1ecaefd8df0001d34305","665500ab8938657b03fbdba8","6657978989971b4f6cbee3ea","171","stimuli/21100112.jpg"," ","","feedback_trial","2","","","","","","","","","","","","","","","","","","","","",""
"","","","","","image-keyboard-response","104","77320","0.0-79.0","5a4c1ecaefd8df0001d34305","665500ab8938657b03fbdba8","6657978989971b4f6cbee3ea","1563","stimuli/2011100.jpg","2","","prediction_trial","1","","false","","2","true","true","false","false","false","false","[1,2]","011","100","0","","","","","","",""
"","","","","","image-keyboard-response","105","77552","0.0-80.0","5a4c1ecaefd8df0001d34305","665500ab8938657b03fbdba8","6657978989971b4f6cbee3ea","232","stimuli/20111001.jpg"," ","","feedback_trial","1","","","","","","","","","","","","","","","","","","","","",""
"","","","","","image-keyboard-response","106","78798","0.0-81.0","5a4c1ecaefd8df0001d34305","665500ab8938657b03fbdba8","6657978989971b4f6cbee3ea","1246","stimuli/2001100.jpg","2","","prediction_trial","2","","true","","2","true","true","false","true","false","true","[2]","001","100","1","","","","","","",""
"","","","","","image-keyboard-response","107","78962","0.0-82.0","5a4c1ecaefd8df0001d34305","665500ab8938657b03fbdba8","6657978989971b4f6cbee3ea","164","stimuli/20011002.jpg"," ","","feedback_trial","2","","","","","","","","","","","","","","","","","","","","",""
"","","","","","image-keyboard-response","108","80024","0.0-83.0","5a4c1ecaefd8df0001d34305","665500ab8938657b03fbdba8","6657978989971b4f6cbee3ea","1061","stimuli/1001110.jpg","1","","prediction_trial","1","","true","","1","false","false","true","true","false","false","[1]","001","110","1","","","","","","",""
"","","","","","image-keyboard-response","109","80206","0.0-84.0","5a4c1ecaefd8df0001d34305","665500ab8938657b03fbdba8","6657978989971b4f6cbee3ea","182","stimuli/10011101.jpg"," ","","feedback_trial","1","","","","","","","","","","","","","","","","","","","","",""
"","","","","","image-keyboard-response","110","80822","0.0-85.0","5a4c1ecaefd8df0001d34305","665500ab8938657b03fbdba8","6657978989971b4f6cbee3ea","615","stimuli/2111000.jpg","2","","prediction_trial","1","","false","","2","true","true","false","false","false","false","[2,1,0]","111","000","0","","","","","","",""
"","","","","","image-keyboard-response","111","81029","0.0-86.0","5a4c1ecaefd8df0001d34305","665500ab8938657b03fbdba8","6657978989971b4f6cbee3ea","206","stimuli/21110001.jpg"," ","","feedback_trial","2","","","","","","","","","","","","","","","","","","","","",""
"","","","","","image-keyboard-response","112","81657","0.0-87.0","5a4c1ecaefd8df0001d34305","665500ab8938657b03fbdba8","6657978989971b4f6cbee3ea","628","stimuli/1111000.jpg","1","","prediction_trial","0","","false","","1","true","true","false","false","false","false","[0,1,2]","111","000","0","","","","","","",""
"","","","","","image-keyboard-response","113","81878","0.0-88.0","5a4c1ecaefd8df0001d34305","665500ab8938657b03fbdba8","6657978989971b4f6cbee3ea","221","stimuli/11110000.jpg"," ","","feedback_trial","0","","","","","","","","","","","","","","","","","","","","",""
"","","","","","image-keyboard-response","114","82437","0.0-89.0","5a4c1ecaefd8df0001d34305","665500ab8938657b03fbdba8","6657978989971b4f6cbee3ea","558","stimuli/0110000.jpg","0","","prediction_trial","1","","false","","0","true","true","false","false","false","false","[0,1]","110","000","0","","","","","","",""
"","","","","","image-keyboard-response","115","82652","0.0-90.0","5a4c1ecaefd8df0001d34305","665500ab8938657b03fbdba8","6657978989971b4f6cbee3ea","214","stimuli/01100001.jpg"," ","","feedback_trial","0","","","","","","","","","","","","","","","","","","","","",""
"","","","","","image-keyboard-response","116","83208","0.0-91.0","5a4c1ecaefd8df0001d34305","665500ab8938657b03fbdba8","6657978989971b4f6cbee3ea","555","stimuli/2101110.jpg","2","","prediction_trial","0","","false","","2","true","true","false","false","false","false","[0,2]","101","110","0","","","","","","",""
"","","","","","image-keyboard-response","117","83437","0.0-92.0","5a4c1ecaefd8df0001d34305","665500ab8938657b03fbdba8","6657978989971b4f6cbee3ea","228","stimuli/21011100.jpg"," ","","feedback_trial","0","","","","","","","","","","","","","","","","","","","","",""
"","","","","","image-keyboard-response","118","84433","0.0-93.0","5a4c1ecaefd8df0001d34305","665500ab8938657b03fbdba8","6657978989971b4f6cbee3ea","996","stimuli/1100111.jpg","0","","prediction_trial","1","","false","","1","false","false","true","true","false","false","[1]","100","111","0","","","","","","",""
"","","","","","image-keyboard-response","119","84632","0.0-94.0","5a4c1ecaefd8df0001d34305","665500ab8938657b03fbdba8","6657978989971b4f6cbee3ea","199","stimuli/11001111.jpg"," ","","feedback_trial","1","","","","","","","","","","","","","","","","","","","","",""
"","","","","","image-keyboard-response","120","86212","0.0-95.0","5a4c1ecaefd8df0001d34305","665500ab8938657b03fbdba8","6657978989971b4f6cbee3ea","1579","stimuli/0011110.jpg","1","","prediction_trial","0","","false","","0","false","false","true","true","false","false","[0]","011","110","0","","","","","","",""
"","","","","","image-keyboard-response","121","86445","0.0-96.0","5a4c1ecaefd8df0001d34305","665500ab8938657b03fbdba8","6657978989971b4f6cbee3ea","232","stimuli/00111100.jpg"," ","","feedback_trial","0","","","","","","","","","","","","","","","","","","","","",""
"","","","","","image-keyboard-response","122","87776","0.0-97.0","5a4c1ecaefd8df0001d34305","665500ab8938657b03fbdba8","6657978989971b4f6cbee3ea","1330","stimuli/1101101.jpg","1","","prediction_trial","1","","true","","1","true","true","true","true","true","true","[1]","101","101","1","","","","","","",""
"","","","","","image-keyboard-response","123","87949","0.0-98.0","5a4c1ecaefd8df0001d34305","665500ab8938657b03fbdba8","6657978989971b4f6cbee3ea","173","stimuli/11011011.jpg"," ","","feedback_trial","1","","","","","","","","","","","","","","","","","","","","",""
"","","","","","image-keyboard-response","124","88540","0.0-99.0","5a4c1ecaefd8df0001d34305","665500ab8938657b03fbdba8","6657978989971b4f6cbee3ea","591","stimuli/1100000.jpg","1","","prediction_trial","1","","true","","1","true","true","true","true","true","true","[1]","100","000","1","","","","","","",""
"","","","","","image-keyboard-response","125","88748","0.0-100.0","5a4c1ecaefd8df0001d34305","665500ab8938657b03fbdba8","6657978989971b4f6cbee3ea","207","stimuli/11000001.jpg"," ","","feedback_trial","1","","","","","","","","","","","","","","","","","","","","",""
"","","","","","image-keyboard-response","126","89484","0.0-101.0","5a4c1ecaefd8df0001d34305","665500ab8938657b03fbdba8","6657978989971b4f6cbee3ea","735","stimuli/1000010.jpg","0","","prediction_trial","1","","false","","1","false","true","true","true","false","true","[1]","000","010","0","","","","","","",""
"","","","","","image-keyboard-response","127","89688","0.0-102.0","5a4c1ecaefd8df0001d34305","665500ab8938657b03fbdba8","6657978989971b4f6cbee3ea","203","stimuli/10000101.jpg"," ","","feedback_trial","1","","","","","","","","","","","","","","","","","","","","",""
"","","","","","image-keyboard-response","128","90555","0.0-103.0","5a4c1ecaefd8df0001d34305","665500ab8938657b03fbdba8","6657978989971b4f6cbee3ea","866","stimuli/2111001.jpg","1","","prediction_trial","2","","false","","2","false","true","false","false","false","false","[2,0,1]","111","001","0","","","","","","",""
"","","","","","image-keyboard-response","129","90693","0.0-104.0","5a4c1ecaefd8df0001d34305","665500ab8938657b03fbdba8","6657978989971b4f6cbee3ea","137","stimuli/21110012.jpg"," ","","feedback_trial","2","","","","","","","","","","","","","","","","","","","","",""
"","","","","","image-keyboard-response","130","91415","0.0-105.0","5a4c1ecaefd8df0001d34305","665500ab8938657b03fbdba8","6657978989971b4f6cbee3ea","722","stimuli/0111100.jpg","0","","prediction_trial","0","","true","","0","false","true","false","false","false","false","[1,0,2]","111","100","1","","","","","","",""
"","","","","","image-keyboard-response","131","91610","0.0-106.0","5a4c1ecaefd8df0001d34305","665500ab8938657b03fbdba8","6657978989971b4f6cbee3ea","194","stimuli/01111000.jpg"," ","","feedback_trial","1","","","","","","","","","","","","","","","","","","","","",""
"","","","","","image-keyboard-response","132","92624","0.0-107.0","5a4c1ecaefd8df0001d34305","665500ab8938657b03fbdba8","6657978989971b4f6cbee3ea","1013","stimuli/1110001.jpg","1","","prediction_trial","0","","false","","1","true","true","false","false","false","false","[1,0]","110","001","0","","","","","","",""
"","","","","","image-keyboard-response","133","92820","0.0-108.0","5a4c1ecaefd8df0001d34305","665500ab8938657b03fbdba8","6657978989971b4f6cbee3ea","196","stimuli/11100010.jpg"," ","","feedback_trial","1","","","","","","","","","","","","","","","","","","","","",""
"","","","","","image-keyboard-response","134","93596","0.0-109.0","5a4c1ecaefd8df0001d34305","665500ab8938657b03fbdba8","6657978989971b4f6cbee3ea","775","stimuli/2100101.jpg","0","","prediction_trial","2","","false","","2","false","false","true","true","false","false","[2]","100","101","0","","","","","","",""
"","","","","","image-keyboard-response","135","93823","0.0-110.0","5a4c1ecaefd8df0001d34305","665500ab8938657b03fbdba8","6657978989971b4f6cbee3ea","226","stimuli/21001012.jpg"," ","","feedback_trial","2","","","","","","","","","","","","","","","","","","","","",""
"","","","","","image-keyboard-response","136","94886","0.0-111.0","5a4c1ecaefd8df0001d34305","665500ab8938657b03fbdba8","6657978989971b4f6cbee3ea","1062","stimuli/1011111.jpg","1","","prediction_trial","1","","true","","1","false","false","false","false","false","false","[1,2]","011","111","1","","","","","","",""
"","","","","","image-keyboard-response","137","95040","0.0-112.0","5a4c1ecaefd8df0001d34305","665500ab8938657b03fbdba8","6657978989971b4f6cbee3ea","154","stimuli/10111111.jpg"," ","","feedback_trial","1","","","","","","","","","","","","","","","","","","","","",""
"","","","","","image-keyboard-response","138","95624","0.0-113.0","5a4c1ecaefd8df0001d34305","665500ab8938657b03fbdba8","6657978989971b4f6cbee3ea","583","stimuli/2010010.jpg","2","","prediction_trial","2","","true","","2","true","true","true","true","true","true","[2]","010","010","1","","","","","","",""
"","","","","","image-keyboard-response","139","95753","0.0-114.0","5a4c1ecaefd8df0001d34305","665500ab8938657b03fbdba8","6657978989971b4f6cbee3ea","129","stimuli/20100102.jpg"," ","","feedback_trial","2","","","","","","","","","","","","","","","","","","","","",""
"","","","","","image-keyboard-response","140","96352","0.0-115.0","5a4c1ecaefd8df0001d34305","665500ab8938657b03fbdba8","6657978989971b4f6cbee3ea","599","stimuli/2100100.jpg","1","","prediction_trial","2","","false","","2","true","true","true","true","true","true","[2]","100","100","0","","","","","","",""
"","","","","","image-keyboard-response","141","97247","0.0-116.0","5a4c1ecaefd8df0001d34305","665500ab8938657b03fbdba8","6657978989971b4f6cbee3ea","894","stimuli/21001002.jpg"," ","","feedback_trial","2","","","","","","","","","","","","","","","","","","","","",""
"","","","","","image-keyboard-response","142","97803","0.0-117.0","5a4c1ecaefd8df0001d34305","665500ab8938657b03fbdba8","6657978989971b4f6cbee3ea","556","stimuli/2000001.jpg","2","","prediction_trial","2","","true","","2","false","true","true","true","false","true","[2]","000","001","1","","","","","","",""
"","","","","","image-keyboard-response","143","98013","0.0-118.0","5a4c1ecaefd8df0001d34305","665500ab8938657b03fbdba8","6657978989971b4f6cbee3ea","209","stimuli/20000012.jpg"," ","","feedback_trial","2","","","","","","","","","","","","","","","","","","","","",""
"","","","","","image-keyboard-response","144","98623","0.0-119.0","5a4c1ecaefd8df0001d34305","665500ab8938657b03fbdba8","6657978989971b4f6cbee3ea","609","stimuli/0111001.jpg","0","","prediction_trial","1","","false","","0","true","true","false","false","false","false","[0,2,1]","111","001","0","","","","","","",""
"","","","","","image-keyboard-response","145","98759","0.0-120.0","5a4c1ecaefd8df0001d34305","665500ab8938657b03fbdba8","6657978989971b4f6cbee3ea","136","stimuli/01110011.jpg"," ","","feedback_trial","0","","","","","","","","","","","","","","","","","","","","",""
"","","","","","image-keyboard-response","146","99393","0.0-121.0","5a4c1ecaefd8df0001d34305","665500ab8938657b03fbdba8","6657978989971b4f6cbee3ea","633","stimuli/1100001.jpg","1","","prediction_trial","1","","true","","1","true","true","true","true","true","true","[1]","100","001","1","","","","","","",""
"","","","","","image-keyboard-response","147","99584","0.0-122.0","5a4c1ecaefd8df0001d34305","665500ab8938657b03fbdba8","6657978989971b4f6cbee3ea","190","stimuli/11000011.jpg"," ","","feedback_trial","1","","","","","","","","","","","","","","","","","","","","",""
"","","","","","image-keyboard-response","148","100418","0.0-123.0","5a4c1ecaefd8df0001d34305","665500ab8938657b03fbdba8","6657978989971b4f6cbee3ea","834","stimuli/1110110.jpg","0","","prediction_trial","0","","true","","1","false","false","false","false","false","false","[1,0]","110","110","1","","","","","","",""
"","","","","","image-keyboard-response","149","100585","0.0-124.0","5a4c1ecaefd8df0001d34305","665500ab8938657b03fbdba8","6657978989971b4f6cbee3ea","166","stimuli/11101100.jpg"," ","","feedback_trial","1","","","","","","","","","","","","","","","","","","","","",""
"","","","","","image-keyboard-response","150","101114","0.0-125.0","5a4c1ecaefd8df0001d34305","665500ab8938657b03fbdba8","6657978989971b4f6cbee3ea","528","stimuli/1011100.jpg","1","","prediction_trial","1","","true","","1","true","true","false","false","false","false","[1,2]","011","100","1","","","","","","",""
"","","","","","image-keyboard-response","151","101298","0.0-126.0","5a4c1ecaefd8df0001d34305","665500ab8938657b03fbdba8","6657978989971b4f6cbee3ea","183","stimuli/10111001.jpg"," ","","feedback_trial","1","","","","","","","","","","","","","","","","","","","","",""
"","","","","","image-keyboard-response","152","102047","0.0-127.0","5a4c1ecaefd8df0001d34305","665500ab8938657b03fbdba8","6657978989971b4f6cbee3ea","748","stimuli/2111111.jpg","0","","prediction_trial","2","","false","","2","false","false","false","false","false","false","[2,1,0]","111","111","0","","","","","","",""
"","","","","","image-keyboard-response","153","102152","0.0-128.0","5a4c1ecaefd8df0001d34305","665500ab8938657b03fbdba8","6657978989971b4f6cbee3ea","104","stimuli/21111112.jpg"," ","","feedback_trial","2","","","","","","","","","","","","","","","","","","","","",""
"","","","","","image-keyboard-response","154","102662","0.0-129.0","5a4c1ecaefd8df0001d34305","665500ab8938657b03fbdba8","6657978989971b4f6cbee3ea","508","stimuli/2110000.jpg","2","","prediction_trial","2","","true","","2","true","true","true","true","true","true","[2]","110","000","1","","","","","","",""
"","","","","","image-keyboard-response","155","102830","0.0-130.0","5a4c1ecaefd8df0001d34305","665500ab8938657b03fbdba8","6657978989971b4f6cbee3ea","168","stimuli/21100002.jpg"," ","","feedback_trial","2","","","","","","","","","","","","","","","","","","","","",""
"","","","","","image-keyboard-response","156","103446","0.0-131.0","5a4c1ecaefd8df0001d34305","665500ab8938657b03fbdba8","6657978989971b4f6cbee3ea","615","stimuli/1000001.jpg","1","","prediction_trial","1","","true","","1","true","true","true","true","true","true","[1]","000","001","1","","","","","","",""
"","","","","","image-keyboard-response","157","103641","0.0-132.0","5a4c1ecaefd8df0001d34305","665500ab8938657b03fbdba8","6657978989971b4f6cbee3ea","194","stimuli/10000011.jpg"," ","","feedback_trial","1","","","","","","","","","","","","","","","","","","","","",""
"","","","","","image-keyboard-response","158","104231","0.0-133.0","5a4c1ecaefd8df0001d34305","665500ab8938657b03fbdba8","6657978989971b4f6cbee3ea","589","stimuli/0011011.jpg","0","","prediction_trial","0","","true","","0","true","true","true","true","true","true","[0]","011","011","1","","","","","","",""
"","","","","","image-keyboard-response","159","104356","0.0-134.0","5a4c1ecaefd8df0001d34305","665500ab8938657b03fbdba8","6657978989971b4f6cbee3ea","124","stimuli/00110110.jpg"," ","","feedback_trial","0","","","","","","","","","","","","","","","","","","","","",""
"","","","","","image-keyboard-response","160","104919","0.0-135.0","5a4c1ecaefd8df0001d34305","665500ab8938657b03fbdba8","6657978989971b4f6cbee3ea","563","stimuli/1110101.jpg","1","","prediction_trial","1","","true","","1","true","true","false","false","false","false","[1,0]","110","101","1","","","","","","",""
"","","","","","image-keyboard-response","161","105135","0.0-136.0","5a4c1ecaefd8df0001d34305","665500ab8938657b03fbdba8","6657978989971b4f6cbee3ea","215","stimuli/11101011.jpg"," ","","feedback_trial","1","","","","","","","","","","","","","","","","","","","","",""
"","","","","","image-keyboard-response","162","105694","0.0-137.0","5a4c1ecaefd8df0001d34305","665500ab8938657b03fbdba8","6657978989971b4f6cbee3ea","559","stimuli/0001111.jpg","2","","prediction_trial","0","","false","","0","false","false","true","true","false","false","[0]","001","111","0","","","","","","",""
"","","","","","image-keyboard-response","163","105925","0.0-138.0","5a4c1ecaefd8df0001d34305","665500ab8938657b03fbdba8","6657978989971b4f6cbee3ea","230","stimuli/00011110.jpg"," ","","feedback_trial","0","","","","","","","","","","","","","","","","","","","","",""
"","","","","","image-keyboard-response","164","106444","0.0-139.0","5a4c1ecaefd8df0001d34305","665500ab8938657b03fbdba8","6657978989971b4f6cbee3ea","518","stimuli/0000001.jpg","0","","prediction_trial","0","","true","","0","true","true","true","true","true","true","[0]","000","001","1","","","","","","",""
"","","","","","image-keyboard-response","165","106647","0.0-140.0","5a4c1ecaefd8df0001d34305","665500ab8938657b03fbdba8","6657978989971b4f6cbee3ea","203","stimuli/00000010.jpg"," ","","feedback_trial","0","","","","","","","","","","","","","","","","","","","","",""
"","","","","","image-keyboard-response","166","107262","0.0-141.0","5a4c1ecaefd8df0001d34305","665500ab8938657b03fbdba8","6657978989971b4f6cbee3ea","614","stimuli/0001000.jpg","0","","prediction_trial","0","","true","","0","true","true","true","true","true","true","[0]","001","000","1","","","","","","",""
"","","","","","image-keyboard-response","167","107454","0.0-142.0","5a4c1ecaefd8df0001d34305","665500ab8938657b03fbdba8","6657978989971b4f6cbee3ea","191","stimuli/00010000.jpg"," ","","feedback_trial","0","","","","","","","","","","","","","","","","","","","","",""
"","","","","","image-keyboard-response","168","108171","0.0-143.0","5a4c1ecaefd8df0001d34305","665500ab8938657b03fbdba8","6657978989971b4f6cbee3ea","716","stimuli/2000011.jpg","1","","prediction_trial","2","","false","","2","false","false","true","true","false","false","[2]","000","011","0","","","","","","",""
"","","","","","image-keyboard-response","169","108368","0.0-144.0","5a4c1ecaefd8df0001d34305","665500ab8938657b03fbdba8","6657978989971b4f6cbee3ea","196","stimuli/20000112.jpg"," ","","feedback_trial","2","","","","","","","","","","","","","","","","","","","","",""
"","","","","","image-keyboard-response","170","108944","0.0-145.0","5a4c1ecaefd8df0001d34305","665500ab8938657b03fbdba8","6657978989971b4f6cbee3ea","575","stimuli/0111101.jpg","0","","prediction_trial","0","","true","","0","false","false","false","false","false","false","[0,2,1]","111","101","1","","","","","","",""
"","","","","","image-keyboard-response","171","109114","0.0-146.0","5a4c1ecaefd8df0001d34305","665500ab8938657b03fbdba8","6657978989971b4f6cbee3ea","170","stimuli/01111010.jpg"," ","","feedback_trial","0","","","","","","","","","","","","","","","","","","","","",""
"","","","","","image-keyboard-response","172","109741","0.0-147.0","5a4c1ecaefd8df0001d34305","665500ab8938657b03fbdba8","6657978989971b4f6cbee3ea","626","stimuli/0011111.jpg","1","","prediction_trial","0","","false","","0","false","false","true","true","false","false","[0]","011","111","0","","","","","","",""
"","","","","","image-keyboard-response","173","109972","0.0-148.0","5a4c1ecaefd8df0001d34305","665500ab8938657b03fbdba8","6657978989971b4f6cbee3ea","230","stimuli/00111110.jpg"," ","","feedback_trial","0","","","","","","","","","","","","","","","","","","","","",""
"","","","","","image-keyboard-response","174","110462","0.0-149.0","5a4c1ecaefd8df0001d34305","665500ab8938657b03fbdba8","6657978989971b4f6cbee3ea","490","stimuli/2010100.jpg","2","","prediction_trial","2","","true","","2","true","true","true","true","true","true","[2]","010","100","1","","","","","","",""
"","","","","","image-keyboard-response","175","110683","0.0-150.0","5a4c1ecaefd8df0001d34305","665500ab8938657b03fbdba8","6657978989971b4f6cbee3ea","220","stimuli/20101002.jpg"," ","","feedback_trial","2","","","","","","","","","","","","","","","","","","","","",""
"","","","","","image-keyboard-response","176","111321","0.0-151.0","5a4c1ecaefd8df0001d34305","665500ab8938657b03fbdba8","6657978989971b4f6cbee3ea","637","stimuli/2101101.jpg","0","","prediction_trial","2","","false","","2","false","false","false","false","false","false","[0,2]","101","101","0","","","","","","",""
"","","","","","image-keyboard-response","177","111485","0.0-152.0","5a4c1ecaefd8df0001d34305","665500ab8938657b03fbdba8","6657978989971b4f6cbee3ea","164","stimuli/21011012.jpg"," ","","feedback_trial","0","","","","","","","","","","","","","","","","","","","","",""
"","","","","","image-keyboard-response","178","112110","0.0-153.0","5a4c1ecaefd8df0001d34305","665500ab8938657b03fbdba8","6657978989971b4f6cbee3ea","624","stimuli/0011101.jpg","2","","prediction_trial","0","","false","","0","false","false","true","true","false","false","[0]","011","101","0","","","","","","",""
"","","","","","image-keyboard-response","179","112319","0.0-154.0","5a4c1ecaefd8df0001d34305","665500ab8938657b03fbdba8","6657978989971b4f6cbee3ea","209","stimuli/00111010.jpg"," ","","feedback_trial","0","","","","","","","","","","","","","","","","","","","","",""
"","","","","","image-keyboard-response","180","112870","0.0-155.0","5a4c1ecaefd8df0001d34305","665500ab8938657b03fbdba8","6657978989971b4f6cbee3ea","550","stimuli/0000000.jpg","0","","prediction_trial","0","","true","","0","true","true","true","true","true","true","[0]","000","000","1","","","","","","",""
"","","","","","image-keyboard-response","181","113071","0.0-156.0","5a4c1ecaefd8df0001d34305","665500ab8938657b03fbdba8","6657978989971b4f6cbee3ea","201","stimuli/00000000.jpg"," ","","feedback_trial","0","","","","","","","","","","","","","","","","","","","","",""
"","","","","","image-keyboard-response","182","113679","0.0-157.0","5a4c1ecaefd8df0001d34305","665500ab8938657b03fbdba8","6657978989971b4f6cbee3ea","607","stimuli/2101011.jpg","1","","prediction_trial","2","","false","","2","false","false","false","false","false","false","[0,2]","101","011","0","","","","","","",""
"","","","","","image-keyboard-response","183","113891","0.0-158.0","5a4c1ecaefd8df0001d34305","665500ab8938657b03fbdba8","6657978989971b4f6cbee3ea","211","stimuli/21010112.jpg"," ","","feedback_trial","0","","","","","","","","","","","","","","","","","","","","",""
"","","","","","image-keyboard-response","184","114504","0.0-159.0","5a4c1ecaefd8df0001d34305","665500ab8938657b03fbdba8","6657978989971b4f6cbee3ea","612","stimuli/1111100.jpg","1","","prediction_trial","2","","false","","1","true","true","false","false","false","false","[0,1,2]","111","100","0","","","","","","",""
"","","","","","image-keyboard-response","185","114721","0.0-160.0","5a4c1ecaefd8df0001d34305","665500ab8938657b03fbdba8","6657978989971b4f6cbee3ea","216","stimuli/11111002.jpg"," ","","feedback_trial","0","","","","","","","","","","","","","","","","","","","","",""
"","","","","","image-keyboard-response","186","115440","0.0-161.0","5a4c1ecaefd8df0001d34305","665500ab8938657b03fbdba8","6657978989971b4f6cbee3ea","719","stimuli/1111010.jpg","1","","prediction_trial","2","","false","","1","false","true","false","false","false","false","[2,0,1]","111","010","0","","","","","","",""
"","","","","","image-keyboard-response","187","115658","0.0-162.0","5a4c1ecaefd8df0001d34305","665500ab8938657b03fbdba8","6657978989971b4f6cbee3ea","218","stimuli/11110102.jpg"," ","","feedback_trial","2","","","","","","","","","","","","","","","","","","","","",""
"","","","","","image-keyboard-response","188","116205","0.0-163.0","5a4c1ecaefd8df0001d34305","665500ab8938657b03fbdba8","6657978989971b4f6cbee3ea","546","stimuli/0101001.jpg","0","","prediction_trial","0","","true","","0","true","true","false","false","false","false","[0,2]","101","001","1","","","","","","",""
"","","","","","image-keyboard-response","189","116398","0.0-164.0","5a4c1ecaefd8df0001d34305","665500ab8938657b03fbdba8","6657978989971b4f6cbee3ea","193","stimuli/01010010.jpg"," ","","feedback_trial","0","","","","","","","","","","","","","","","","","","","","",""
"","","","","","image-keyboard-response","190","117047","0.0-165.0","5a4c1ecaefd8df0001d34305","665500ab8938657b03fbdba8","6657978989971b4f6cbee3ea","648","stimuli/2010011.jpg","1","","prediction_trial","2","","false","","2","false","false","true","true","false","false","[2]","010","011","0","","","","","","",""
"","","","","","image-keyboard-response","191","117235","0.0-166.0","5a4c1ecaefd8df0001d34305","665500ab8938657b03fbdba8","6657978989971b4f6cbee3ea","188","stimuli/20100112.jpg"," ","","feedback_trial","2","","","","","","","","","","","","","","","","","","","","",""
"","","","","","image-keyboard-response","192","117816","0.0-167.0","5a4c1ecaefd8df0001d34305","665500ab8938657b03fbdba8","6657978989971b4f6cbee3ea","580","stimuli/1111111.jpg","1","","prediction_trial","1","","true","","1","false","false","false","false","false","false","[1,2,0]","111","111","1","","","","","","",""
"","","","","","image-keyboard-response","193","118016","0.0-168.0","5a4c1ecaefd8df0001d34305","665500ab8938657b03fbdba8","6657978989971b4f6cbee3ea","199","stimuli/11111111.jpg"," ","","feedback_trial","1","","","","","","","","","","","","","","","","","","","","",""
"","","","","","image-keyboard-response","194","118512","0.0-169.0","5a4c1ecaefd8df0001d34305","665500ab8938657b03fbdba8","6657978989971b4f6cbee3ea","495","stimuli/2100000.jpg","2","","prediction_trial","2","","true","","2","true","true","true","true","true","true","[2]","100","000","1","","","","","","",""
"","","","","","image-keyboard-response","195","118757","0.0-170.0","5a4c1ecaefd8df0001d34305","665500ab8938657b03fbdba8","6657978989971b4f6cbee3ea","245","stimuli/21000002.jpg"," ","","feedback_trial","2","","","","","","","","","","","","","","","","","","","","",""
"","","","","","image-keyboard-response","196","119389","0.0-171.0","5a4c1ecaefd8df0001d34305","665500ab8938657b03fbdba8","6657978989971b4f6cbee3ea","631","stimuli/0110001.jpg","0","","prediction_trial","0","","true","","0","true","true","false","false","false","false","[1,0]","110","001","1","","","","","","",""
"","","","","","image-keyboard-response","197","119592","0.0-172.0","5a4c1ecaefd8df0001d34305","665500ab8938657b03fbdba8","6657978989971b4f6cbee3ea","203","stimuli/01100010.jpg"," ","","feedback_trial","1","","","","","","","","","","","","","","","","","","","","",""
"","","","","","image-keyboard-response","198","120253","0.0-173.0","5a4c1ecaefd8df0001d34305","665500ab8938657b03fbdba8","6657978989971b4f6cbee3ea","660","stimuli/2100011.jpg","1","","prediction_trial","2","","false","","2","false","false","true","true","false","false","[2]","100","011","0","","","","","","",""
"","","","","","image-keyboard-response","199","120485","0.0-174.0","5a4c1ecaefd8df0001d34305","665500ab8938657b03fbdba8","6657978989971b4f6cbee3ea","231","stimuli/21000112.jpg"," ","","feedback_trial","2","","","","","","","","","","","","","","","","","","","","",""
"","","","","","image-keyboard-response","200","120974","0.0-175.0","5a4c1ecaefd8df0001d34305","665500ab8938657b03fbdba8","6657978989971b4f6cbee3ea","488","stimuli/1101011.jpg","0","","prediction_trial","1","","false","","1","false","false","true","true","false","false","[1]","101","011","0","","","","","","",""
"","","","","","image-keyboard-response","201","121196","0.0-176.0","5a4c1ecaefd8df0001d34305","665500ab8938657b03fbdba8","6657978989971b4f6cbee3ea","221","stimuli/11010111.jpg"," ","","feedback_trial","1","","","","","","","","","","","","","","","","","","","","",""
"","","","","","image-keyboard-response","202","121741","0.0-177.0","5a4c1ecaefd8df0001d34305","665500ab8938657b03fbdba8","6657978989971b4f6cbee3ea","544","stimuli/0100111.jpg","0","","prediction_trial","0","","true","","0","false","false","false","true","false","false","[0]","100","111","1","","","","","","",""
"","","","","","image-keyboard-response","203","121993","0.0-178.0","5a4c1ecaefd8df0001d34305","665500ab8938657b03fbdba8","6657978989971b4f6cbee3ea","252","stimuli/01001110.jpg"," ","","feedback_trial","0","","","","","","","","","","","","","","","","","","","","",""
"","","","","","image-keyboard-response","204","122595","0.0-179.0","5a4c1ecaefd8df0001d34305","665500ab8938657b03fbdba8","6657978989971b4f6cbee3ea","601","stimuli/1101100.jpg","1","","prediction_trial","1","","true","","1","true","true","true","true","true","true","[1]","101","100","1","","","","","","",""
"","","","","","image-keyboard-response","205","122782","0.0-180.0","5a4c1ecaefd8df0001d34305","665500ab8938657b03fbdba8","6657978989971b4f6cbee3ea","186","stimuli/11011001.jpg"," ","","feedback_trial","1","","","","","","","","","","","","","","","","","","","","",""
"","","","","","image-keyboard-response","206","123326","0.0-181.0","5a4c1ecaefd8df0001d34305","665500ab8938657b03fbdba8","6657978989971b4f6cbee3ea","544","stimuli/0001110.jpg","0","","prediction_trial","0","","true","","0","false","false","true","true","false","false","[0]","001","110","1","","","","","","",""
"","","","","","image-keyboard-response","207","123532","0.0-182.0","5a4c1ecaefd8df0001d34305","665500ab8938657b03fbdba8","6657978989971b4f6cbee3ea","205","stimuli/00011100.jpg"," ","","feedback_trial","0","","","","","","","","","","","","","","","","","","","","",""
"","","","","","image-keyboard-response","208","124073","0.0-183.0","5a4c1ecaefd8df0001d34305","665500ab8938657b03fbdba8","6657978989971b4f6cbee3ea","541","stimuli/2110010.jpg","2","","prediction_trial","2","","true","","2","true","true","true","true","true","true","[2]","110","010","1","","","","","","",""
"","","","","","image-keyboard-response","209","124301","0.0-184.0","5a4c1ecaefd8df0001d34305","665500ab8938657b03fbdba8","6657978989971b4f6cbee3ea","228","stimuli/21100102.jpg"," ","","feedback_trial","2","","","","","","","","","","","","","","","","","","","","",""
"","","","","","image-keyboard-response","210","124813","0.0-185.0","5a4c1ecaefd8df0001d34305","665500ab8938657b03fbdba8","6657978989971b4f6cbee3ea","511","stimuli/1110100.jpg","1","","prediction_trial","0","","false","","1","true","true","false","false","false","false","[0,1]","110","100","0","","","","","","",""
"","","","","","image-keyboard-response","211","125026","0.0-186.0","5a4c1ecaefd8df0001d34305","665500ab8938657b03fbdba8","6657978989971b4f6cbee3ea","212","stimuli/11101000.jpg"," ","","feedback_trial","0","","","","","","","","","","","","","","","","","","","","",""
"","","","","","image-keyboard-response","212","125758","0.0-187.0","5a4c1ecaefd8df0001d34305","665500ab8938657b03fbdba8","6657978989971b4f6cbee3ea","731","stimuli/2011101.jpg","0","","prediction_trial","2","","false","","2","false","false","false","false","false","false","[2,1]","011","101","0","","","","","","",""
"","","","","","image-keyboard-response","213","125960","0.0-188.0","5a4c1ecaefd8df0001d34305","665500ab8938657b03fbdba8","6657978989971b4f6cbee3ea","201","stimuli/20111012.jpg"," ","","feedback_trial","2","","","","","","","","","","","","","","","","","","","","",""
"","","","","","image-keyboard-response","214","126575","0.0-189.0","5a4c1ecaefd8df0001d34305","665500ab8938657b03fbdba8","6657978989971b4f6cbee3ea","615","stimuli/0111010.jpg","0","","prediction_trial","0","","true","","0","true","true","false","false","false","false","[0,2,1]","111","010","1","","","","","","",""
"","","","","","image-keyboard-response","215","126745","0.0-190.0","5a4c1ecaefd8df0001d34305","665500ab8938657b03fbdba8","6657978989971b4f6cbee3ea","170","stimuli/01110100.jpg"," ","","feedback_trial","0","","","","","","","","","","","","","","","","","","","","",""
"","","","","","image-keyboard-response","216","127280","0.0-191.0","5a4c1ecaefd8df0001d34305","665500ab8938657b03fbdba8","6657978989971b4f6cbee3ea","534","stimuli/2001101.jpg","1","","prediction_trial","2","","false","","2","false","false","false","true","false","false","[2]","001","101","0","","","","","","",""
"","","","","","image-keyboard-response","217","127474","0.0-192.0","5a4c1ecaefd8df0001d34305","665500ab8938657b03fbdba8","6657978989971b4f6cbee3ea","193","stimuli/20011012.jpg"," ","","feedback_trial","2","","","","","","","","","","","","","","","","","","","","",""
"","","","","","image-keyboard-response","218","128192","0.0-193.0","5a4c1ecaefd8df0001d34305","665500ab8938657b03fbdba8","6657978989971b4f6cbee3ea","718","stimuli/0101110.jpg","2","","prediction_trial","0","","false","","0","false","false","false","false","false","false","[0,2]","101","110","0","","","","","","",""
"","","","","","image-keyboard-response","219","128387","0.0-194.0","5a4c1ecaefd8df0001d34305","665500ab8938657b03fbdba8","6657978989971b4f6cbee3ea","194","stimuli/01011100.jpg"," ","","feedback_trial","0","","","","","","","","","","","","","","","","","","","","",""
"","","","","","image-keyboard-response","220","129061","0.0-195.0","5a4c1ecaefd8df0001d34305","665500ab8938657b03fbdba8","6657978989971b4f6cbee3ea","673","stimuli/2110100.jpg","2","","prediction_trial","2","","true","","2","true","true","true","true","true","true","[2]","110","100","1","","","","","","",""
"","","","","","image-keyboard-response","221","129258","0.0-196.0","5a4c1ecaefd8df0001d34305","665500ab8938657b03fbdba8","6657978989971b4f6cbee3ea","196","stimuli/21101002.jpg"," ","","feedback_trial","2","","","","","","","","","","","","","","","","","","","","",""
"","","","","","image-keyboard-response","222","129881","0.0-197.0","5a4c1ecaefd8df0001d34305","665500ab8938657b03fbdba8","6657978989971b4f6cbee3ea","622","stimuli/2011001.jpg","1","","prediction_trial","2","","false","","2","false","true","false","false","false","false","[1,2]","011","001","0","","","","","","",""
"","","","","","image-keyboard-response","223","130015","0.0-198.0","5a4c1ecaefd8df0001d34305","665500ab8938657b03fbdba8","6657978989971b4f6cbee3ea","134","stimuli/20110012.jpg"," ","","feedback_trial","1","","","","","","","","","","","","","","","","","","","","",""
"","","","","","image-keyboard-response","224","130472","0.0-199.0","5a4c1ecaefd8df0001d34305","665500ab8938657b03fbdba8","6657978989971b4f6cbee3ea","457","stimuli/1011011.jpg","2","","prediction_trial","1","","false","","1","false","false","false","false","false","false","[1,2]","011","011","0","","","","","","",""
"","","","","","image-keyboard-response","225","130692","0.0-200.0","5a4c1ecaefd8df0001d34305","665500ab8938657b03fbdba8","6657978989971b4f6cbee3ea","219","stimuli/10110111.jpg"," ","","feedback_trial","1","","","","","","","","","","","","","","","","","","","","",""
"","","","","","image-keyboard-response","226","131219","0.0-201.0","5a4c1ecaefd8df0001d34305","665500ab8938657b03fbdba8","6657978989971b4f6cbee3ea","526","stimuli/1001101.jpg","1","","prediction_trial","1","","true","","1","true","true","true","true","true","true","[1]","001","101","1","","","","","","",""
"","","","","","image-keyboard-response","227","131426","0.0-202.0","5a4c1ecaefd8df0001d34305","665500ab8938657b03fbdba8","6657978989971b4f6cbee3ea","206","stimuli/10011011.jpg"," ","","feedback_trial","1","","","","","","","","","","","","","","","","","","","","",""
"","","","","","image-keyboard-response","228","131931","0.0-203.0","5a4c1ecaefd8df0001d34305","665500ab8938657b03fbdba8","6657978989971b4f6cbee3ea","505","stimuli/2111110.jpg","2","","prediction_trial","1","","false","","2","true","true","false","false","false","false","[2,0,1]","111","110","0","","","","","","",""
"","","","","","image-keyboard-response","229","132179","0.0-204.0","5a4c1ecaefd8df0001d34305","665500ab8938657b03fbdba8","6657978989971b4f6cbee3ea","247","stimuli/21111101.jpg"," ","","feedback_trial","2","","","","","","","","","","","","","","","","","","","","",""
"","","","","","image-keyboard-response","230","132867","0.0-205.0","5a4c1ecaefd8df0001d34305","665500ab8938657b03fbdba8","6657978989971b4f6cbee3ea","688","stimuli/2101000.jpg","2","","prediction_trial","0","","false","","2","true","true","false","false","false","false","[0,2]","101","000","0","","","","","","",""
"","","","","","image-keyboard-response","231","133083","0.0-206.0","5a4c1ecaefd8df0001d34305","665500ab8938657b03fbdba8","6657978989971b4f6cbee3ea","215","stimuli/21010000.jpg"," ","","feedback_trial","0","","","","","","","","","","","","","","","","","","","","",""
"","","","","","image-keyboard-response","232","133816","0.0-207.0","5a4c1ecaefd8df0001d34305","665500ab8938657b03fbdba8","6657978989971b4f6cbee3ea","733","stimuli/0101000.jpg","0","","prediction_trial","0","","true","","0","true","true","false","false","false","false","[0,2]","101","000","1","","","","","","",""
"","","","","","image-keyboard-response","233","134025","0.0-208.0","5a4c1ecaefd8df0001d34305","665500ab8938657b03fbdba8","6657978989971b4f6cbee3ea","207","stimuli/01010000.jpg"," ","","feedback_trial","0","","","","","","","","","","","","","","","","","","","","",""
"","","","","","image-keyboard-response","234","134563","0.0-209.0","5a4c1ecaefd8df0001d34305","665500ab8938657b03fbdba8","6657978989971b4f6cbee3ea","538","stimuli/2010000.jpg","2","","prediction_trial","2","","true","","2","true","true","true","true","true","true","[2]","010","000","1","","","","","","",""
"","","","","","image-keyboard-response","235","134813","0.0-210.0","5a4c1ecaefd8df0001d34305","665500ab8938657b03fbdba8","6657978989971b4f6cbee3ea","249","stimuli/20100002.jpg"," ","","feedback_trial","2","","","","","","","","","","","","","","","","","","","","",""
"","","","","","image-keyboard-response","236","135357","0.0-211.0","5a4c1ecaefd8df0001d34305","665500ab8938657b03fbdba8","6657978989971b4f6cbee3ea","543","stimuli/2001000.jpg","2","","prediction_trial","2","","true","","2","true","true","false","true","false","true","[2]","001","000","1","","","","","","",""
"","","","","","image-keyboard-response","237","135609","0.0-212.0","5a4c1ecaefd8df0001d34305","665500ab8938657b03fbdba8","6657978989971b4f6cbee3ea","251","stimuli/20010002.jpg"," ","","feedback_trial","2","","","","","","","","","","","","","","","","","","","","",""
"","","","","","image-keyboard-response","238","136089","0.0-213.0","5a4c1ecaefd8df0001d34305","665500ab8938657b03fbdba8","6657978989971b4f6cbee3ea","480","stimuli/2000010.jpg","2","","prediction_trial","2","","true","","2","true","true","true","true","true","true","[2]","000","010","1","","","","","","",""
"","","","","","image-keyboard-response","239","136310","0.0-214.0","5a4c1ecaefd8df0001d34305","665500ab8938657b03fbdba8","6657978989971b4f6cbee3ea","220","stimuli/20000102.jpg"," ","","feedback_trial","2","","","","","","","","","","","","","","","","","","","","",""
"","","","","","image-keyboard-response","240","137025","0.0-215.0","5a4c1ecaefd8df0001d34305","665500ab8938657b03fbdba8","6657978989971b4f6cbee3ea","714","stimuli/0000100.jpg","0","","prediction_trial","0","","true","","0","false","true","true","true","false","true","[0]","000","100","1","","","","","","",""
"","","","","","image-keyboard-response","241","137214","0.0-216.0","5a4c1ecaefd8df0001d34305","665500ab8938657b03fbdba8","6657978989971b4f6cbee3ea","188","stimuli/00001000.jpg"," ","","feedback_trial","0","","","","","","","","","","","","","","","","","","","","",""
"","","","","","image-keyboard-response","242","137896","0.0-217.0","5a4c1ecaefd8df0001d34305","665500ab8938657b03fbdba8","6657978989971b4f6cbee3ea","682","stimuli/0011100.jpg","0","","prediction_trial","0","","true","","0","false","true","true","true","false","true","[0]","011","100","1","","","","","","",""
"","","","","","image-keyboard-response","243","138144","0.0-218.0","5a4c1ecaefd8df0001d34305","665500ab8938657b03fbdba8","6657978989971b4f6cbee3ea","247","stimuli/00111000.jpg"," ","","feedback_trial","0","","","","","","","","","","","","","","","","","","","","",""
"","","","","","image-keyboard-response","244","138749","0.0-219.0","5a4c1ecaefd8df0001d34305","665500ab8938657b03fbdba8","6657978989971b4f6cbee3ea","605","stimuli/0010110.jpg","0","","prediction_trial","0","","true","","0","false","false","true","true","false","false","[0]","010","110","1","","","","","","",""
"","","","","","image-keyboard-response","245","138972","0.0-220.0","5a4c1ecaefd8df0001d34305","665500ab8938657b03fbdba8","6657978989971b4f6cbee3ea","222","stimuli/00101100.jpg"," ","","feedback_trial","0","","","","","","","","","","","","","","","","","","","","",""
"","","","","","image-keyboard-response","246","139603","0.0-221.0","5a4c1ecaefd8df0001d34305","665500ab8938657b03fbdba8","6657978989971b4f6cbee3ea","631","stimuli/0010011.jpg","0","","prediction_trial","0","","true","","0","true","true","true","true","true","true","[0]","010","011","1","","","","","","",""
"","","","","","image-keyboard-response","247","139780","0.0-222.0","5a4c1ecaefd8df0001d34305","665500ab8938657b03fbdba8","6657978989971b4f6cbee3ea","176","stimuli/00100110.jpg"," ","","feedback_trial","0","","","","","","","","","","","","","","","","","","","","",""
"","","","","","image-keyboard-response","248","140405","0.0-223.0","5a4c1ecaefd8df0001d34305","665500ab8938657b03fbdba8","6657978989971b4f6cbee3ea","624","stimuli/0111011.jpg","0","","prediction_trial","0","","true","","0","true","true","false","false","false","false","[0,1,2]","111","011","1","","","","","","",""
"","","","","","image-keyboard-response","249","140620","0.0-224.0","5a4c1ecaefd8df0001d34305","665500ab8938657b03fbdba8","6657978989971b4f6cbee3ea","214","stimuli/01110110.jpg"," ","","feedback_trial","0","","","","","","","","","","","","","","","","","","","","",""
"","","","","","image-keyboard-response","250","141301","0.0-225.0","5a4c1ecaefd8df0001d34305","665500ab8938657b03fbdba8","6657978989971b4f6cbee3ea","681","stimuli/2111101.jpg","0","","prediction_trial","2","","false","","2","false","false","false","false","false","false","[2,1,0]","111","101","0","","","","","","",""
"","","","","","image-keyboard-response","251","141508","0.0-226.0","5a4c1ecaefd8df0001d34305","665500ab8938657b03fbdba8","6657978989971b4f6cbee3ea","206","stimuli/21111012.jpg"," ","","feedback_trial","2","","","","","","","","","","","","","","","","","","","","",""
"","","","","","image-keyboard-response","252","142484","0.0-227.0","5a4c1ecaefd8df0001d34305","665500ab8938657b03fbdba8","6657978989971b4f6cbee3ea","976","stimuli/2100001.jpg","0","","prediction_trial","2","","false","","2","false","true","true","true","false","true","[2]","100","001","0","","","","","","",""
"","","","","","image-keyboard-response","253","142664","0.0-228.0","5a4c1ecaefd8df0001d34305","665500ab8938657b03fbdba8","6657978989971b4f6cbee3ea","180","stimuli/21000012.jpg"," ","","feedback_trial","2","","","","","","","","","","","","","","","","","","","","",""
"","","","","","image-keyboard-response","254","143275","0.0-229.0","5a4c1ecaefd8df0001d34305","665500ab8938657b03fbdba8","6657978989971b4f6cbee3ea","610","stimuli/0011010.jpg","0","","prediction_trial","0","","true","","0","true","true","true","true","true","true","[0]","011","010","1","","","","","","",""
"","","","","","image-keyboard-response","255","143445","0.0-230.0","5a4c1ecaefd8df0001d34305","665500ab8938657b03fbdba8","6657978989971b4f6cbee3ea","169","stimuli/00110100.jpg"," ","","feedback_trial","0","","","","","","","","","","","","","","","","","","","","",""
"","","","","","image-keyboard-response","256","144076","0.0-231.0","5a4c1ecaefd8df0001d34305","665500ab8938657b03fbdba8","6657978989971b4f6cbee3ea","630","stimuli/0101111.jpg","0","","prediction_trial","2","","false","","0","false","false","false","false","false","false","[2,0]","101","111","0","","","","","","",""
"","","","","","image-keyboard-response","257","144246","0.0-232.0","5a4c1ecaefd8df0001d34305","665500ab8938657b03fbdba8","6657978989971b4f6cbee3ea","169","stimuli/01011112.jpg"," ","","feedback_trial","2","","","","","","","","","","","","","","","","","","","","",""
"","","","","","image-keyboard-response","258","144833","0.0-233.0","5a4c1ecaefd8df0001d34305","665500ab8938657b03fbdba8","6657978989971b4f6cbee3ea","586","stimuli/0111111.jpg","0","","prediction_trial","2","","false","","0","false","false","false","false","false","false","[0,2,1]","111","111","0","","","","","","",""
"","","","","","image-keyboard-response","259","144990","0.0-234.0","5a4c1ecaefd8df0001d34305","665500ab8938657b03fbdba8","6657978989971b4f6cbee3ea","157","stimuli/01111112.jpg"," ","","feedback_trial","0","","","","","","","","","","","","","","","","","","","","",""
"","","","","","image-keyboard-response","260","145472","0.0-235.0","5a4c1ecaefd8df0001d34305","665500ab8938657b03fbdba8","6657978989971b4f6cbee3ea","481","stimuli/1001001.jpg","1","","prediction_trial","1","","true","","1","true","true","true","true","true","true","[1]","001","001","1","","","","","","",""
"","","","","","image-keyboard-response","261","145677","0.0-236.0","5a4c1ecaefd8df0001d34305","665500ab8938657b03fbdba8","6657978989971b4f6cbee3ea","205","stimuli/10010011.jpg"," ","","feedback_trial","1","","","","","","","","","","","","","","","","","","","","",""
"","","","","","image-keyboard-response","262","146183","0.0-237.0","5a4c1ecaefd8df0001d34305","665500ab8938657b03fbdba8","6657978989971b4f6cbee3ea","505","stimuli/0010000.jpg","0","","prediction_trial","0","","true","","0","true","true","true","true","true","true","[0]","010","000","1","","","","","","",""
"","","","","","image-keyboard-response","263","146348","0.0-238.0","5a4c1ecaefd8df0001d34305","665500ab8938657b03fbdba8","6657978989971b4f6cbee3ea","165","stimuli/00100000.jpg"," ","","feedback_trial","0","","","","","","","","","","","","","","","","","","","","",""
"","","","","","image-keyboard-response","264","146954","0.0-239.0","5a4c1ecaefd8df0001d34305","665500ab8938657b03fbdba8","6657978989971b4f6cbee3ea","606","stimuli/0101101.jpg","1","","prediction_trial","0","","false","","0","false","false","false","false","false","false","[2,0]","101","101","0","","","","","","",""
"","","","","","image-keyboard-response","265","147158","0.0-240.0","5a4c1ecaefd8df0001d34305","665500ab8938657b03fbdba8","6657978989971b4f6cbee3ea","203","stimuli/01011010.jpg"," ","","feedback_trial","2","","","","","","","","","","","","","","","","","","","","",""
"","","","","","image-keyboard-response","266","148064","0.0-241.0","5a4c1ecaefd8df0001d34305","665500ab8938657b03fbdba8","6657978989971b4f6cbee3ea","905","stimuli/1000000.jpg","0","","prediction_trial","1","","false","","1","true","true","true","true","true","true","[1]","000","000","0","","","","","","",""
"","","","","","image-keyboard-response","267","148953","0.0-242.0","5a4c1ecaefd8df0001d34305","665500ab8938657b03fbdba8","6657978989971b4f6cbee3ea","888","stimuli/10000001.jpg"," ","","feedback_trial","1","","","","","","","","","","","","","","","","","","","","",""
"","","","","","image-keyboard-response","268","149889","0.0-243.0","5a4c1ecaefd8df0001d34305","665500ab8938657b03fbdba8","6657978989971b4f6cbee3ea","935","stimuli/2010001.jpg","2","","prediction_trial","2","","true","","2","false","true","true","true","false","true","[2]","010","001","1","","","","","","",""
"","","","","","image-keyboard-response","269","150182","0.0-244.0","5a4c1ecaefd8df0001d34305","665500ab8938657b03fbdba8","6657978989971b4f6cbee3ea","293","stimuli/20100012.jpg"," ","","feedback_trial","2","","","","","","","","","","","","","","","","","","","","",""
"","","","","","image-keyboard-response","270","150797","0.0-245.0","5a4c1ecaefd8df0001d34305","665500ab8938657b03fbdba8","6657978989971b4f6cbee3ea","614","stimuli/1101000.jpg","1","","prediction_trial","1","","true","","1","true","true","true","true","true","true","[1]","101","000","1","","","","","","",""
"","","","","","image-keyboard-response","271","150979","0.0-246.0","5a4c1ecaefd8df0001d34305","665500ab8938657b03fbdba8","6657978989971b4f6cbee3ea","182","stimuli/11010001.jpg"," ","","feedback_trial","1","","","","","","","","","","","","","","","","","","","","",""
"","","","","","image-keyboard-response","272","151579","0.0-247.0","5a4c1ecaefd8df0001d34305","665500ab8938657b03fbdba8","6657978989971b4f6cbee3ea","599","stimuli/2100110.jpg","2","","prediction_trial","2","","true","","2","true","true","true","true","true","true","[2]","100","110","1","","","","","","",""
"","","","","","image-keyboard-response","273","151775","0.0-248.0","5a4c1ecaefd8df0001d34305","665500ab8938657b03fbdba8","6657978989971b4f6cbee3ea","195","stimuli/21001102.jpg"," ","","feedback_trial","2","","","","","","","","","","","","","","","","","","","","",""
"","","","","","image-keyboard-response","274","152549","0.0-249.0","5a4c1ecaefd8df0001d34305","665500ab8938657b03fbdba8","6657978989971b4f6cbee3ea","773","stimuli/0010111.jpg","1","","prediction_trial","0","","false","","0","false","false","true","true","false","false","[0]","010","111","0","","","","","","",""
"","","","","","image-keyboard-response","275","152733","0.0-250.0","5a4c1ecaefd8df0001d34305","665500ab8938657b03fbdba8","6657978989971b4f6cbee3ea","184","stimuli/00101110.jpg"," ","","feedback_trial","0","","","","","","","","","","","","","","","","","","","","",""
"","","","","","image-keyboard-response","276","153422","0.0-251.0","5a4c1ecaefd8df0001d34305","665500ab8938657b03fbdba8","6657978989971b4f6cbee3ea","689","stimuli/0110101.jpg","0","","prediction_trial","0","","true","","0","false","false","false","false","false","false","[1,0]","110","101","1","","","","","","",""
"","","","","","image-keyboard-response","277","153594","0.0-252.0","5a4c1ecaefd8df0001d34305","665500ab8938657b03fbdba8","6657978989971b4f6cbee3ea","172","stimuli/01101010.jpg"," ","","feedback_trial","1","","","","","","","","","","","","","","","","","","","","",""
"","","","","","image-keyboard-response","278","154287","0.0-253.0","5a4c1ecaefd8df0001d34305","665500ab8938657b03fbdba8","6657978989971b4f6cbee3ea","693","stimuli/1110011.jpg","0","","prediction_trial","1","","false","","1","false","false","false","false","false","false","[1,0]","110","011","0","","","","","","",""
"","","","","","image-keyboard-response","279","154456","0.0-254.0","5a4c1ecaefd8df0001d34305","665500ab8938657b03fbdba8","6657978989971b4f6cbee3ea","168","stimuli/11100111.jpg"," ","","feedback_trial","1","","","","","","","","","","","","","","","","","","","","",""
"","","","","","image-keyboard-response","280","154996","0.0-255.0","5a4c1ecaefd8df0001d34305","665500ab8938657b03fbdba8","6657978989971b4f6cbee3ea","539","stimuli/1101010.jpg","1","","prediction_trial","1","","true","","1","false","true","true","true","false","true","[1]","101","010","1","","","","","","",""
"","","","","","image-keyboard-response","281","155181","0.0-256.0","5a4c1ecaefd8df0001d34305","665500ab8938657b03fbdba8","6657978989971b4f6cbee3ea","184","stimuli/11010101.jpg"," ","","feedback_trial","1","","","","","","","","","","","","","","","","","","","","",""
"","","","","","image-keyboard-response","282","155798","0.0-257.0","5a4c1ecaefd8df0001d34305","665500ab8938657b03fbdba8","6657978989971b4f6cbee3ea","617","stimuli/2001010.jpg","2","","prediction_trial","2","","true","","2","true","true","false","true","false","true","[2]","001","010","1","","","","","","",""
"","","","","","image-keyboard-response","283","155991","0.0-258.0","5a4c1ecaefd8df0001d34305","665500ab8938657b03fbdba8","6657978989971b4f6cbee3ea","192","stimuli/20010102.jpg"," ","","feedback_trial","2","","","","","","","","","","","","","","","","","","","","",""
"","","","","","image-keyboard-response","284","156793","0.0-259.0","5a4c1ecaefd8df0001d34305","665500ab8938657b03fbdba8","6657978989971b4f6cbee3ea","802","stimuli/1010111.jpg","1","","prediction_trial","1","","true","","1","false","false","false","true","false","false","[1]","010","111","1","","","","","","",""
"","","","","","image-keyboard-response","285","156985","0.0-260.0","5a4c1ecaefd8df0001d34305","665500ab8938657b03fbdba8","6657978989971b4f6cbee3ea","192","stimuli/10101111.jpg"," ","","feedback_trial","1","","","","","","","","","","","","","","","","","","","","",""
"","","","","","image-keyboard-response","286","157775","0.0-261.0","5a4c1ecaefd8df0001d34305","665500ab8938657b03fbdba8","6657978989971b4f6cbee3ea","789","stimuli/2110111.jpg","1","","prediction_trial","2","","false","","2","false","false","true","true","false","false","[2]","110","111","0","","","","","","",""
"","","","","","image-keyboard-response","287","157942","0.0-262.0","5a4c1ecaefd8df0001d34305","665500ab8938657b03fbdba8","6657978989971b4f6cbee3ea","166","stimuli/21101112.jpg"," ","","feedback_trial","2","","","","","","","","","","","","","","","","","","","","",""
"","","","","","image-keyboard-response","288","158484","0.0-263.0","5a4c1ecaefd8df0001d34305","665500ab8938657b03fbdba8","6657978989971b4f6cbee3ea","541","stimuli/2011000.jpg","2","","prediction_trial","1","","false","","2","true","true","false","false","false","false","[1,2]","011","000","0","","","","","","",""
"","","","","","image-keyboard-response","289","158663","0.0-264.0","5a4c1ecaefd8df0001d34305","665500ab8938657b03fbdba8","6657978989971b4f6cbee3ea","178","stimuli/20110001.jpg"," ","","feedback_trial","1","","","","","","","","","","","","","","","","","","","","",""
"","","","","","image-keyboard-response","290","159262","0.0-265.0","5a4c1ecaefd8df0001d34305","665500ab8938657b03fbdba8","6657978989971b4f6cbee3ea","599","stimuli/0110010.jpg","0","","prediction_trial","0","","true","","0","true","true","false","false","false","false","[0,1]","110","010","1","","","","","","",""
"","","","","","image-keyboard-response","291","159442","0.0-266.0","5a4c1ecaefd8df0001d34305","665500ab8938657b03fbdba8","6657978989971b4f6cbee3ea","180","stimuli/01100100.jpg"," ","","feedback_trial","0","","","","","","","","","","","","","","","","","","","","",""
"","","","","","image-keyboard-response","292","160116","0.0-267.0","5a4c1ecaefd8df0001d34305","665500ab8938657b03fbdba8","6657978989971b4f6cbee3ea","673","stimuli/1010001.jpg","1","","prediction_trial","1","","true","","1","true","true","false","true","false","true","[1]","010","001","1","","","","","","",""
"","","","","","image-keyboard-response","293","160301","0.0-268.0","5a4c1ecaefd8df0001d34305","665500ab8938657b03fbdba8","6657978989971b4f6cbee3ea","184","stimuli/10100011.jpg"," ","","feedback_trial","1","","","","","","","","","","","","","","","","","","","","",""
"","","","","","image-keyboard-response","294","160921","0.0-269.0","5a4c1ecaefd8df0001d34305","665500ab8938657b03fbdba8","6657978989971b4f6cbee3ea","619","stimuli/1000111.jpg","0","","prediction_trial","1","","false","","1","false","false","true","true","false","false","[1]","000","111","0","","","","","","",""
"","","","","","image-keyboard-response","295","161140","0.0-270.0","5a4c1ecaefd8df0001d34305","665500ab8938657b03fbdba8","6657978989971b4f6cbee3ea","219","stimuli/10001111.jpg"," ","","feedback_trial","1","","","","","","","","","","","","","","","","","","","","",""
"","","","","","image-keyboard-response","296","161711","0.0-271.0","5a4c1ecaefd8df0001d34305","665500ab8938657b03fbdba8","6657978989971b4f6cbee3ea","570","stimuli/1000110.jpg","1","","prediction_trial","1","","true","","1","false","false","true","true","false","false","[1]","000","110","1","","","","","","",""
"","","","","","image-keyboard-response","297","161915","0.0-272.0","5a4c1ecaefd8df0001d34305","665500ab8938657b03fbdba8","6657978989971b4f6cbee3ea","204","stimuli/10001101.jpg"," ","","feedback_trial","1","","","","","","","","","","","","","","","","","","","","",""
"","","","","","image-keyboard-response","298","162495","0.0-273.0","5a4c1ecaefd8df0001d34305","665500ab8938657b03fbdba8","6657978989971b4f6cbee3ea","579","stimuli/0001001.jpg","0","","prediction_trial","0","","true","","0","true","true","true","true","true","true","[0]","001","001","1","","","","","","",""
"","","","","","image-keyboard-response","299","162679","0.0-274.0","5a4c1ecaefd8df0001d34305","665500ab8938657b03fbdba8","6657978989971b4f6cbee3ea","183","stimuli/00010010.jpg"," ","","feedback_trial","0","","","","","","","","","","","","","","","","","","","","",""
"","","","","","image-keyboard-response","300","163253","0.0-275.0","5a4c1ecaefd8df0001d34305","665500ab8938657b03fbdba8","6657978989971b4f6cbee3ea","573","stimuli/0100001.jpg","0","","prediction_trial","0","","true","","0","true","true","false","true","false","true","[0]","100","001","1","","","","","","",""
"","","","","","image-keyboard-response","301","163459","0.0-276.0","5a4c1ecaefd8df0001d34305","665500ab8938657b03fbdba8","6657978989971b4f6cbee3ea","206","stimuli/01000010.jpg"," ","","feedback_trial","0","","","","","","","","","","","","","","","","","","","","",""
"","","","","","image-keyboard-response","302","164221","0.0-277.0","5a4c1ecaefd8df0001d34305","665500ab8938657b03fbdba8","6657978989971b4f6cbee3ea","761","stimuli/1000101.jpg","1","","prediction_trial","1","","true","","1","true","true","true","true","true","true","[1]","000","101","1","","","","","","",""
"","","","","","image-keyboard-response","303","164451","0.0-278.0","5a4c1ecaefd8df0001d34305","665500ab8938657b03fbdba8","6657978989971b4f6cbee3ea","229","stimuli/10001011.jpg"," ","","feedback_trial","1","","","","","","","","","","","","","","","","","","","","",""
"","","","","","image-keyboard-response","304","170767","0.0-279.0","5a4c1ecaefd8df0001d34305","665500ab8938657b03fbdba8","6657978989971b4f6cbee3ea","6316","stimuli/1000011.jpg","2","","prediction_trial","1","","false","","1","false","false","true","true","false","false","[1]","000","011","0","","","","","","",""
"","","","","","image-keyboard-response","305","171338","0.0-280.0","5a4c1ecaefd8df0001d34305","665500ab8938657b03fbdba8","6657978989971b4f6cbee3ea","570","stimuli/10000111.jpg"," ","","feedback_trial","1","","","","","","","","","","","","","","","","","","","","",""
"","","","","","image-keyboard-response","306","171789","0.0-281.0","5a4c1ecaefd8df0001d34305","665500ab8938657b03fbdba8","6657978989971b4f6cbee3ea","451","stimuli/1001000.jpg","1","","prediction_trial","1","","true","","1","true","true","true","true","true","true","[1]","001","000","1","","","","","","",""
"","","","","","image-keyboard-response","307","171970","0.0-282.0","5a4c1ecaefd8df0001d34305","665500ab8938657b03fbdba8","6657978989971b4f6cbee3ea","180","stimuli/10010001.jpg"," ","","feedback_trial","1","","","","","","","","","","","","","","","","","","","","",""
"","","","","","image-keyboard-response","308","172459","0.0-283.0","5a4c1ecaefd8df0001d34305","665500ab8938657b03fbdba8","6657978989971b4f6cbee3ea","487","stimuli/1010100.jpg","1","","prediction_trial","1","","true","","1","true","true","false","true","false","true","[1]","010","100","1","","","","","","",""
"","","","","","image-keyboard-response","309","172609","0.0-284.0","5a4c1ecaefd8df0001d34305","665500ab8938657b03fbdba8","6657978989971b4f6cbee3ea","149","stimuli/10101001.jpg"," ","","feedback_trial","1","","","","","","","","","","","","","","","","","","","","",""
"","","","","","image-keyboard-response","310","173035","0.0-285.0","5a4c1ecaefd8df0001d34305","665500ab8938657b03fbdba8","6657978989971b4f6cbee3ea","426","stimuli/1110000.jpg","1","","prediction_trial","1","","true","","1","true","true","false","false","false","false","[1,0]","110","000","1","","","","","","",""
"","","","","","image-keyboard-response","311","173187","0.0-286.0","5a4c1ecaefd8df0001d34305","665500ab8938657b03fbdba8","6657978989971b4f6cbee3ea","151","stimuli/11100001.jpg"," ","","feedback_trial","1","","","","","","","","","","","","","","","","","","","","",""
"","","","","","image-keyboard-response","312","173801","0.0-287.0","5a4c1ecaefd8df0001d34305","665500ab8938657b03fbdba8","6657978989971b4f6cbee3ea","613","stimuli/1111011.jpg","2","","prediction_trial","0","","false","","1","false","false","false","false","false","false","[1,2,0]","111","011","0","","","","","","",""
"","","","","","image-keyboard-response","313","173941","0.0-288.0","5a4c1ecaefd8df0001d34305","665500ab8938657b03fbdba8","6657978989971b4f6cbee3ea","139","stimuli/11110110.jpg"," ","","feedback_trial","1","","","","","","","","","","","","","","","","","","","","",""
"","","","","","image-keyboard-response","314","174401","0.0-289.0","5a4c1ecaefd8df0001d34305","665500ab8938657b03fbdba8","6657978989971b4f6cbee3ea","459","stimuli/2000100.jpg","2","","prediction_trial","2","","true","","2","true","true","true","true","true","true","[2]","000","100","1","","","","","","",""
"","","","","","image-keyboard-response","315","174557","0.0-290.0","5a4c1ecaefd8df0001d34305","665500ab8938657b03fbdba8","6657978989971b4f6cbee3ea","156","stimuli/20001002.jpg"," ","","feedback_trial","2","","","","","","","","","","","","","","","","","","","","",""
"","","","","","image-keyboard-response","316","175193","0.0-291.0","5a4c1ecaefd8df0001d34305","665500ab8938657b03fbdba8","6657978989971b4f6cbee3ea","635","stimuli/1001100.jpg","1","","prediction_trial","1","","true","","1","true","true","true","true","true","true","[1]","001","100","1","","","","","","",""
"","","","","","image-keyboard-response","317","175346","0.0-292.0","5a4c1ecaefd8df0001d34305","665500ab8938657b03fbdba8","6657978989971b4f6cbee3ea","152","stimuli/10011001.jpg"," ","","feedback_trial","1","","","","","","","","","","","","","","","","","","","","",""
"","","","","","survey-html-form","318","218205","0.0-293.0","5a4c1ecaefd8df0001d34305","665500ab8938657b03fbdba8","6657978989971b4f6cbee3ea","42859","","{""feedback"":""I tried to focus on Sam's perspective when I could and guess to see if there was a pattern if the choice could have been 50/50"",""age"":""30"",""gender"":""Male"",""other_gender"":"""",""race"":""White"",""other_race"":"""",""ethnicity"":""Non-Hispanic""}","","exit_survey","","","","","","","","","","","","","","","","I tried to focus on Sam's perspective when I could and guess to see if there was a pattern if the choice could have been 50/50","30","Non-Hispanic","Male","White","0.5138888888888888","0.5138888888888888"
