"success","timeout","failed_images","failed_audio","failed_video","trial_type","trial_index","time_elapsed","internal_node_id","prolific_id","prolific_study_id","prolific_session_id","rt","stimulus","response","view_history","trial","character_choice","stimulus_dict","accuracy","correct_response","ball_pos","ego_ball_visible","ego_can_infer","alter_ball_visible","alter_can_infer","collective_ball_visible","collective_can_infer","search_locations","alter_occluders","ego_occluders","accuracy_bool","feedback","age","ethnicity","gender","race","overall_accuracy","bonus"
"true","false","[]","[]","[]","preload","0","170991","0.0-0.0","5e1f8fbfb202032c463f3e06","665500ab8938657b03fbdba8","6657926204e3a81685187e1e","","","","","","","","","","","","","","","","","","","","","","","","","","",""
"true","","","","","fullscreen","1","188500","0.0-1.0","5e1f8fbfb202032c463f3e06","665500ab8938657b03fbdba8","6657926204e3a81685187e1e","","","","","","","","","","","","","","","","","","","","","","","","","","",""
"","","","","","html-button-response","2","256966","0.0-2.0","5e1f8fbfb202032c463f3e06","665500ab8938657b03fbdba8","6657926204e3a81685187e1e","68460","<p><b>Consent Form</b></p> <div style=""text-align:left;background-color:lightgrey; padding:20px; max-width:900px;""><p>Please consider this information carefully before deciding whether to participate in this research.</p> <p>The purpose of this research is to examine which factors influence social judgment and decision-making. You will be asked to make judgements about individuals and actions in social scenarios. We are simply interested in your judgement. The study will take less than 1 hour to complete, and you will receive less than $20 on Prolific. Your compensation and time commitment are specified in the study description. There are no anticipated risks associated with participating in this study. The effects of participating should be comparable to those you would ordinarily experience from viewing a computer monitor and using a mouse or keyboard for a similar amount of time. At the end of the study, we will provide an explanation of the questions that motivate this line of research and will describe the potential implications. </p><p> Your participation in this study is completely voluntary and you may refuse to participate or you may choose to withdraw at any time without penalty or loss of benefits to you which are otherwise entitled. Your participation in this study will remain confidential. No personally identifiable information will be associated with your data. Also, all analyses of the data will be averaged across all the participants, so your individual responses will never be specifically analyzed. </p><p> If you have questions or concerns about your participation or payment, or want to request a summary of research findings, please contact Dr. Jonathan Phillips at Jonathan.S.Phillips@dartmouth.edu. </p><p> Please save a copy of this form for your records. </p><p><b>Agreement: </b>The nature and purpose of this research have been sufficiently explained and I agree to participate in this study. I understand that I am free to withdraw at any time without incurring any penalty. Please consent by clicking the button below to continue. Otherwise, please exit the study at any time. </p>","0","","","","","","","","","","","","","","","","","","","","","","","",""
"","","","","","instructions","3","305368","0.0-3.0-0.0","5e1f8fbfb202032c463f3e06","665500ab8938657b03fbdba8","6657926204e3a81685187e1e","48398","","","[{""page_index"":0,""viewing_time"":2216},{""page_index"":1,""viewing_time"":3390},{""page_index"":2,""viewing_time"":1625},{""page_index"":3,""viewing_time"":4464},{""page_index"":4,""viewing_time"":3796},{""page_index"":5,""viewing_time"":1502},{""page_index"":6,""viewing_time"":3701},{""page_index"":7,""viewing_time"":2750},{""page_index"":8,""viewing_time"":1962},{""page_index"":9,""viewing_time"":2097},{""page_index"":10,""viewing_time"":11247},{""page_index"":11,""viewing_time"":5116},{""page_index"":12,""viewing_time"":3167},{""page_index"":13,""viewing_time"":1362}]","intro","","","","","","","","","","","","","","","","","","","","","",""
"","","","","","image-keyboard-response","4","308018","0.0-3.0-1.0","5e1f8fbfb202032c463f3e06","665500ab8938657b03fbdba8","6657926204e3a81685187e1e","2642","stimuli/2110110.jpg","2","","prediction_practice","2","{""filepath"":""stimuli/2110110.jpg"",""ball_pos"":2,""ego_ball_visible"":true,""ego_can_infer"":true,""alter_ball_visible"":true,""alter_can_infer"":true,""collective_ball_visible"":true,""collective_can_infer"":true,""search_locations"":[2],""alter_occluders"":""110"",""ego_occluders"":""110""}","true","","","","","","","","","","","","","","","","","","",""
"","","","","","image-keyboard-response","5","310168","0.0-3.0-2.0","5e1f8fbfb202032c463f3e06","665500ab8938657b03fbdba8","6657926204e3a81685187e1e","2146","stimuli/21101102.jpg"," ","","practrice_feedback","2","","","","","","","","","","","","","","","","","","","","",""
"","","","","","image-keyboard-response","6","314152","0.0-3.0-3.0","5e1f8fbfb202032c463f3e06","665500ab8938657b03fbdba8","6657926204e3a81685187e1e","3981","stimuli/2100111.jpg","1","","prediction_practice","2","{""filepath"":""stimuli/2100111.jpg"",""ball_pos"":2,""ego_ball_visible"":false,""ego_can_infer"":false,""alter_ball_visible"":true,""alter_can_infer"":true,""collective_ball_visible"":false,""collective_can_infer"":false,""search_locations"":[2],""alter_occluders"":""100"",""ego_occluders"":""111""}","false","","","","","","","","","","","","","","","","","","",""
"","","","","","image-keyboard-response","7","316184","0.0-3.0-4.0","5e1f8fbfb202032c463f3e06","665500ab8938657b03fbdba8","6657926204e3a81685187e1e","2030","stimuli/21001112.jpg"," ","","practrice_feedback","2","","","","","","","","","","","","","","","","","","","","",""
"","","","","","image-keyboard-response","8","320384","0.0-3.0-5.0","5e1f8fbfb202032c463f3e06","665500ab8938657b03fbdba8","6657926204e3a81685187e1e","4198","stimuli/1111011.jpg","2","","prediction_practice","0","{""filepath"":""stimuli/1111011.jpg"",""ball_pos"":1,""ego_ball_visible"":false,""ego_can_infer"":false,""alter_ball_visible"":false,""alter_can_infer"":false,""collective_ball_visible"":false,""collective_can_infer"":false,""search_locations"":[1,0,2],""alter_occluders"":""111"",""ego_occluders"":""011""}","false","","","","","","","","","","","","","","","","","","",""
"","","","","","image-keyboard-response","9","324915","0.0-3.0-6.0","5e1f8fbfb202032c463f3e06","665500ab8938657b03fbdba8","6657926204e3a81685187e1e","4527","stimuli/11110110.jpg"," ","","practrice_feedback","1","","","","","","","","","","","","","","","","","","","","",""
"","","","","","image-keyboard-response","10","329348","0.0-3.0-7.0","5e1f8fbfb202032c463f3e06","665500ab8938657b03fbdba8","6657926204e3a81685187e1e","4430","stimuli/1000010.jpg","1","","prediction_practice","1","{""filepath"":""stimuli/1000010.jpg"",""ball_pos"":1,""ego_ball_visible"":false,""ego_can_infer"":true,""alter_ball_visible"":true,""alter_can_infer"":true,""collective_ball_visible"":false,""collective_can_infer"":true,""search_locations"":[1],""alter_occluders"":""000"",""ego_occluders"":""010""}","true","","","","","","","","","","","","","","","","","","",""
"","","","","","image-keyboard-response","11","331413","0.0-3.0-8.0","5e1f8fbfb202032c463f3e06","665500ab8938657b03fbdba8","6657926204e3a81685187e1e","2063","stimuli/10000101.jpg"," ","","practrice_feedback","1","","","","","","","","","","","","","","","","","","","","",""
"","","","","","image-keyboard-response","12","335379","0.0-3.0-9.0","5e1f8fbfb202032c463f3e06","665500ab8938657b03fbdba8","6657926204e3a81685187e1e","3963","stimuli/1000011.jpg","1","","prediction_practice","1","{""filepath"":""stimuli/1000011.jpg"",""ball_pos"":1,""ego_ball_visible"":false,""ego_can_infer"":false,""alter_ball_visible"":true,""alter_can_infer"":true,""collective_ball_visible"":false,""collective_can_infer"":false,""search_locations"":[1],""alter_occluders"":""000"",""ego_occluders"":""011""}","true","","","","","","","","","","","","","","","","","","",""
"","","","","","image-keyboard-response","13","337483","0.0-3.0-10.0","5e1f8fbfb202032c463f3e06","665500ab8938657b03fbdba8","6657926204e3a81685187e1e","2101","stimuli/10000111.jpg"," ","","practrice_feedback","1","","","","","","","","","","","","","","","","","","","","",""
"","","","","","image-keyboard-response","14","339547","0.0-3.0-11.0","5e1f8fbfb202032c463f3e06","665500ab8938657b03fbdba8","6657926204e3a81685187e1e","2060","stimuli/2101001.jpg","2","","prediction_practice","2","{""filepath"":""stimuli/2101001.jpg"",""ball_pos"":2,""ego_ball_visible"":false,""ego_can_infer"":true,""alter_ball_visible"":false,""alter_can_infer"":false,""collective_ball_visible"":false,""collective_can_infer"":false,""search_locations"":[2,0],""alter_occluders"":""101"",""ego_occluders"":""001""}","true","","","","","","","","","","","","","","","","","","",""
"","","","","","image-keyboard-response","15","341295","0.0-3.0-12.0","5e1f8fbfb202032c463f3e06","665500ab8938657b03fbdba8","6657926204e3a81685187e1e","1745","stimuli/21010012.jpg"," ","","practrice_feedback","2","","","","","","","","","","","","","","","","","","","","",""
"","","","","","image-keyboard-response","16","343086","0.0-3.0-13.0","5e1f8fbfb202032c463f3e06","665500ab8938657b03fbdba8","6657926204e3a81685187e1e","1789","stimuli/2000100.jpg","2","","prediction_practice","2","{""filepath"":""stimuli/2000100.jpg"",""ball_pos"":2,""ego_ball_visible"":true,""ego_can_infer"":true,""alter_ball_visible"":true,""alter_can_infer"":true,""collective_ball_visible"":true,""collective_can_infer"":true,""search_locations"":[2],""alter_occluders"":""000"",""ego_occluders"":""100""}","true","","","","","","","","","","","","","","","","","","",""
"","","","","","image-keyboard-response","17","344832","0.0-3.0-14.0","5e1f8fbfb202032c463f3e06","665500ab8938657b03fbdba8","6657926204e3a81685187e1e","1742","stimuli/20001002.jpg"," ","","practrice_feedback","2","","","","","","","","","","","","","","","","","","","","",""
"","","","","","image-keyboard-response","18","350432","0.0-3.0-15.0","5e1f8fbfb202032c463f3e06","665500ab8938657b03fbdba8","6657926204e3a81685187e1e","5598","stimuli/1011110.jpg","1","","prediction_practice","1","{""filepath"":""stimuli/1011110.jpg"",""ball_pos"":1,""ego_ball_visible"":false,""ego_can_infer"":false,""alter_ball_visible"":false,""alter_can_infer"":false,""collective_ball_visible"":false,""collective_can_infer"":false,""search_locations"":[1,2],""alter_occluders"":""011"",""ego_occluders"":""110""}","true","","","","","","","","","","","","","","","","","","",""
"","","","","","image-keyboard-response","19","351793","0.0-3.0-16.0","5e1f8fbfb202032c463f3e06","665500ab8938657b03fbdba8","6657926204e3a81685187e1e","1358","stimuli/10111101.jpg"," ","","practrice_feedback","1","","","","","","","","","","","","","","","","","","","","",""
"","","","","","image-keyboard-response","20","353477","0.0-3.0-17.0","5e1f8fbfb202032c463f3e06","665500ab8938657b03fbdba8","6657926204e3a81685187e1e","1681","stimuli/0101011.jpg","0","","prediction_practice","0","{""filepath"":""stimuli/0101011.jpg"",""ball_pos"":0,""ego_ball_visible"":true,""ego_can_infer"":true,""alter_ball_visible"":false,""alter_can_infer"":false,""collective_ball_visible"":false,""collective_can_infer"":false,""search_locations"":[0,2],""alter_occluders"":""101"",""ego_occluders"":""011""}","true","","","","","","","","","","","","","","","","","","",""
"","","","","","image-keyboard-response","21","355263","0.0-3.0-18.0","5e1f8fbfb202032c463f3e06","665500ab8938657b03fbdba8","6657926204e3a81685187e1e","1783","stimuli/01010110.jpg"," ","","practrice_feedback","0","","","","","","","","","","","","","","","","","","","","",""
"","","","","","image-keyboard-response","22","360434","0.0-3.0-19.0","5e1f8fbfb202032c463f3e06","665500ab8938657b03fbdba8","6657926204e3a81685187e1e","5168","stimuli/2001101.jpg","2","","prediction_practice","2","{""filepath"":""stimuli/2001101.jpg"",""ball_pos"":2,""ego_ball_visible"":false,""ego_can_infer"":false,""alter_ball_visible"":false,""alter_can_infer"":true,""collective_ball_visible"":false,""collective_can_infer"":false,""search_locations"":[2],""alter_occluders"":""001"",""ego_occluders"":""101""}","true","","","","","","","","","","","","","","","","","","",""
"","","","","","image-keyboard-response","23","361999","0.0-3.0-20.0","5e1f8fbfb202032c463f3e06","665500ab8938657b03fbdba8","6657926204e3a81685187e1e","1562","stimuli/20011012.jpg"," ","","practrice_feedback","2","","","","","","","","","","","","","","","","","","","","",""
"","","","","","html-button-response","24","365673","0.0-3.0-21.0","5e1f8fbfb202032c463f3e06","665500ab8938657b03fbdba8","6657926204e3a81685187e1e","3672","Now that you've had some practice, you'll be tested with a couple of easy trials. If you correctly predict Sam's choice, you'll move on to complete the experiment!","0","","","","","","","","","","","","","","","","","","","","","","","",""
"","","","","","image-keyboard-response","25","367663","0.0-3.0-22.0-0.0","5e1f8fbfb202032c463f3e06","665500ab8938657b03fbdba8","6657926204e3a81685187e1e","1987","stimuli/0000011.jpg","arrowleft","","comprehension_quiz","","","true","arrowleft","","","","","","","","","","","","","","","","","",""
"","","","","","image-keyboard-response","26","368899","0.0-3.0-22.0-1.0","5e1f8fbfb202032c463f3e06","665500ab8938657b03fbdba8","6657926204e3a81685187e1e","1232","stimuli/00000110.jpg"," ","","comprehension_quiz","","","true"," ","","","","","","","","","","","","","","","","","",""
"","","","","","image-keyboard-response","27","370918","0.0-3.0-22.0-2.0","5e1f8fbfb202032c463f3e06","665500ab8938657b03fbdba8","6657926204e3a81685187e1e","2016","stimuli/1010010.jpg","arrowdown","","comprehension_quiz","","","true","arrowdown","","","","","","","","","","","","","","","","","",""
"","","","","","image-keyboard-response","28","372073","0.0-3.0-22.0-3.0","5e1f8fbfb202032c463f3e06","665500ab8938657b03fbdba8","6657926204e3a81685187e1e","1152","stimuli/10100101.jpg"," ","","comprehension_quiz","","","true"," ","","","","","","","","","","","","","","","","","",""
"","","","","","html-button-response","29","373883","0.0-4.0","5e1f8fbfb202032c463f3e06","665500ab8938657b03fbdba8","6657926204e3a81685187e1e","1804","The experiment will now begin.","0","","","","","","","","","","","","","","","","","","","","","","","",""
"","","","","","image-keyboard-response","30","375715","0.0-5.0","5e1f8fbfb202032c463f3e06","665500ab8938657b03fbdba8","6657926204e3a81685187e1e","1829","stimuli/1010100.jpg","1","","prediction_trial","1","","true","","1","true","true","false","true","false","true","[1]","010","100","1","","","","","","",""
"","","","","","image-keyboard-response","31","377263","0.0-6.0","5e1f8fbfb202032c463f3e06","665500ab8938657b03fbdba8","6657926204e3a81685187e1e","1548","stimuli/10101001.jpg"," ","","feedback_trial","1","","","","","","","","","","","","","","","","","","","","",""
"","","","","","image-keyboard-response","32","378804","0.0-7.0","5e1f8fbfb202032c463f3e06","665500ab8938657b03fbdba8","6657926204e3a81685187e1e","1539","stimuli/0110010.jpg","0","","prediction_trial","0","","true","","0","true","true","false","false","false","false","[1,0]","110","010","1","","","","","","",""
"","","","","","image-keyboard-response","33","379955","0.0-8.0","5e1f8fbfb202032c463f3e06","665500ab8938657b03fbdba8","6657926204e3a81685187e1e","1147","stimuli/01100100.jpg"," ","","feedback_trial","1","","","","","","","","","","","","","","","","","","","","",""
"","","","","","image-keyboard-response","34","382303","0.0-9.0","5e1f8fbfb202032c463f3e06","665500ab8938657b03fbdba8","6657926204e3a81685187e1e","2345","stimuli/0101011.jpg","0","","prediction_trial","2","","false","","0","true","true","false","false","false","false","[0,2]","101","011","0","","","","","","",""
"","","","","","image-keyboard-response","35","383907","0.0-10.0","5e1f8fbfb202032c463f3e06","665500ab8938657b03fbdba8","6657926204e3a81685187e1e","1602","stimuli/01010112.jpg"," ","","feedback_trial","0","","","","","","","","","","","","","","","","","","","","",""
"","","","","","image-keyboard-response","36","387489","0.0-11.0","5e1f8fbfb202032c463f3e06","665500ab8938657b03fbdba8","6657926204e3a81685187e1e","3580","stimuli/0110110.jpg","1","","prediction_trial","0","","false","","0","false","false","false","false","false","false","[1,0]","110","110","0","","","","","","",""
"","","","","","image-keyboard-response","37","388574","0.0-12.0","5e1f8fbfb202032c463f3e06","665500ab8938657b03fbdba8","6657926204e3a81685187e1e","1082","stimuli/01101100.jpg"," ","","feedback_trial","1","","","","","","","","","","","","","","","","","","","","",""
"","","","","","image-keyboard-response","38","391560","0.0-13.0","5e1f8fbfb202032c463f3e06","665500ab8938657b03fbdba8","6657926204e3a81685187e1e","2983","stimuli/1010011.jpg","1","","prediction_trial","1","","true","","1","false","false","false","true","false","false","[1]","010","011","1","","","","","","",""
"","","","","","image-keyboard-response","39","392884","0.0-14.0","5e1f8fbfb202032c463f3e06","665500ab8938657b03fbdba8","6657926204e3a81685187e1e","1321","stimuli/10100111.jpg"," ","","feedback_trial","1","","","","","","","","","","","","","","","","","","","","",""
"","","","","","image-keyboard-response","40","398140","0.0-15.0","5e1f8fbfb202032c463f3e06","665500ab8938657b03fbdba8","6657926204e3a81685187e1e","5253","stimuli/2111111.jpg","0","","prediction_trial","2","","false","","2","false","false","false","false","false","false","[2,0,1]","111","111","0","","","","","","",""
"","","","","","image-keyboard-response","41","399568","0.0-16.0","5e1f8fbfb202032c463f3e06","665500ab8938657b03fbdba8","6657926204e3a81685187e1e","1425","stimuli/21111112.jpg"," ","","feedback_trial","2","","","","","","","","","","","","","","","","","","","","",""
"","","","","","image-keyboard-response","42","402791","0.0-17.0","5e1f8fbfb202032c463f3e06","665500ab8938657b03fbdba8","6657926204e3a81685187e1e","3220","stimuli/1100110.jpg","0","","prediction_trial","1","","false","","1","false","false","true","true","false","false","[1]","100","110","0","","","","","","",""
"","","","","","image-keyboard-response","43","404046","0.0-18.0","5e1f8fbfb202032c463f3e06","665500ab8938657b03fbdba8","6657926204e3a81685187e1e","1252","stimuli/11001101.jpg"," ","","feedback_trial","1","","","","","","","","","","","","","","","","","","","","",""
"","","","","","image-keyboard-response","44","405932","0.0-19.0","5e1f8fbfb202032c463f3e06","665500ab8938657b03fbdba8","6657926204e3a81685187e1e","1883","stimuli/2001000.jpg","2","","prediction_trial","2","","true","","2","true","true","false","true","false","true","[2]","001","000","1","","","","","","",""
"","","","","","image-keyboard-response","45","407127","0.0-20.0","5e1f8fbfb202032c463f3e06","665500ab8938657b03fbdba8","6657926204e3a81685187e1e","1191","stimuli/20010002.jpg"," ","","feedback_trial","2","","","","","","","","","","","","","","","","","","","","",""
"","","","","","image-keyboard-response","46","411089","0.0-21.0","5e1f8fbfb202032c463f3e06","665500ab8938657b03fbdba8","6657926204e3a81685187e1e","3959","stimuli/0101001.jpg","0","","prediction_trial","0","","true","","0","true","true","false","false","false","false","[2,0]","101","001","1","","","","","","",""
"","","","","","image-keyboard-response","47","412220","0.0-22.0","5e1f8fbfb202032c463f3e06","665500ab8938657b03fbdba8","6657926204e3a81685187e1e","1129","stimuli/01010010.jpg"," ","","feedback_trial","2","","","","","","","","","","","","","","","","","","","","",""
"","","","","","image-keyboard-response","48","413777","0.0-23.0","5e1f8fbfb202032c463f3e06","665500ab8938657b03fbdba8","6657926204e3a81685187e1e","1554","stimuli/1001000.jpg","1","","prediction_trial","1","","true","","1","true","true","true","true","true","true","[1]","001","000","1","","","","","","",""
"","","","","","image-keyboard-response","49","414825","0.0-24.0","5e1f8fbfb202032c463f3e06","665500ab8938657b03fbdba8","6657926204e3a81685187e1e","1046","stimuli/10010001.jpg"," ","","feedback_trial","1","","","","","","","","","","","","","","","","","","","","",""
"","","","","","image-keyboard-response","50","417508","0.0-25.0","5e1f8fbfb202032c463f3e06","665500ab8938657b03fbdba8","6657926204e3a81685187e1e","2680","stimuli/0010111.jpg","2","","prediction_trial","0","","false","","0","false","false","true","true","false","false","[0]","010","111","0","","","","","","",""
"","","","","","image-keyboard-response","51","418711","0.0-26.0","5e1f8fbfb202032c463f3e06","665500ab8938657b03fbdba8","6657926204e3a81685187e1e","1200","stimuli/00101110.jpg"," ","","feedback_trial","0","","","","","","","","","","","","","","","","","","","","",""
"","","","","","image-keyboard-response","52","422240","0.0-27.0","5e1f8fbfb202032c463f3e06","665500ab8938657b03fbdba8","6657926204e3a81685187e1e","3526","stimuli/1000110.jpg","1","","prediction_trial","1","","true","","1","false","false","true","true","false","false","[1]","000","110","1","","","","","","",""
"","","","","","image-keyboard-response","53","423220","0.0-28.0","5e1f8fbfb202032c463f3e06","665500ab8938657b03fbdba8","6657926204e3a81685187e1e","977","stimuli/10001101.jpg"," ","","feedback_trial","1","","","","","","","","","","","","","","","","","","","","",""
"","","","","","image-keyboard-response","54","424465","0.0-29.0","5e1f8fbfb202032c463f3e06","665500ab8938657b03fbdba8","6657926204e3a81685187e1e","1242","stimuli/2000010.jpg","2","","prediction_trial","2","","true","","2","true","true","true","true","true","true","[2]","000","010","1","","","","","","",""
"","","","","","image-keyboard-response","55","425373","0.0-30.0","5e1f8fbfb202032c463f3e06","665500ab8938657b03fbdba8","6657926204e3a81685187e1e","904","stimuli/20000102.jpg"," ","","feedback_trial","2","","","","","","","","","","","","","","","","","","","","",""
"","","","","","image-keyboard-response","56","426769","0.0-31.0","5e1f8fbfb202032c463f3e06","665500ab8938657b03fbdba8","6657926204e3a81685187e1e","1393","stimuli/1100101.jpg","1","","prediction_trial","1","","true","","1","true","true","true","true","true","true","[1]","100","101","1","","","","","","",""
"","","","","","image-keyboard-response","57","427588","0.0-32.0","5e1f8fbfb202032c463f3e06","665500ab8938657b03fbdba8","6657926204e3a81685187e1e","816","stimuli/11001011.jpg"," ","","feedback_trial","1","","","","","","","","","","","","","","","","","","","","",""
"","","","","","image-keyboard-response","58","428867","0.0-33.0","5e1f8fbfb202032c463f3e06","665500ab8938657b03fbdba8","6657926204e3a81685187e1e","1276","stimuli/0010000.jpg","0","","prediction_trial","0","","true","","0","true","true","true","true","true","true","[0]","010","000","1","","","","","","",""
"","","","","","image-keyboard-response","59","429516","0.0-34.0","5e1f8fbfb202032c463f3e06","665500ab8938657b03fbdba8","6657926204e3a81685187e1e","645","stimuli/00100000.jpg"," ","","feedback_trial","0","","","","","","","","","","","","","","","","","","","","",""
"","","","","","image-keyboard-response","60","433911","0.0-35.0","5e1f8fbfb202032c463f3e06","665500ab8938657b03fbdba8","6657926204e3a81685187e1e","4392","stimuli/0011110.jpg","1","","prediction_trial","0","","false","","0","false","false","true","true","false","false","[0]","011","110","0","","","","","","",""
"","","","","","image-keyboard-response","61","434792","0.0-36.0","5e1f8fbfb202032c463f3e06","665500ab8938657b03fbdba8","6657926204e3a81685187e1e","879","stimuli/00111100.jpg"," ","","feedback_trial","0","","","","","","","","","","","","","","","","","","","","",""
"","","","","","image-keyboard-response","62","436202","0.0-37.0","5e1f8fbfb202032c463f3e06","665500ab8938657b03fbdba8","6657926204e3a81685187e1e","1407","stimuli/2010100.jpg","2","","prediction_trial","2","","true","","2","true","true","true","true","true","true","[2]","010","100","1","","","","","","",""
"","","","","","image-keyboard-response","63","437667","0.0-38.0","5e1f8fbfb202032c463f3e06","665500ab8938657b03fbdba8","6657926204e3a81685187e1e","1463","stimuli/20101002.jpg"," ","","feedback_trial","2","","","","","","","","","","","","","","","","","","","","",""
"","","","","","image-keyboard-response","64","439742","0.0-39.0","5e1f8fbfb202032c463f3e06","665500ab8938657b03fbdba8","6657926204e3a81685187e1e","2073","stimuli/2101001.jpg","2","","prediction_trial","0","","false","","2","false","true","false","false","false","false","[2,0]","101","001","0","","","","","","",""
"","","","","","image-keyboard-response","65","440600","0.0-40.0","5e1f8fbfb202032c463f3e06","665500ab8938657b03fbdba8","6657926204e3a81685187e1e","855","stimuli/21010010.jpg"," ","","feedback_trial","2","","","","","","","","","","","","","","","","","","","","",""
"","","","","","image-keyboard-response","66","443243","0.0-41.0","5e1f8fbfb202032c463f3e06","665500ab8938657b03fbdba8","6657926204e3a81685187e1e","2641","stimuli/0101101.jpg","2","","prediction_trial","2","","true","","0","false","false","false","false","false","false","[0,2]","101","101","1","","","","","","",""
"","","","","","image-keyboard-response","67","443897","0.0-42.0","5e1f8fbfb202032c463f3e06","665500ab8938657b03fbdba8","6657926204e3a81685187e1e","650","stimuli/01011012.jpg"," ","","feedback_trial","0","","","","","","","","","","","","","","","","","","","","",""
"","","","","","image-keyboard-response","68","445304","0.0-43.0","5e1f8fbfb202032c463f3e06","665500ab8938657b03fbdba8","6657926204e3a81685187e1e","1404","stimuli/2001001.jpg","2","","prediction_trial","2","","true","","2","false","true","false","true","false","true","[2]","001","001","1","","","","","","",""
"","","","","","image-keyboard-response","69","445905","0.0-44.0","5e1f8fbfb202032c463f3e06","665500ab8938657b03fbdba8","6657926204e3a81685187e1e","598","stimuli/20010012.jpg"," ","","feedback_trial","2","","","","","","","","","","","","","","","","","","","","",""
"","","","","","image-keyboard-response","70","451365","0.0-45.0","5e1f8fbfb202032c463f3e06","665500ab8938657b03fbdba8","6657926204e3a81685187e1e","5458","stimuli/2100011.jpg","1","","prediction_trial","2","","false","","2","false","false","true","true","false","false","[2]","100","011","0","","","","","","",""
"","","","","","image-keyboard-response","71","451840","0.0-46.0","5e1f8fbfb202032c463f3e06","665500ab8938657b03fbdba8","6657926204e3a81685187e1e","472","stimuli/21000112.jpg"," ","","feedback_trial","2","","","","","","","","","","","","","","","","","","","","",""
"","","","","","image-keyboard-response","72","454732","0.0-47.0","5e1f8fbfb202032c463f3e06","665500ab8938657b03fbdba8","6657926204e3a81685187e1e","2889","stimuli/2011001.jpg","2","","prediction_trial","2","","true","","2","false","true","false","false","false","false","[2,1]","011","001","1","","","","","","",""
"","","","","","image-keyboard-response","73","455285","0.0-48.0","5e1f8fbfb202032c463f3e06","665500ab8938657b03fbdba8","6657926204e3a81685187e1e","549","stimuli/20110012.jpg"," ","","feedback_trial","2","","","","","","","","","","","","","","","","","","","","",""
"","","","","","image-keyboard-response","74","456941","0.0-49.0","5e1f8fbfb202032c463f3e06","665500ab8938657b03fbdba8","6657926204e3a81685187e1e","1654","stimuli/0100100.jpg","0","","prediction_trial","0","","true","","0","false","true","false","true","false","true","[0]","100","100","1","","","","","","",""
"","","","","","image-keyboard-response","75","457435","0.0-50.0","5e1f8fbfb202032c463f3e06","665500ab8938657b03fbdba8","6657926204e3a81685187e1e","491","stimuli/01001000.jpg"," ","","feedback_trial","0","","","","","","","","","","","","","","","","","","","","",""
"","","","","","image-keyboard-response","76","458912","0.0-51.0","5e1f8fbfb202032c463f3e06","665500ab8938657b03fbdba8","6657926204e3a81685187e1e","1474","stimuli/0111111.jpg","2","","prediction_trial","0","","false","","0","false","false","false","false","false","false","[0,2,1]","111","111","0","","","","","","",""
"","","","","","image-keyboard-response","77","459380","0.0-52.0","5e1f8fbfb202032c463f3e06","665500ab8938657b03fbdba8","6657926204e3a81685187e1e","465","stimuli/01111110.jpg"," ","","feedback_trial","0","","","","","","","","","","","","","","","","","","","","",""
"","","","","","image-keyboard-response","78","461001","0.0-53.0","5e1f8fbfb202032c463f3e06","665500ab8938657b03fbdba8","6657926204e3a81685187e1e","1619","stimuli/1010010.jpg","1","","prediction_trial","1","","true","","1","false","true","false","true","false","true","[1]","010","010","1","","","","","","",""
"","","","","","image-keyboard-response","79","461400","0.0-54.0","5e1f8fbfb202032c463f3e06","665500ab8938657b03fbdba8","6657926204e3a81685187e1e","395","stimuli/10100101.jpg"," ","","feedback_trial","1","","","","","","","","","","","","","","","","","","","","",""
"","","","","","image-keyboard-response","80","463038","0.0-55.0","5e1f8fbfb202032c463f3e06","665500ab8938657b03fbdba8","6657926204e3a81685187e1e","1635","stimuli/0001010.jpg","0","","prediction_trial","0","","true","","0","true","true","true","true","true","true","[0]","001","010","1","","","","","","",""
"","","","","","image-keyboard-response","81","463452","0.0-56.0","5e1f8fbfb202032c463f3e06","665500ab8938657b03fbdba8","6657926204e3a81685187e1e","411","stimuli/00010100.jpg"," ","","feedback_trial","0","","","","","","","","","","","","","","","","","","","","",""
"","","","","","image-keyboard-response","82","466213","0.0-57.0","5e1f8fbfb202032c463f3e06","665500ab8938657b03fbdba8","6657926204e3a81685187e1e","2758","stimuli/0010110.jpg","1","","prediction_trial","0","","false","","0","false","false","true","true","false","false","[0]","010","110","0","","","","","","",""
"","","","","","image-keyboard-response","83","466626","0.0-58.0","5e1f8fbfb202032c463f3e06","665500ab8938657b03fbdba8","6657926204e3a81685187e1e","411","stimuli/00101100.jpg"," ","","feedback_trial","0","","","","","","","","","","","","","","","","","","","","",""
"","","","","","image-keyboard-response","84","468422","0.0-59.0","5e1f8fbfb202032c463f3e06","665500ab8938657b03fbdba8","6657926204e3a81685187e1e","1793","stimuli/1001010.jpg","1","","prediction_trial","1","","true","","1","false","true","true","true","false","true","[1]","001","010","1","","","","","","",""
"","","","","","image-keyboard-response","85","468771","0.0-60.0","5e1f8fbfb202032c463f3e06","665500ab8938657b03fbdba8","6657926204e3a81685187e1e","347","stimuli/10010101.jpg"," ","","feedback_trial","1","","","","","","","","","","","","","","","","","","","","",""
"","","","","","image-keyboard-response","86","470348","0.0-61.0","5e1f8fbfb202032c463f3e06","665500ab8938657b03fbdba8","6657926204e3a81685187e1e","1574","stimuli/2100001.jpg","2","","prediction_trial","2","","true","","2","false","true","true","true","false","true","[2]","100","001","1","","","","","","",""
"","","","","","image-keyboard-response","87","472662","0.0-62.0","5e1f8fbfb202032c463f3e06","665500ab8938657b03fbdba8","6657926204e3a81685187e1e","2310","stimuli/21000012.jpg"," ","","feedback_trial","2","","","","","","","","","","","","","","","","","","","","",""
"","","","","","image-keyboard-response","88","474203","0.0-63.0","5e1f8fbfb202032c463f3e06","665500ab8938657b03fbdba8","6657926204e3a81685187e1e","1538","stimuli/1111111.jpg","1","","prediction_trial","2","","false","","1","false","false","false","false","false","false","[2,1,0]","111","111","0","","","","","","",""
"","","","","","image-keyboard-response","89","474703","0.0-64.0","5e1f8fbfb202032c463f3e06","665500ab8938657b03fbdba8","6657926204e3a81685187e1e","498","stimuli/11111112.jpg"," ","","feedback_trial","2","","","","","","","","","","","","","","","","","","","","",""
"","","","","","image-keyboard-response","90","476917","0.0-65.0","5e1f8fbfb202032c463f3e06","665500ab8938657b03fbdba8","6657926204e3a81685187e1e","2211","stimuli/2010011.jpg","1","","prediction_trial","2","","false","","2","false","false","true","true","false","false","[2]","010","011","0","","","","","","",""
"","","","","","image-keyboard-response","91","477297","0.0-66.0","5e1f8fbfb202032c463f3e06","665500ab8938657b03fbdba8","6657926204e3a81685187e1e","376","stimuli/20100112.jpg"," ","","feedback_trial","2","","","","","","","","","","","","","","","","","","","","",""
"","","","","","image-keyboard-response","92","478499","0.0-67.0","5e1f8fbfb202032c463f3e06","665500ab8938657b03fbdba8","6657926204e3a81685187e1e","1198","stimuli/0101111.jpg","1","","prediction_trial","2","","false","","0","false","false","false","false","false","false","[0,2]","101","111","0","","","","","","",""
"","","","","","image-keyboard-response","93","478856","0.0-68.0","5e1f8fbfb202032c463f3e06","665500ab8938657b03fbdba8","6657926204e3a81685187e1e","354","stimuli/01011112.jpg"," ","","feedback_trial","0","","","","","","","","","","","","","","","","","","","","",""
"","","","","","image-keyboard-response","94","480027","0.0-69.0","5e1f8fbfb202032c463f3e06","665500ab8938657b03fbdba8","6657926204e3a81685187e1e","1168","stimuli/1000001.jpg","1","","prediction_trial","1","","true","","1","true","true","true","true","true","true","[1]","000","001","1","","","","","","",""
"","","","","","image-keyboard-response","95","480348","0.0-70.0","5e1f8fbfb202032c463f3e06","665500ab8938657b03fbdba8","6657926204e3a81685187e1e","318","stimuli/10000011.jpg"," ","","feedback_trial","1","","","","","","","","","","","","","","","","","","","","",""
"","","","","","image-keyboard-response","96","482631","0.0-71.0","5e1f8fbfb202032c463f3e06","665500ab8938657b03fbdba8","6657926204e3a81685187e1e","2280","stimuli/0000110.jpg","1","","prediction_trial","0","","false","","0","false","false","true","true","false","false","[0]","000","110","0","","","","","","",""
"","","","","","image-keyboard-response","97","482997","0.0-72.0","5e1f8fbfb202032c463f3e06","665500ab8938657b03fbdba8","6657926204e3a81685187e1e","362","stimuli/00001100.jpg"," ","","feedback_trial","0","","","","","","","","","","","","","","","","","","","","",""
"","","","","","image-keyboard-response","98","485660","0.0-73.0","5e1f8fbfb202032c463f3e06","665500ab8938657b03fbdba8","6657926204e3a81685187e1e","2661","stimuli/1110111.jpg","0","","prediction_trial","1","","false","","1","false","false","false","false","false","false","[1,0]","110","111","0","","","","","","",""
"","","","","","image-keyboard-response","99","486024","0.0-74.0","5e1f8fbfb202032c463f3e06","665500ab8938657b03fbdba8","6657926204e3a81685187e1e","361","stimuli/11101111.jpg"," ","","feedback_trial","1","","","","","","","","","","","","","","","","","","","","",""
"","","","","","image-keyboard-response","100","488181","0.0-75.0","5e1f8fbfb202032c463f3e06","665500ab8938657b03fbdba8","6657926204e3a81685187e1e","2154","stimuli/1001111.jpg","2","","prediction_trial","1","","false","","1","false","false","true","true","false","false","[1]","001","111","0","","","","","","",""
"","","","","","image-keyboard-response","101","488606","0.0-76.0","5e1f8fbfb202032c463f3e06","665500ab8938657b03fbdba8","6657926204e3a81685187e1e","422","stimuli/10011111.jpg"," ","","feedback_trial","1","","","","","","","","","","","","","","","","","","","","",""
"","","","","","image-keyboard-response","102","490218","0.0-77.0","5e1f8fbfb202032c463f3e06","665500ab8938657b03fbdba8","6657926204e3a81685187e1e","1608","stimuli/2111100.jpg","2","","prediction_trial","0","","false","","2","true","true","false","false","false","false","[0,1,2]","111","100","0","","","","","","",""
"","","","","","image-keyboard-response","103","491204","0.0-78.0","5e1f8fbfb202032c463f3e06","665500ab8938657b03fbdba8","6657926204e3a81685187e1e","983","stimuli/21111000.jpg"," ","","feedback_trial","0","","","","","","","","","","","","","","","","","","","","",""
"","","","","","image-keyboard-response","104","494579","0.0-79.0","5e1f8fbfb202032c463f3e06","665500ab8938657b03fbdba8","6657926204e3a81685187e1e","3372","stimuli/1110101.jpg","1","","prediction_trial","1","","true","","1","true","true","false","false","false","false","[0,1]","110","101","1","","","","","","",""
"","","","","","image-keyboard-response","105","494953","0.0-80.0","5e1f8fbfb202032c463f3e06","665500ab8938657b03fbdba8","6657926204e3a81685187e1e","370","stimuli/11101011.jpg"," ","","feedback_trial","0","","","","","","","","","","","","","","","","","","","","",""
"","","","","","image-keyboard-response","106","497286","0.0-81.0","5e1f8fbfb202032c463f3e06","665500ab8938657b03fbdba8","6657926204e3a81685187e1e","2331","stimuli/2111101.jpg","0","","prediction_trial","0","","true","","2","false","false","false","false","false","false","[0,1,2]","111","101","1","","","","","","",""
"","","","","","image-keyboard-response","107","497643","0.0-82.0","5e1f8fbfb202032c463f3e06","665500ab8938657b03fbdba8","6657926204e3a81685187e1e","354","stimuli/21111010.jpg"," ","","feedback_trial","0","","","","","","","","","","","","","","","","","","","","",""
"","","","","","image-keyboard-response","108","499162","0.0-83.0","5e1f8fbfb202032c463f3e06","665500ab8938657b03fbdba8","6657926204e3a81685187e1e","1509","stimuli/0010011.jpg","0","","prediction_trial","0","","true","","0","true","true","true","true","true","true","[0]","010","011","1","","","","","","",""
"","","","","","image-keyboard-response","109","499514","0.0-84.0","5e1f8fbfb202032c463f3e06","665500ab8938657b03fbdba8","6657926204e3a81685187e1e","349","stimuli/00100110.jpg"," ","","feedback_trial","0","","","","","","","","","","","","","","","","","","","","",""
"","","","","","image-keyboard-response","110","502212","0.0-85.0","5e1f8fbfb202032c463f3e06","665500ab8938657b03fbdba8","6657926204e3a81685187e1e","2696","stimuli/0100111.jpg","1","","prediction_trial","0","","false","","0","false","false","false","true","false","false","[0]","100","111","0","","","","","","",""
"","","","","","image-keyboard-response","111","502572","0.0-86.0","5e1f8fbfb202032c463f3e06","665500ab8938657b03fbdba8","6657926204e3a81685187e1e","357","stimuli/01001110.jpg"," ","","feedback_trial","0","","","","","","","","","","","","","","","","","","","","",""
"","","","","","image-keyboard-response","112","503833","0.0-87.0","5e1f8fbfb202032c463f3e06","665500ab8938657b03fbdba8","6657926204e3a81685187e1e","1258","stimuli/1010101.jpg","1","","prediction_trial","1","","true","","1","true","true","false","true","false","true","[1]","010","101","1","","","","","","",""
"","","","","","image-keyboard-response","113","504195","0.0-88.0","5e1f8fbfb202032c463f3e06","665500ab8938657b03fbdba8","6657926204e3a81685187e1e","359","stimuli/10101011.jpg"," ","","feedback_trial","1","","","","","","","","","","","","","","","","","","","","",""
"","","","","","image-keyboard-response","114","508660","0.0-89.0","5e1f8fbfb202032c463f3e06","665500ab8938657b03fbdba8","6657926204e3a81685187e1e","4463","stimuli/0101110.jpg","2","","prediction_trial","0","","false","","0","false","false","false","false","false","false","[2,0]","101","110","0","","","","","","",""
"","","","","","image-keyboard-response","115","509123","0.0-90.0","5e1f8fbfb202032c463f3e06","665500ab8938657b03fbdba8","6657926204e3a81685187e1e","459","stimuli/01011100.jpg"," ","","feedback_trial","2","","","","","","","","","","","","","","","","","","","","",""
"","","","","","image-keyboard-response","116","510508","0.0-91.0","5e1f8fbfb202032c463f3e06","665500ab8938657b03fbdba8","6657926204e3a81685187e1e","1382","stimuli/1000010.jpg","1","","prediction_trial","1","","true","","1","false","true","true","true","false","true","[1]","000","010","1","","","","","","",""
"","","","","","image-keyboard-response","117","510908","0.0-92.0","5e1f8fbfb202032c463f3e06","665500ab8938657b03fbdba8","6657926204e3a81685187e1e","397","stimuli/10000101.jpg"," ","","feedback_trial","1","","","","","","","","","","","","","","","","","","","","",""
"","","","","","image-keyboard-response","118","512379","0.0-93.0","5e1f8fbfb202032c463f3e06","665500ab8938657b03fbdba8","6657926204e3a81685187e1e","1467","stimuli/0010010.jpg","0","","prediction_trial","0","","true","","0","true","true","true","true","true","true","[0]","010","010","1","","","","","","",""
"","","","","","image-keyboard-response","119","512751","0.0-94.0","5e1f8fbfb202032c463f3e06","665500ab8938657b03fbdba8","6657926204e3a81685187e1e","369","stimuli/00100100.jpg"," ","","feedback_trial","0","","","","","","","","","","","","","","","","","","","","",""
"","","","","","image-keyboard-response","120","514211","0.0-95.0","5e1f8fbfb202032c463f3e06","665500ab8938657b03fbdba8","6657926204e3a81685187e1e","1457","stimuli/0111011.jpg","0","","prediction_trial","1","","false","","0","true","true","false","false","false","false","[2,1,0]","111","011","0","","","","","","",""
"","","","","","image-keyboard-response","121","514604","0.0-96.0","5e1f8fbfb202032c463f3e06","665500ab8938657b03fbdba8","6657926204e3a81685187e1e","390","stimuli/01110111.jpg"," ","","feedback_trial","2","","","","","","","","","","","","","","","","","","","","",""
"","","","","","image-keyboard-response","122","515859","0.0-97.0","5e1f8fbfb202032c463f3e06","665500ab8938657b03fbdba8","6657926204e3a81685187e1e","1252","stimuli/0001000.jpg","0","","prediction_trial","0","","true","","0","true","true","true","true","true","true","[0]","001","000","1","","","","","","",""
"","","","","","image-keyboard-response","123","516228","0.0-98.0","5e1f8fbfb202032c463f3e06","665500ab8938657b03fbdba8","6657926204e3a81685187e1e","366","stimuli/00010000.jpg"," ","","feedback_trial","0","","","","","","","","","","","","","","","","","","","","",""
"","","","","","image-keyboard-response","124","518343","0.0-99.0","5e1f8fbfb202032c463f3e06","665500ab8938657b03fbdba8","6657926204e3a81685187e1e","2112","stimuli/1110011.jpg","1","","prediction_trial","1","","true","","1","false","false","false","false","false","false","[0,1]","110","011","1","","","","","","",""
"","","","","","image-keyboard-response","125","518690","0.0-100.0","5e1f8fbfb202032c463f3e06","665500ab8938657b03fbdba8","6657926204e3a81685187e1e","345","stimuli/11100111.jpg"," ","","feedback_trial","0","","","","","","","","","","","","","","","","","","","","",""
"","","","","","image-keyboard-response","126","520067","0.0-101.0","5e1f8fbfb202032c463f3e06","665500ab8938657b03fbdba8","6657926204e3a81685187e1e","1374","stimuli/2110110.jpg","2","","prediction_trial","2","","true","","2","true","true","true","true","true","true","[2]","110","110","1","","","","","","",""
"","","","","","image-keyboard-response","127","520468","0.0-102.0","5e1f8fbfb202032c463f3e06","665500ab8938657b03fbdba8","6657926204e3a81685187e1e","397","stimuli/21101102.jpg"," ","","feedback_trial","2","","","","","","","","","","","","","","","","","","","","",""
"","","","","","image-keyboard-response","128","521764","0.0-103.0","5e1f8fbfb202032c463f3e06","665500ab8938657b03fbdba8","6657926204e3a81685187e1e","1293","stimuli/0000111.jpg","1","","prediction_trial","0","","false","","0","false","false","true","true","false","false","[0]","000","111","0","","","","","","",""
"","","","","","image-keyboard-response","129","522145","0.0-104.0","5e1f8fbfb202032c463f3e06","665500ab8938657b03fbdba8","6657926204e3a81685187e1e","378","stimuli/00001110.jpg"," ","","feedback_trial","0","","","","","","","","","","","","","","","","","","","","",""
"","","","","","image-keyboard-response","130","523217","0.0-105.0","5e1f8fbfb202032c463f3e06","665500ab8938657b03fbdba8","6657926204e3a81685187e1e","1069","stimuli/2011000.jpg","2","","prediction_trial","1","","false","","2","true","true","false","false","false","false","[1,2]","011","000","0","","","","","","",""
"","","","","","image-keyboard-response","131","523614","0.0-106.0","5e1f8fbfb202032c463f3e06","665500ab8938657b03fbdba8","6657926204e3a81685187e1e","394","stimuli/20110001.jpg"," ","","feedback_trial","1","","","","","","","","","","","","","","","","","","","","",""
"","","","","","image-keyboard-response","132","525090","0.0-107.0","5e1f8fbfb202032c463f3e06","665500ab8938657b03fbdba8","6657926204e3a81685187e1e","1473","stimuli/2011110.jpg","2","","prediction_trial","1","","false","","2","true","true","false","false","false","false","[1,2]","011","110","0","","","","","","",""
"","","","","","image-keyboard-response","133","525393","0.0-108.0","5e1f8fbfb202032c463f3e06","665500ab8938657b03fbdba8","6657926204e3a81685187e1e","301","stimuli/20111101.jpg"," ","","feedback_trial","1","","","","","","","","","","","","","","","","","","","","",""
"","","","","","image-keyboard-response","134","527751","0.0-109.0","5e1f8fbfb202032c463f3e06","665500ab8938657b03fbdba8","6657926204e3a81685187e1e","2354","stimuli/1100111.jpg","1","","prediction_trial","1","","true","","1","false","false","true","true","false","false","[1]","100","111","1","","","","","","",""
"","","","","","image-keyboard-response","135","528078","0.0-110.0","5e1f8fbfb202032c463f3e06","665500ab8938657b03fbdba8","6657926204e3a81685187e1e","324","stimuli/11001111.jpg"," ","","feedback_trial","1","","","","","","","","","","","","","","","","","","","","",""
"","","","","","image-keyboard-response","136","529608","0.0-111.0","5e1f8fbfb202032c463f3e06","665500ab8938657b03fbdba8","6657926204e3a81685187e1e","1527","stimuli/1010000.jpg","1","","prediction_trial","1","","true","","1","true","true","false","true","false","true","[1]","010","000","1","","","","","","",""
"","","","","","image-keyboard-response","137","529953","0.0-112.0","5e1f8fbfb202032c463f3e06","665500ab8938657b03fbdba8","6657926204e3a81685187e1e","343","stimuli/10100001.jpg"," ","","feedback_trial","1","","","","","","","","","","","","","","","","","","","","",""
"","","","","","image-keyboard-response","138","530969","0.0-113.0","5e1f8fbfb202032c463f3e06","665500ab8938657b03fbdba8","6657926204e3a81685187e1e","1013","stimuli/2000000.jpg","2","","prediction_trial","2","","true","","2","true","true","true","true","true","true","[2]","000","000","1","","","","","","",""
"","","","","","image-keyboard-response","139","531274","0.0-114.0","5e1f8fbfb202032c463f3e06","665500ab8938657b03fbdba8","6657926204e3a81685187e1e","301","stimuli/20000002.jpg"," ","","feedback_trial","2","","","","","","","","","","","","","","","","","","","","",""
"","","","","","image-keyboard-response","140","532959","0.0-115.0","5e1f8fbfb202032c463f3e06","665500ab8938657b03fbdba8","6657926204e3a81685187e1e","1682","stimuli/0010101.jpg","1","","prediction_trial","0","","false","","0","false","false","true","true","false","false","[0]","010","101","0","","","","","","",""
"","","","","","image-keyboard-response","141","533300","0.0-116.0","5e1f8fbfb202032c463f3e06","665500ab8938657b03fbdba8","6657926204e3a81685187e1e","338","stimuli/00101010.jpg"," ","","feedback_trial","0","","","","","","","","","","","","","","","","","","","","",""
"","","","","","image-keyboard-response","142","536578","0.0-117.0","5e1f8fbfb202032c463f3e06","665500ab8938657b03fbdba8","6657926204e3a81685187e1e","3275","stimuli/0000101.jpg","2","","prediction_trial","0","","false","","0","false","false","true","true","false","false","[0]","000","101","0","","","","","","",""
"","","","","","image-keyboard-response","143","536969","0.0-118.0","5e1f8fbfb202032c463f3e06","665500ab8938657b03fbdba8","6657926204e3a81685187e1e","389","stimuli/00001010.jpg"," ","","feedback_trial","0","","","","","","","","","","","","","","","","","","","","",""
"","","","","","image-keyboard-response","144","538225","0.0-119.0","5e1f8fbfb202032c463f3e06","665500ab8938657b03fbdba8","6657926204e3a81685187e1e","1252","stimuli/2101010.jpg","2","","prediction_trial","0","","false","","2","true","true","false","false","false","false","[0,2]","101","010","0","","","","","","",""
"","","","","","image-keyboard-response","145","539111","0.0-120.0","5e1f8fbfb202032c463f3e06","665500ab8938657b03fbdba8","6657926204e3a81685187e1e","884","stimuli/21010100.jpg"," ","","feedback_trial","0","","","","","","","","","","","","","","","","","","","","",""
"","","","","","image-keyboard-response","146","540499","0.0-121.0","5e1f8fbfb202032c463f3e06","665500ab8938657b03fbdba8","6657926204e3a81685187e1e","1385","stimuli/1011111.jpg","1","","prediction_trial","2","","false","","1","false","false","false","false","false","false","[2,1]","011","111","0","","","","","","",""
"","","","","","image-keyboard-response","147","540956","0.0-122.0","5e1f8fbfb202032c463f3e06","665500ab8938657b03fbdba8","6657926204e3a81685187e1e","455","stimuli/10111112.jpg"," ","","feedback_trial","2","","","","","","","","","","","","","","","","","","","","",""
"","","","","","image-keyboard-response","148","542064","0.0-123.0","5e1f8fbfb202032c463f3e06","665500ab8938657b03fbdba8","6657926204e3a81685187e1e","1105","stimuli/2001100.jpg","2","","prediction_trial","2","","true","","2","true","true","false","true","false","true","[2]","001","100","1","","","","","","",""
"","","","","","image-keyboard-response","149","542777","0.0-124.0","5e1f8fbfb202032c463f3e06","665500ab8938657b03fbdba8","6657926204e3a81685187e1e","711","stimuli/20011002.jpg"," ","","feedback_trial","2","","","","","","","","","","","","","","","","","","","","",""
"","","","","","image-keyboard-response","150","544175","0.0-125.0","5e1f8fbfb202032c463f3e06","665500ab8938657b03fbdba8","6657926204e3a81685187e1e","1395","stimuli/0001011.jpg","0","","prediction_trial","0","","true","","0","true","true","true","true","true","true","[0]","001","011","1","","","","","","",""
"","","","","","image-keyboard-response","151","544562","0.0-126.0","5e1f8fbfb202032c463f3e06","665500ab8938657b03fbdba8","6657926204e3a81685187e1e","384","stimuli/00010110.jpg"," ","","feedback_trial","0","","","","","","","","","","","","","","","","","","","","",""
"","","","","","image-keyboard-response","152","546226","0.0-127.0","5e1f8fbfb202032c463f3e06","665500ab8938657b03fbdba8","6657926204e3a81685187e1e","1662","stimuli/2000110.jpg","2","","prediction_trial","2","","true","","2","true","true","true","true","true","true","[2]","000","110","1","","","","","","",""
"","","","","","image-keyboard-response","153","546577","0.0-128.0","5e1f8fbfb202032c463f3e06","665500ab8938657b03fbdba8","6657926204e3a81685187e1e","348","stimuli/20001102.jpg"," ","","feedback_trial","2","","","","","","","","","","","","","","","","","","","","",""
"","","","","","image-keyboard-response","154","548122","0.0-129.0","5e1f8fbfb202032c463f3e06","665500ab8938657b03fbdba8","6657926204e3a81685187e1e","1543","stimuli/0001001.jpg","0","","prediction_trial","0","","true","","0","true","true","true","true","true","true","[0]","001","001","1","","","","","","",""
"","","","","","image-keyboard-response","155","548465","0.0-130.0","5e1f8fbfb202032c463f3e06","665500ab8938657b03fbdba8","6657926204e3a81685187e1e","340","stimuli/00010010.jpg"," ","","feedback_trial","0","","","","","","","","","","","","","","","","","","","","",""
"","","","","","image-keyboard-response","156","550867","0.0-131.0","5e1f8fbfb202032c463f3e06","665500ab8938657b03fbdba8","6657926204e3a81685187e1e","2400","stimuli/2110001.jpg","0","","prediction_trial","2","","false","","2","false","true","true","true","false","true","[2]","110","001","0","","","","","","",""
"","","","","","image-keyboard-response","157","551223","0.0-132.0","5e1f8fbfb202032c463f3e06","665500ab8938657b03fbdba8","6657926204e3a81685187e1e","354","stimuli/21100012.jpg"," ","","feedback_trial","2","","","","","","","","","","","","","","","","","","","","",""
"","","","","","image-keyboard-response","158","553958","0.0-133.0","5e1f8fbfb202032c463f3e06","665500ab8938657b03fbdba8","6657926204e3a81685187e1e","2732","stimuli/1000011.jpg","2","","prediction_trial","1","","false","","1","false","false","true","true","false","false","[1]","000","011","0","","","","","","",""
"","","","","","image-keyboard-response","159","554351","0.0-134.0","5e1f8fbfb202032c463f3e06","665500ab8938657b03fbdba8","6657926204e3a81685187e1e","391","stimuli/10000111.jpg"," ","","feedback_trial","1","","","","","","","","","","","","","","","","","","","","",""
"","","","","","image-keyboard-response","160","555690","0.0-135.0","5e1f8fbfb202032c463f3e06","665500ab8938657b03fbdba8","6657926204e3a81685187e1e","1335","stimuli/2100111.jpg","1","","prediction_trial","2","","false","","2","false","false","true","true","false","false","[2]","100","111","0","","","","","","",""
"","","","","","image-keyboard-response","161","556033","0.0-136.0","5e1f8fbfb202032c463f3e06","665500ab8938657b03fbdba8","6657926204e3a81685187e1e","341","stimuli/21001112.jpg"," ","","feedback_trial","2","","","","","","","","","","","","","","","","","","","","",""
"","","","","","image-keyboard-response","162","558197","0.0-137.0","5e1f8fbfb202032c463f3e06","665500ab8938657b03fbdba8","6657926204e3a81685187e1e","2163","stimuli/2111001.jpg","2","","prediction_trial","0","","false","","2","false","true","false","false","false","false","[1,2,0]","111","001","0","","","","","","",""
"","","","","","image-keyboard-response","163","558549","0.0-138.0","5e1f8fbfb202032c463f3e06","665500ab8938657b03fbdba8","6657926204e3a81685187e1e","349","stimuli/21110010.jpg"," ","","feedback_trial","1","","","","","","","","","","","","","","","","","","","","",""
"","","","","","image-keyboard-response","164","559701","0.0-139.0","5e1f8fbfb202032c463f3e06","665500ab8938657b03fbdba8","6657926204e3a81685187e1e","1149","stimuli/2101011.jpg","1","","prediction_trial","0","","false","","2","false","false","false","false","false","false","[0,2]","101","011","0","","","","","","",""
"","","","","","image-keyboard-response","165","560062","0.0-140.0","5e1f8fbfb202032c463f3e06","665500ab8938657b03fbdba8","6657926204e3a81685187e1e","358","stimuli/21010110.jpg"," ","","feedback_trial","0","","","","","","","","","","","","","","","","","","","","",""
"","","","","","image-keyboard-response","166","561141","0.0-141.0","5e1f8fbfb202032c463f3e06","665500ab8938657b03fbdba8","6657926204e3a81685187e1e","1077","stimuli/2101111.jpg","1","","prediction_trial","0","","false","","2","false","false","false","false","false","false","[0,2]","101","111","0","","","","","","",""
"","","","","","image-keyboard-response","167","561478","0.0-142.0","5e1f8fbfb202032c463f3e06","665500ab8938657b03fbdba8","6657926204e3a81685187e1e","334","stimuli/21011110.jpg"," ","","feedback_trial","0","","","","","","","","","","","","","","","","","","","","",""
"","","","","","image-keyboard-response","168","562603","0.0-143.0","5e1f8fbfb202032c463f3e06","665500ab8938657b03fbdba8","6657926204e3a81685187e1e","1123","stimuli/1001101.jpg","1","","prediction_trial","1","","true","","1","true","true","true","true","true","true","[1]","001","101","1","","","","","","",""
"","","","","","image-keyboard-response","169","562935","0.0-144.0","5e1f8fbfb202032c463f3e06","665500ab8938657b03fbdba8","6657926204e3a81685187e1e","329","stimuli/10011011.jpg"," ","","feedback_trial","1","","","","","","","","","","","","","","","","","","","","",""
"","","","","","image-keyboard-response","170","564238","0.0-145.0","5e1f8fbfb202032c463f3e06","665500ab8938657b03fbdba8","6657926204e3a81685187e1e","1300","stimuli/2010101.jpg","2","","prediction_trial","2","","true","","2","false","false","true","true","false","false","[2]","010","101","1","","","","","","",""
"","","","","","image-keyboard-response","171","564727","0.0-146.0","5e1f8fbfb202032c463f3e06","665500ab8938657b03fbdba8","6657926204e3a81685187e1e","486","stimuli/20101012.jpg"," ","","feedback_trial","2","","","","","","","","","","","","","","","","","","","","",""
"","","","","","image-keyboard-response","172","566178","0.0-147.0","5e1f8fbfb202032c463f3e06","665500ab8938657b03fbdba8","6657926204e3a81685187e1e","1448","stimuli/0110011.jpg","0","","prediction_trial","0","","true","","0","true","true","false","false","false","false","[1,0]","110","011","1","","","","","","",""
"","","","","","image-keyboard-response","173","566520","0.0-148.0","5e1f8fbfb202032c463f3e06","665500ab8938657b03fbdba8","6657926204e3a81685187e1e","339","stimuli/01100110.jpg"," ","","feedback_trial","1","","","","","","","","","","","","","","","","","","","","",""
"","","","","","image-keyboard-response","174","567714","0.0-149.0","5e1f8fbfb202032c463f3e06","665500ab8938657b03fbdba8","6657926204e3a81685187e1e","1192","stimuli/2011101.jpg","2","","prediction_trial","1","","false","","2","false","false","false","false","false","false","[2,1]","011","101","0","","","","","","",""
"","","","","","image-keyboard-response","175","568891","0.0-150.0","5e1f8fbfb202032c463f3e06","665500ab8938657b03fbdba8","6657926204e3a81685187e1e","1174","stimuli/20111011.jpg"," ","","feedback_trial","2","","","","","","","","","","","","","","","","","","","","",""
"","","","","","image-keyboard-response","176","570886","0.0-151.0","5e1f8fbfb202032c463f3e06","665500ab8938657b03fbdba8","6657926204e3a81685187e1e","1991","stimuli/2100101.jpg","2","","prediction_trial","2","","true","","2","false","false","true","true","false","false","[2]","100","101","1","","","","","","",""
"","","","","","image-keyboard-response","177","571290","0.0-152.0","5e1f8fbfb202032c463f3e06","665500ab8938657b03fbdba8","6657926204e3a81685187e1e","402","stimuli/21001012.jpg"," ","","feedback_trial","2","","","","","","","","","","","","","","","","","","","","",""
"","","","","","image-keyboard-response","178","574824","0.0-153.0","5e1f8fbfb202032c463f3e06","665500ab8938657b03fbdba8","6657926204e3a81685187e1e","3533","stimuli/0001100.jpg","2","","prediction_trial","0","","false","","0","false","true","true","true","false","true","[0]","001","100","0","","","","","","",""
"","","","","","image-keyboard-response","179","575213","0.0-154.0","5e1f8fbfb202032c463f3e06","665500ab8938657b03fbdba8","6657926204e3a81685187e1e","386","stimuli/00011000.jpg"," ","","feedback_trial","0","","","","","","","","","","","","","","","","","","","","",""
"","","","","","image-keyboard-response","180","576449","0.0-155.0","5e1f8fbfb202032c463f3e06","665500ab8938657b03fbdba8","6657926204e3a81685187e1e","1234","stimuli/2110000.jpg","2","","prediction_trial","2","","true","","2","true","true","true","true","true","true","[2]","110","000","1","","","","","","",""
"","","","","","image-keyboard-response","181","576790","0.0-156.0","5e1f8fbfb202032c463f3e06","665500ab8938657b03fbdba8","6657926204e3a81685187e1e","338","stimuli/21100002.jpg"," ","","feedback_trial","2","","","","","","","","","","","","","","","","","","","","",""
"","","","","","image-keyboard-response","182","580166","0.0-157.0","5e1f8fbfb202032c463f3e06","665500ab8938657b03fbdba8","6657926204e3a81685187e1e","3373","stimuli/0110100.jpg","0","","prediction_trial","0","","true","","0","false","true","false","false","false","false","[1,0]","110","100","1","","","","","","",""
"","","","","","image-keyboard-response","183","580513","0.0-158.0","5e1f8fbfb202032c463f3e06","665500ab8938657b03fbdba8","6657926204e3a81685187e1e","344","stimuli/01101000.jpg"," ","","feedback_trial","1","","","","","","","","","","","","","","","","","","","","",""
"","","","","","image-keyboard-response","184","583465","0.0-159.0","5e1f8fbfb202032c463f3e06","665500ab8938657b03fbdba8","6657926204e3a81685187e1e","2949","stimuli/1101010.jpg","2","","prediction_trial","1","","false","","1","false","true","true","true","false","true","[1]","101","010","0","","","","","","",""
"","","","","","image-keyboard-response","185","583814","0.0-160.0","5e1f8fbfb202032c463f3e06","665500ab8938657b03fbdba8","6657926204e3a81685187e1e","345","stimuli/11010101.jpg"," ","","feedback_trial","1","","","","","","","","","","","","","","","","","","","","",""
"","","","","","image-keyboard-response","186","585069","0.0-161.0","5e1f8fbfb202032c463f3e06","665500ab8938657b03fbdba8","6657926204e3a81685187e1e","1252","stimuli/2111000.jpg","2","","prediction_trial","0","","false","","2","true","true","false","false","false","false","[2,0,1]","111","000","0","","","","","","",""
"","","","","","image-keyboard-response","187","585465","0.0-162.0","5e1f8fbfb202032c463f3e06","665500ab8938657b03fbdba8","6657926204e3a81685187e1e","392","stimuli/21110000.jpg"," ","","feedback_trial","2","","","","","","","","","","","","","","","","","","","","",""
"","","","","","image-keyboard-response","188","587001","0.0-163.0","5e1f8fbfb202032c463f3e06","665500ab8938657b03fbdba8","6657926204e3a81685187e1e","1534","stimuli/2011011.jpg","1","","prediction_trial","1","","true","","2","false","false","false","false","false","false","[1,2]","011","011","1","","","","","","",""
"","","","","","image-keyboard-response","189","587314","0.0-164.0","5e1f8fbfb202032c463f3e06","665500ab8938657b03fbdba8","6657926204e3a81685187e1e","310","stimuli/20110111.jpg"," ","","feedback_trial","1","","","","","","","","","","","","","","","","","","","","",""
"","","","","","image-keyboard-response","190","588660","0.0-165.0","5e1f8fbfb202032c463f3e06","665500ab8938657b03fbdba8","6657926204e3a81685187e1e","1342","stimuli/2111110.jpg","2","","prediction_trial","0","","false","","2","true","true","false","false","false","false","[0,1,2]","111","110","0","","","","","","",""
"","","","","","image-keyboard-response","191","589069","0.0-166.0","5e1f8fbfb202032c463f3e06","665500ab8938657b03fbdba8","6657926204e3a81685187e1e","406","stimuli/21111100.jpg"," ","","feedback_trial","0","","","","","","","","","","","","","","","","","","","","",""
"","","","","","image-keyboard-response","192","590201","0.0-167.0","5e1f8fbfb202032c463f3e06","665500ab8938657b03fbdba8","6657926204e3a81685187e1e","1130","stimuli/1101100.jpg","1","","prediction_trial","1","","true","","1","true","true","true","true","true","true","[1]","101","100","1","","","","","","",""
"","","","","","image-keyboard-response","193","590499","0.0-168.0","5e1f8fbfb202032c463f3e06","665500ab8938657b03fbdba8","6657926204e3a81685187e1e","296","stimuli/11011001.jpg"," ","","feedback_trial","1","","","","","","","","","","","","","","","","","","","","",""
"","","","","","image-keyboard-response","194","592574","0.0-169.0","5e1f8fbfb202032c463f3e06","665500ab8938657b03fbdba8","6657926204e3a81685187e1e","2072","stimuli/2001101.jpg","2","","prediction_trial","2","","true","","2","false","false","false","true","false","false","[2]","001","101","1","","","","","","",""
"","","","","","image-keyboard-response","195","593000","0.0-170.0","5e1f8fbfb202032c463f3e06","665500ab8938657b03fbdba8","6657926204e3a81685187e1e","424","stimuli/20011012.jpg"," ","","feedback_trial","2","","","","","","","","","","","","","","","","","","","","",""
"","","","","","image-keyboard-response","196","595628","0.0-171.0","5e1f8fbfb202032c463f3e06","665500ab8938657b03fbdba8","6657926204e3a81685187e1e","2626","stimuli/0111100.jpg","1","","prediction_trial","1","","true","","0","false","true","false","false","false","false","[1,2,0]","111","100","1","","","","","","",""
"","","","","","image-keyboard-response","197","595966","0.0-172.0","5e1f8fbfb202032c463f3e06","665500ab8938657b03fbdba8","6657926204e3a81685187e1e","335","stimuli/01111001.jpg"," ","","feedback_trial","1","","","","","","","","","","","","","","","","","","","","",""
"","","","","","image-keyboard-response","198","597182","0.0-173.0","5e1f8fbfb202032c463f3e06","665500ab8938657b03fbdba8","6657926204e3a81685187e1e","1214","stimuli/1110000.jpg","1","","prediction_trial","0","","false","","1","true","true","false","false","false","false","[1,0]","110","000","0","","","","","","",""
"","","","","","image-keyboard-response","199","597542","0.0-174.0","5e1f8fbfb202032c463f3e06","665500ab8938657b03fbdba8","6657926204e3a81685187e1e","356","stimuli/11100000.jpg"," ","","feedback_trial","1","","","","","","","","","","","","","","","","","","","","",""
"","","","","","image-keyboard-response","200","599406","0.0-175.0","5e1f8fbfb202032c463f3e06","665500ab8938657b03fbdba8","6657926204e3a81685187e1e","1862","stimuli/1110110.jpg","0","","prediction_trial","0","","true","","1","false","false","false","false","false","false","[0,1]","110","110","1","","","","","","",""
"","","","","","image-keyboard-response","201","599728","0.0-176.0","5e1f8fbfb202032c463f3e06","665500ab8938657b03fbdba8","6657926204e3a81685187e1e","319","stimuli/11101100.jpg"," ","","feedback_trial","0","","","","","","","","","","","","","","","","","","","","",""
"","","","","","image-keyboard-response","202","601577","0.0-177.0","5e1f8fbfb202032c463f3e06","665500ab8938657b03fbdba8","6657926204e3a81685187e1e","1846","stimuli/1110010.jpg","1","","prediction_trial","1","","true","","1","false","true","false","false","false","false","[0,1]","110","010","1","","","","","","",""
"","","","","","image-keyboard-response","203","601906","0.0-178.0","5e1f8fbfb202032c463f3e06","665500ab8938657b03fbdba8","6657926204e3a81685187e1e","327","stimuli/11100101.jpg"," ","","feedback_trial","0","","","","","","","","","","","","","","","","","","","","",""
"","","","","","image-keyboard-response","204","603161","0.0-179.0","5e1f8fbfb202032c463f3e06","665500ab8938657b03fbdba8","6657926204e3a81685187e1e","1252","stimuli/1100001.jpg","1","","prediction_trial","1","","true","","1","true","true","true","true","true","true","[1]","100","001","1","","","","","","",""
"","","","","","image-keyboard-response","205","603502","0.0-180.0","5e1f8fbfb202032c463f3e06","665500ab8938657b03fbdba8","6657926204e3a81685187e1e","338","stimuli/11000011.jpg"," ","","feedback_trial","1","","","","","","","","","","","","","","","","","","","","",""
"","","","","","image-keyboard-response","206","604752","0.0-181.0","5e1f8fbfb202032c463f3e06","665500ab8938657b03fbdba8","6657926204e3a81685187e1e","1248","stimuli/2110101.jpg","2","","prediction_trial","2","","true","","2","false","false","true","true","false","false","[2]","110","101","1","","","","","","",""
"","","","","","image-keyboard-response","207","606948","0.0-182.0","5e1f8fbfb202032c463f3e06","665500ab8938657b03fbdba8","6657926204e3a81685187e1e","2193","stimuli/21101012.jpg"," ","","feedback_trial","2","","","","","","","","","","","","","","","","","","","","",""
"","","","","","image-keyboard-response","208","608180","0.0-183.0","5e1f8fbfb202032c463f3e06","665500ab8938657b03fbdba8","6657926204e3a81685187e1e","1229","stimuli/2011111.jpg","1","","prediction_trial","1","","true","","2","false","false","false","false","false","false","[1,2]","011","111","1","","","","","","",""
"","","","","","image-keyboard-response","209","608553","0.0-184.0","5e1f8fbfb202032c463f3e06","665500ab8938657b03fbdba8","6657926204e3a81685187e1e","370","stimuli/20111111.jpg"," ","","feedback_trial","1","","","","","","","","","","","","","","","","","","","","",""
"","","","","","image-keyboard-response","210","609700","0.0-185.0","5e1f8fbfb202032c463f3e06","665500ab8938657b03fbdba8","6657926204e3a81685187e1e","1144","stimuli/2000001.jpg","2","","prediction_trial","2","","true","","2","false","true","true","true","false","true","[2]","000","001","1","","","","","","",""
"","","","","","image-keyboard-response","211","611297","0.0-186.0","5e1f8fbfb202032c463f3e06","665500ab8938657b03fbdba8","6657926204e3a81685187e1e","1594","stimuli/20000012.jpg"," ","","feedback_trial","2","","","","","","","","","","","","","","","","","","","","",""
"","","","","","image-keyboard-response","212","612443","0.0-187.0","5e1f8fbfb202032c463f3e06","665500ab8938657b03fbdba8","6657926204e3a81685187e1e","1143","stimuli/2010000.jpg","2","","prediction_trial","2","","true","","2","true","true","true","true","true","true","[2]","010","000","1","","","","","","",""
"","","","","","image-keyboard-response","213","612997","0.0-188.0","5e1f8fbfb202032c463f3e06","665500ab8938657b03fbdba8","6657926204e3a81685187e1e","551","stimuli/20100002.jpg"," ","","feedback_trial","2","","","","","","","","","","","","","","","","","","","","",""
"","","","","","image-keyboard-response","214","614436","0.0-189.0","5e1f8fbfb202032c463f3e06","665500ab8938657b03fbdba8","6657926204e3a81685187e1e","1437","stimuli/2010010.jpg","2","","prediction_trial","2","","true","","2","true","true","true","true","true","true","[2]","010","010","1","","","","","","",""
"","","","","","image-keyboard-response","215","614954","0.0-190.0","5e1f8fbfb202032c463f3e06","665500ab8938657b03fbdba8","6657926204e3a81685187e1e","515","stimuli/20100102.jpg"," ","","feedback_trial","2","","","","","","","","","","","","","","","","","","","","",""
"","","","","","image-keyboard-response","216","617123","0.0-191.0","5e1f8fbfb202032c463f3e06","665500ab8938657b03fbdba8","6657926204e3a81685187e1e","2167","stimuli/1001011.jpg","2","","prediction_trial","1","","false","","1","false","false","true","true","false","false","[1]","001","011","0","","","","","","",""
"","","","","","image-keyboard-response","217","617937","0.0-192.0","5e1f8fbfb202032c463f3e06","665500ab8938657b03fbdba8","6657926204e3a81685187e1e","813","stimuli/10010111.jpg"," ","","feedback_trial","1","","","","","","","","","","","","","","","","","","","","",""
"","","","","","image-keyboard-response","218","619282","0.0-193.0","5e1f8fbfb202032c463f3e06","665500ab8938657b03fbdba8","6657926204e3a81685187e1e","1349","stimuli/2101101.jpg","2","","prediction_trial","0","","false","","2","false","false","false","false","false","false","[2,0]","101","101","0","","","","","","",""
"","","","","","image-keyboard-response","219","619928","0.0-194.0","5e1f8fbfb202032c463f3e06","665500ab8938657b03fbdba8","6657926204e3a81685187e1e","643","stimuli/21011010.jpg"," ","","feedback_trial","2","","","","","","","","","","","","","","","","","","","","",""
"","","","","","image-keyboard-response","220","621012","0.0-195.0","5e1f8fbfb202032c463f3e06","665500ab8938657b03fbdba8","6657926204e3a81685187e1e","1081","stimuli/2000100.jpg","2","","prediction_trial","2","","true","","2","true","true","true","true","true","true","[2]","000","100","1","","","","","","",""
"","","","","","image-keyboard-response","221","621470","0.0-196.0","5e1f8fbfb202032c463f3e06","665500ab8938657b03fbdba8","6657926204e3a81685187e1e","456","stimuli/20001002.jpg"," ","","feedback_trial","2","","","","","","","","","","","","","","","","","","","","",""
"","","","","","image-keyboard-response","222","623183","0.0-197.0","5e1f8fbfb202032c463f3e06","665500ab8938657b03fbdba8","6657926204e3a81685187e1e","1710","stimuli/1000101.jpg","1","","prediction_trial","1","","true","","1","true","true","true","true","true","true","[1]","000","101","1","","","","","","",""
"","","","","","image-keyboard-response","223","623641","0.0-198.0","5e1f8fbfb202032c463f3e06","665500ab8938657b03fbdba8","6657926204e3a81685187e1e","455","stimuli/10001011.jpg"," ","","feedback_trial","1","","","","","","","","","","","","","","","","","","","","",""
"","","","","","image-keyboard-response","224","626934","0.0-199.0","5e1f8fbfb202032c463f3e06","665500ab8938657b03fbdba8","6657926204e3a81685187e1e","3290","stimuli/0100110.jpg","0","","prediction_trial","0","","true","","0","false","false","false","true","false","false","[0]","100","110","1","","","","","","",""
"","","","","","image-keyboard-response","225","627504","0.0-200.0","5e1f8fbfb202032c463f3e06","665500ab8938657b03fbdba8","6657926204e3a81685187e1e","567","stimuli/01001100.jpg"," ","","feedback_trial","0","","","","","","","","","","","","","","","","","","","","",""
"","","","","","image-keyboard-response","226","628559","0.0-201.0","5e1f8fbfb202032c463f3e06","665500ab8938657b03fbdba8","6657926204e3a81685187e1e","1052","stimuli/1001001.jpg","1","","prediction_trial","1","","true","","1","true","true","true","true","true","true","[1]","001","001","1","","","","","","",""
"","","","","","image-keyboard-response","227","629001","0.0-202.0","5e1f8fbfb202032c463f3e06","665500ab8938657b03fbdba8","6657926204e3a81685187e1e","439","stimuli/10010011.jpg"," ","","feedback_trial","1","","","","","","","","","","","","","","","","","","","","",""
"","","","","","image-keyboard-response","228","629947","0.0-203.0","5e1f8fbfb202032c463f3e06","665500ab8938657b03fbdba8","6657926204e3a81685187e1e","943","stimuli/2110100.jpg","2","","prediction_trial","2","","true","","2","true","true","true","true","true","true","[2]","110","100","1","","","","","","",""
"","","","","","image-keyboard-response","229","630481","0.0-204.0","5e1f8fbfb202032c463f3e06","665500ab8938657b03fbdba8","6657926204e3a81685187e1e","532","stimuli/21101002.jpg"," ","","feedback_trial","2","","","","","","","","","","","","","","","","","","","","",""
"","","","","","image-keyboard-response","230","632336","0.0-205.0","5e1f8fbfb202032c463f3e06","665500ab8938657b03fbdba8","6657926204e3a81685187e1e","1852","stimuli/1111110.jpg","0","","prediction_trial","0","","true","","1","false","false","false","false","false","false","[1,0,2]","111","110","1","","","","","","",""
"","","","","","image-keyboard-response","231","632862","0.0-206.0","5e1f8fbfb202032c463f3e06","665500ab8938657b03fbdba8","6657926204e3a81685187e1e","523","stimuli/11111100.jpg"," ","","feedback_trial","1","","","","","","","","","","","","","","","","","","","","",""
"","","","","","image-keyboard-response","232","635440","0.0-207.0","5e1f8fbfb202032c463f3e06","665500ab8938657b03fbdba8","6657926204e3a81685187e1e","2575","stimuli/1100010.jpg","0","","prediction_trial","1","","false","","1","false","true","true","true","false","true","[1]","100","010","0","","","","","","",""
"","","","","","image-keyboard-response","233","636014","0.0-208.0","5e1f8fbfb202032c463f3e06","665500ab8938657b03fbdba8","6657926204e3a81685187e1e","571","stimuli/11000101.jpg"," ","","feedback_trial","1","","","","","","","","","","","","","","","","","","","","",""
"","","","","","image-keyboard-response","234","637117","0.0-209.0","5e1f8fbfb202032c463f3e06","665500ab8938657b03fbdba8","6657926204e3a81685187e1e","1100","stimuli/2001010.jpg","2","","prediction_trial","2","","true","","2","true","true","false","true","false","true","[2]","001","010","1","","","","","","",""
"","","","","","image-keyboard-response","235","637964","0.0-210.0","5e1f8fbfb202032c463f3e06","665500ab8938657b03fbdba8","6657926204e3a81685187e1e","844","stimuli/20010102.jpg"," ","","feedback_trial","2","","","","","","","","","","","","","","","","","","","","",""
"","","","","","image-keyboard-response","236","639327","0.0-211.0","5e1f8fbfb202032c463f3e06","665500ab8938657b03fbdba8","6657926204e3a81685187e1e","1360","stimuli/2110111.jpg","1","","prediction_trial","2","","false","","2","false","false","true","true","false","false","[2]","110","111","0","","","","","","",""
"","","","","","image-keyboard-response","237","639889","0.0-212.0","5e1f8fbfb202032c463f3e06","665500ab8938657b03fbdba8","6657926204e3a81685187e1e","559","stimuli/21101112.jpg"," ","","feedback_trial","2","","","","","","","","","","","","","","","","","","","","",""
"","","","","","image-keyboard-response","238","641023","0.0-213.0","5e1f8fbfb202032c463f3e06","665500ab8938657b03fbdba8","6657926204e3a81685187e1e","1132","stimuli/1100100.jpg","1","","prediction_trial","1","","true","","1","true","true","true","true","true","true","[1]","100","100","1","","","","","","",""
"","","","","","image-keyboard-response","239","641520","0.0-214.0","5e1f8fbfb202032c463f3e06","665500ab8938657b03fbdba8","6657926204e3a81685187e1e","494","stimuli/11001001.jpg"," ","","feedback_trial","1","","","","","","","","","","","","","","","","","","","","",""
"","","","","","image-keyboard-response","240","642517","0.0-215.0","5e1f8fbfb202032c463f3e06","665500ab8938657b03fbdba8","6657926204e3a81685187e1e","994","stimuli/0110000.jpg","0","","prediction_trial","0","","true","","0","true","true","false","false","false","false","[0,1]","110","000","1","","","","","","",""
"","","","","","image-keyboard-response","241","643504","0.0-216.0","5e1f8fbfb202032c463f3e06","665500ab8938657b03fbdba8","6657926204e3a81685187e1e","984","stimuli/01100000.jpg"," ","","feedback_trial","0","","","","","","","","","","","","","","","","","","","","",""
"","","","","","image-keyboard-response","242","645132","0.0-217.0","5e1f8fbfb202032c463f3e06","665500ab8938657b03fbdba8","6657926204e3a81685187e1e","1626","stimuli/1010111.jpg","1","","prediction_trial","1","","true","","1","false","false","false","true","false","false","[1]","010","111","1","","","","","","",""
"","","","","","image-keyboard-response","243","645587","0.0-218.0","5e1f8fbfb202032c463f3e06","665500ab8938657b03fbdba8","6657926204e3a81685187e1e","452","stimuli/10101111.jpg"," ","","feedback_trial","1","","","","","","","","","","","","","","","","","","","","",""
"","","","","","image-keyboard-response","244","647146","0.0-219.0","5e1f8fbfb202032c463f3e06","665500ab8938657b03fbdba8","6657926204e3a81685187e1e","1557","stimuli/2010111.jpg","1","","prediction_trial","2","","false","","2","false","false","true","true","false","false","[2]","010","111","0","","","","","","",""
"","","","","","image-keyboard-response","245","647826","0.0-220.0","5e1f8fbfb202032c463f3e06","665500ab8938657b03fbdba8","6657926204e3a81685187e1e","677","stimuli/20101112.jpg"," ","","feedback_trial","2","","","","","","","","","","","","","","","","","","","","",""
"","","","","","image-keyboard-response","246","650051","0.0-221.0","5e1f8fbfb202032c463f3e06","665500ab8938657b03fbdba8","6657926204e3a81685187e1e","2223","stimuli/0011100.jpg","2","","prediction_trial","0","","false","","0","false","true","true","true","false","true","[0]","011","100","0","","","","","","",""
"","","","","","image-keyboard-response","247","650495","0.0-222.0","5e1f8fbfb202032c463f3e06","665500ab8938657b03fbdba8","6657926204e3a81685187e1e","440","stimuli/00111000.jpg"," ","","feedback_trial","0","","","","","","","","","","","","","","","","","","","","",""
"","","","","","image-keyboard-response","248","651816","0.0-223.0","5e1f8fbfb202032c463f3e06","665500ab8938657b03fbdba8","6657926204e3a81685187e1e","1318","stimuli/2100000.jpg","2","","prediction_trial","2","","true","","2","true","true","true","true","true","true","[2]","100","000","1","","","","","","",""
"","","","","","image-keyboard-response","249","652260","0.0-224.0","5e1f8fbfb202032c463f3e06","665500ab8938657b03fbdba8","6657926204e3a81685187e1e","441","stimuli/21000002.jpg"," ","","feedback_trial","2","","","","","","","","","","","","","","","","","","","","",""
"","","","","","image-keyboard-response","250","653185","0.0-225.0","5e1f8fbfb202032c463f3e06","665500ab8938657b03fbdba8","6657926204e3a81685187e1e","922","stimuli/0000000.jpg","0","","prediction_trial","0","","true","","0","true","true","true","true","true","true","[0]","000","000","1","","","","","","",""
"","","","","","image-keyboard-response","251","654033","0.0-226.0","5e1f8fbfb202032c463f3e06","665500ab8938657b03fbdba8","6657926204e3a81685187e1e","847","stimuli/00000000.jpg"," ","","feedback_trial","0","","","","","","","","","","","","","","","","","","","","",""
"","","","","","image-keyboard-response","252","655506","0.0-227.0","5e1f8fbfb202032c463f3e06","665500ab8938657b03fbdba8","6657926204e3a81685187e1e","1471","stimuli/2000111.jpg","2","","prediction_trial","2","","true","","2","false","false","true","true","false","false","[2]","000","111","1","","","","","","",""
"","","","","","image-keyboard-response","253","656358","0.0-228.0","5e1f8fbfb202032c463f3e06","665500ab8938657b03fbdba8","6657926204e3a81685187e1e","848","stimuli/20001112.jpg"," ","","feedback_trial","2","","","","","","","","","","","","","","","","","","","","",""
"","","","","","image-keyboard-response","254","657512","0.0-229.0","5e1f8fbfb202032c463f3e06","665500ab8938657b03fbdba8","6657926204e3a81685187e1e","1151","stimuli/2101000.jpg","2","","prediction_trial","2","","true","","2","true","true","false","false","false","false","[2,0]","101","000","1","","","","","","",""
"","","","","","image-keyboard-response","255","658131","0.0-230.0","5e1f8fbfb202032c463f3e06","665500ab8938657b03fbdba8","6657926204e3a81685187e1e","616","stimuli/21010002.jpg"," ","","feedback_trial","2","","","","","","","","","","","","","","","","","","","","",""
"","","","","","image-keyboard-response","256","659305","0.0-231.0","5e1f8fbfb202032c463f3e06","665500ab8938657b03fbdba8","6657926204e3a81685187e1e","1172","stimuli/2011100.jpg","2","","prediction_trial","2","","true","","2","true","true","false","false","false","false","[1,2]","011","100","1","","","","","","",""
"","","","","","image-keyboard-response","257","659879","0.0-232.0","5e1f8fbfb202032c463f3e06","665500ab8938657b03fbdba8","6657926204e3a81685187e1e","571","stimuli/20111002.jpg"," ","","feedback_trial","1","","","","","","","","","","","","","","","","","","","","",""
"","","","","","image-keyboard-response","258","661122","0.0-233.0","5e1f8fbfb202032c463f3e06","665500ab8938657b03fbdba8","6657926204e3a81685187e1e","1241","stimuli/1110100.jpg","1","","prediction_trial","0","","false","","1","true","true","false","false","false","false","[0,1]","110","100","0","","","","","","",""
"","","","","","image-keyboard-response","259","661616","0.0-234.0","5e1f8fbfb202032c463f3e06","665500ab8938657b03fbdba8","6657926204e3a81685187e1e","489","stimuli/11101000.jpg"," ","","feedback_trial","0","","","","","","","","","","","","","","","","","","","","",""
"","","","","","image-keyboard-response","260","662995","0.0-235.0","5e1f8fbfb202032c463f3e06","665500ab8938657b03fbdba8","6657926204e3a81685187e1e","1376","stimuli/2111011.jpg","2","","prediction_trial","0","","false","","2","false","false","false","false","false","false","[2,1,0]","111","011","0","","","","","","",""
"","","","","","image-keyboard-response","261","663636","0.0-236.0","5e1f8fbfb202032c463f3e06","665500ab8938657b03fbdba8","6657926204e3a81685187e1e","638","stimuli/21110110.jpg"," ","","feedback_trial","2","","","","","","","","","","","","","","","","","","","","",""
"","","","","","image-keyboard-response","262","665188","0.0-237.0","5e1f8fbfb202032c463f3e06","665500ab8938657b03fbdba8","6657926204e3a81685187e1e","1549","stimuli/0111101.jpg","1","","prediction_trial","2","","false","","0","false","false","false","false","false","false","[2,1,0]","111","101","0","","","","","","",""
"","","","","","image-keyboard-response","263","665693","0.0-238.0","5e1f8fbfb202032c463f3e06","665500ab8938657b03fbdba8","6657926204e3a81685187e1e","504","stimuli/01111012.jpg"," ","","feedback_trial","2","","","","","","","","","","","","","","","","","","","","",""
"","","","","","image-keyboard-response","264","666632","0.0-239.0","5e1f8fbfb202032c463f3e06","665500ab8938657b03fbdba8","6657926204e3a81685187e1e","937","stimuli/1000000.jpg","1","","prediction_trial","1","","true","","1","true","true","true","true","true","true","[1]","000","000","1","","","","","","",""
"","","","","","image-keyboard-response","265","667060","0.0-240.0","5e1f8fbfb202032c463f3e06","665500ab8938657b03fbdba8","6657926204e3a81685187e1e","426","stimuli/10000001.jpg"," ","","feedback_trial","1","","","","","","","","","","","","","","","","","","","","",""
"","","","","","image-keyboard-response","266","668877","0.0-241.0","5e1f8fbfb202032c463f3e06","665500ab8938657b03fbdba8","6657926204e3a81685187e1e","1815","stimuli/1010001.jpg","1","","prediction_trial","1","","true","","1","true","true","false","true","false","true","[1]","010","001","1","","","","","","",""
"","","","","","image-keyboard-response","267","669309","0.0-242.0","5e1f8fbfb202032c463f3e06","665500ab8938657b03fbdba8","6657926204e3a81685187e1e","429","stimuli/10100011.jpg"," ","","feedback_trial","1","","","","","","","","","","","","","","","","","","","","",""
"","","","","","image-keyboard-response","268","672234","0.0-243.0","5e1f8fbfb202032c463f3e06","665500ab8938657b03fbdba8","6657926204e3a81685187e1e","2922","stimuli/1111001.jpg","0","","prediction_trial","0","","true","","1","true","true","false","false","false","false","[2,1,0]","111","001","1","","","","","","",""
"","","","","","image-keyboard-response","269","672737","0.0-244.0","5e1f8fbfb202032c463f3e06","665500ab8938657b03fbdba8","6657926204e3a81685187e1e","500","stimuli/11110010.jpg"," ","","feedback_trial","2","","","","","","","","","","","","","","","","","","","","",""
"","","","","","image-keyboard-response","270","674022","0.0-245.0","5e1f8fbfb202032c463f3e06","665500ab8938657b03fbdba8","6657926204e3a81685187e1e","1282","stimuli/0010001.jpg","0","","prediction_trial","0","","true","","0","true","true","true","true","true","true","[0]","010","001","1","","","","","","",""
"","","","","","image-keyboard-response","271","674562","0.0-246.0","5e1f8fbfb202032c463f3e06","665500ab8938657b03fbdba8","6657926204e3a81685187e1e","536","stimuli/00100010.jpg"," ","","feedback_trial","0","","","","","","","","","","","","","","","","","","","","",""
"","","","","","image-keyboard-response","272","675461","0.0-247.0","5e1f8fbfb202032c463f3e06","665500ab8938657b03fbdba8","6657926204e3a81685187e1e","895","stimuli/1001100.jpg","1","","prediction_trial","1","","true","","1","true","true","true","true","true","true","[1]","001","100","1","","","","","","",""
"","","","","","image-keyboard-response","273","675873","0.0-248.0","5e1f8fbfb202032c463f3e06","665500ab8938657b03fbdba8","6657926204e3a81685187e1e","408","stimuli/10011001.jpg"," ","","feedback_trial","1","","","","","","","","","","","","","","","","","","","","",""
"","","","","","image-keyboard-response","274","676825","0.0-249.0","5e1f8fbfb202032c463f3e06","665500ab8938657b03fbdba8","6657926204e3a81685187e1e","949","stimuli/2101110.jpg","2","","prediction_trial","0","","false","","2","true","true","false","false","false","false","[0,2]","101","110","0","","","","","","",""
"","","","","","image-keyboard-response","275","677491","0.0-250.0","5e1f8fbfb202032c463f3e06","665500ab8938657b03fbdba8","6657926204e3a81685187e1e","663","stimuli/21011100.jpg"," ","","feedback_trial","0","","","","","","","","","","","","","","","","","","","","",""
"","","","","","image-keyboard-response","276","679314","0.0-251.0","5e1f8fbfb202032c463f3e06","665500ab8938657b03fbdba8","6657926204e3a81685187e1e","1823","stimuli/1001110.jpg","1","","prediction_trial","1","","true","","1","false","false","true","true","false","false","[1]","001","110","1","","","","","","",""
"","","","","","image-keyboard-response","277","680045","0.0-252.0","5e1f8fbfb202032c463f3e06","665500ab8938657b03fbdba8","6657926204e3a81685187e1e","729","stimuli/10011101.jpg"," ","","feedback_trial","1","","","","","","","","","","","","","","","","","","","","",""
"","","","","","image-keyboard-response","278","681122","0.0-253.0","5e1f8fbfb202032c463f3e06","665500ab8938657b03fbdba8","6657926204e3a81685187e1e","1074","stimuli/0101010.jpg","0","","prediction_trial","0","","true","","0","true","true","false","false","false","false","[2,0]","101","010","1","","","","","","",""
"","","","","","image-keyboard-response","279","681828","0.0-254.0","5e1f8fbfb202032c463f3e06","665500ab8938657b03fbdba8","6657926204e3a81685187e1e","703","stimuli/01010100.jpg"," ","","feedback_trial","2","","","","","","","","","","","","","","","","","","","","",""
"","","","","","image-keyboard-response","280","683150","0.0-255.0","5e1f8fbfb202032c463f3e06","665500ab8938657b03fbdba8","6657926204e3a81685187e1e","1320","stimuli/0101100.jpg","0","","prediction_trial","2","","false","","0","false","true","false","false","false","false","[2,0]","101","100","0","","","","","","",""
"","","","","","image-keyboard-response","281","683706","0.0-256.0","5e1f8fbfb202032c463f3e06","665500ab8938657b03fbdba8","6657926204e3a81685187e1e","553","stimuli/01011002.jpg"," ","","feedback_trial","2","","","","","","","","","","","","","","","","","","","","",""
"","","","","","image-keyboard-response","282","686797","0.0-257.0","5e1f8fbfb202032c463f3e06","665500ab8938657b03fbdba8","6657926204e3a81685187e1e","3089","stimuli/0111110.jpg","0","","prediction_trial","2","","false","","0","false","false","false","false","false","false","[2,0,1]","111","110","0","","","","","","",""
"","","","","","image-keyboard-response","283","687324","0.0-258.0","5e1f8fbfb202032c463f3e06","665500ab8938657b03fbdba8","6657926204e3a81685187e1e","523","stimuli/01111102.jpg"," ","","feedback_trial","2","","","","","","","","","","","","","","","","","","","","",""
"","","","","","image-keyboard-response","284","688574","0.0-259.0","5e1f8fbfb202032c463f3e06","665500ab8938657b03fbdba8","6657926204e3a81685187e1e","1247","stimuli/1111010.jpg","1","","prediction_trial","0","","false","","1","false","true","false","false","false","false","[1,2,0]","111","010","0","","","","","","",""
"","","","","","image-keyboard-response","285","689096","0.0-260.0","5e1f8fbfb202032c463f3e06","665500ab8938657b03fbdba8","6657926204e3a81685187e1e","520","stimuli/11110100.jpg"," ","","feedback_trial","1","","","","","","","","","","","","","","","","","","","","",""
"","","","","","image-keyboard-response","286","690386","0.0-261.0","5e1f8fbfb202032c463f3e06","665500ab8938657b03fbdba8","6657926204e3a81685187e1e","1287","stimuli/0011101.jpg","2","","prediction_trial","0","","false","","0","false","false","true","true","false","false","[0]","011","101","0","","","","","","",""
"","","","","","image-keyboard-response","287","690965","0.0-262.0","5e1f8fbfb202032c463f3e06","665500ab8938657b03fbdba8","6657926204e3a81685187e1e","576","stimuli/00111010.jpg"," ","","feedback_trial","0","","","","","","","","","","","","","","","","","","","","",""
"","","","","","image-keyboard-response","288","692884","0.0-263.0","5e1f8fbfb202032c463f3e06","665500ab8938657b03fbdba8","6657926204e3a81685187e1e","1916","stimuli/1101110.jpg","0","","prediction_trial","1","","false","","1","false","false","true","true","false","false","[1]","101","110","0","","","","","","",""
"","","","","","image-keyboard-response","289","693351","0.0-264.0","5e1f8fbfb202032c463f3e06","665500ab8938657b03fbdba8","6657926204e3a81685187e1e","464","stimuli/11011101.jpg"," ","","feedback_trial","1","","","","","","","","","","","","","","","","","","","","",""
"","","","","","image-keyboard-response","290","694302","0.0-265.0","5e1f8fbfb202032c463f3e06","665500ab8938657b03fbdba8","6657926204e3a81685187e1e","950","stimuli/2100010.jpg","2","","prediction_trial","2","","true","","2","true","true","true","true","true","true","[2]","100","010","1","","","","","","",""
"","","","","","image-keyboard-response","291","694752","0.0-266.0","5e1f8fbfb202032c463f3e06","665500ab8938657b03fbdba8","6657926204e3a81685187e1e","446","stimuli/21000102.jpg"," ","","feedback_trial","2","","","","","","","","","","","","","","","","","","","","",""
"","","","","","image-keyboard-response","292","695755","0.0-267.0","5e1f8fbfb202032c463f3e06","665500ab8938657b03fbdba8","6657926204e3a81685187e1e","1000","stimuli/2110011.jpg","0","","prediction_trial","2","","false","","2","false","false","true","true","false","false","[2]","110","011","0","","","","","","",""
"","","","","","image-keyboard-response","293","698147","0.0-268.0","5e1f8fbfb202032c463f3e06","665500ab8938657b03fbdba8","6657926204e3a81685187e1e","2390","stimuli/21100112.jpg"," ","","feedback_trial","2","","","","","","","","","","","","","","","","","","","","",""
"","","","","","image-keyboard-response","294","699168","0.0-269.0","5e1f8fbfb202032c463f3e06","665500ab8938657b03fbdba8","6657926204e3a81685187e1e","1018","stimuli/0011010.jpg","0","","prediction_trial","0","","true","","0","true","true","true","true","true","true","[0]","011","010","1","","","","","","",""
"","","","","","image-keyboard-response","295","699652","0.0-270.0","5e1f8fbfb202032c463f3e06","665500ab8938657b03fbdba8","6657926204e3a81685187e1e","480","stimuli/00110100.jpg"," ","","feedback_trial","0","","","","","","","","","","","","","","","","","","","","",""
"","","","","","image-keyboard-response","296","700840","0.0-271.0","5e1f8fbfb202032c463f3e06","665500ab8938657b03fbdba8","6657926204e3a81685187e1e","1185","stimuli/2110010.jpg","2","","prediction_trial","2","","true","","2","true","true","true","true","true","true","[2]","110","010","1","","","","","","",""
"","","","","","image-keyboard-response","297","701208","0.0-272.0","5e1f8fbfb202032c463f3e06","665500ab8938657b03fbdba8","6657926204e3a81685187e1e","366","stimuli/21100102.jpg"," ","","feedback_trial","2","","","","","","","","","","","","","","","","","","","","",""
"","","","","","image-keyboard-response","298","702400","0.0-273.0","5e1f8fbfb202032c463f3e06","665500ab8938657b03fbdba8","6657926204e3a81685187e1e","1189","stimuli/1110001.jpg","1","","prediction_trial","1","","true","","1","true","true","false","false","false","false","[1,0]","110","001","1","","","","","","",""
"","","","","","image-keyboard-response","299","702830","0.0-274.0","5e1f8fbfb202032c463f3e06","665500ab8938657b03fbdba8","6657926204e3a81685187e1e","427","stimuli/11100011.jpg"," ","","feedback_trial","1","","","","","","","","","","","","","","","","","","","","",""
"","","","","","image-keyboard-response","300","704198","0.0-275.0","5e1f8fbfb202032c463f3e06","665500ab8938657b03fbdba8","6657926204e3a81685187e1e","1365","stimuli/0000100.jpg","0","","prediction_trial","0","","true","","0","false","true","true","true","false","true","[0]","000","100","1","","","","","","",""
"","","","","","image-keyboard-response","301","704768","0.0-276.0","5e1f8fbfb202032c463f3e06","665500ab8938657b03fbdba8","6657926204e3a81685187e1e","567","stimuli/00001000.jpg"," ","","feedback_trial","0","","","","","","","","","","","","","","","","","","","","",""
"","","","","","image-keyboard-response","302","706964","0.0-277.0","5e1f8fbfb202032c463f3e06","665500ab8938657b03fbdba8","6657926204e3a81685187e1e","2193","stimuli/0100101.jpg","0","","prediction_trial","0","","true","","0","false","false","false","true","false","false","[0]","100","101","1","","","","","","",""
"","","","","","image-keyboard-response","303","707332","0.0-278.0","5e1f8fbfb202032c463f3e06","665500ab8938657b03fbdba8","6657926204e3a81685187e1e","365","stimuli/01001010.jpg"," ","","feedback_trial","0","","","","","","","","","","","","","","","","","","","","",""
"","","","","","image-keyboard-response","304","709521","0.0-279.0","5e1f8fbfb202032c463f3e06","665500ab8938657b03fbdba8","6657926204e3a81685187e1e","2186","stimuli/0001111.jpg","2","","prediction_trial","0","","false","","0","false","false","true","true","false","false","[0]","001","111","0","","","","","","",""
"","","","","","image-keyboard-response","305","710104","0.0-280.0","5e1f8fbfb202032c463f3e06","665500ab8938657b03fbdba8","6657926204e3a81685187e1e","580","stimuli/00011110.jpg"," ","","feedback_trial","0","","","","","","","","","","","","","","","","","","","","",""
"","","","","","image-keyboard-response","306","711244","0.0-281.0","5e1f8fbfb202032c463f3e06","665500ab8938657b03fbdba8","6657926204e3a81685187e1e","1139","stimuli/2100110.jpg","2","","prediction_trial","2","","true","","2","true","true","true","true","true","true","[2]","100","110","1","","","","","","",""
"","","","","","image-keyboard-response","307","711703","0.0-282.0","5e1f8fbfb202032c463f3e06","665500ab8938657b03fbdba8","6657926204e3a81685187e1e","455","stimuli/21001102.jpg"," ","","feedback_trial","2","","","","","","","","","","","","","","","","","","","","",""
"","","","","","image-keyboard-response","308","712671","0.0-283.0","5e1f8fbfb202032c463f3e06","665500ab8938657b03fbdba8","6657926204e3a81685187e1e","965","stimuli/1011100.jpg","1","","prediction_trial","2","","false","","1","true","true","false","false","false","false","[2,1]","011","100","0","","","","","","",""
"","","","","","image-keyboard-response","309","713068","0.0-284.0","5e1f8fbfb202032c463f3e06","665500ab8938657b03fbdba8","6657926204e3a81685187e1e","394","stimuli/10111002.jpg"," ","","feedback_trial","2","","","","","","","","","","","","","","","","","","","","",""
"","","","","","image-keyboard-response","310","714638","0.0-285.0","5e1f8fbfb202032c463f3e06","665500ab8938657b03fbdba8","6657926204e3a81685187e1e","1567","stimuli/0100011.jpg","0","","prediction_trial","0","","true","","0","true","true","false","true","false","true","[0]","100","011","1","","","","","","",""
"","","","","","image-keyboard-response","311","715033","0.0-286.0","5e1f8fbfb202032c463f3e06","665500ab8938657b03fbdba8","6657926204e3a81685187e1e","393","stimuli/01000110.jpg"," ","","feedback_trial","0","","","","","","","","","","","","","","","","","","","","",""
"","","","","","image-keyboard-response","312","716438","0.0-287.0","5e1f8fbfb202032c463f3e06","665500ab8938657b03fbdba8","6657926204e3a81685187e1e","1401","stimuli/1101111.jpg","0","","prediction_trial","1","","false","","1","false","false","true","true","false","false","[1]","101","111","0","","","","","","",""
"","","","","","image-keyboard-response","313","717399","0.0-288.0","5e1f8fbfb202032c463f3e06","665500ab8938657b03fbdba8","6657926204e3a81685187e1e","959","stimuli/11011111.jpg"," ","","feedback_trial","1","","","","","","","","","","","","","","","","","","","","",""
"","","","","","image-keyboard-response","314","718605","0.0-289.0","5e1f8fbfb202032c463f3e06","665500ab8938657b03fbdba8","6657926204e3a81685187e1e","1203","stimuli/0100010.jpg","0","","prediction_trial","0","","true","","0","true","true","false","true","false","true","[0]","100","010","1","","","","","","",""
"","","","","","image-keyboard-response","315","719458","0.0-290.0","5e1f8fbfb202032c463f3e06","665500ab8938657b03fbdba8","6657926204e3a81685187e1e","850","stimuli/01000100.jpg"," ","","feedback_trial","0","","","","","","","","","","","","","","","","","","","","",""
"","","","","","image-keyboard-response","316","720591","0.0-291.0","5e1f8fbfb202032c463f3e06","665500ab8938657b03fbdba8","6657926204e3a81685187e1e","1131","stimuli/1101101.jpg","1","","prediction_trial","1","","true","","1","true","true","true","true","true","true","[1]","101","101","1","","","","","","",""
"","","","","","image-keyboard-response","317","721158","0.0-292.0","5e1f8fbfb202032c463f3e06","665500ab8938657b03fbdba8","6657926204e3a81685187e1e","564","stimuli/11011011.jpg"," ","","feedback_trial","1","","","","","","","","","","","","","","","","","","","","",""
"","","","","","survey-html-form","318","767822","0.0-293.0","5e1f8fbfb202032c463f3e06","665500ab8938657b03fbdba8","6657926204e3a81685187e1e","46644","","{""feedback"":""The placement of the blocks influenced how I responded sometimes.  I have no questions or comments."",""age"":""63"",""gender"":""Female"",""other_gender"":"""",""race"":""White"",""other_race"":"""",""ethnicity"":""Non-Hispanic""}","","exit_survey","","","","","","","","","","","","","","","","The placement of the blocks influenced how I responded sometimes.  I have no questions or comments.","63","Non-Hispanic","Female","White","0.5972222222222222","0.5972222222222222"
