"success","timeout","failed_images","failed_audio","failed_video","trial_type","trial_index","time_elapsed","internal_node_id","prolific_id","prolific_study_id","prolific_session_id","rt","stimulus","response","view_history","trial","character_choice","stimulus_dict","accuracy","correct_response","ball_pos","ego_ball_visible","ego_can_infer","alter_ball_visible","alter_can_infer","collective_ball_visible","collective_can_infer","search_locations","alter_occluders","ego_occluders","accuracy_bool","feedback","age","ethnicity","gender","race","overall_accuracy","bonus"
"true","false","[]","[]","[]","preload","0","4409","0.0-0.0","64360d6189dec3ac8afc9a78","665500ab8938657b03fbdba8","665793313dafe137eff134ca","","","","","","","","","","","","","","","","","","","","","","","","","","",""
"true","","","","","fullscreen","1","7596","0.0-1.0","64360d6189dec3ac8afc9a78","665500ab8938657b03fbdba8","665793313dafe137eff134ca","","","","","","","","","","","","","","","","","","","","","","","","","","",""
"","","","","","html-button-response","2","9233","0.0-2.0","64360d6189dec3ac8afc9a78","665500ab8938657b03fbdba8","665793313dafe137eff134ca","1634","<p><b>Consent Form</b></p> <div style=""text-align:left;background-color:lightgrey; padding:20px; max-width:900px;""><p>Please consider this information carefully before deciding whether to participate in this research.</p> <p>The purpose of this research is to examine which factors influence social judgment and decision-making. You will be asked to make judgements about individuals and actions in social scenarios. We are simply interested in your judgement. The study will take less than 1 hour to complete, and you will receive less than $20 on Prolific. Your compensation and time commitment are specified in the study description. There are no anticipated risks associated with participating in this study. The effects of participating should be comparable to those you would ordinarily experience from viewing a computer monitor and using a mouse or keyboard for a similar amount of time. At the end of the study, we will provide an explanation of the questions that motivate this line of research and will describe the potential implications. </p><p> Your participation in this study is completely voluntary and you may refuse to participate or you may choose to withdraw at any time without penalty or loss of benefits to you which are otherwise entitled. Your participation in this study will remain confidential. No personally identifiable information will be associated with your data. Also, all analyses of the data will be averaged across all the participants, so your individual responses will never be specifically analyzed. </p><p> If you have questions or concerns about your participation or payment, or want to request a summary of research findings, please contact Dr. Jonathan Phillips at Jonathan.S.Phillips@dartmouth.edu. </p><p> Please save a copy of this form for your records. </p><p><b>Agreement: </b>The nature and purpose of this research have been sufficiently explained and I agree to participate in this study. I understand that I am free to withdraw at any time without incurring any penalty. Please consent by clicking the button below to continue. Otherwise, please exit the study at any time. </p>","0","","","","","","","","","","","","","","","","","","","","","","","",""
"","","","","","instructions","3","155482","0.0-3.0-0.0","64360d6189dec3ac8afc9a78","665500ab8938657b03fbdba8","665793313dafe137eff134ca","146249","","","[{""page_index"":0,""viewing_time"":1688},{""page_index"":1,""viewing_time"":3586},{""page_index"":2,""viewing_time"":5614},{""page_index"":3,""viewing_time"":9054},{""page_index"":4,""viewing_time"":5536},{""page_index"":5,""viewing_time"":4881},{""page_index"":6,""viewing_time"":11480},{""page_index"":7,""viewing_time"":6445},{""page_index"":8,""viewing_time"":8699},{""page_index"":9,""viewing_time"":4553},{""page_index"":10,""viewing_time"":51976},{""page_index"":11,""viewing_time"":18778},{""page_index"":12,""viewing_time"":10761},{""page_index"":13,""viewing_time"":3198}]","intro","","","","","","","","","","","","","","","","","","","","","",""
"","","","","","image-keyboard-response","4","156772","0.0-3.0-1.0","64360d6189dec3ac8afc9a78","665500ab8938657b03fbdba8","665793313dafe137eff134ca","1287","stimuli/2001000.jpg","2","","prediction_practice","2","{""filepath"":""stimuli/2001000.jpg"",""ball_pos"":2,""ego_ball_visible"":true,""ego_can_infer"":true,""alter_ball_visible"":false,""alter_can_infer"":true,""collective_ball_visible"":false,""collective_can_infer"":true,""search_locations"":[2],""alter_occluders"":""001"",""ego_occluders"":""000""}","true","","","","","","","","","","","","","","","","","","",""
"","","","","","image-keyboard-response","5","158990","0.0-3.0-2.0","64360d6189dec3ac8afc9a78","665500ab8938657b03fbdba8","665793313dafe137eff134ca","2215","stimuli/20010002.jpg"," ","","practrice_feedback","2","","","","","","","","","","","","","","","","","","","","",""
"","","","","","image-keyboard-response","6","160236","0.0-3.0-3.0","64360d6189dec3ac8afc9a78","665500ab8938657b03fbdba8","665793313dafe137eff134ca","1242","stimuli/0001100.jpg","0","","prediction_practice","0","{""filepath"":""stimuli/0001100.jpg"",""ball_pos"":0,""ego_ball_visible"":false,""ego_can_infer"":true,""alter_ball_visible"":true,""alter_can_infer"":true,""collective_ball_visible"":false,""collective_can_infer"":true,""search_locations"":[0],""alter_occluders"":""001"",""ego_occluders"":""100""}","true","","","","","","","","","","","","","","","","","","",""
"","","","","","image-keyboard-response","7","162543","0.0-3.0-4.0","64360d6189dec3ac8afc9a78","665500ab8938657b03fbdba8","665793313dafe137eff134ca","2304","stimuli/00011000.jpg"," ","","practrice_feedback","0","","","","","","","","","","","","","","","","","","","","",""
"","","","","","image-keyboard-response","8","163599","0.0-3.0-5.0","64360d6189dec3ac8afc9a78","665500ab8938657b03fbdba8","665793313dafe137eff134ca","1055","stimuli/0010110.jpg","1","","prediction_practice","0","{""filepath"":""stimuli/0010110.jpg"",""ball_pos"":0,""ego_ball_visible"":false,""ego_can_infer"":false,""alter_ball_visible"":true,""alter_can_infer"":true,""collective_ball_visible"":false,""collective_can_infer"":false,""search_locations"":[0],""alter_occluders"":""010"",""ego_occluders"":""110""}","false","","","","","","","","","","","","","","","","","","",""
"","","","","","image-keyboard-response","9","164846","0.0-3.0-6.0","64360d6189dec3ac8afc9a78","665500ab8938657b03fbdba8","665793313dafe137eff134ca","1241","stimuli/00101100.jpg"," ","","practrice_feedback","0","","","","","","","","","","","","","","","","","","","","",""
"","","","","","image-keyboard-response","10","165816","0.0-3.0-7.0","64360d6189dec3ac8afc9a78","665500ab8938657b03fbdba8","665793313dafe137eff134ca","966","stimuli/0110000.jpg","0","","prediction_practice","1","{""filepath"":""stimuli/0110000.jpg"",""ball_pos"":0,""ego_ball_visible"":true,""ego_can_infer"":true,""alter_ball_visible"":false,""alter_can_infer"":false,""collective_ball_visible"":false,""collective_can_infer"":false,""search_locations"":[1,0],""alter_occluders"":""110"",""ego_occluders"":""000""}","false","","","","","","","","","","","","","","","","","","",""
"","","","","","image-keyboard-response","11","169376","0.0-3.0-8.0","64360d6189dec3ac8afc9a78","665500ab8938657b03fbdba8","665793313dafe137eff134ca","3555","stimuli/01100001.jpg"," ","","practrice_feedback","1","","","","","","","","","","","","","","","","","","","","",""
"","","","","","image-keyboard-response","12","170183","0.0-3.0-9.0","64360d6189dec3ac8afc9a78","665500ab8938657b03fbdba8","665793313dafe137eff134ca","803","stimuli/2111100.jpg","2","","prediction_practice","1","{""filepath"":""stimuli/2111100.jpg"",""ball_pos"":2,""ego_ball_visible"":true,""ego_can_infer"":true,""alter_ball_visible"":false,""alter_can_infer"":false,""collective_ball_visible"":false,""collective_can_infer"":false,""search_locations"":[0,2,1],""alter_occluders"":""111"",""ego_occluders"":""100""}","false","","","","","","","","","","","","","","","","","","",""
"","","","","","image-keyboard-response","13","172744","0.0-3.0-10.0","64360d6189dec3ac8afc9a78","665500ab8938657b03fbdba8","665793313dafe137eff134ca","2555","stimuli/21111001.jpg"," ","","practrice_feedback","0","","","","","","","","","","","","","","","","","","","","",""
"","","","","","image-keyboard-response","14","174288","0.0-3.0-11.0","64360d6189dec3ac8afc9a78","665500ab8938657b03fbdba8","665793313dafe137eff134ca","1539","stimuli/1101101.jpg","1","","prediction_practice","1","{""filepath"":""stimuli/1101101.jpg"",""ball_pos"":1,""ego_ball_visible"":true,""ego_can_infer"":true,""alter_ball_visible"":true,""alter_can_infer"":true,""collective_ball_visible"":true,""collective_can_infer"":true,""search_locations"":[1],""alter_occluders"":""101"",""ego_occluders"":""101""}","true","","","","","","","","","","","","","","","","","","",""
"","","","","","image-keyboard-response","15","175904","0.0-3.0-12.0","64360d6189dec3ac8afc9a78","665500ab8938657b03fbdba8","665793313dafe137eff134ca","1612","stimuli/11011011.jpg"," ","","practrice_feedback","1","","","","","","","","","","","","","","","","","","","","",""
"","","","","","image-keyboard-response","16","176928","0.0-3.0-13.0","64360d6189dec3ac8afc9a78","665500ab8938657b03fbdba8","665793313dafe137eff134ca","1018","stimuli/1100010.jpg","1","","prediction_practice","1","{""filepath"":""stimuli/1100010.jpg"",""ball_pos"":1,""ego_ball_visible"":false,""ego_can_infer"":true,""alter_ball_visible"":true,""alter_can_infer"":true,""collective_ball_visible"":false,""collective_can_infer"":true,""search_locations"":[1],""alter_occluders"":""100"",""ego_occluders"":""010""}","true","","","","","","","","","","","","","","","","","","",""
"","","","","","image-keyboard-response","17","177511","0.0-3.0-14.0","64360d6189dec3ac8afc9a78","665500ab8938657b03fbdba8","665793313dafe137eff134ca","580","stimuli/11000101.jpg"," ","","practrice_feedback","1","","","","","","","","","","","","","","","","","","","","",""
"","","","","","image-keyboard-response","18","179145","0.0-3.0-15.0","64360d6189dec3ac8afc9a78","665500ab8938657b03fbdba8","665793313dafe137eff134ca","1631","stimuli/2101011.jpg","2","","prediction_practice","0","{""filepath"":""stimuli/2101011.jpg"",""ball_pos"":2,""ego_ball_visible"":false,""ego_can_infer"":false,""alter_ball_visible"":false,""alter_can_infer"":false,""collective_ball_visible"":false,""collective_can_infer"":false,""search_locations"":[0,2],""alter_occluders"":""101"",""ego_occluders"":""011""}","false","","","","","","","","","","","","","","","","","","",""
"","","","","","image-keyboard-response","19","179856","0.0-3.0-16.0","64360d6189dec3ac8afc9a78","665500ab8938657b03fbdba8","665793313dafe137eff134ca","703","stimuli/21010110.jpg"," ","","practrice_feedback","0","","","","","","","","","","","","","","","","","","","","",""
"","","","","","image-keyboard-response","20","181377","0.0-3.0-17.0","64360d6189dec3ac8afc9a78","665500ab8938657b03fbdba8","665793313dafe137eff134ca","1519","stimuli/1011011.jpg","1","","prediction_practice","1","{""filepath"":""stimuli/1011011.jpg"",""ball_pos"":1,""ego_ball_visible"":false,""ego_can_infer"":false,""alter_ball_visible"":false,""alter_can_infer"":false,""collective_ball_visible"":false,""collective_can_infer"":false,""search_locations"":[1,2],""alter_occluders"":""011"",""ego_occluders"":""011""}","true","","","","","","","","","","","","","","","","","","",""
"","","","","","image-keyboard-response","21","182041","0.0-3.0-18.0","64360d6189dec3ac8afc9a78","665500ab8938657b03fbdba8","665793313dafe137eff134ca","656","stimuli/10110111.jpg"," ","","practrice_feedback","1","","","","","","","","","","","","","","","","","","","","",""
"","","","","","image-keyboard-response","22","184562","0.0-3.0-19.0","64360d6189dec3ac8afc9a78","665500ab8938657b03fbdba8","665793313dafe137eff134ca","2517","stimuli/0011111.jpg","2","","prediction_practice","0","{""filepath"":""stimuli/0011111.jpg"",""ball_pos"":0,""ego_ball_visible"":false,""ego_can_infer"":false,""alter_ball_visible"":true,""alter_can_infer"":true,""collective_ball_visible"":false,""collective_can_infer"":false,""search_locations"":[0],""alter_occluders"":""011"",""ego_occluders"":""111""}","false","","","","","","","","","","","","","","","","","","",""
"","","","","","image-keyboard-response","23","185184","0.0-3.0-20.0","64360d6189dec3ac8afc9a78","665500ab8938657b03fbdba8","665793313dafe137eff134ca","617","stimuli/00111110.jpg"," ","","practrice_feedback","0","","","","","","","","","","","","","","","","","","","","",""
"","","","","","html-button-response","24","197427","0.0-3.0-21.0","64360d6189dec3ac8afc9a78","665500ab8938657b03fbdba8","665793313dafe137eff134ca","12243","Now that you've had some practice, you'll be tested with a couple of easy trials. If you correctly predict Sam's choice, you'll move on to complete the experiment!","0","","","","","","","","","","","","","","","","","","","","","","","",""
"","","","","","image-keyboard-response","25","199955","0.0-3.0-22.0-0.0","64360d6189dec3ac8afc9a78","665500ab8938657b03fbdba8","665793313dafe137eff134ca","2525","stimuli/0000011.jpg","arrowleft","","comprehension_quiz","","","true","arrowleft","","","","","","","","","","","","","","","","","",""
"","","","","","image-keyboard-response","26","201316","0.0-3.0-22.0-1.0","64360d6189dec3ac8afc9a78","665500ab8938657b03fbdba8","665793313dafe137eff134ca","1359","stimuli/00000110.jpg"," ","","comprehension_quiz","","","true"," ","","","","","","","","","","","","","","","","","",""
"","","","","","image-keyboard-response","27","202388","0.0-3.0-22.0-2.0","64360d6189dec3ac8afc9a78","665500ab8938657b03fbdba8","665793313dafe137eff134ca","1068","stimuli/1010010.jpg","arrowdown","","comprehension_quiz","","","true","arrowdown","","","","","","","","","","","","","","","","","",""
"","","","","","image-keyboard-response","28","203674","0.0-3.0-22.0-3.0","64360d6189dec3ac8afc9a78","665500ab8938657b03fbdba8","665793313dafe137eff134ca","1281","stimuli/10100101.jpg"," ","","comprehension_quiz","","","true"," ","","","","","","","","","","","","","","","","","",""
"","","","","","html-button-response","29","206192","0.0-4.0","64360d6189dec3ac8afc9a78","665500ab8938657b03fbdba8","665793313dafe137eff134ca","2517","The experiment will now begin.","0","","","","","","","","","","","","","","","","","","","","","","","",""
"","","","","","image-keyboard-response","30","207453","0.0-5.0","64360d6189dec3ac8afc9a78","665500ab8938657b03fbdba8","665793313dafe137eff134ca","1257","stimuli/0000001.jpg","0","","prediction_trial","0","","true","","0","true","true","true","true","true","true","[0]","000","001","1","","","","","","",""
"","","","","","image-keyboard-response","31","207941","0.0-6.0","64360d6189dec3ac8afc9a78","665500ab8938657b03fbdba8","665793313dafe137eff134ca","482","stimuli/00000010.jpg"," ","","feedback_trial","0","","","","","","","","","","","","","","","","","","","","",""
"","","","","","image-keyboard-response","32","209500","0.0-7.0","64360d6189dec3ac8afc9a78","665500ab8938657b03fbdba8","665793313dafe137eff134ca","1554","stimuli/1100110.jpg","1","","prediction_trial","1","","true","","1","false","false","true","true","false","false","[1]","100","110","1","","","","","","",""
"","","","","","image-keyboard-response","33","210029","0.0-8.0","64360d6189dec3ac8afc9a78","665500ab8938657b03fbdba8","665793313dafe137eff134ca","524","stimuli/11001101.jpg"," ","","feedback_trial","1","","","","","","","","","","","","","","","","","","","","",""
"","","","","","image-keyboard-response","34","211613","0.0-9.0","64360d6189dec3ac8afc9a78","665500ab8938657b03fbdba8","665793313dafe137eff134ca","1578","stimuli/2100011.jpg","2","","prediction_trial","2","","true","","2","false","false","true","true","false","false","[2]","100","011","1","","","","","","",""
"","","","","","image-keyboard-response","35","212052","0.0-10.0","64360d6189dec3ac8afc9a78","665500ab8938657b03fbdba8","665793313dafe137eff134ca","438","stimuli/21000112.jpg"," ","","feedback_trial","2","","","","","","","","","","","","","","","","","","","","",""
"","","","","","image-keyboard-response","36","213973","0.0-11.0","64360d6189dec3ac8afc9a78","665500ab8938657b03fbdba8","665793313dafe137eff134ca","1918","stimuli/1110111.jpg","0","","prediction_trial","0","","true","","1","false","false","false","false","false","false","[0,1]","110","111","1","","","","","","",""
"","","","","","image-keyboard-response","37","214422","0.0-12.0","64360d6189dec3ac8afc9a78","665500ab8938657b03fbdba8","665793313dafe137eff134ca","443","stimuli/11101110.jpg"," ","","feedback_trial","0","","","","","","","","","","","","","","","","","","","","",""
"","","","","","image-keyboard-response","38","215109","0.0-13.0","64360d6189dec3ac8afc9a78","665500ab8938657b03fbdba8","665793313dafe137eff134ca","684","stimuli/1111011.jpg","1","","prediction_trial","2","","false","","1","false","false","false","false","false","false","[0,1,2]","111","011","0","","","","","","",""
"","","","","","image-keyboard-response","39","215486","0.0-14.0","64360d6189dec3ac8afc9a78","665500ab8938657b03fbdba8","665793313dafe137eff134ca","373","stimuli/11110112.jpg"," ","","feedback_trial","0","","","","","","","","","","","","","","","","","","","","",""
"","","","","","image-keyboard-response","40","216813","0.0-15.0","64360d6189dec3ac8afc9a78","665500ab8938657b03fbdba8","665793313dafe137eff134ca","1323","stimuli/2001100.jpg","2","","prediction_trial","2","","true","","2","true","true","false","true","false","true","[2]","001","100","1","","","","","","",""
"","","","","","image-keyboard-response","41","217301","0.0-16.0","64360d6189dec3ac8afc9a78","665500ab8938657b03fbdba8","665793313dafe137eff134ca","483","stimuli/20011002.jpg"," ","","feedback_trial","2","","","","","","","","","","","","","","","","","","","","",""
"","","","","","image-keyboard-response","42","217972","0.0-17.0","64360d6189dec3ac8afc9a78","665500ab8938657b03fbdba8","665793313dafe137eff134ca","667","stimuli/0010011.jpg","0","","prediction_trial","0","","true","","0","true","true","true","true","true","true","[0]","010","011","1","","","","","","",""
"","","","","","image-keyboard-response","43","218349","0.0-18.0","64360d6189dec3ac8afc9a78","665500ab8938657b03fbdba8","665793313dafe137eff134ca","376","stimuli/00100110.jpg"," ","","feedback_trial","0","","","","","","","","","","","","","","","","","","","","",""
"","","","","","image-keyboard-response","44","219190","0.0-19.0","64360d6189dec3ac8afc9a78","665500ab8938657b03fbdba8","665793313dafe137eff134ca","838","stimuli/1101010.jpg","1","","prediction_trial","1","","true","","1","false","true","true","true","false","true","[1]","101","010","1","","","","","","",""
"","","","","","image-keyboard-response","45","219567","0.0-20.0","64360d6189dec3ac8afc9a78","665500ab8938657b03fbdba8","665793313dafe137eff134ca","369","stimuli/11010101.jpg"," ","","feedback_trial","1","","","","","","","","","","","","","","","","","","","","",""
"","","","","","image-keyboard-response","46","220285","0.0-21.0","64360d6189dec3ac8afc9a78","665500ab8938657b03fbdba8","665793313dafe137eff134ca","712","stimuli/0110100.jpg","0","","prediction_trial","1","","false","","0","false","true","false","false","false","false","[1,0]","110","100","0","","","","","","",""
"","","","","","image-keyboard-response","47","220645","0.0-22.0","64360d6189dec3ac8afc9a78","665500ab8938657b03fbdba8","665793313dafe137eff134ca","357","stimuli/01101001.jpg"," ","","feedback_trial","1","","","","","","","","","","","","","","","","","","","","",""
"","","","","","image-keyboard-response","48","221399","0.0-23.0","64360d6189dec3ac8afc9a78","665500ab8938657b03fbdba8","665793313dafe137eff134ca","751","stimuli/1110000.jpg","1","","prediction_trial","0","","false","","1","true","true","false","false","false","false","[0,1]","110","000","0","","","","","","",""
"","","","","","image-keyboard-response","49","221742","0.0-24.0","64360d6189dec3ac8afc9a78","665500ab8938657b03fbdba8","665793313dafe137eff134ca","338","stimuli/11100000.jpg"," ","","feedback_trial","0","","","","","","","","","","","","","","","","","","","","",""
"","","","","","image-keyboard-response","50","222559","0.0-25.0","64360d6189dec3ac8afc9a78","665500ab8938657b03fbdba8","665793313dafe137eff134ca","811","stimuli/2111110.jpg","2","","prediction_trial","0","","false","","2","true","true","false","false","false","false","[0,2,1]","111","110","0","","","","","","",""
"","","","","","image-keyboard-response","51","222909","0.0-26.0","64360d6189dec3ac8afc9a78","665500ab8938657b03fbdba8","665793313dafe137eff134ca","346","stimuli/21111100.jpg"," ","","feedback_trial","0","","","","","","","","","","","","","","","","","","","","",""
"","","","","","image-keyboard-response","52","223951","0.0-27.0","64360d6189dec3ac8afc9a78","665500ab8938657b03fbdba8","665793313dafe137eff134ca","1040","stimuli/2000000.jpg","2","","prediction_trial","2","","true","","2","true","true","true","true","true","true","[2]","000","000","1","","","","","","",""
"","","","","","image-keyboard-response","53","224334","0.0-28.0","64360d6189dec3ac8afc9a78","665500ab8938657b03fbdba8","665793313dafe137eff134ca","377","stimuli/20000002.jpg"," ","","feedback_trial","2","","","","","","","","","","","","","","","","","","","","",""
"","","","","","image-keyboard-response","54","225456","0.0-29.0","64360d6189dec3ac8afc9a78","665500ab8938657b03fbdba8","665793313dafe137eff134ca","1119","stimuli/0101110.jpg","1","","prediction_trial","0","","false","","0","false","false","false","false","false","false","[0,2]","101","110","0","","","","","","",""
"","","","","","image-keyboard-response","55","225943","0.0-30.0","64360d6189dec3ac8afc9a78","665500ab8938657b03fbdba8","665793313dafe137eff134ca","482","stimuli/01011100.jpg"," ","","feedback_trial","0","","","","","","","","","","","","","","","","","","","","",""
"","","","","","image-keyboard-response","56","226712","0.0-31.0","64360d6189dec3ac8afc9a78","665500ab8938657b03fbdba8","665793313dafe137eff134ca","764","stimuli/0111011.jpg","0","","prediction_trial","0","","true","","0","true","true","false","false","false","false","[1,0,2]","111","011","1","","","","","","",""
"","","","","","image-keyboard-response","57","227166","0.0-32.0","64360d6189dec3ac8afc9a78","665500ab8938657b03fbdba8","665793313dafe137eff134ca","448","stimuli/01110110.jpg"," ","","feedback_trial","1","","","","","","","","","","","","","","","","","","","","",""
"","","","","","image-keyboard-response","58","228272","0.0-33.0","64360d6189dec3ac8afc9a78","665500ab8938657b03fbdba8","665793313dafe137eff134ca","1103","stimuli/0111110.jpg","1","","prediction_trial","1","","true","","0","false","false","false","false","false","false","[1,0,2]","111","110","1","","","","","","",""
"","","","","","image-keyboard-response","59","228736","0.0-34.0","64360d6189dec3ac8afc9a78","665500ab8938657b03fbdba8","665793313dafe137eff134ca","460","stimuli/01111101.jpg"," ","","feedback_trial","1","","","","","","","","","","","","","","","","","","","","",""
"","","","","","image-keyboard-response","60","229470","0.0-35.0","64360d6189dec3ac8afc9a78","665500ab8938657b03fbdba8","665793313dafe137eff134ca","729","stimuli/0110010.jpg","0","","prediction_trial","0","","true","","0","true","true","false","false","false","false","[1,0]","110","010","1","","","","","","",""
"","","","","","image-keyboard-response","61","229871","0.0-36.0","64360d6189dec3ac8afc9a78","665500ab8938657b03fbdba8","665793313dafe137eff134ca","399","stimuli/01100100.jpg"," ","","feedback_trial","1","","","","","","","","","","","","","","","","","","","","",""
"","","","","","image-keyboard-response","62","230688","0.0-37.0","64360d6189dec3ac8afc9a78","665500ab8938657b03fbdba8","665793313dafe137eff134ca","811","stimuli/0111111.jpg","2","","prediction_trial","1","","false","","0","false","false","false","false","false","false","[2,1,0]","111","111","0","","","","","","",""
"","","","","","image-keyboard-response","63","231408","0.0-38.0","64360d6189dec3ac8afc9a78","665500ab8938657b03fbdba8","665793313dafe137eff134ca","715","stimuli/01111111.jpg"," ","","feedback_trial","2","","","","","","","","","","","","","","","","","","","","",""
"","","","","","image-keyboard-response","64","232351","0.0-39.0","64360d6189dec3ac8afc9a78","665500ab8938657b03fbdba8","665793313dafe137eff134ca","939","stimuli/2010001.jpg","2","","prediction_trial","2","","true","","2","false","true","true","true","false","true","[2]","010","001","1","","","","","","",""
"","","","","","image-keyboard-response","65","232664","0.0-40.0","64360d6189dec3ac8afc9a78","665500ab8938657b03fbdba8","665793313dafe137eff134ca","310","stimuli/20100012.jpg"," ","","feedback_trial","2","","","","","","","","","","","","","","","","","","","","",""
"","","","","","image-keyboard-response","66","233974","0.0-41.0","64360d6189dec3ac8afc9a78","665500ab8938657b03fbdba8","665793313dafe137eff134ca","1304","stimuli/1100111.jpg","1","","prediction_trial","1","","true","","1","false","false","true","true","false","false","[1]","100","111","1","","","","","","",""
"","","","","","image-keyboard-response","67","234439","0.0-42.0","64360d6189dec3ac8afc9a78","665500ab8938657b03fbdba8","665793313dafe137eff134ca","462","stimuli/11001111.jpg"," ","","feedback_trial","1","","","","","","","","","","","","","","","","","","","","",""
"","","","","","image-keyboard-response","68","235280","0.0-43.0","64360d6189dec3ac8afc9a78","665500ab8938657b03fbdba8","665793313dafe137eff134ca","840","stimuli/0111010.jpg","0","","prediction_trial","1","","false","","0","true","true","false","false","false","false","[2,1,0]","111","010","0","","","","","","",""
"","","","","","image-keyboard-response","69","235936","0.0-44.0","64360d6189dec3ac8afc9a78","665500ab8938657b03fbdba8","665793313dafe137eff134ca","650","stimuli/01110101.jpg"," ","","feedback_trial","2","","","","","","","","","","","","","","","","","","","","",""
"","","","","","image-keyboard-response","70","237457","0.0-45.0","64360d6189dec3ac8afc9a78","665500ab8938657b03fbdba8","665793313dafe137eff134ca","1515","stimuli/0111100.jpg","0","","prediction_trial","1","","false","","0","false","true","false","false","false","false","[0,2,1]","111","100","0","","","","","","",""
"","","","","","image-keyboard-response","71","238329","0.0-46.0","64360d6189dec3ac8afc9a78","665500ab8938657b03fbdba8","665793313dafe137eff134ca","867","stimuli/01111001.jpg"," ","","feedback_trial","0","","","","","","","","","","","","","","","","","","","","",""
"","","","","","image-keyboard-response","72","239194","0.0-47.0","64360d6189dec3ac8afc9a78","665500ab8938657b03fbdba8","665793313dafe137eff134ca","859","stimuli/0000111.jpg","2","","prediction_trial","0","","false","","0","false","false","true","true","false","false","[0]","000","111","0","","","","","","",""
"","","","","","image-keyboard-response","73","239673","0.0-48.0","64360d6189dec3ac8afc9a78","665500ab8938657b03fbdba8","665793313dafe137eff134ca","473","stimuli/00001110.jpg"," ","","feedback_trial","0","","","","","","","","","","","","","","","","","","","","",""
"","","","","","image-keyboard-response","74","240583","0.0-49.0","64360d6189dec3ac8afc9a78","665500ab8938657b03fbdba8","665793313dafe137eff134ca","909","stimuli/0010100.jpg","0","","prediction_trial","0","","true","","0","false","true","true","true","false","true","[0]","010","100","1","","","","","","",""
"","","","","","image-keyboard-response","75","240994","0.0-50.0","64360d6189dec3ac8afc9a78","665500ab8938657b03fbdba8","665793313dafe137eff134ca","408","stimuli/00101000.jpg"," ","","feedback_trial","0","","","","","","","","","","","","","","","","","","","","",""
"","","","","","image-keyboard-response","76","241729","0.0-51.0","64360d6189dec3ac8afc9a78","665500ab8938657b03fbdba8","665793313dafe137eff134ca","729","stimuli/1001100.jpg","1","","prediction_trial","1","","true","","1","true","true","true","true","true","true","[1]","001","100","1","","","","","","",""
"","","","","","image-keyboard-response","77","242130","0.0-52.0","64360d6189dec3ac8afc9a78","665500ab8938657b03fbdba8","665793313dafe137eff134ca","395","stimuli/10011001.jpg"," ","","feedback_trial","1","","","","","","","","","","","","","","","","","","","","",""
"","","","","","image-keyboard-response","78","242842","0.0-53.0","64360d6189dec3ac8afc9a78","665500ab8938657b03fbdba8","665793313dafe137eff134ca","705","stimuli/2000100.jpg","2","","prediction_trial","2","","true","","2","true","true","true","true","true","true","[2]","000","100","1","","","","","","",""
"","","","","","image-keyboard-response","79","243306","0.0-54.0","64360d6189dec3ac8afc9a78","665500ab8938657b03fbdba8","665793313dafe137eff134ca","460","stimuli/20001002.jpg"," ","","feedback_trial","2","","","","","","","","","","","","","","","","","","","","",""
"","","","","","image-keyboard-response","80","244322","0.0-55.0","64360d6189dec3ac8afc9a78","665500ab8938657b03fbdba8","665793313dafe137eff134ca","1009","stimuli/2100101.jpg","0","","prediction_trial","2","","false","","2","false","false","true","true","false","false","[2]","100","101","0","","","","","","",""
"","","","","","image-keyboard-response","81","244730","0.0-56.0","64360d6189dec3ac8afc9a78","665500ab8938657b03fbdba8","665793313dafe137eff134ca","403","stimuli/21001012.jpg"," ","","feedback_trial","2","","","","","","","","","","","","","","","","","","","","",""
"","","","","","image-keyboard-response","82","245682","0.0-57.0","64360d6189dec3ac8afc9a78","665500ab8938657b03fbdba8","665793313dafe137eff134ca","948","stimuli/0001010.jpg","0","","prediction_trial","0","","true","","0","true","true","true","true","true","true","[0]","001","010","1","","","","","","",""
"","","","","","image-keyboard-response","83","246001","0.0-58.0","64360d6189dec3ac8afc9a78","665500ab8938657b03fbdba8","665793313dafe137eff134ca","315","stimuli/00010100.jpg"," ","","feedback_trial","0","","","","","","","","","","","","","","","","","","","","",""
"","","","","","image-keyboard-response","84","246754","0.0-59.0","64360d6189dec3ac8afc9a78","665500ab8938657b03fbdba8","665793313dafe137eff134ca","750","stimuli/1000100.jpg","1","","prediction_trial","1","","true","","1","true","true","true","true","true","true","[1]","000","100","1","","","","","","",""
"","","","","","image-keyboard-response","85","247139","0.0-60.0","64360d6189dec3ac8afc9a78","665500ab8938657b03fbdba8","665793313dafe137eff134ca","379","stimuli/10001001.jpg"," ","","feedback_trial","1","","","","","","","","","","","","","","","","","","","","",""
"","","","","","image-keyboard-response","86","247793","0.0-61.0","64360d6189dec3ac8afc9a78","665500ab8938657b03fbdba8","665793313dafe137eff134ca","650","stimuli/0000010.jpg","0","","prediction_trial","0","","true","","0","true","true","true","true","true","true","[0]","000","010","1","","","","","","",""
"","","","","","image-keyboard-response","87","248194","0.0-62.0","64360d6189dec3ac8afc9a78","665500ab8938657b03fbdba8","665793313dafe137eff134ca","397","stimuli/00000100.jpg"," ","","feedback_trial","0","","","","","","","","","","","","","","","","","","","","",""
"","","","","","image-keyboard-response","88","248859","0.0-63.0","64360d6189dec3ac8afc9a78","665500ab8938657b03fbdba8","665793313dafe137eff134ca","660","stimuli/2100100.jpg","2","","prediction_trial","2","","true","","2","true","true","true","true","true","true","[2]","100","100","1","","","","","","",""
"","","","","","image-keyboard-response","89","249264","0.0-64.0","64360d6189dec3ac8afc9a78","665500ab8938657b03fbdba8","665793313dafe137eff134ca","398","stimuli/21001002.jpg"," ","","feedback_trial","2","","","","","","","","","","","","","","","","","","","","",""
"","","","","","image-keyboard-response","90","249938","0.0-65.0","64360d6189dec3ac8afc9a78","665500ab8938657b03fbdba8","665793313dafe137eff134ca","671","stimuli/2100000.jpg","2","","prediction_trial","2","","true","","2","true","true","true","true","true","true","[2]","100","000","1","","","","","","",""
"","","","","","image-keyboard-response","91","250330","0.0-66.0","64360d6189dec3ac8afc9a78","665500ab8938657b03fbdba8","665793313dafe137eff134ca","389","stimuli/21000002.jpg"," ","","feedback_trial","2","","","","","","","","","","","","","","","","","","","","",""
"","","","","","image-keyboard-response","92","251811","0.0-67.0","64360d6189dec3ac8afc9a78","665500ab8938657b03fbdba8","665793313dafe137eff134ca","1474","stimuli/2011100.jpg","2","","prediction_trial","1","","false","","2","true","true","false","false","false","false","[1,2]","011","100","0","","","","","","",""
"","","","","","image-keyboard-response","93","252219","0.0-68.0","64360d6189dec3ac8afc9a78","665500ab8938657b03fbdba8","665793313dafe137eff134ca","403","stimuli/20111001.jpg"," ","","feedback_trial","1","","","","","","","","","","","","","","","","","","","","",""
"","","","","","image-keyboard-response","94","253250","0.0-69.0","64360d6189dec3ac8afc9a78","665500ab8938657b03fbdba8","665793313dafe137eff134ca","1026","stimuli/2110011.jpg","0","","prediction_trial","2","","false","","2","false","false","true","true","false","false","[2]","110","011","0","","","","","","",""
"","","","","","image-keyboard-response","95","253738","0.0-70.0","64360d6189dec3ac8afc9a78","665500ab8938657b03fbdba8","665793313dafe137eff134ca","483","stimuli/21100112.jpg"," ","","feedback_trial","2","","","","","","","","","","","","","","","","","","","","",""
"","","","","","image-keyboard-response","96","254642","0.0-71.0","64360d6189dec3ac8afc9a78","665500ab8938657b03fbdba8","665793313dafe137eff134ca","902","stimuli/0100110.jpg","0","","prediction_trial","0","","true","","0","false","false","false","true","false","false","[0]","100","110","1","","","","","","",""
"","","","","","image-keyboard-response","97","254939","0.0-72.0","64360d6189dec3ac8afc9a78","665500ab8938657b03fbdba8","665793313dafe137eff134ca","291","stimuli/01001100.jpg"," ","","feedback_trial","0","","","","","","","","","","","","","","","","","","","","",""
"","","","","","image-keyboard-response","98","255668","0.0-73.0","64360d6189dec3ac8afc9a78","665500ab8938657b03fbdba8","665793313dafe137eff134ca","726","stimuli/1100100.jpg","1","","prediction_trial","1","","true","","1","true","true","true","true","true","true","[1]","100","100","1","","","","","","",""
"","","","","","image-keyboard-response","99","256027","0.0-74.0","64360d6189dec3ac8afc9a78","665500ab8938657b03fbdba8","665793313dafe137eff134ca","353","stimuli/11001001.jpg"," ","","feedback_trial","1","","","","","","","","","","","","","","","","","","","","",""
"","","","","","image-keyboard-response","100","256900","0.0-75.0","64360d6189dec3ac8afc9a78","665500ab8938657b03fbdba8","665793313dafe137eff134ca","868","stimuli/1001110.jpg","1","","prediction_trial","1","","true","","1","false","false","true","true","false","false","[1]","001","110","1","","","","","","",""
"","","","","","image-keyboard-response","101","257284","0.0-76.0","64360d6189dec3ac8afc9a78","665500ab8938657b03fbdba8","665793313dafe137eff134ca","381","stimuli/10011101.jpg"," ","","feedback_trial","1","","","","","","","","","","","","","","","","","","","","",""
"","","","","","image-keyboard-response","102","258131","0.0-77.0","64360d6189dec3ac8afc9a78","665500ab8938657b03fbdba8","665793313dafe137eff134ca","842","stimuli/1001010.jpg","1","","prediction_trial","1","","true","","1","false","true","true","true","false","true","[1]","001","010","1","","","","","","",""
"","","","","","image-keyboard-response","103","258466","0.0-78.0","64360d6189dec3ac8afc9a78","665500ab8938657b03fbdba8","665793313dafe137eff134ca","333","stimuli/10010101.jpg"," ","","feedback_trial","1","","","","","","","","","","","","","","","","","","","","",""
"","","","","","image-keyboard-response","104","260228","0.0-79.0","64360d6189dec3ac8afc9a78","665500ab8938657b03fbdba8","665793313dafe137eff134ca","1760","stimuli/2111000.jpg","2","","prediction_trial","2","","true","","2","true","true","false","false","false","false","[2,1,0]","111","000","1","","","","","","",""
"","","","","","image-keyboard-response","105","260523","0.0-80.0","64360d6189dec3ac8afc9a78","665500ab8938657b03fbdba8","665793313dafe137eff134ca","289","stimuli/21110002.jpg"," ","","feedback_trial","2","","","","","","","","","","","","","","","","","","","","",""
"","","","","","image-keyboard-response","106","261203","0.0-81.0","64360d6189dec3ac8afc9a78","665500ab8938657b03fbdba8","665793313dafe137eff134ca","678","stimuli/2110010.jpg","2","","prediction_trial","2","","true","","2","true","true","true","true","true","true","[2]","110","010","1","","","","","","",""
"","","","","","image-keyboard-response","107","261492","0.0-82.0","64360d6189dec3ac8afc9a78","665500ab8938657b03fbdba8","665793313dafe137eff134ca","285","stimuli/21100102.jpg"," ","","feedback_trial","2","","","","","","","","","","","","","","","","","","","","",""
"","","","","","image-keyboard-response","108","262499","0.0-83.0","64360d6189dec3ac8afc9a78","665500ab8938657b03fbdba8","665793313dafe137eff134ca","1005","stimuli/2110111.jpg","0","","prediction_trial","2","","false","","2","false","false","true","true","false","false","[2]","110","111","0","","","","","","",""
"","","","","","image-keyboard-response","109","263036","0.0-84.0","64360d6189dec3ac8afc9a78","665500ab8938657b03fbdba8","665793313dafe137eff134ca","532","stimuli/21101112.jpg"," ","","feedback_trial","2","","","","","","","","","","","","","","","","","","","","",""
"","","","","","image-keyboard-response","110","263767","0.0-85.0","64360d6189dec3ac8afc9a78","665500ab8938657b03fbdba8","665793313dafe137eff134ca","728","stimuli/1100001.jpg","1","","prediction_trial","1","","true","","1","true","true","true","true","true","true","[1]","100","001","1","","","","","","",""
"","","","","","image-keyboard-response","111","264099","0.0-86.0","64360d6189dec3ac8afc9a78","665500ab8938657b03fbdba8","665793313dafe137eff134ca","330","stimuli/11000011.jpg"," ","","feedback_trial","1","","","","","","","","","","","","","","","","","","","","",""
"","","","","","image-keyboard-response","112","265021","0.0-87.0","64360d6189dec3ac8afc9a78","665500ab8938657b03fbdba8","665793313dafe137eff134ca","919","stimuli/0100111.jpg","2","","prediction_trial","0","","false","","0","false","false","false","true","false","false","[0]","100","111","0","","","","","","",""
"","","","","","image-keyboard-response","113","266052","0.0-88.0","64360d6189dec3ac8afc9a78","665500ab8938657b03fbdba8","665793313dafe137eff134ca","1026","stimuli/01001110.jpg"," ","","feedback_trial","0","","","","","","","","","","","","","","","","","","","","",""
"","","","","","image-keyboard-response","114","266693","0.0-89.0","64360d6189dec3ac8afc9a78","665500ab8938657b03fbdba8","665793313dafe137eff134ca","635","stimuli/2110000.jpg","2","","prediction_trial","2","","true","","2","true","true","true","true","true","true","[2]","110","000","1","","","","","","",""
"","","","","","image-keyboard-response","115","267036","0.0-90.0","64360d6189dec3ac8afc9a78","665500ab8938657b03fbdba8","665793313dafe137eff134ca","340","stimuli/21100002.jpg"," ","","feedback_trial","2","","","","","","","","","","","","","","","","","","","","",""
"","","","","","image-keyboard-response","116","267750","0.0-91.0","64360d6189dec3ac8afc9a78","665500ab8938657b03fbdba8","665793313dafe137eff134ca","707","stimuli/2010110.jpg","1","","prediction_trial","2","","false","","2","true","true","true","true","true","true","[2]","010","110","0","","","","","","",""
"","","","","","image-keyboard-response","117","268260","0.0-92.0","64360d6189dec3ac8afc9a78","665500ab8938657b03fbdba8","665793313dafe137eff134ca","503","stimuli/20101102.jpg"," ","","feedback_trial","2","","","","","","","","","","","","","","","","","","","","",""
"","","","","","image-keyboard-response","118","268884","0.0-93.0","64360d6189dec3ac8afc9a78","665500ab8938657b03fbdba8","665793313dafe137eff134ca","623","stimuli/2110110.jpg","2","","prediction_trial","2","","true","","2","true","true","true","true","true","true","[2]","110","110","1","","","","","","",""
"","","","","","image-keyboard-response","119","269189","0.0-94.0","64360d6189dec3ac8afc9a78","665500ab8938657b03fbdba8","665793313dafe137eff134ca","302","stimuli/21101102.jpg"," ","","feedback_trial","2","","","","","","","","","","","","","","","","","","","","",""
"","","","","","image-keyboard-response","120","270629","0.0-95.0","64360d6189dec3ac8afc9a78","665500ab8938657b03fbdba8","665793313dafe137eff134ca","1436","stimuli/0110110.jpg","0","","prediction_trial","1","","false","","0","false","false","false","false","false","false","[1,0]","110","110","0","","","","","","",""
"","","","","","image-keyboard-response","121","271044","0.0-96.0","64360d6189dec3ac8afc9a78","665500ab8938657b03fbdba8","665793313dafe137eff134ca","411","stimuli/01101101.jpg"," ","","feedback_trial","1","","","","","","","","","","","","","","","","","","","","",""
"","","","","","image-keyboard-response","122","271846","0.0-97.0","64360d6189dec3ac8afc9a78","665500ab8938657b03fbdba8","665793313dafe137eff134ca","801","stimuli/2100110.jpg","2","","prediction_trial","2","","true","","2","true","true","true","true","true","true","[2]","100","110","1","","","","","","",""
"","","","","","image-keyboard-response","123","272188","0.0-98.0","64360d6189dec3ac8afc9a78","665500ab8938657b03fbdba8","665793313dafe137eff134ca","334","stimuli/21001102.jpg"," ","","feedback_trial","2","","","","","","","","","","","","","","","","","","","","",""
"","","","","","image-keyboard-response","124","273662","0.0-99.0","64360d6189dec3ac8afc9a78","665500ab8938657b03fbdba8","665793313dafe137eff134ca","1471","stimuli/2101011.jpg","2","","prediction_trial","0","","false","","2","false","false","false","false","false","false","[0,2]","101","011","0","","","","","","",""
"","","","","","image-keyboard-response","125","273980","0.0-100.0","64360d6189dec3ac8afc9a78","665500ab8938657b03fbdba8","665793313dafe137eff134ca","315","stimuli/21010110.jpg"," ","","feedback_trial","0","","","","","","","","","","","","","","","","","","","","",""
"","","","","","image-keyboard-response","126","274517","0.0-101.0","64360d6189dec3ac8afc9a78","665500ab8938657b03fbdba8","665793313dafe137eff134ca","533","stimuli/2101110.jpg","1","","prediction_trial","0","","false","","2","true","true","false","false","false","false","[2,0]","101","110","0","","","","","","",""
"","","","","","image-keyboard-response","127","274853","0.0-102.0","64360d6189dec3ac8afc9a78","665500ab8938657b03fbdba8","665793313dafe137eff134ca","333","stimuli/21011100.jpg"," ","","feedback_trial","2","","","","","","","","","","","","","","","","","","","","",""
"","","","","","image-keyboard-response","128","275349","0.0-103.0","64360d6189dec3ac8afc9a78","665500ab8938657b03fbdba8","665793313dafe137eff134ca","492","stimuli/2000110.jpg","2","","prediction_trial","2","","true","","2","true","true","true","true","true","true","[2]","000","110","1","","","","","","",""
"","","","","","image-keyboard-response","129","275662","0.0-104.0","64360d6189dec3ac8afc9a78","665500ab8938657b03fbdba8","665793313dafe137eff134ca","306","stimuli/20001102.jpg"," ","","feedback_trial","2","","","","","","","","","","","","","","","","","","","","",""
"","","","","","image-keyboard-response","130","276814","0.0-105.0","64360d6189dec3ac8afc9a78","665500ab8938657b03fbdba8","665793313dafe137eff134ca","1145","stimuli/1000110.jpg","1","","prediction_trial","1","","true","","1","false","false","true","true","false","false","[1]","000","110","1","","","","","","",""
"","","","","","image-keyboard-response","131","277189","0.0-106.0","64360d6189dec3ac8afc9a78","665500ab8938657b03fbdba8","665793313dafe137eff134ca","371","stimuli/10001101.jpg"," ","","feedback_trial","1","","","","","","","","","","","","","","","","","","","","",""
"","","","","","image-keyboard-response","132","277830","0.0-107.0","64360d6189dec3ac8afc9a78","665500ab8938657b03fbdba8","665793313dafe137eff134ca","640","stimuli/0000110.jpg","1","","prediction_trial","0","","false","","0","false","false","true","true","false","false","[0]","000","110","0","","","","","","",""
"","","","","","image-keyboard-response","133","278341","0.0-108.0","64360d6189dec3ac8afc9a78","665500ab8938657b03fbdba8","665793313dafe137eff134ca","506","stimuli/00001100.jpg"," ","","feedback_trial","0","","","","","","","","","","","","","","","","","","","","",""
"","","","","","image-keyboard-response","134","279133","0.0-109.0","64360d6189dec3ac8afc9a78","665500ab8938657b03fbdba8","665793313dafe137eff134ca","792","stimuli/2010011.jpg","2","","prediction_trial","2","","true","","2","false","false","true","true","false","false","[2]","010","011","1","","","","","","",""
"","","","","","image-keyboard-response","135","279510","0.0-110.0","64360d6189dec3ac8afc9a78","665500ab8938657b03fbdba8","665793313dafe137eff134ca","373","stimuli/20100112.jpg"," ","","feedback_trial","2","","","","","","","","","","","","","","","","","","","","",""
"","","","","","image-keyboard-response","136","280038","0.0-111.0","64360d6189dec3ac8afc9a78","665500ab8938657b03fbdba8","665793313dafe137eff134ca","522","stimuli/2111100.jpg","2","","prediction_trial","2","","true","","2","true","true","false","false","false","false","[0,2,1]","111","100","1","","","","","","",""
"","","","","","image-keyboard-response","137","280349","0.0-112.0","64360d6189dec3ac8afc9a78","665500ab8938657b03fbdba8","665793313dafe137eff134ca","309","stimuli/21111002.jpg"," ","","feedback_trial","0","","","","","","","","","","","","","","","","","","","","",""
"","","","","","image-keyboard-response","138","281343","0.0-113.0","64360d6189dec3ac8afc9a78","665500ab8938657b03fbdba8","665793313dafe137eff134ca","992","stimuli/0001110.jpg","1","","prediction_trial","0","","false","","0","false","false","true","true","false","false","[0]","001","110","0","","","","","","",""
"","","","","","image-keyboard-response","139","281800","0.0-114.0","64360d6189dec3ac8afc9a78","665500ab8938657b03fbdba8","665793313dafe137eff134ca","450","stimuli/00011100.jpg"," ","","feedback_trial","0","","","","","","","","","","","","","","","","","","","","",""
"","","","","","image-keyboard-response","140","282566","0.0-115.0","64360d6189dec3ac8afc9a78","665500ab8938657b03fbdba8","665793313dafe137eff134ca","758","stimuli/2010101.jpg","2","","prediction_trial","2","","true","","2","false","false","true","true","false","false","[2]","010","101","1","","","","","","",""
"","","","","","image-keyboard-response","141","282887","0.0-116.0","64360d6189dec3ac8afc9a78","665500ab8938657b03fbdba8","665793313dafe137eff134ca","316","stimuli/20101012.jpg"," ","","feedback_trial","2","","","","","","","","","","","","","","","","","","","","",""
"","","","","","image-keyboard-response","142","283479","0.0-117.0","64360d6189dec3ac8afc9a78","665500ab8938657b03fbdba8","665793313dafe137eff134ca","586","stimuli/2101010.jpg","2","","prediction_trial","2","","true","","2","true","true","false","false","false","false","[2,0]","101","010","1","","","","","","",""
"","","","","","image-keyboard-response","143","283759","0.0-118.0","64360d6189dec3ac8afc9a78","665500ab8938657b03fbdba8","665793313dafe137eff134ca","278","stimuli/21010102.jpg"," ","","feedback_trial","2","","","","","","","","","","","","","","","","","","","","",""
"","","","","","image-keyboard-response","144","284688","0.0-119.0","64360d6189dec3ac8afc9a78","665500ab8938657b03fbdba8","665793313dafe137eff134ca","925","stimuli/1011111.jpg","0","","prediction_trial","2","","false","","1","false","false","false","false","false","false","[1,2]","011","111","0","","","","","","",""
"","","","","","image-keyboard-response","145","285334","0.0-120.0","64360d6189dec3ac8afc9a78","665500ab8938657b03fbdba8","665793313dafe137eff134ca","639","stimuli/10111112.jpg"," ","","feedback_trial","1","","","","","","","","","","","","","","","","","","","","",""
"","","","","","image-keyboard-response","146","286040","0.0-121.0","64360d6189dec3ac8afc9a78","665500ab8938657b03fbdba8","665793313dafe137eff134ca","703","stimuli/0110000.jpg","0","","prediction_trial","0","","true","","0","true","true","false","false","false","false","[1,0]","110","000","1","","","","","","",""
"","","","","","image-keyboard-response","147","286350","0.0-122.0","64360d6189dec3ac8afc9a78","665500ab8938657b03fbdba8","665793313dafe137eff134ca","306","stimuli/01100000.jpg"," ","","feedback_trial","1","","","","","","","","","","","","","","","","","","","","",""
"","","","","","image-keyboard-response","148","287015","0.0-123.0","64360d6189dec3ac8afc9a78","665500ab8938657b03fbdba8","665793313dafe137eff134ca","663","stimuli/2000010.jpg","2","","prediction_trial","2","","true","","2","true","true","true","true","true","true","[2]","000","010","1","","","","","","",""
"","","","","","image-keyboard-response","149","287358","0.0-124.0","64360d6189dec3ac8afc9a78","665500ab8938657b03fbdba8","665793313dafe137eff134ca","339","stimuli/20000102.jpg"," ","","feedback_trial","2","","","","","","","","","","","","","","","","","","","","",""
"","","","","","image-keyboard-response","150","288023","0.0-125.0","64360d6189dec3ac8afc9a78","665500ab8938657b03fbdba8","665793313dafe137eff134ca","662","stimuli/0011100.jpg","0","","prediction_trial","0","","true","","0","false","true","true","true","false","true","[0]","011","100","1","","","","","","",""
"","","","","","image-keyboard-response","151","288352","0.0-126.0","64360d6189dec3ac8afc9a78","665500ab8938657b03fbdba8","665793313dafe137eff134ca","326","stimuli/00111000.jpg"," ","","feedback_trial","0","","","","","","","","","","","","","","","","","","","","",""
"","","","","","image-keyboard-response","152","289400","0.0-127.0","64360d6189dec3ac8afc9a78","665500ab8938657b03fbdba8","665793313dafe137eff134ca","1043","stimuli/2111011.jpg","1","","prediction_trial","1","","true","","2","false","false","false","false","false","false","[2,1,0]","111","011","1","","","","","","",""
"","","","","","image-keyboard-response","153","289791","0.0-128.0","64360d6189dec3ac8afc9a78","665500ab8938657b03fbdba8","665793313dafe137eff134ca","385","stimuli/21110111.jpg"," ","","feedback_trial","2","","","","","","","","","","","","","","","","","","","","",""
"","","","","","image-keyboard-response","154","290455","0.0-129.0","64360d6189dec3ac8afc9a78","665500ab8938657b03fbdba8","665793313dafe137eff134ca","661","stimuli/1111100.jpg","1","","prediction_trial","1","","true","","1","true","true","false","false","false","false","[0,1,2]","111","100","1","","","","","","",""
"","","","","","image-keyboard-response","155","290856","0.0-130.0","64360d6189dec3ac8afc9a78","665500ab8938657b03fbdba8","665793313dafe137eff134ca","396","stimuli/11111001.jpg"," ","","feedback_trial","0","","","","","","","","","","","","","","","","","","","","",""
"","","","","","image-keyboard-response","156","292303","0.0-131.0","64360d6189dec3ac8afc9a78","665500ab8938657b03fbdba8","665793313dafe137eff134ca","1442","stimuli/1010111.jpg","0","","prediction_trial","1","","false","","1","false","false","false","true","false","false","[1]","010","111","0","","","","","","",""
"","","","","","image-keyboard-response","157","292777","0.0-132.0","64360d6189dec3ac8afc9a78","665500ab8938657b03fbdba8","665793313dafe137eff134ca","467","stimuli/10101111.jpg"," ","","feedback_trial","1","","","","","","","","","","","","","","","","","","","","",""
"","","","","","image-keyboard-response","158","293337","0.0-133.0","64360d6189dec3ac8afc9a78","665500ab8938657b03fbdba8","665793313dafe137eff134ca","551","stimuli/0001111.jpg","1","","prediction_trial","0","","false","","0","false","false","true","true","false","false","[0]","001","111","0","","","","","","",""
"","","","","","image-keyboard-response","159","293719","0.0-134.0","64360d6189dec3ac8afc9a78","665500ab8938657b03fbdba8","665793313dafe137eff134ca","372","stimuli/00011110.jpg"," ","","feedback_trial","0","","","","","","","","","","","","","","","","","","","","",""
"","","","","","image-keyboard-response","160","294271","0.0-135.0","64360d6189dec3ac8afc9a78","665500ab8938657b03fbdba8","665793313dafe137eff134ca","550","stimuli/1101101.jpg","1","","prediction_trial","1","","true","","1","true","true","true","true","true","true","[1]","101","101","1","","","","","","",""
"","","","","","image-keyboard-response","161","294601","0.0-136.0","64360d6189dec3ac8afc9a78","665500ab8938657b03fbdba8","665793313dafe137eff134ca","327","stimuli/11011011.jpg"," ","","feedback_trial","1","","","","","","","","","","","","","","","","","","","","",""
"","","","","","image-keyboard-response","162","295329","0.0-137.0","64360d6189dec3ac8afc9a78","665500ab8938657b03fbdba8","665793313dafe137eff134ca","722","stimuli/2000001.jpg","2","","prediction_trial","2","","true","","2","false","true","true","true","false","true","[2]","000","001","1","","","","","","",""
"","","","","","image-keyboard-response","163","295655","0.0-138.0","64360d6189dec3ac8afc9a78","665500ab8938657b03fbdba8","665793313dafe137eff134ca","323","stimuli/20000012.jpg"," ","","feedback_trial","2","","","","","","","","","","","","","","","","","","","","",""
"","","","","","image-keyboard-response","164","296471","0.0-139.0","64360d6189dec3ac8afc9a78","665500ab8938657b03fbdba8","665793313dafe137eff134ca","814","stimuli/1110110.jpg","1","","prediction_trial","1","","true","","1","false","false","false","false","false","false","[0,1]","110","110","1","","","","","","",""
"","","","","","image-keyboard-response","165","296889","0.0-140.0","64360d6189dec3ac8afc9a78","665500ab8938657b03fbdba8","665793313dafe137eff134ca","415","stimuli/11101101.jpg"," ","","feedback_trial","0","","","","","","","","","","","","","","","","","","","","",""
"","","","","","image-keyboard-response","166","298273","0.0-141.0","64360d6189dec3ac8afc9a78","665500ab8938657b03fbdba8","665793313dafe137eff134ca","1381","stimuli/2100111.jpg","1","","prediction_trial","2","","false","","2","false","false","true","true","false","false","[2]","100","111","0","","","","","","",""
"","","","","","image-keyboard-response","167","298937","0.0-142.0","64360d6189dec3ac8afc9a78","665500ab8938657b03fbdba8","665793313dafe137eff134ca","659","stimuli/21001112.jpg"," ","","feedback_trial","2","","","","","","","","","","","","","","","","","","","","",""
"","","","","","image-keyboard-response","168","300544","0.0-143.0","64360d6189dec3ac8afc9a78","665500ab8938657b03fbdba8","665793313dafe137eff134ca","1603","stimuli/1011110.jpg","0","","prediction_trial","2","","false","","1","false","false","false","false","false","false","[1,2]","011","110","0","","","","","","",""
"","","","","","image-keyboard-response","169","301201","0.0-144.0","64360d6189dec3ac8afc9a78","665500ab8938657b03fbdba8","665793313dafe137eff134ca","655","stimuli/10111102.jpg"," ","","feedback_trial","1","","","","","","","","","","","","","","","","","","","","",""
"","","","","","image-keyboard-response","170","301809","0.0-145.0","64360d6189dec3ac8afc9a78","665500ab8938657b03fbdba8","665793313dafe137eff134ca","605","stimuli/0001000.jpg","0","","prediction_trial","0","","true","","0","true","true","true","true","true","true","[0]","001","000","1","","","","","","",""
"","","","","","image-keyboard-response","171","302065","0.0-146.0","64360d6189dec3ac8afc9a78","665500ab8938657b03fbdba8","665793313dafe137eff134ca","251","stimuli/00010000.jpg"," ","","feedback_trial","0","","","","","","","","","","","","","","","","","","","","",""
"","","","","","image-keyboard-response","172","303026","0.0-147.0","64360d6189dec3ac8afc9a78","665500ab8938657b03fbdba8","665793313dafe137eff134ca","956","stimuli/1111101.jpg","1","","prediction_trial","1","","true","","1","true","true","false","false","false","false","[2,1,0]","111","101","1","","","","","","",""
"","","","","","image-keyboard-response","173","303337","0.0-148.0","64360d6189dec3ac8afc9a78","665500ab8938657b03fbdba8","665793313dafe137eff134ca","308","stimuli/11111011.jpg"," ","","feedback_trial","2","","","","","","","","","","","","","","","","","","","","",""
"","","","","","image-keyboard-response","174","304120","0.0-149.0","64360d6189dec3ac8afc9a78","665500ab8938657b03fbdba8","665793313dafe137eff134ca","781","stimuli/0000100.jpg","0","","prediction_trial","0","","true","","0","false","true","true","true","false","true","[0]","000","100","1","","","","","","",""
"","","","","","image-keyboard-response","175","304361","0.0-150.0","64360d6189dec3ac8afc9a78","665500ab8938657b03fbdba8","665793313dafe137eff134ca","239","stimuli/00001000.jpg"," ","","feedback_trial","0","","","","","","","","","","","","","","","","","","","","",""
"","","","","","image-keyboard-response","176","305251","0.0-151.0","64360d6189dec3ac8afc9a78","665500ab8938657b03fbdba8","665793313dafe137eff134ca","886","stimuli/1100010.jpg","1","","prediction_trial","1","","true","","1","false","true","true","true","false","true","[1]","100","010","1","","","","","","",""
"","","","","","image-keyboard-response","177","305522","0.0-152.0","64360d6189dec3ac8afc9a78","665500ab8938657b03fbdba8","665793313dafe137eff134ca","264","stimuli/11000101.jpg"," ","","feedback_trial","1","","","","","","","","","","","","","","","","","","","","",""
"","","","","","image-keyboard-response","178","306186","0.0-153.0","64360d6189dec3ac8afc9a78","665500ab8938657b03fbdba8","665793313dafe137eff134ca","659","stimuli/1101000.jpg","1","","prediction_trial","1","","true","","1","true","true","true","true","true","true","[1]","101","000","1","","","","","","",""
"","","","","","image-keyboard-response","179","306425","0.0-154.0","64360d6189dec3ac8afc9a78","665500ab8938657b03fbdba8","665793313dafe137eff134ca","237","stimuli/11010001.jpg"," ","","feedback_trial","1","","","","","","","","","","","","","","","","","","","","",""
"","","","","","image-keyboard-response","180","307136","0.0-155.0","64360d6189dec3ac8afc9a78","665500ab8938657b03fbdba8","665793313dafe137eff134ca","710","stimuli/0111001.jpg","0","","prediction_trial","0","","true","","0","true","true","false","false","false","false","[0,1,2]","111","001","1","","","","","","",""
"","","","","","image-keyboard-response","181","307433","0.0-156.0","64360d6189dec3ac8afc9a78","665500ab8938657b03fbdba8","665793313dafe137eff134ca","294","stimuli/01110010.jpg"," ","","feedback_trial","0","","","","","","","","","","","","","","","","","","","","",""
"","","","","","image-keyboard-response","182","309177","0.0-157.0","64360d6189dec3ac8afc9a78","665500ab8938657b03fbdba8","665793313dafe137eff134ca","1741","stimuli/0011101.jpg","0","","prediction_trial","0","","true","","0","false","false","true","true","false","false","[0]","011","101","1","","","","","","",""
"","","","","","image-keyboard-response","183","309459","0.0-158.0","64360d6189dec3ac8afc9a78","665500ab8938657b03fbdba8","665793313dafe137eff134ca","281","stimuli/00111010.jpg"," ","","feedback_trial","0","","","","","","","","","","","","","","","","","","","","",""
"","","","","","image-keyboard-response","184","310282","0.0-159.0","64360d6189dec3ac8afc9a78","665500ab8938657b03fbdba8","665793313dafe137eff134ca","815","stimuli/1011001.jpg","1","","prediction_trial","2","","false","","1","true","true","false","false","false","false","[2,1]","011","001","0","","","","","","",""
"","","","","","image-keyboard-response","185","311651","0.0-160.0","64360d6189dec3ac8afc9a78","665500ab8938657b03fbdba8","665793313dafe137eff134ca","1363","stimuli/10110012.jpg"," ","","feedback_trial","2","","","","","","","","","","","","","","","","","","","","",""
"","","","","","image-keyboard-response","186","312434","0.0-161.0","64360d6189dec3ac8afc9a78","665500ab8938657b03fbdba8","665793313dafe137eff134ca","778","stimuli/0010010.jpg","0","","prediction_trial","0","","true","","0","true","true","true","true","true","true","[0]","010","010","1","","","","","","",""
"","","","","","image-keyboard-response","187","312771","0.0-162.0","64360d6189dec3ac8afc9a78","665500ab8938657b03fbdba8","665793313dafe137eff134ca","334","stimuli/00100100.jpg"," ","","feedback_trial","0","","","","","","","","","","","","","","","","","","","","",""
"","","","","","image-keyboard-response","188","313674","0.0-163.0","64360d6189dec3ac8afc9a78","665500ab8938657b03fbdba8","665793313dafe137eff134ca","900","stimuli/0101111.jpg","1","","prediction_trial","0","","false","","0","false","false","false","false","false","false","[2,0]","101","111","0","","","","","","",""
"","","","","","image-keyboard-response","189","314196","0.0-164.0","64360d6189dec3ac8afc9a78","665500ab8938657b03fbdba8","665793313dafe137eff134ca","518","stimuli/01011110.jpg"," ","","feedback_trial","2","","","","","","","","","","","","","","","","","","","","",""
"","","","","","image-keyboard-response","190","314745","0.0-165.0","64360d6189dec3ac8afc9a78","665500ab8938657b03fbdba8","665793313dafe137eff134ca","545","stimuli/2010000.jpg","2","","prediction_trial","2","","true","","2","true","true","true","true","true","true","[2]","010","000","1","","","","","","",""
"","","","","","image-keyboard-response","191","315043","0.0-166.0","64360d6189dec3ac8afc9a78","665500ab8938657b03fbdba8","665793313dafe137eff134ca","295","stimuli/20100002.jpg"," ","","feedback_trial","2","","","","","","","","","","","","","","","","","","","","",""
"","","","","","image-keyboard-response","192","315763","0.0-167.0","64360d6189dec3ac8afc9a78","665500ab8938657b03fbdba8","665793313dafe137eff134ca","717","stimuli/0100100.jpg","0","","prediction_trial","0","","true","","0","false","true","false","true","false","true","[0]","100","100","1","","","","","","",""
"","","","","","image-keyboard-response","193","316156","0.0-168.0","64360d6189dec3ac8afc9a78","665500ab8938657b03fbdba8","665793313dafe137eff134ca","386","stimuli/01001000.jpg"," ","","feedback_trial","0","","","","","","","","","","","","","","","","","","","","",""
"","","","","","image-keyboard-response","194","316618","0.0-169.0","64360d6189dec3ac8afc9a78","665500ab8938657b03fbdba8","665793313dafe137eff134ca","457","stimuli/2101100.jpg","2","","prediction_trial","0","","false","","2","true","true","false","false","false","false","[0,2]","101","100","0","","","","","","",""
"","","","","","image-keyboard-response","195","316930","0.0-170.0","64360d6189dec3ac8afc9a78","665500ab8938657b03fbdba8","665793313dafe137eff134ca","310","stimuli/21011000.jpg"," ","","feedback_trial","0","","","","","","","","","","","","","","","","","","","","",""
"","","","","","image-keyboard-response","196","317883","0.0-171.0","64360d6189dec3ac8afc9a78","665500ab8938657b03fbdba8","665793313dafe137eff134ca","950","stimuli/0110111.jpg","1","","prediction_trial","0","","false","","0","false","false","false","false","false","false","[1,0]","110","111","0","","","","","","",""
"","","","","","image-keyboard-response","197","318210","0.0-172.0","64360d6189dec3ac8afc9a78","665500ab8938657b03fbdba8","665793313dafe137eff134ca","322","stimuli/01101110.jpg"," ","","feedback_trial","1","","","","","","","","","","","","","","","","","","","","",""
"","","","","","image-keyboard-response","198","318842","0.0-173.0","64360d6189dec3ac8afc9a78","665500ab8938657b03fbdba8","665793313dafe137eff134ca","631","stimuli/0101001.jpg","0","","prediction_trial","2","","false","","0","true","true","false","false","false","false","[0,2]","101","001","0","","","","","","",""
"","","","","","image-keyboard-response","199","319075","0.0-174.0","64360d6189dec3ac8afc9a78","665500ab8938657b03fbdba8","665793313dafe137eff134ca","229","stimuli/01010012.jpg"," ","","feedback_trial","0","","","","","","","","","","","","","","","","","","","","",""
"","","","","","image-keyboard-response","200","320156","0.0-175.0","64360d6189dec3ac8afc9a78","665500ab8938657b03fbdba8","665793313dafe137eff134ca","1079","stimuli/1010010.jpg","1","","prediction_trial","1","","true","","1","false","true","false","true","false","true","[1]","010","010","1","","","","","","",""
"","","","","","image-keyboard-response","201","320459","0.0-176.0","64360d6189dec3ac8afc9a78","665500ab8938657b03fbdba8","665793313dafe137eff134ca","296","stimuli/10100101.jpg"," ","","feedback_trial","1","","","","","","","","","","","","","","","","","","","","",""
"","","","","","image-keyboard-response","202","321828","0.0-177.0","64360d6189dec3ac8afc9a78","665500ab8938657b03fbdba8","665793313dafe137eff134ca","1367","stimuli/0100101.jpg","0","","prediction_trial","0","","true","","0","false","false","false","true","false","false","[0]","100","101","1","","","","","","",""
"","","","","","image-keyboard-response","203","322147","0.0-178.0","64360d6189dec3ac8afc9a78","665500ab8938657b03fbdba8","665793313dafe137eff134ca","313","stimuli/01001010.jpg"," ","","feedback_trial","0","","","","","","","","","","","","","","","","","","","","",""
"","","","","","image-keyboard-response","204","322780","0.0-179.0","64360d6189dec3ac8afc9a78","665500ab8938657b03fbdba8","665793313dafe137eff134ca","630","stimuli/2011110.jpg","2","","prediction_trial","2","","true","","2","true","true","false","false","false","false","[2,1]","011","110","1","","","","","","",""
"","","","","","image-keyboard-response","205","323092","0.0-180.0","64360d6189dec3ac8afc9a78","665500ab8938657b03fbdba8","665793313dafe137eff134ca","305","stimuli/20111102.jpg"," ","","feedback_trial","2","","","","","","","","","","","","","","","","","","","","",""
"","","","","","image-keyboard-response","206","323803","0.0-181.0","64360d6189dec3ac8afc9a78","665500ab8938657b03fbdba8","665793313dafe137eff134ca","708","stimuli/2110100.jpg","2","","prediction_trial","2","","true","","2","true","true","true","true","true","true","[2]","110","100","1","","","","","","",""
"","","","","","image-keyboard-response","207","324115","0.0-182.0","64360d6189dec3ac8afc9a78","665500ab8938657b03fbdba8","665793313dafe137eff134ca","311","stimuli/21101002.jpg"," ","","feedback_trial","2","","","","","","","","","","","","","","","","","","","","",""
"","","","","","image-keyboard-response","208","324885","0.0-183.0","64360d6189dec3ac8afc9a78","665500ab8938657b03fbdba8","665793313dafe137eff134ca","767","stimuli/0000101.jpg","2","","prediction_trial","0","","false","","0","false","false","true","true","false","false","[0]","000","101","0","","","","","","",""
"","","","","","image-keyboard-response","209","325283","0.0-184.0","64360d6189dec3ac8afc9a78","665500ab8938657b03fbdba8","665793313dafe137eff134ca","391","stimuli/00001010.jpg"," ","","feedback_trial","0","","","","","","","","","","","","","","","","","","","","",""
"","","","","","image-keyboard-response","210","326132","0.0-185.0","64360d6189dec3ac8afc9a78","665500ab8938657b03fbdba8","665793313dafe137eff134ca","846","stimuli/1101111.jpg","1","","prediction_trial","1","","true","","1","false","false","true","true","false","false","[1]","101","111","1","","","","","","",""
"","","","","","image-keyboard-response","211","326526","0.0-186.0","64360d6189dec3ac8afc9a78","665500ab8938657b03fbdba8","665793313dafe137eff134ca","391","stimuli/11011111.jpg"," ","","feedback_trial","1","","","","","","","","","","","","","","","","","","","","",""
"","","","","","image-keyboard-response","212","327189","0.0-187.0","64360d6189dec3ac8afc9a78","665500ab8938657b03fbdba8","665793313dafe137eff134ca","656","stimuli/0011011.jpg","0","","prediction_trial","0","","true","","0","true","true","true","true","true","true","[0]","011","011","1","","","","","","",""
"","","","","","image-keyboard-response","213","327493","0.0-188.0","64360d6189dec3ac8afc9a78","665500ab8938657b03fbdba8","665793313dafe137eff134ca","301","stimuli/00110110.jpg"," ","","feedback_trial","0","","","","","","","","","","","","","","","","","","","","",""
"","","","","","image-keyboard-response","214","328252","0.0-189.0","64360d6189dec3ac8afc9a78","665500ab8938657b03fbdba8","665793313dafe137eff134ca","753","stimuli/0001001.jpg","0","","prediction_trial","0","","true","","0","true","true","true","true","true","true","[0]","001","001","1","","","","","","",""
"","","","","","image-keyboard-response","215","328523","0.0-190.0","64360d6189dec3ac8afc9a78","665500ab8938657b03fbdba8","665793313dafe137eff134ca","268","stimuli/00010010.jpg"," ","","feedback_trial","0","","","","","","","","","","","","","","","","","","","","",""
"","","","","","image-keyboard-response","216","329148","0.0-191.0","64360d6189dec3ac8afc9a78","665500ab8938657b03fbdba8","665793313dafe137eff134ca","622","stimuli/2110001.jpg","2","","prediction_trial","2","","true","","2","false","true","true","true","false","true","[2]","110","001","1","","","","","","",""
"","","","","","image-keyboard-response","217","329478","0.0-192.0","64360d6189dec3ac8afc9a78","665500ab8938657b03fbdba8","665793313dafe137eff134ca","326","stimuli/21100012.jpg"," ","","feedback_trial","2","","","","","","","","","","","","","","","","","","","","",""
"","","","","","image-keyboard-response","218","330086","0.0-193.0","64360d6189dec3ac8afc9a78","665500ab8938657b03fbdba8","665793313dafe137eff134ca","604","stimuli/1010000.jpg","1","","prediction_trial","1","","true","","1","true","true","false","true","false","true","[1]","010","000","1","","","","","","",""
"","","","","","image-keyboard-response","219","330356","0.0-194.0","64360d6189dec3ac8afc9a78","665500ab8938657b03fbdba8","665793313dafe137eff134ca","262","stimuli/10100001.jpg"," ","","feedback_trial","1","","","","","","","","","","","","","","","","","","","","",""
"","","","","","image-keyboard-response","220","330924","0.0-195.0","64360d6189dec3ac8afc9a78","665500ab8938657b03fbdba8","665793313dafe137eff134ca","566","stimuli/0011000.jpg","0","","prediction_trial","0","","true","","0","true","true","true","true","true","true","[0]","011","000","1","","","","","","",""
"","","","","","image-keyboard-response","221","331246","0.0-196.0","64360d6189dec3ac8afc9a78","665500ab8938657b03fbdba8","665793313dafe137eff134ca","319","stimuli/00110000.jpg"," ","","feedback_trial","0","","","","","","","","","","","","","","","","","","","","",""
"","","","","","image-keyboard-response","222","331859","0.0-197.0","64360d6189dec3ac8afc9a78","665500ab8938657b03fbdba8","665793313dafe137eff134ca","611","stimuli/0110001.jpg","0","","prediction_trial","0","","true","","0","true","true","false","false","false","false","[0,1]","110","001","1","","","","","","",""
"","","","","","image-keyboard-response","223","332204","0.0-198.0","64360d6189dec3ac8afc9a78","665500ab8938657b03fbdba8","665793313dafe137eff134ca","342","stimuli/01100010.jpg"," ","","feedback_trial","0","","","","","","","","","","","","","","","","","","","","",""
"","","","","","image-keyboard-response","224","333407","0.0-199.0","64360d6189dec3ac8afc9a78","665500ab8938657b03fbdba8","665793313dafe137eff134ca","1199","stimuli/0011111.jpg","2","","prediction_trial","0","","false","","0","false","false","true","true","false","false","[0]","011","111","0","","","","","","",""
"","","","","","image-keyboard-response","225","334054","0.0-200.0","64360d6189dec3ac8afc9a78","665500ab8938657b03fbdba8","665793313dafe137eff134ca","641","stimuli/00111110.jpg"," ","","feedback_trial","0","","","","","","","","","","","","","","","","","","","","",""
"","","","","","image-keyboard-response","226","334901","0.0-201.0","64360d6189dec3ac8afc9a78","665500ab8938657b03fbdba8","665793313dafe137eff134ca","846","stimuli/0101100.jpg","0","","prediction_trial","0","","true","","0","false","true","false","false","false","false","[2,0]","101","100","1","","","","","","",""
"","","","","","image-keyboard-response","227","335118","0.0-202.0","64360d6189dec3ac8afc9a78","665500ab8938657b03fbdba8","665793313dafe137eff134ca","215","stimuli/01011000.jpg"," ","","feedback_trial","2","","","","","","","","","","","","","","","","","","","","",""
"","","","","","image-keyboard-response","228","335830","0.0-203.0","64360d6189dec3ac8afc9a78","665500ab8938657b03fbdba8","665793313dafe137eff134ca","707","stimuli/1100101.jpg","1","","prediction_trial","1","","true","","1","true","true","true","true","true","true","[1]","100","101","1","","","","","","",""
"","","","","","image-keyboard-response","229","336102","0.0-204.0","64360d6189dec3ac8afc9a78","665500ab8938657b03fbdba8","665793313dafe137eff134ca","266","stimuli/11001011.jpg"," ","","feedback_trial","1","","","","","","","","","","","","","","","","","","","","",""
"","","","","","image-keyboard-response","230","336654","0.0-205.0","64360d6189dec3ac8afc9a78","665500ab8938657b03fbdba8","665793313dafe137eff134ca","548","stimuli/2100010.jpg","2","","prediction_trial","2","","true","","2","true","true","true","true","true","true","[2]","100","010","1","","","","","","",""
"","","","","","image-keyboard-response","231","336948","0.0-206.0","64360d6189dec3ac8afc9a78","665500ab8938657b03fbdba8","665793313dafe137eff134ca","293","stimuli/21000102.jpg"," ","","feedback_trial","2","","","","","","","","","","","","","","","","","","","","",""
"","","","","","image-keyboard-response","232","337742","0.0-207.0","64360d6189dec3ac8afc9a78","665500ab8938657b03fbdba8","665793313dafe137eff134ca","791","stimuli/0010110.jpg","1","","prediction_trial","0","","false","","0","false","false","true","true","false","false","[0]","010","110","0","","","","","","",""
"","","","","","image-keyboard-response","233","338413","0.0-208.0","64360d6189dec3ac8afc9a78","665500ab8938657b03fbdba8","665793313dafe137eff134ca","665","stimuli/00101100.jpg"," ","","feedback_trial","0","","","","","","","","","","","","","","","","","","","","",""
"","","","","","image-keyboard-response","234","339077","0.0-209.0","64360d6189dec3ac8afc9a78","665500ab8938657b03fbdba8","665793313dafe137eff134ca","661","stimuli/1001001.jpg","1","","prediction_trial","1","","true","","1","true","true","true","true","true","true","[1]","001","001","1","","","","","","",""
"","","","","","image-keyboard-response","235","339405","0.0-210.0","64360d6189dec3ac8afc9a78","665500ab8938657b03fbdba8","665793313dafe137eff134ca","326","stimuli/10010011.jpg"," ","","feedback_trial","1","","","","","","","","","","","","","","","","","","","","",""
"","","","","","image-keyboard-response","236","340173","0.0-211.0","64360d6189dec3ac8afc9a78","665500ab8938657b03fbdba8","665793313dafe137eff134ca","766","stimuli/2111111.jpg","0","","prediction_trial","0","","true","","2","false","false","false","false","false","false","[1,2,0]","111","111","1","","","","","","",""
"","","","","","image-keyboard-response","237","340573","0.0-212.0","64360d6189dec3ac8afc9a78","665500ab8938657b03fbdba8","665793313dafe137eff134ca","399","stimuli/21111110.jpg"," ","","feedback_trial","1","","","","","","","","","","","","","","","","","","","","",""
"","","","","","image-keyboard-response","238","341206","0.0-213.0","64360d6189dec3ac8afc9a78","665500ab8938657b03fbdba8","665793313dafe137eff134ca","631","stimuli/1110011.jpg","1","","prediction_trial","0","","false","","1","false","false","false","false","false","false","[1,0]","110","011","0","","","","","","",""
"","","","","","image-keyboard-response","239","341807","0.0-214.0","64360d6189dec3ac8afc9a78","665500ab8938657b03fbdba8","665793313dafe137eff134ca","598","stimuli/11100110.jpg"," ","","feedback_trial","1","","","","","","","","","","","","","","","","","","","","",""
"","","","","","image-keyboard-response","240","342526","0.0-215.0","64360d6189dec3ac8afc9a78","665500ab8938657b03fbdba8","665793313dafe137eff134ca","715","stimuli/1111110.jpg","0","","prediction_trial","0","","true","","1","false","false","false","false","false","false","[1,0,2]","111","110","1","","","","","","",""
"","","","","","image-keyboard-response","241","342791","0.0-216.0","64360d6189dec3ac8afc9a78","665500ab8938657b03fbdba8","665793313dafe137eff134ca","262","stimuli/11111100.jpg"," ","","feedback_trial","1","","","","","","","","","","","","","","","","","","","","",""
"","","","","","image-keyboard-response","242","343382","0.0-217.0","64360d6189dec3ac8afc9a78","665500ab8938657b03fbdba8","665793313dafe137eff134ca","586","stimuli/2111010.jpg","2","","prediction_trial","1","","false","","2","true","true","false","false","false","false","[0,2,1]","111","010","0","","","","","","",""
"","","","","","image-keyboard-response","243","343767","0.0-218.0","64360d6189dec3ac8afc9a78","665500ab8938657b03fbdba8","665793313dafe137eff134ca","379","stimuli/21110101.jpg"," ","","feedback_trial","0","","","","","","","","","","","","","","","","","","","","",""
"","","","","","image-keyboard-response","244","344503","0.0-219.0","64360d6189dec3ac8afc9a78","665500ab8938657b03fbdba8","665793313dafe137eff134ca","732","stimuli/0101101.jpg","2","","prediction_trial","2","","true","","0","false","false","false","false","false","false","[0,2]","101","101","1","","","","","","",""
"","","","","","image-keyboard-response","245","344862","0.0-220.0","64360d6189dec3ac8afc9a78","665500ab8938657b03fbdba8","665793313dafe137eff134ca","354","stimuli/01011012.jpg"," ","","feedback_trial","0","","","","","","","","","","","","","","","","","","","","",""
"","","","","","image-keyboard-response","246","345367","0.0-221.0","64360d6189dec3ac8afc9a78","665500ab8938657b03fbdba8","665793313dafe137eff134ca","502","stimuli/2011001.jpg","2","","prediction_trial","2","","true","","2","false","true","false","false","false","false","[1,2]","011","001","1","","","","","","",""
"","","","","","image-keyboard-response","247","345712","0.0-222.0","64360d6189dec3ac8afc9a78","665500ab8938657b03fbdba8","665793313dafe137eff134ca","340","stimuli/20110012.jpg"," ","","feedback_trial","1","","","","","","","","","","","","","","","","","","","","",""
"","","","","","image-keyboard-response","248","346182","0.0-223.0","64360d6189dec3ac8afc9a78","665500ab8938657b03fbdba8","665793313dafe137eff134ca","463","stimuli/2000011.jpg","2","","prediction_trial","2","","true","","2","false","false","true","true","false","false","[2]","000","011","1","","","","","","",""
"","","","","","image-keyboard-response","249","347255","0.0-224.0","64360d6189dec3ac8afc9a78","665500ab8938657b03fbdba8","665793313dafe137eff134ca","1070","stimuli/20000112.jpg"," ","","feedback_trial","2","","","","","","","","","","","","","","","","","","","","",""
"","","","","","image-keyboard-response","250","347808","0.0-225.0","64360d6189dec3ac8afc9a78","665500ab8938657b03fbdba8","665793313dafe137eff134ca","551","stimuli/1010011.jpg","1","","prediction_trial","1","","true","","1","false","false","false","true","false","false","[1]","010","011","1","","","","","","",""
"","","","","","image-keyboard-response","251","348240","0.0-226.0","64360d6189dec3ac8afc9a78","665500ab8938657b03fbdba8","665793313dafe137eff134ca","426","stimuli/10100111.jpg"," ","","feedback_trial","1","","","","","","","","","","","","","","","","","","","","",""
"","","","","","image-keyboard-response","252","348792","0.0-227.0","64360d6189dec3ac8afc9a78","665500ab8938657b03fbdba8","665793313dafe137eff134ca","547","stimuli/1101110.jpg","1","","prediction_trial","1","","true","","1","false","false","true","true","false","false","[1]","101","110","1","","","","","","",""
"","","","","","image-keyboard-response","253","349152","0.0-228.0","64360d6189dec3ac8afc9a78","665500ab8938657b03fbdba8","665793313dafe137eff134ca","354","stimuli/11011101.jpg"," ","","feedback_trial","1","","","","","","","","","","","","","","","","","","","","",""
"","","","","","image-keyboard-response","254","349863","0.0-229.0","64360d6189dec3ac8afc9a78","665500ab8938657b03fbdba8","665793313dafe137eff134ca","707","stimuli/0100001.jpg","0","","prediction_trial","0","","true","","0","true","true","false","true","false","true","[0]","100","001","1","","","","","","",""
"","","","","","image-keyboard-response","255","350183","0.0-230.0","64360d6189dec3ac8afc9a78","665500ab8938657b03fbdba8","665793313dafe137eff134ca","319","stimuli/01000010.jpg"," ","","feedback_trial","0","","","","","","","","","","","","","","","","","","","","",""
"","","","","","image-keyboard-response","256","350984","0.0-231.0","64360d6189dec3ac8afc9a78","665500ab8938657b03fbdba8","665793313dafe137eff134ca","798","stimuli/2001011.jpg","1","","prediction_trial","2","","false","","2","false","false","false","true","false","false","[2]","001","011","0","","","","","","",""
"","","","","","image-keyboard-response","257","351992","0.0-232.0","64360d6189dec3ac8afc9a78","665500ab8938657b03fbdba8","665793313dafe137eff134ca","1003","stimuli/20010112.jpg"," ","","feedback_trial","2","","","","","","","","","","","","","","","","","","","","",""
"","","","","","image-keyboard-response","258","352785","0.0-233.0","64360d6189dec3ac8afc9a78","665500ab8938657b03fbdba8","665793313dafe137eff134ca","789","stimuli/0110101.jpg","0","","prediction_trial","0","","true","","0","false","false","false","false","false","false","[0,1]","110","101","1","","","","","","",""
"","","","","","image-keyboard-response","259","353055","0.0-234.0","64360d6189dec3ac8afc9a78","665500ab8938657b03fbdba8","665793313dafe137eff134ca","266","stimuli/01101010.jpg"," ","","feedback_trial","0","","","","","","","","","","","","","","","","","","","","",""
"","","","","","image-keyboard-response","260","353704","0.0-235.0","64360d6189dec3ac8afc9a78","665500ab8938657b03fbdba8","665793313dafe137eff134ca","646","stimuli/2001101.jpg","2","","prediction_trial","2","","true","","2","false","false","false","true","false","false","[2]","001","101","1","","","","","","",""
"","","","","","image-keyboard-response","261","354048","0.0-236.0","64360d6189dec3ac8afc9a78","665500ab8938657b03fbdba8","665793313dafe137eff134ca","337","stimuli/20011012.jpg"," ","","feedback_trial","2","","","","","","","","","","","","","","","","","","","","",""
"","","","","","image-keyboard-response","262","354945","0.0-237.0","64360d6189dec3ac8afc9a78","665500ab8938657b03fbdba8","665793313dafe137eff134ca","895","stimuli/1000011.jpg","0","","prediction_trial","1","","false","","1","false","false","true","true","false","false","[1]","000","011","0","","","","","","",""
"","","","","","image-keyboard-response","263","355441","0.0-238.0","64360d6189dec3ac8afc9a78","665500ab8938657b03fbdba8","665793313dafe137eff134ca","494","stimuli/10000111.jpg"," ","","feedback_trial","1","","","","","","","","","","","","","","","","","","","","",""
"","","","","","image-keyboard-response","264","356768","0.0-239.0","64360d6189dec3ac8afc9a78","665500ab8938657b03fbdba8","665793313dafe137eff134ca","1322","stimuli/2000101.jpg","2","","prediction_trial","2","","true","","2","false","false","true","true","false","false","[2]","000","101","1","","","","","","",""
"","","","","","image-keyboard-response","265","357055","0.0-240.0","64360d6189dec3ac8afc9a78","665500ab8938657b03fbdba8","665793313dafe137eff134ca","286","stimuli/20001012.jpg"," ","","feedback_trial","2","","","","","","","","","","","","","","","","","","","","",""
"","","","","","image-keyboard-response","266","358017","0.0-241.0","64360d6189dec3ac8afc9a78","665500ab8938657b03fbdba8","665793313dafe137eff134ca","960","stimuli/0101010.jpg","0","","prediction_trial","0","","true","","0","true","true","false","false","false","false","[2,0]","101","010","1","","","","","","",""
"","","","","","image-keyboard-response","267","358295","0.0-242.0","64360d6189dec3ac8afc9a78","665500ab8938657b03fbdba8","665793313dafe137eff134ca","272","stimuli/01010100.jpg"," ","","feedback_trial","2","","","","","","","","","","","","","","","","","","","","",""
"","","","","","image-keyboard-response","268","359081","0.0-243.0","64360d6189dec3ac8afc9a78","665500ab8938657b03fbdba8","665793313dafe137eff134ca","785","stimuli/1010001.jpg","1","","prediction_trial","1","","true","","1","true","true","false","true","false","true","[1]","010","001","1","","","","","","",""
"","","","","","image-keyboard-response","269","359368","0.0-244.0","64360d6189dec3ac8afc9a78","665500ab8938657b03fbdba8","665793313dafe137eff134ca","281","stimuli/10100011.jpg"," ","","feedback_trial","1","","","","","","","","","","","","","","","","","","","","",""
"","","","","","image-keyboard-response","270","360082","0.0-245.0","64360d6189dec3ac8afc9a78","665500ab8938657b03fbdba8","665793313dafe137eff134ca","712","stimuli/2001001.jpg","2","","prediction_trial","2","","true","","2","false","true","false","true","false","true","[2]","001","001","1","","","","","","",""
"","","","","","image-keyboard-response","271","360392","0.0-246.0","64360d6189dec3ac8afc9a78","665500ab8938657b03fbdba8","665793313dafe137eff134ca","306","stimuli/20010012.jpg"," ","","feedback_trial","2","","","","","","","","","","","","","","","","","","","","",""
"","","","","","image-keyboard-response","272","361457","0.0-247.0","64360d6189dec3ac8afc9a78","665500ab8938657b03fbdba8","665793313dafe137eff134ca","1062","stimuli/1100011.jpg","1","","prediction_trial","1","","true","","1","false","false","true","true","false","false","[1]","100","011","1","","","","","","",""
"","","","","","image-keyboard-response","273","361793","0.0-248.0","64360d6189dec3ac8afc9a78","665500ab8938657b03fbdba8","665793313dafe137eff134ca","330","stimuli/11000111.jpg"," ","","feedback_trial","1","","","","","","","","","","","","","","","","","","","","",""
"","","","","","image-keyboard-response","274","364314","0.0-249.0","64360d6189dec3ac8afc9a78","665500ab8938657b03fbdba8","665793313dafe137eff134ca","2516","stimuli/0010111.jpg","2","","prediction_trial","0","","false","","0","false","false","true","true","false","false","[0]","010","111","0","","","","","","",""
"","","","","","image-keyboard-response","275","364763","0.0-250.0","64360d6189dec3ac8afc9a78","665500ab8938657b03fbdba8","665793313dafe137eff134ca","443","stimuli/00101110.jpg"," ","","feedback_trial","0","","","","","","","","","","","","","","","","","","","","",""
"","","","","","image-keyboard-response","276","365442","0.0-251.0","64360d6189dec3ac8afc9a78","665500ab8938657b03fbdba8","665793313dafe137eff134ca","674","stimuli/2001111.jpg","1","","prediction_trial","2","","false","","2","false","false","false","true","false","false","[2]","001","111","0","","","","","","",""
"","","","","","image-keyboard-response","277","365947","0.0-252.0","64360d6189dec3ac8afc9a78","665500ab8938657b03fbdba8","665793313dafe137eff134ca","503","stimuli/20011112.jpg"," ","","feedback_trial","2","","","","","","","","","","","","","","","","","","","","",""
"","","","","","image-keyboard-response","278","366771","0.0-253.0","64360d6189dec3ac8afc9a78","665500ab8938657b03fbdba8","665793313dafe137eff134ca","818","stimuli/2011011.jpg","1","","prediction_trial","2","","false","","2","false","false","false","false","false","false","[2,1]","011","011","0","","","","","","",""
"","","","","","image-keyboard-response","279","367218","0.0-254.0","64360d6189dec3ac8afc9a78","665500ab8938657b03fbdba8","665793313dafe137eff134ca","443","stimuli/20110112.jpg"," ","","feedback_trial","2","","","","","","","","","","","","","","","","","","","","",""
"","","","","","image-keyboard-response","280","367993","0.0-255.0","64360d6189dec3ac8afc9a78","665500ab8938657b03fbdba8","665793313dafe137eff134ca","773","stimuli/2100001.jpg","2","","prediction_trial","2","","true","","2","false","true","true","true","false","true","[2]","100","001","1","","","","","","",""
"","","","","","image-keyboard-response","281","368403","0.0-256.0","64360d6189dec3ac8afc9a78","665500ab8938657b03fbdba8","665793313dafe137eff134ca","408","stimuli/21000012.jpg"," ","","feedback_trial","2","","","","","","","","","","","","","","","","","","","","",""
"","","","","","image-keyboard-response","282","369113","0.0-257.0","64360d6189dec3ac8afc9a78","665500ab8938657b03fbdba8","665793313dafe137eff134ca","704","stimuli/1110001.jpg","1","","prediction_trial","1","","true","","1","true","true","false","false","false","false","[1,0]","110","001","1","","","","","","",""
"","","","","","image-keyboard-response","283","369476","0.0-258.0","64360d6189dec3ac8afc9a78","665500ab8938657b03fbdba8","665793313dafe137eff134ca","359","stimuli/11100011.jpg"," ","","feedback_trial","1","","","","","","","","","","","","","","","","","","","","",""
"","","","","","image-keyboard-response","284","370179","0.0-259.0","64360d6189dec3ac8afc9a78","665500ab8938657b03fbdba8","665793313dafe137eff134ca","697","stimuli/0100011.jpg","0","","prediction_trial","0","","true","","0","true","true","false","true","false","true","[0]","100","011","1","","","","","","",""
"","","","","","image-keyboard-response","285","370620","0.0-260.0","64360d6189dec3ac8afc9a78","665500ab8938657b03fbdba8","665793313dafe137eff134ca","432","stimuli/01000110.jpg"," ","","feedback_trial","0","","","","","","","","","","","","","","","","","","","","",""
"","","","","","image-keyboard-response","286","371306","0.0-261.0","64360d6189dec3ac8afc9a78","665500ab8938657b03fbdba8","665793313dafe137eff134ca","683","stimuli/0111000.jpg","0","","prediction_trial","2","","false","","0","true","true","false","false","false","false","[1,0,2]","111","000","0","","","","","","",""
"","","","","","image-keyboard-response","287","372458","0.0-262.0","64360d6189dec3ac8afc9a78","665500ab8938657b03fbdba8","665793313dafe137eff134ca","1148","stimuli/01110002.jpg"," ","","feedback_trial","1","","","","","","","","","","","","","","","","","","","","",""
"","","","","","image-keyboard-response","288","373259","0.0-263.0","64360d6189dec3ac8afc9a78","665500ab8938657b03fbdba8","665793313dafe137eff134ca","800","stimuli/1011100.jpg","1","","prediction_trial","2","","false","","1","true","true","false","false","false","false","[1,2]","011","100","0","","","","","","",""
"","","","","","image-keyboard-response","289","373564","0.0-264.0","64360d6189dec3ac8afc9a78","665500ab8938657b03fbdba8","665793313dafe137eff134ca","298","stimuli/10111002.jpg"," ","","feedback_trial","1","","","","","","","","","","","","","","","","","","","","",""
"","","","","","image-keyboard-response","290","374100","0.0-265.0","64360d6189dec3ac8afc9a78","665500ab8938657b03fbdba8","665793313dafe137eff134ca","530","stimuli/1000101.jpg","1","","prediction_trial","1","","true","","1","true","true","true","true","true","true","[1]","000","101","1","","","","","","",""
"","","","","","image-keyboard-response","291","374404","0.0-266.0","64360d6189dec3ac8afc9a78","665500ab8938657b03fbdba8","665793313dafe137eff134ca","298","stimuli/10001011.jpg"," ","","feedback_trial","1","","","","","","","","","","","","","","","","","","","","",""
"","","","","","image-keyboard-response","292","375356","0.0-267.0","64360d6189dec3ac8afc9a78","665500ab8938657b03fbdba8","665793313dafe137eff134ca","948","stimuli/1111111.jpg","1","","prediction_trial","0","","false","","1","false","false","false","false","false","false","[0,1,2]","111","111","0","","","","","","",""
"","","","","","image-keyboard-response","293","375996","0.0-268.0","64360d6189dec3ac8afc9a78","665500ab8938657b03fbdba8","665793313dafe137eff134ca","634","stimuli/11111110.jpg"," ","","feedback_trial","0","","","","","","","","","","","","","","","","","","","","",""
"","","","","","image-keyboard-response","294","376658","0.0-269.0","64360d6189dec3ac8afc9a78","665500ab8938657b03fbdba8","665793313dafe137eff134ca","656","stimuli/1101001.jpg","1","","prediction_trial","1","","true","","1","true","true","true","true","true","true","[1]","101","001","1","","","","","","",""
"","","","","","image-keyboard-response","295","376979","0.0-270.0","64360d6189dec3ac8afc9a78","665500ab8938657b03fbdba8","665793313dafe137eff134ca","318","stimuli/11010011.jpg"," ","","feedback_trial","1","","","","","","","","","","","","","","","","","","","","",""
"","","","","","image-keyboard-response","296","377924","0.0-271.0","64360d6189dec3ac8afc9a78","665500ab8938657b03fbdba8","665793313dafe137eff134ca","944","stimuli/0100000.jpg","0","","prediction_trial","0","","true","","0","true","true","false","true","false","true","[0]","100","000","1","","","","","","",""
"","","","","","image-keyboard-response","297","378316","0.0-272.0","64360d6189dec3ac8afc9a78","665500ab8938657b03fbdba8","665793313dafe137eff134ca","386","stimuli/01000000.jpg"," ","","feedback_trial","0","","","","","","","","","","","","","","","","","","","","",""
"","","","","","image-keyboard-response","298","378899","0.0-273.0","64360d6189dec3ac8afc9a78","665500ab8938657b03fbdba8","665793313dafe137eff134ca","579","stimuli/2011000.jpg","2","","prediction_trial","1","","false","","2","true","true","false","false","false","false","[1,2]","011","000","0","","","","","","",""
"","","","","","image-keyboard-response","299","379459","0.0-274.0","64360d6189dec3ac8afc9a78","665500ab8938657b03fbdba8","665793313dafe137eff134ca","557","stimuli/20110001.jpg"," ","","feedback_trial","1","","","","","","","","","","","","","","","","","","","","",""
"","","","","","image-keyboard-response","300","380133","0.0-275.0","64360d6189dec3ac8afc9a78","665500ab8938657b03fbdba8","665793313dafe137eff134ca","671","stimuli/2101001.jpg","2","","prediction_trial","0","","false","","2","false","true","false","false","false","false","[2,0]","101","001","0","","","","","","",""
"","","","","","image-keyboard-response","301","380884","0.0-276.0","64360d6189dec3ac8afc9a78","665500ab8938657b03fbdba8","665793313dafe137eff134ca","747","stimuli/21010010.jpg"," ","","feedback_trial","2","","","","","","","","","","","","","","","","","","","","",""
"","","","","","image-keyboard-response","302","381532","0.0-277.0","64360d6189dec3ac8afc9a78","665500ab8938657b03fbdba8","665793313dafe137eff134ca","644","stimuli/2011010.jpg","2","","prediction_trial","1","","false","","2","true","true","false","false","false","false","[2,1]","011","010","0","","","","","","",""
"","","","","","image-keyboard-response","303","381822","0.0-278.0","64360d6189dec3ac8afc9a78","665500ab8938657b03fbdba8","665793313dafe137eff134ca","286","stimuli/20110101.jpg"," ","","feedback_trial","2","","","","","","","","","","","","","","","","","","","","",""
"","","","","","image-keyboard-response","304","382461","0.0-279.0","64360d6189dec3ac8afc9a78","665500ab8938657b03fbdba8","665793313dafe137eff134ca","632","stimuli/1000001.jpg","1","","prediction_trial","1","","true","","1","true","true","true","true","true","true","[1]","000","001","1","","","","","","",""
"","","","","","image-keyboard-response","305","382797","0.0-280.0","64360d6189dec3ac8afc9a78","665500ab8938657b03fbdba8","665793313dafe137eff134ca","329","stimuli/10000011.jpg"," ","","feedback_trial","1","","","","","","","","","","","","","","","","","","","","",""
"","","","","","image-keyboard-response","306","383325","0.0-281.0","64360d6189dec3ac8afc9a78","665500ab8938657b03fbdba8","665793313dafe137eff134ca","523","stimuli/2101000.jpg","2","","prediction_trial","0","","false","","2","true","true","false","false","false","false","[2,0]","101","000","0","","","","","","",""
"","","","","","image-keyboard-response","307","384141","0.0-282.0","64360d6189dec3ac8afc9a78","665500ab8938657b03fbdba8","665793313dafe137eff134ca","808","stimuli/21010000.jpg"," ","","feedback_trial","2","","","","","","","","","","","","","","","","","","","","",""
"","","","","","image-keyboard-response","308","384732","0.0-283.0","64360d6189dec3ac8afc9a78","665500ab8938657b03fbdba8","665793313dafe137eff134ca","589","stimuli/1011101.jpg","1","","prediction_trial","1","","true","","1","true","true","false","false","false","false","[1,2]","011","101","1","","","","","","",""
"","","","","","image-keyboard-response","309","385085","0.0-284.0","64360d6189dec3ac8afc9a78","665500ab8938657b03fbdba8","665793313dafe137eff134ca","346","stimuli/10111011.jpg"," ","","feedback_trial","1","","","","","","","","","","","","","","","","","","","","",""
"","","","","","image-keyboard-response","310","385694","0.0-285.0","64360d6189dec3ac8afc9a78","665500ab8938657b03fbdba8","665793313dafe137eff134ca","602","stimuli/0011001.jpg","0","","prediction_trial","0","","true","","0","true","true","true","true","true","true","[0]","011","001","1","","","","","","",""
"","","","","","image-keyboard-response","311","386037","0.0-286.0","64360d6189dec3ac8afc9a78","665500ab8938657b03fbdba8","665793313dafe137eff134ca","337","stimuli/00110010.jpg"," ","","feedback_trial","0","","","","","","","","","","","","","","","","","","","","",""
"","","","","","image-keyboard-response","312","386573","0.0-287.0","64360d6189dec3ac8afc9a78","665500ab8938657b03fbdba8","665793313dafe137eff134ca","532","stimuli/2001000.jpg","2","","prediction_trial","2","","true","","2","true","true","false","true","false","true","[2]","001","000","1","","","","","","",""
"","","","","","image-keyboard-response","313","386876","0.0-288.0","64360d6189dec3ac8afc9a78","665500ab8938657b03fbdba8","665793313dafe137eff134ca","301","stimuli/20010002.jpg"," ","","feedback_trial","2","","","","","","","","","","","","","","","","","","","","",""
"","","","","","image-keyboard-response","314","388613","0.0-289.0","64360d6189dec3ac8afc9a78","665500ab8938657b03fbdba8","665793313dafe137eff134ca","1735","stimuli/1001111.jpg","0","","prediction_trial","1","","false","","1","false","false","true","true","false","false","[1]","001","111","0","","","","","","",""
"","","","","","image-keyboard-response","315","389013","0.0-290.0","64360d6189dec3ac8afc9a78","665500ab8938657b03fbdba8","665793313dafe137eff134ca","394","stimuli/10011111.jpg"," ","","feedback_trial","1","","","","","","","","","","","","","","","","","","","","",""
"","","","","","image-keyboard-response","316","389671","0.0-291.0","64360d6189dec3ac8afc9a78","665500ab8938657b03fbdba8","665793313dafe137eff134ca","651","stimuli/1010110.jpg","1","","prediction_trial","1","","true","","1","false","false","false","true","false","false","[1]","010","110","1","","","","","","",""
"","","","","","image-keyboard-response","317","390004","0.0-292.0","64360d6189dec3ac8afc9a78","665500ab8938657b03fbdba8","665793313dafe137eff134ca","327","stimuli/10101101.jpg"," ","","feedback_trial","1","","","","","","","","","","","","","","","","","","","","",""
"","","","","","survey-html-form","318","409856","0.0-293.0","64360d6189dec3ac8afc9a78","665500ab8938657b03fbdba8","665793313dafe137eff134ca","19850","","{""feedback"":""Just guessing best I could."",""age"":""65"",""gender"":""Female"",""other_gender"":"""",""race"":""White"",""other_race"":"""",""ethnicity"":""Non-Hispanic""}","","exit_survey","","","","","","","","","","","","","","","","Just guessing best I could.","65","Non-Hispanic","Female","White","0.6666666666666666","0.6666666666666666"
