"success","timeout","failed_images","failed_audio","failed_video","trial_type","trial_index","time_elapsed","internal_node_id","prolific_id","prolific_study_id","prolific_session_id","rt","stimulus","response","view_history","trial","character_choice","stimulus_dict","accuracy","correct_response","ball_pos","ego_ball_visible","ego_can_infer","alter_ball_visible","alter_can_infer","collective_ball_visible","collective_can_infer","search_locations","alter_occluders","ego_occluders","accuracy_bool","feedback","age","ethnicity","gender","race","overall_accuracy","bonus"
"true","false","[]","[]","[]","preload","0","64934","0.0-0.0","56849d528f456f000c45e1dd","665500ab8938657b03fbdba8","66579237e19bba6ec61fe1c4","","","","","","","","","","","","","","","","","","","","","","","","","","",""
"true","","","","","fullscreen","1","104829","0.0-1.0","56849d528f456f000c45e1dd","665500ab8938657b03fbdba8","66579237e19bba6ec61fe1c4","","","","","","","","","","","","","","","","","","","","","","","","","","",""
"","","","","","html-button-response","2","152077","0.0-2.0","56849d528f456f000c45e1dd","665500ab8938657b03fbdba8","66579237e19bba6ec61fe1c4","47243","<p><b>Consent Form</b></p> <div style=""text-align:left;background-color:lightgrey; padding:20px; max-width:900px;""><p>Please consider this information carefully before deciding whether to participate in this research.</p> <p>The purpose of this research is to examine which factors influence social judgment and decision-making. You will be asked to make judgements about individuals and actions in social scenarios. We are simply interested in your judgement. The study will take less than 1 hour to complete, and you will receive less than $20 on Prolific. Your compensation and time commitment are specified in the study description. There are no anticipated risks associated with participating in this study. The effects of participating should be comparable to those you would ordinarily experience from viewing a computer monitor and using a mouse or keyboard for a similar amount of time. At the end of the study, we will provide an explanation of the questions that motivate this line of research and will describe the potential implications. </p><p> Your participation in this study is completely voluntary and you may refuse to participate or you may choose to withdraw at any time without penalty or loss of benefits to you which are otherwise entitled. Your participation in this study will remain confidential. No personally identifiable information will be associated with your data. Also, all analyses of the data will be averaged across all the participants, so your individual responses will never be specifically analyzed. </p><p> If you have questions or concerns about your participation or payment, or want to request a summary of research findings, please contact Dr. Jonathan Phillips at Jonathan.S.Phillips@dartmouth.edu. </p><p> Please save a copy of this form for your records. </p><p><b>Agreement: </b>The nature and purpose of this research have been sufficiently explained and I agree to participate in this study. I understand that I am free to withdraw at any time without incurring any penalty. Please consent by clicking the button below to continue. Otherwise, please exit the study at any time. </p>","0","","","","","","","","","","","","","","","","","","","","","","","",""
"","","","","","instructions","3","535004","0.0-3.0-0.0","56849d528f456f000c45e1dd","665500ab8938657b03fbdba8","66579237e19bba6ec61fe1c4","382924","","","[{""page_index"":0,""viewing_time"":36430},{""page_index"":1,""viewing_time"":4786},{""page_index"":2,""viewing_time"":115836},{""page_index"":3,""viewing_time"":11358},{""page_index"":4,""viewing_time"":3411},{""page_index"":5,""viewing_time"":3131},{""page_index"":6,""viewing_time"":3832},{""page_index"":7,""viewing_time"":4373},{""page_index"":8,""viewing_time"":27169},{""page_index"":9,""viewing_time"":3592},{""page_index"":10,""viewing_time"":153614},{""page_index"":11,""viewing_time"":3945},{""page_index"":12,""viewing_time"":9689},{""page_index"":13,""viewing_time"":1757}]","intro","","","","","","","","","","","","","","","","","","","","","",""
"","","","","","image-keyboard-response","4","540017","0.0-3.0-1.0","56849d528f456f000c45e1dd","665500ab8938657b03fbdba8","66579237e19bba6ec61fe1c4","4996","stimuli/1111010.jpg","1","","prediction_practice","0","{""filepath"":""stimuli/1111010.jpg"",""ball_pos"":1,""ego_ball_visible"":false,""ego_can_infer"":true,""alter_ball_visible"":false,""alter_can_infer"":false,""collective_ball_visible"":false,""collective_can_infer"":false,""search_locations"":[2,0,1],""alter_occluders"":""111"",""ego_occluders"":""010""}","false","","","","","","","","","","","","","","","","","","",""
"","","","","","image-keyboard-response","5","545362","0.0-3.0-2.0","56849d528f456f000c45e1dd","665500ab8938657b03fbdba8","66579237e19bba6ec61fe1c4","5330","stimuli/11110100.jpg"," ","","practrice_feedback","2","","","","","","","","","","","","","","","","","","","","",""
"","","","","","image-keyboard-response","6","549924","0.0-3.0-3.0","56849d528f456f000c45e1dd","665500ab8938657b03fbdba8","66579237e19bba6ec61fe1c4","4553","stimuli/0101101.jpg","1","","prediction_practice","2","{""filepath"":""stimuli/0101101.jpg"",""ball_pos"":0,""ego_ball_visible"":false,""ego_can_infer"":false,""alter_ball_visible"":false,""alter_can_infer"":false,""collective_ball_visible"":false,""collective_can_infer"":false,""search_locations"":[0,2],""alter_occluders"":""101"",""ego_occluders"":""101""}","false","","","","","","","","","","","","","","","","","","",""
"","","","","","image-keyboard-response","7","552489","0.0-3.0-4.0","56849d528f456f000c45e1dd","665500ab8938657b03fbdba8","66579237e19bba6ec61fe1c4","2558","stimuli/01011012.jpg"," ","","practrice_feedback","0","","","","","","","","","","","","","","","","","","","","",""
"","","","","","image-keyboard-response","8","553615","0.0-3.0-5.0","56849d528f456f000c45e1dd","665500ab8938657b03fbdba8","66579237e19bba6ec61fe1c4","1116","stimuli/0000110.jpg","2","","prediction_practice","0","{""filepath"":""stimuli/0000110.jpg"",""ball_pos"":0,""ego_ball_visible"":false,""ego_can_infer"":false,""alter_ball_visible"":true,""alter_can_infer"":true,""collective_ball_visible"":false,""collective_can_infer"":false,""search_locations"":[0],""alter_occluders"":""000"",""ego_occluders"":""110""}","false","","","","","","","","","","","","","","","","","","",""
"","","","","","image-keyboard-response","9","556944","0.0-3.0-6.0","56849d528f456f000c45e1dd","665500ab8938657b03fbdba8","66579237e19bba6ec61fe1c4","3322","stimuli/00001100.jpg"," ","","practrice_feedback","0","","","","","","","","","","","","","","","","","","","","",""
"","","","","","image-keyboard-response","10","558938","0.0-3.0-7.0","56849d528f456f000c45e1dd","665500ab8938657b03fbdba8","66579237e19bba6ec61fe1c4","1983","stimuli/1000101.jpg","1","","prediction_practice","1","{""filepath"":""stimuli/1000101.jpg"",""ball_pos"":1,""ego_ball_visible"":true,""ego_can_infer"":true,""alter_ball_visible"":true,""alter_can_infer"":true,""collective_ball_visible"":true,""collective_can_infer"":true,""search_locations"":[1],""alter_occluders"":""000"",""ego_occluders"":""101""}","true","","","","","","","","","","","","","","","","","","",""
"","","","","","image-keyboard-response","11","561489","0.0-3.0-8.0","56849d528f456f000c45e1dd","665500ab8938657b03fbdba8","66579237e19bba6ec61fe1c4","2543","stimuli/10001011.jpg"," ","","practrice_feedback","1","","","","","","","","","","","","","","","","","","","","",""
"","","","","","image-keyboard-response","12","562643","0.0-3.0-9.0","56849d528f456f000c45e1dd","665500ab8938657b03fbdba8","66579237e19bba6ec61fe1c4","1145","stimuli/2010010.jpg","2","","prediction_practice","2","{""filepath"":""stimuli/2010010.jpg"",""ball_pos"":2,""ego_ball_visible"":true,""ego_can_infer"":true,""alter_ball_visible"":true,""alter_can_infer"":true,""collective_ball_visible"":true,""collective_can_infer"":true,""search_locations"":[2],""alter_occluders"":""010"",""ego_occluders"":""010""}","true","","","","","","","","","","","","","","","","","","",""
"","","","","","image-keyboard-response","13","564248","0.0-3.0-10.0","56849d528f456f000c45e1dd","665500ab8938657b03fbdba8","66579237e19bba6ec61fe1c4","1597","stimuli/20100102.jpg"," ","","practrice_feedback","2","","","","","","","","","","","","","","","","","","","","",""
"","","","","","image-keyboard-response","14","567535","0.0-3.0-11.0","56849d528f456f000c45e1dd","665500ab8938657b03fbdba8","66579237e19bba6ec61fe1c4","3278","stimuli/1010010.jpg","1","","prediction_practice","1","{""filepath"":""stimuli/1010010.jpg"",""ball_pos"":1,""ego_ball_visible"":false,""ego_can_infer"":true,""alter_ball_visible"":false,""alter_can_infer"":true,""collective_ball_visible"":false,""collective_can_infer"":true,""search_locations"":[1],""alter_occluders"":""010"",""ego_occluders"":""010""}","true","","","","","","","","","","","","","","","","","","",""
"","","","","","image-keyboard-response","15","568719","0.0-3.0-12.0","56849d528f456f000c45e1dd","665500ab8938657b03fbdba8","66579237e19bba6ec61fe1c4","1177","stimuli/10100101.jpg"," ","","practrice_feedback","1","","","","","","","","","","","","","","","","","","","","",""
"","","","","","image-keyboard-response","16","571211","0.0-3.0-13.0","56849d528f456f000c45e1dd","665500ab8938657b03fbdba8","66579237e19bba6ec61fe1c4","2484","stimuli/1000111.jpg","0","","prediction_practice","1","{""filepath"":""stimuli/1000111.jpg"",""ball_pos"":1,""ego_ball_visible"":false,""ego_can_infer"":false,""alter_ball_visible"":true,""alter_can_infer"":true,""collective_ball_visible"":false,""collective_can_infer"":false,""search_locations"":[1],""alter_occluders"":""000"",""ego_occluders"":""111""}","false","","","","","","","","","","","","","","","","","","",""
"","","","","","image-keyboard-response","17","574268","0.0-3.0-14.0","56849d528f456f000c45e1dd","665500ab8938657b03fbdba8","66579237e19bba6ec61fe1c4","3049","stimuli/10001111.jpg"," ","","practrice_feedback","1","","","","","","","","","","","","","","","","","","","","",""
"","","","","","image-keyboard-response","18","575441","0.0-3.0-15.0","56849d528f456f000c45e1dd","665500ab8938657b03fbdba8","66579237e19bba6ec61fe1c4","1164","stimuli/0000001.jpg","0","","prediction_practice","0","{""filepath"":""stimuli/0000001.jpg"",""ball_pos"":0,""ego_ball_visible"":true,""ego_can_infer"":true,""alter_ball_visible"":true,""alter_can_infer"":true,""collective_ball_visible"":true,""collective_can_infer"":true,""search_locations"":[0],""alter_occluders"":""000"",""ego_occluders"":""001""}","true","","","","","","","","","","","","","","","","","","",""
"","","","","","image-keyboard-response","19","576371","0.0-3.0-16.0","56849d528f456f000c45e1dd","665500ab8938657b03fbdba8","66579237e19bba6ec61fe1c4","922","stimuli/00000010.jpg"," ","","practrice_feedback","0","","","","","","","","","","","","","","","","","","","","",""
"","","","","","image-keyboard-response","20","577676","0.0-3.0-17.0","56849d528f456f000c45e1dd","665500ab8938657b03fbdba8","66579237e19bba6ec61fe1c4","1297","stimuli/2110111.jpg","1","","prediction_practice","2","{""filepath"":""stimuli/2110111.jpg"",""ball_pos"":2,""ego_ball_visible"":false,""ego_can_infer"":false,""alter_ball_visible"":true,""alter_can_infer"":true,""collective_ball_visible"":false,""collective_can_infer"":false,""search_locations"":[2],""alter_occluders"":""110"",""ego_occluders"":""111""}","false","","","","","","","","","","","","","","","","","","",""
"","","","","","image-keyboard-response","21","578785","0.0-3.0-18.0","56849d528f456f000c45e1dd","665500ab8938657b03fbdba8","66579237e19bba6ec61fe1c4","1099","stimuli/21101112.jpg"," ","","practrice_feedback","2","","","","","","","","","","","","","","","","","","","","",""
"","","","","","image-keyboard-response","22","583945","0.0-3.0-19.0","56849d528f456f000c45e1dd","665500ab8938657b03fbdba8","66579237e19bba6ec61fe1c4","5153","stimuli/2100101.jpg","0","","prediction_practice","2","{""filepath"":""stimuli/2100101.jpg"",""ball_pos"":2,""ego_ball_visible"":false,""ego_can_infer"":false,""alter_ball_visible"":true,""alter_can_infer"":true,""collective_ball_visible"":false,""collective_can_infer"":false,""search_locations"":[2],""alter_occluders"":""100"",""ego_occluders"":""101""}","false","","","","","","","","","","","","","","","","","","",""
"","","","","","image-keyboard-response","23","584903","0.0-3.0-20.0","56849d528f456f000c45e1dd","665500ab8938657b03fbdba8","66579237e19bba6ec61fe1c4","951","stimuli/21001012.jpg"," ","","practrice_feedback","2","","","","","","","","","","","","","","","","","","","","",""
"","","","","","html-button-response","24","589140","0.0-3.0-21.0","56849d528f456f000c45e1dd","665500ab8938657b03fbdba8","66579237e19bba6ec61fe1c4","4232","Now that you've had some practice, you'll be tested with a couple of easy trials. If you correctly predict Sam's choice, you'll move on to complete the experiment!","0","","","","","","","","","","","","","","","","","","","","","","","",""
"","","","","","image-keyboard-response","25","590541","0.0-3.0-22.0-0.0","56849d528f456f000c45e1dd","665500ab8938657b03fbdba8","66579237e19bba6ec61fe1c4","1396","stimuli/0000011.jpg","arrowleft","","comprehension_quiz","","","true","arrowleft","","","","","","","","","","","","","","","","","",""
"","","","","","image-keyboard-response","26","591743","0.0-3.0-22.0-1.0","56849d528f456f000c45e1dd","665500ab8938657b03fbdba8","66579237e19bba6ec61fe1c4","1192","stimuli/00000110.jpg"," ","","comprehension_quiz","","","true"," ","","","","","","","","","","","","","","","","","",""
"","","","","","image-keyboard-response","27","593319","0.0-3.0-22.0-2.0","56849d528f456f000c45e1dd","665500ab8938657b03fbdba8","66579237e19bba6ec61fe1c4","1568","stimuli/1010010.jpg","arrowdown","","comprehension_quiz","","","true","arrowdown","","","","","","","","","","","","","","","","","",""
"","","","","","image-keyboard-response","28","594398","0.0-3.0-22.0-3.0","56849d528f456f000c45e1dd","665500ab8938657b03fbdba8","66579237e19bba6ec61fe1c4","1070","stimuli/10100101.jpg"," ","","comprehension_quiz","","","true"," ","","","","","","","","","","","","","","","","","",""
"","","","","","html-button-response","29","596809","0.0-4.0","56849d528f456f000c45e1dd","665500ab8938657b03fbdba8","66579237e19bba6ec61fe1c4","2400","The experiment will now begin.","0","","","","","","","","","","","","","","","","","","","","","","","",""
"","","","","","image-keyboard-response","30","597981","0.0-5.0","56849d528f456f000c45e1dd","665500ab8938657b03fbdba8","66579237e19bba6ec61fe1c4","1168","stimuli/2010010.jpg","2","","prediction_trial","2","","true","","2","true","true","true","true","true","true","[2]","010","010","1","","","","","","",""
"","","","","","image-keyboard-response","31","598839","0.0-6.0","56849d528f456f000c45e1dd","665500ab8938657b03fbdba8","66579237e19bba6ec61fe1c4","853","stimuli/20100102.jpg"," ","","feedback_trial","2","","","","","","","","","","","","","","","","","","","","",""
"","","","","","image-keyboard-response","32","600443","0.0-7.0","56849d528f456f000c45e1dd","665500ab8938657b03fbdba8","66579237e19bba6ec61fe1c4","1597","stimuli/0011100.jpg","0","","prediction_trial","0","","true","","0","false","true","true","true","false","true","[0]","011","100","1","","","","","","",""
"","","","","","image-keyboard-response","33","601676","0.0-8.0","56849d528f456f000c45e1dd","665500ab8938657b03fbdba8","66579237e19bba6ec61fe1c4","1225","stimuli/00111000.jpg"," ","","feedback_trial","0","","","","","","","","","","","","","","","","","","","","",""
"","","","","","image-keyboard-response","34","602846","0.0-9.0","56849d528f456f000c45e1dd","665500ab8938657b03fbdba8","66579237e19bba6ec61fe1c4","1163","stimuli/0100010.jpg","0","","prediction_trial","0","","true","","0","true","true","false","true","false","true","[0]","100","010","1","","","","","","",""
"","","","","","image-keyboard-response","35","603489","0.0-10.0","56849d528f456f000c45e1dd","665500ab8938657b03fbdba8","66579237e19bba6ec61fe1c4","635","stimuli/01000100.jpg"," ","","feedback_trial","0","","","","","","","","","","","","","","","","","","","","",""
"","","","","","image-keyboard-response","36","606009","0.0-11.0","56849d528f456f000c45e1dd","665500ab8938657b03fbdba8","66579237e19bba6ec61fe1c4","2513","stimuli/1110111.jpg","2","","prediction_trial","0","","false","","1","false","false","false","false","false","false","[1,0]","110","111","0","","","","","","",""
"","","","","","image-keyboard-response","37","607390","0.0-12.0","56849d528f456f000c45e1dd","665500ab8938657b03fbdba8","66579237e19bba6ec61fe1c4","1375","stimuli/11101110.jpg"," ","","feedback_trial","1","","","","","","","","","","","","","","","","","","","","",""
"","","","","","image-keyboard-response","38","608351","0.0-13.0","56849d528f456f000c45e1dd","665500ab8938657b03fbdba8","66579237e19bba6ec61fe1c4","952","stimuli/2001011.jpg","1","","prediction_trial","2","","false","","2","false","false","false","true","false","false","[2]","001","011","0","","","","","","",""
"","","","","","image-keyboard-response","39","609207","0.0-14.0","56849d528f456f000c45e1dd","665500ab8938657b03fbdba8","66579237e19bba6ec61fe1c4","847","stimuli/20010112.jpg"," ","","feedback_trial","2","","","","","","","","","","","","","","","","","","","","",""
"","","","","","image-keyboard-response","40","610104","0.0-15.0","56849d528f456f000c45e1dd","665500ab8938657b03fbdba8","66579237e19bba6ec61fe1c4","891","stimuli/0011001.jpg","0","","prediction_trial","0","","true","","0","true","true","true","true","true","true","[0]","011","001","1","","","","","","",""
"","","","","","image-keyboard-response","41","610885","0.0-16.0","56849d528f456f000c45e1dd","665500ab8938657b03fbdba8","66579237e19bba6ec61fe1c4","773","stimuli/00110010.jpg"," ","","feedback_trial","0","","","","","","","","","","","","","","","","","","","","",""
"","","","","","image-keyboard-response","42","611755","0.0-17.0","56849d528f456f000c45e1dd","665500ab8938657b03fbdba8","66579237e19bba6ec61fe1c4","863","stimuli/2011001.jpg","1","","prediction_trial","1","","true","","2","false","true","false","false","false","false","[2,1]","011","001","1","","","","","","",""
"","","","","","image-keyboard-response","43","612581","0.0-18.0","56849d528f456f000c45e1dd","665500ab8938657b03fbdba8","66579237e19bba6ec61fe1c4","818","stimuli/20110011.jpg"," ","","feedback_trial","2","","","","","","","","","","","","","","","","","","","","",""
"","","","","","image-keyboard-response","44","613269","0.0-19.0","56849d528f456f000c45e1dd","665500ab8938657b03fbdba8","66579237e19bba6ec61fe1c4","680","stimuli/2111110.jpg","2","","prediction_trial","0","","false","","2","true","true","false","false","false","false","[0,1,2]","111","110","0","","","","","","",""
"","","","","","image-keyboard-response","45","617455","0.0-20.0","56849d528f456f000c45e1dd","665500ab8938657b03fbdba8","66579237e19bba6ec61fe1c4","4179","stimuli/21111100.jpg"," ","","feedback_trial","0","","","","","","","","","","","","","","","","","","","","",""
"","","","","","image-keyboard-response","46","618356","0.0-21.0","56849d528f456f000c45e1dd","665500ab8938657b03fbdba8","66579237e19bba6ec61fe1c4","893","stimuli/1101101.jpg","1","","prediction_trial","1","","true","","1","true","true","true","true","true","true","[1]","101","101","1","","","","","","",""
"","","","","","image-keyboard-response","47","619078","0.0-22.0","56849d528f456f000c45e1dd","665500ab8938657b03fbdba8","66579237e19bba6ec61fe1c4","713","stimuli/11011011.jpg"," ","","feedback_trial","1","","","","","","","","","","","","","","","","","","","","",""
"","","","","","image-keyboard-response","48","620335","0.0-23.0","56849d528f456f000c45e1dd","665500ab8938657b03fbdba8","66579237e19bba6ec61fe1c4","1250","stimuli/0010100.jpg","0","","prediction_trial","0","","true","","0","false","true","true","true","false","true","[0]","010","100","1","","","","","","",""
"","","","","","image-keyboard-response","49","621341","0.0-24.0","56849d528f456f000c45e1dd","665500ab8938657b03fbdba8","66579237e19bba6ec61fe1c4","996","stimuli/00101000.jpg"," ","","feedback_trial","0","","","","","","","","","","","","","","","","","","","","",""
"","","","","","image-keyboard-response","50","622210","0.0-25.0","56849d528f456f000c45e1dd","665500ab8938657b03fbdba8","66579237e19bba6ec61fe1c4","862","stimuli/2001010.jpg","2","","prediction_trial","2","","true","","2","true","true","false","true","false","true","[2]","001","010","1","","","","","","",""
"","","","","","image-keyboard-response","51","622979","0.0-26.0","56849d528f456f000c45e1dd","665500ab8938657b03fbdba8","66579237e19bba6ec61fe1c4","762","stimuli/20010102.jpg"," ","","feedback_trial","2","","","","","","","","","","","","","","","","","","","","",""
"","","","","","image-keyboard-response","52","623787","0.0-27.0","56849d528f456f000c45e1dd","665500ab8938657b03fbdba8","66579237e19bba6ec61fe1c4","802","stimuli/2001111.jpg","1","","prediction_trial","2","","false","","2","false","false","false","true","false","false","[2]","001","111","0","","","","","","",""
"","","","","","image-keyboard-response","53","624881","0.0-28.0","56849d528f456f000c45e1dd","665500ab8938657b03fbdba8","66579237e19bba6ec61fe1c4","1086","stimuli/20011112.jpg"," ","","feedback_trial","2","","","","","","","","","","","","","","","","","","","","",""
"","","","","","image-keyboard-response","54","626816","0.0-29.0","56849d528f456f000c45e1dd","665500ab8938657b03fbdba8","66579237e19bba6ec61fe1c4","1929","stimuli/2111111.jpg","2","","prediction_trial","2","","true","","2","false","false","false","false","false","false","[2,0,1]","111","111","1","","","","","","",""
"","","","","","image-keyboard-response","55","627746","0.0-30.0","56849d528f456f000c45e1dd","665500ab8938657b03fbdba8","66579237e19bba6ec61fe1c4","924","stimuli/21111112.jpg"," ","","feedback_trial","2","","","","","","","","","","","","","","","","","","","","",""
"","","","","","image-keyboard-response","56","628825","0.0-31.0","56849d528f456f000c45e1dd","665500ab8938657b03fbdba8","66579237e19bba6ec61fe1c4","1072","stimuli/0010001.jpg","0","","prediction_trial","0","","true","","0","true","true","true","true","true","true","[0]","010","001","1","","","","","","",""
"","","","","","image-keyboard-response","57","629591","0.0-32.0","56849d528f456f000c45e1dd","665500ab8938657b03fbdba8","66579237e19bba6ec61fe1c4","760","stimuli/00100010.jpg"," ","","feedback_trial","0","","","","","","","","","","","","","","","","","","","","",""
"","","","","","image-keyboard-response","58","630370","0.0-33.0","56849d528f456f000c45e1dd","665500ab8938657b03fbdba8","66579237e19bba6ec61fe1c4","770","stimuli/0100011.jpg","0","","prediction_trial","0","","true","","0","true","true","false","true","false","true","[0]","100","011","1","","","","","","",""
"","","","","","image-keyboard-response","59","631075","0.0-34.0","56849d528f456f000c45e1dd","665500ab8938657b03fbdba8","66579237e19bba6ec61fe1c4","699","stimuli/01000110.jpg"," ","","feedback_trial","0","","","","","","","","","","","","","","","","","","","","",""
"","","","","","image-keyboard-response","60","631930","0.0-35.0","56849d528f456f000c45e1dd","665500ab8938657b03fbdba8","66579237e19bba6ec61fe1c4","849","stimuli/2110111.jpg","1","","prediction_trial","2","","false","","2","false","false","true","true","false","false","[2]","110","111","0","","","","","","",""
"","","","","","image-keyboard-response","61","633525","0.0-36.0","56849d528f456f000c45e1dd","665500ab8938657b03fbdba8","66579237e19bba6ec61fe1c4","1586","stimuli/21101112.jpg"," ","","feedback_trial","2","","","","","","","","","","","","","","","","","","","","",""
"","","","","","image-keyboard-response","62","634358","0.0-37.0","56849d528f456f000c45e1dd","665500ab8938657b03fbdba8","66579237e19bba6ec61fe1c4","825","stimuli/0011111.jpg","0","","prediction_trial","0","","true","","0","false","false","true","true","false","false","[0]","011","111","1","","","","","","",""
"","","","","","image-keyboard-response","63","635216","0.0-38.0","56849d528f456f000c45e1dd","665500ab8938657b03fbdba8","66579237e19bba6ec61fe1c4","853","stimuli/00111110.jpg"," ","","feedback_trial","0","","","","","","","","","","","","","","","","","","","","",""
"","","","","","image-keyboard-response","64","636731","0.0-39.0","56849d528f456f000c45e1dd","665500ab8938657b03fbdba8","66579237e19bba6ec61fe1c4","1508","stimuli/1000101.jpg","1","","prediction_trial","1","","true","","1","true","true","true","true","true","true","[1]","000","101","1","","","","","","",""
"","","","","","image-keyboard-response","65","637436","0.0-40.0","56849d528f456f000c45e1dd","665500ab8938657b03fbdba8","66579237e19bba6ec61fe1c4","699","stimuli/10001011.jpg"," ","","feedback_trial","1","","","","","","","","","","","","","","","","","","","","",""
"","","","","","image-keyboard-response","66","638561","0.0-41.0","56849d528f456f000c45e1dd","665500ab8938657b03fbdba8","66579237e19bba6ec61fe1c4","1117","stimuli/0101100.jpg","0","","prediction_trial","0","","true","","0","false","true","false","false","false","false","[2,0]","101","100","1","","","","","","",""
"","","","","","image-keyboard-response","67","639597","0.0-42.0","56849d528f456f000c45e1dd","665500ab8938657b03fbdba8","66579237e19bba6ec61fe1c4","1026","stimuli/01011000.jpg"," ","","feedback_trial","2","","","","","","","","","","","","","","","","","","","","",""
"","","","","","image-keyboard-response","68","640660","0.0-43.0","56849d528f456f000c45e1dd","665500ab8938657b03fbdba8","66579237e19bba6ec61fe1c4","1056","stimuli/2000001.jpg","2","","prediction_trial","2","","true","","2","false","true","true","true","false","true","[2]","000","001","1","","","","","","",""
"","","","","","image-keyboard-response","69","641819","0.0-44.0","56849d528f456f000c45e1dd","665500ab8938657b03fbdba8","66579237e19bba6ec61fe1c4","1152","stimuli/20000012.jpg"," ","","feedback_trial","2","","","","","","","","","","","","","","","","","","","","",""
"","","","","","image-keyboard-response","70","642640","0.0-45.0","56849d528f456f000c45e1dd","665500ab8938657b03fbdba8","66579237e19bba6ec61fe1c4","815","stimuli/1111000.jpg","1","","prediction_trial","0","","false","","1","true","true","false","false","false","false","[1,0,2]","111","000","0","","","","","","",""
"","","","","","image-keyboard-response","71","646330","0.0-46.0","56849d528f456f000c45e1dd","665500ab8938657b03fbdba8","66579237e19bba6ec61fe1c4","3680","stimuli/11110000.jpg"," ","","feedback_trial","1","","","","","","","","","","","","","","","","","","","","",""
"","","","","","image-keyboard-response","72","647231","0.0-47.0","56849d528f456f000c45e1dd","665500ab8938657b03fbdba8","66579237e19bba6ec61fe1c4","892","stimuli/2100000.jpg","2","","prediction_trial","2","","true","","2","true","true","true","true","true","true","[2]","100","000","1","","","","","","",""
"","","","","","image-keyboard-response","73","647935","0.0-48.0","56849d528f456f000c45e1dd","665500ab8938657b03fbdba8","66579237e19bba6ec61fe1c4","698","stimuli/21000002.jpg"," ","","feedback_trial","2","","","","","","","","","","","","","","","","","","","","",""
"","","","","","image-keyboard-response","74","648701","0.0-49.0","56849d528f456f000c45e1dd","665500ab8938657b03fbdba8","66579237e19bba6ec61fe1c4","759","stimuli/2010100.jpg","2","","prediction_trial","2","","true","","2","true","true","true","true","true","true","[2]","010","100","1","","","","","","",""
"","","","","","image-keyboard-response","75","649332","0.0-50.0","56849d528f456f000c45e1dd","665500ab8938657b03fbdba8","66579237e19bba6ec61fe1c4","624","stimuli/20101002.jpg"," ","","feedback_trial","2","","","","","","","","","","","","","","","","","","","","",""
"","","","","","image-keyboard-response","76","650334","0.0-51.0","56849d528f456f000c45e1dd","665500ab8938657b03fbdba8","66579237e19bba6ec61fe1c4","996","stimuli/0111011.jpg","0","","prediction_trial","0","","true","","0","true","true","false","false","false","false","[2,1,0]","111","011","1","","","","","","",""
"","","","","","image-keyboard-response","77","651147","0.0-52.0","56849d528f456f000c45e1dd","665500ab8938657b03fbdba8","66579237e19bba6ec61fe1c4","807","stimuli/01110110.jpg"," ","","feedback_trial","2","","","","","","","","","","","","","","","","","","","","",""
"","","","","","image-keyboard-response","78","652317","0.0-53.0","56849d528f456f000c45e1dd","665500ab8938657b03fbdba8","66579237e19bba6ec61fe1c4","1163","stimuli/0100100.jpg","0","","prediction_trial","0","","true","","0","false","true","false","true","false","true","[0]","100","100","1","","","","","","",""
"","","","","","image-keyboard-response","79","653212","0.0-54.0","56849d528f456f000c45e1dd","665500ab8938657b03fbdba8","66579237e19bba6ec61fe1c4","888","stimuli/01001000.jpg"," ","","feedback_trial","0","","","","","","","","","","","","","","","","","","","","",""
"","","","","","image-keyboard-response","80","655436","0.0-55.0","56849d528f456f000c45e1dd","665500ab8938657b03fbdba8","66579237e19bba6ec61fe1c4","2220","stimuli/2011111.jpg","1","","prediction_trial","2","","false","","2","false","false","false","false","false","false","[1,2]","011","111","0","","","","","","",""
"","","","","","image-keyboard-response","81","656906","0.0-56.0","56849d528f456f000c45e1dd","665500ab8938657b03fbdba8","66579237e19bba6ec61fe1c4","1462","stimuli/20111112.jpg"," ","","feedback_trial","1","","","","","","","","","","","","","","","","","","","","",""
"","","","","","image-keyboard-response","82","657777","0.0-57.0","56849d528f456f000c45e1dd","665500ab8938657b03fbdba8","66579237e19bba6ec61fe1c4","863","stimuli/1000100.jpg","1","","prediction_trial","1","","true","","1","true","true","true","true","true","true","[1]","000","100","1","","","","","","",""
"","","","","","image-keyboard-response","83","658482","0.0-58.0","56849d528f456f000c45e1dd","665500ab8938657b03fbdba8","66579237e19bba6ec61fe1c4","697","stimuli/10001001.jpg"," ","","feedback_trial","1","","","","","","","","","","","","","","","","","","","","",""
"","","","","","image-keyboard-response","84","659442","0.0-59.0","56849d528f456f000c45e1dd","665500ab8938657b03fbdba8","66579237e19bba6ec61fe1c4","953","stimuli/0011000.jpg","0","","prediction_trial","0","","true","","0","true","true","true","true","true","true","[0]","011","000","1","","","","","","",""
"","","","","","image-keyboard-response","85","660192","0.0-60.0","56849d528f456f000c45e1dd","665500ab8938657b03fbdba8","66579237e19bba6ec61fe1c4","745","stimuli/00110000.jpg"," ","","feedback_trial","0","","","","","","","","","","","","","","","","","","","","",""
"","","","","","image-keyboard-response","86","661004","0.0-61.0","56849d528f456f000c45e1dd","665500ab8938657b03fbdba8","66579237e19bba6ec61fe1c4","804","stimuli/2000000.jpg","2","","prediction_trial","2","","true","","2","true","true","true","true","true","true","[2]","000","000","1","","","","","","",""
"","","","","","image-keyboard-response","87","661827","0.0-62.0","56849d528f456f000c45e1dd","665500ab8938657b03fbdba8","66579237e19bba6ec61fe1c4","817","stimuli/20000002.jpg"," ","","feedback_trial","2","","","","","","","","","","","","","","","","","","","","",""
"","","","","","image-keyboard-response","88","662577","0.0-63.0","56849d528f456f000c45e1dd","665500ab8938657b03fbdba8","66579237e19bba6ec61fe1c4","744","stimuli/2100110.jpg","2","","prediction_trial","2","","true","","2","true","true","true","true","true","true","[2]","100","110","1","","","","","","",""
"","","","","","image-keyboard-response","89","663374","0.0-64.0","56849d528f456f000c45e1dd","665500ab8938657b03fbdba8","66579237e19bba6ec61fe1c4","791","stimuli/21001102.jpg"," ","","feedback_trial","2","","","","","","","","","","","","","","","","","","","","",""
"","","","","","image-keyboard-response","90","664197","0.0-65.0","56849d528f456f000c45e1dd","665500ab8938657b03fbdba8","66579237e19bba6ec61fe1c4","815","stimuli/1011011.jpg","1","","prediction_trial","2","","false","","1","false","false","false","false","false","false","[2,1]","011","011","0","","","","","","",""
"","","","","","image-keyboard-response","91","665023","0.0-66.0","56849d528f456f000c45e1dd","665500ab8938657b03fbdba8","66579237e19bba6ec61fe1c4","818","stimuli/10110112.jpg"," ","","feedback_trial","2","","","","","","","","","","","","","","","","","","","","",""
"","","","","","image-keyboard-response","92","665864","0.0-67.0","56849d528f456f000c45e1dd","665500ab8938657b03fbdba8","66579237e19bba6ec61fe1c4","833","stimuli/1111110.jpg","1","","prediction_trial","1","","true","","1","false","false","false","false","false","false","[0,2,1]","111","110","1","","","","","","",""
"","","","","","image-keyboard-response","93","666686","0.0-68.0","56849d528f456f000c45e1dd","665500ab8938657b03fbdba8","66579237e19bba6ec61fe1c4","814","stimuli/11111101.jpg"," ","","feedback_trial","0","","","","","","","","","","","","","","","","","","","","",""
"","","","","","image-keyboard-response","94","667346","0.0-69.0","56849d528f456f000c45e1dd","665500ab8938657b03fbdba8","66579237e19bba6ec61fe1c4","653","stimuli/2101010.jpg","2","","prediction_trial","0","","false","","2","true","true","false","false","false","false","[2,0]","101","010","0","","","","","","",""
"","","","","","image-keyboard-response","95","670615","0.0-70.0","56849d528f456f000c45e1dd","665500ab8938657b03fbdba8","66579237e19bba6ec61fe1c4","3263","stimuli/21010100.jpg"," ","","feedback_trial","2","","","","","","","","","","","","","","","","","","","","",""
"","","","","","image-keyboard-response","96","671292","0.0-71.0","56849d528f456f000c45e1dd","665500ab8938657b03fbdba8","66579237e19bba6ec61fe1c4","670","stimuli/2000100.jpg","2","","prediction_trial","2","","true","","2","true","true","true","true","true","true","[2]","000","100","1","","","","","","",""
"","","","","","image-keyboard-response","97","671952","0.0-72.0","56849d528f456f000c45e1dd","665500ab8938657b03fbdba8","66579237e19bba6ec61fe1c4","653","stimuli/20001002.jpg"," ","","feedback_trial","2","","","","","","","","","","","","","","","","","","","","",""
"","","","","","image-keyboard-response","98","674622","0.0-73.0","56849d528f456f000c45e1dd","665500ab8938657b03fbdba8","66579237e19bba6ec61fe1c4","2665","stimuli/1010111.jpg","2","","prediction_trial","1","","false","","1","false","false","false","true","false","false","[1]","010","111","0","","","","","","",""
"","","","","","image-keyboard-response","99","676887","0.0-74.0","56849d528f456f000c45e1dd","665500ab8938657b03fbdba8","66579237e19bba6ec61fe1c4","2258","stimuli/10101111.jpg"," ","","feedback_trial","1","","","","","","","","","","","","","","","","","","","","",""
"","","","","","image-keyboard-response","100","677652","0.0-75.0","56849d528f456f000c45e1dd","665500ab8938657b03fbdba8","66579237e19bba6ec61fe1c4","757","stimuli/1111010.jpg","1","","prediction_trial","0","","false","","1","false","true","false","false","false","false","[2,0,1]","111","010","0","","","","","","",""
"","","","","","image-keyboard-response","101","678448","0.0-76.0","56849d528f456f000c45e1dd","665500ab8938657b03fbdba8","66579237e19bba6ec61fe1c4","790","stimuli/11110100.jpg"," ","","feedback_trial","2","","","","","","","","","","","","","","","","","","","","",""
"","","","","","image-keyboard-response","102","679604","0.0-77.0","56849d528f456f000c45e1dd","665500ab8938657b03fbdba8","66579237e19bba6ec61fe1c4","1149","stimuli/0111000.jpg","0","","prediction_trial","0","","true","","0","true","true","false","false","false","false","[1,0,2]","111","000","1","","","","","","",""
"","","","","","image-keyboard-response","103","680261","0.0-78.0","56849d528f456f000c45e1dd","665500ab8938657b03fbdba8","66579237e19bba6ec61fe1c4","649","stimuli/01110000.jpg"," ","","feedback_trial","1","","","","","","","","","","","","","","","","","","","","",""
"","","","","","image-keyboard-response","104","680984","0.0-79.0","56849d528f456f000c45e1dd","665500ab8938657b03fbdba8","66579237e19bba6ec61fe1c4","717","stimuli/0101001.jpg","0","","prediction_trial","2","","false","","0","true","true","false","false","false","false","[0,2]","101","001","0","","","","","","",""
"","","","","","image-keyboard-response","105","683187","0.0-80.0","56849d528f456f000c45e1dd","665500ab8938657b03fbdba8","66579237e19bba6ec61fe1c4","2196","stimuli/01010012.jpg"," ","","feedback_trial","0","","","","","","","","","","","","","","","","","","","","",""
"","","","","","image-keyboard-response","106","684702","0.0-81.0","56849d528f456f000c45e1dd","665500ab8938657b03fbdba8","66579237e19bba6ec61fe1c4","1510","stimuli/2101111.jpg","1","","prediction_trial","2","","false","","2","false","false","false","false","false","false","[0,2]","101","111","0","","","","","","",""
"","","","","","image-keyboard-response","107","685515","0.0-82.0","56849d528f456f000c45e1dd","665500ab8938657b03fbdba8","66579237e19bba6ec61fe1c4","804","stimuli/21011112.jpg"," ","","feedback_trial","0","","","","","","","","","","","","","","","","","","","","",""
"","","","","","image-keyboard-response","108","686295","0.0-83.0","56849d528f456f000c45e1dd","665500ab8938657b03fbdba8","66579237e19bba6ec61fe1c4","772","stimuli/0110010.jpg","0","","prediction_trial","0","","true","","0","true","true","false","false","false","false","[0,1]","110","010","1","","","","","","",""
"","","","","","image-keyboard-response","109","686982","0.0-84.0","56849d528f456f000c45e1dd","665500ab8938657b03fbdba8","66579237e19bba6ec61fe1c4","682","stimuli/01100100.jpg"," ","","feedback_trial","0","","","","","","","","","","","","","","","","","","","","",""
"","","","","","image-keyboard-response","110","687897","0.0-85.0","56849d528f456f000c45e1dd","665500ab8938657b03fbdba8","66579237e19bba6ec61fe1c4","908","stimuli/1100101.jpg","1","","prediction_trial","1","","true","","1","true","true","true","true","true","true","[1]","100","101","1","","","","","","",""
"","","","","","image-keyboard-response","111","688556","0.0-86.0","56849d528f456f000c45e1dd","665500ab8938657b03fbdba8","66579237e19bba6ec61fe1c4","651","stimuli/11001011.jpg"," ","","feedback_trial","1","","","","","","","","","","","","","","","","","","","","",""
"","","","","","image-keyboard-response","112","689919","0.0-87.0","56849d528f456f000c45e1dd","665500ab8938657b03fbdba8","66579237e19bba6ec61fe1c4","1357","stimuli/2000101.jpg","2","","prediction_trial","2","","true","","2","false","false","true","true","false","false","[2]","000","101","1","","","","","","",""
"","","","","","image-keyboard-response","113","690733","0.0-88.0","56849d528f456f000c45e1dd","665500ab8938657b03fbdba8","66579237e19bba6ec61fe1c4","808","stimuli/20001012.jpg"," ","","feedback_trial","2","","","","","","","","","","","","","","","","","","","","",""
"","","","","","image-keyboard-response","114","691645","0.0-89.0","56849d528f456f000c45e1dd","665500ab8938657b03fbdba8","66579237e19bba6ec61fe1c4","906","stimuli/1010001.jpg","1","","prediction_trial","1","","true","","1","true","true","false","true","false","true","[1]","010","001","1","","","","","","",""
"","","","","","image-keyboard-response","115","692338","0.0-90.0","56849d528f456f000c45e1dd","665500ab8938657b03fbdba8","66579237e19bba6ec61fe1c4","685","stimuli/10100011.jpg"," ","","feedback_trial","1","","","","","","","","","","","","","","","","","","","","",""
"","","","","","image-keyboard-response","116","693264","0.0-91.0","56849d528f456f000c45e1dd","665500ab8938657b03fbdba8","66579237e19bba6ec61fe1c4","919","stimuli/1101100.jpg","1","","prediction_trial","1","","true","","1","true","true","true","true","true","true","[1]","101","100","1","","","","","","",""
"","","","","","image-keyboard-response","117","693853","0.0-92.0","56849d528f456f000c45e1dd","665500ab8938657b03fbdba8","66579237e19bba6ec61fe1c4","584","stimuli/11011001.jpg"," ","","feedback_trial","1","","","","","","","","","","","","","","","","","","","","",""
"","","","","","image-keyboard-response","118","694688","0.0-93.0","56849d528f456f000c45e1dd","665500ab8938657b03fbdba8","66579237e19bba6ec61fe1c4","830","stimuli/2011000.jpg","2","","prediction_trial","2","","true","","2","true","true","false","false","false","false","[1,2]","011","000","1","","","","","","",""
"","","","","","image-keyboard-response","119","695291","0.0-94.0","56849d528f456f000c45e1dd","665500ab8938657b03fbdba8","66579237e19bba6ec61fe1c4","599","stimuli/20110002.jpg"," ","","feedback_trial","1","","","","","","","","","","","","","","","","","","","","",""
"","","","","","image-keyboard-response","120","696142","0.0-95.0","56849d528f456f000c45e1dd","665500ab8938657b03fbdba8","66579237e19bba6ec61fe1c4","846","stimuli/0100000.jpg","0","","prediction_trial","0","","true","","0","true","true","false","true","false","true","[0]","100","000","1","","","","","","",""
"","","","","","image-keyboard-response","121","696821","0.0-96.0","56849d528f456f000c45e1dd","665500ab8938657b03fbdba8","66579237e19bba6ec61fe1c4","675","stimuli/01000000.jpg"," ","","feedback_trial","0","","","","","","","","","","","","","","","","","","","","",""
"","","","","","image-keyboard-response","122","697616","0.0-97.0","56849d528f456f000c45e1dd","665500ab8938657b03fbdba8","66579237e19bba6ec61fe1c4","789","stimuli/0101111.jpg","1","","prediction_trial","0","","false","","0","false","false","false","false","false","false","[2,0]","101","111","0","","","","","","",""
"","","","","","image-keyboard-response","123","698488","0.0-98.0","56849d528f456f000c45e1dd","665500ab8938657b03fbdba8","66579237e19bba6ec61fe1c4","866","stimuli/01011110.jpg"," ","","feedback_trial","2","","","","","","","","","","","","","","","","","","","","",""
"","","","","","image-keyboard-response","124","699311","0.0-99.0","56849d528f456f000c45e1dd","665500ab8938657b03fbdba8","66579237e19bba6ec61fe1c4","817","stimuli/1110001.jpg","1","","prediction_trial","0","","false","","1","true","true","false","false","false","false","[1,0]","110","001","0","","","","","","",""
"","","","","","image-keyboard-response","125","702012","0.0-100.0","56849d528f456f000c45e1dd","665500ab8938657b03fbdba8","66579237e19bba6ec61fe1c4","2695","stimuli/11100010.jpg"," ","","feedback_trial","1","","","","","","","","","","","","","","","","","","","","",""
"","","","","","image-keyboard-response","126","704562","0.0-101.0","56849d528f456f000c45e1dd","665500ab8938657b03fbdba8","66579237e19bba6ec61fe1c4","2544","stimuli/1110101.jpg","1","","prediction_trial","0","","false","","1","true","true","false","false","false","false","[1,0]","110","101","0","","","","","","",""
"","","","","","image-keyboard-response","127","705553","0.0-102.0","56849d528f456f000c45e1dd","665500ab8938657b03fbdba8","66579237e19bba6ec61fe1c4","984","stimuli/11101010.jpg"," ","","feedback_trial","1","","","","","","","","","","","","","","","","","","","","",""
"","","","","","image-keyboard-response","128","706752","0.0-103.0","56849d528f456f000c45e1dd","665500ab8938657b03fbdba8","66579237e19bba6ec61fe1c4","1193","stimuli/1111011.jpg","2","","prediction_trial","0","","false","","1","false","false","false","false","false","false","[0,1,2]","111","011","0","","","","","","",""
"","","","","","image-keyboard-response","129","707878","0.0-104.0","56849d528f456f000c45e1dd","665500ab8938657b03fbdba8","66579237e19bba6ec61fe1c4","1118","stimuli/11110110.jpg"," ","","feedback_trial","0","","","","","","","","","","","","","","","","","","","","",""
"","","","","","image-keyboard-response","130","708884","0.0-105.0","56849d528f456f000c45e1dd","665500ab8938657b03fbdba8","66579237e19bba6ec61fe1c4","998","stimuli/0011011.jpg","0","","prediction_trial","0","","true","","0","true","true","true","true","true","true","[0]","011","011","1","","","","","","",""
"","","","","","image-keyboard-response","131","709524","0.0-106.0","56849d528f456f000c45e1dd","665500ab8938657b03fbdba8","66579237e19bba6ec61fe1c4","635","stimuli/00110110.jpg"," ","","feedback_trial","0","","","","","","","","","","","","","","","","","","","","",""
"","","","","","image-keyboard-response","132","710546","0.0-107.0","56849d528f456f000c45e1dd","665500ab8938657b03fbdba8","66579237e19bba6ec61fe1c4","1016","stimuli/1110110.jpg","1","","prediction_trial","0","","false","","1","false","false","false","false","false","false","[0,1]","110","110","0","","","","","","",""
"","","","","","image-keyboard-response","133","711295","0.0-108.0","56849d528f456f000c45e1dd","665500ab8938657b03fbdba8","66579237e19bba6ec61fe1c4","744","stimuli/11101100.jpg"," ","","feedback_trial","0","","","","","","","","","","","","","","","","","","","","",""
"","","","","","image-keyboard-response","134","712452","0.0-109.0","56849d528f456f000c45e1dd","665500ab8938657b03fbdba8","66579237e19bba6ec61fe1c4","1152","stimuli/0010110.jpg","2","","prediction_trial","0","","false","","0","false","false","true","true","false","false","[0]","010","110","0","","","","","","",""
"","","","","","image-keyboard-response","135","713203","0.0-110.0","56849d528f456f000c45e1dd","665500ab8938657b03fbdba8","66579237e19bba6ec61fe1c4","742","stimuli/00101100.jpg"," ","","feedback_trial","0","","","","","","","","","","","","","","","","","","","","",""
"","","","","","image-keyboard-response","136","714327","0.0-111.0","56849d528f456f000c45e1dd","665500ab8938657b03fbdba8","66579237e19bba6ec61fe1c4","1119","stimuli/1000111.jpg","1","","prediction_trial","1","","true","","1","false","false","true","true","false","false","[1]","000","111","1","","","","","","",""
"","","","","","image-keyboard-response","137","715138","0.0-112.0","56849d528f456f000c45e1dd","665500ab8938657b03fbdba8","66579237e19bba6ec61fe1c4","797","stimuli/10001111.jpg"," ","","feedback_trial","1","","","","","","","","","","","","","","","","","","","","",""
"","","","","","image-keyboard-response","138","715814","0.0-113.0","56849d528f456f000c45e1dd","665500ab8938657b03fbdba8","66579237e19bba6ec61fe1c4","669","stimuli/1000110.jpg","1","","prediction_trial","1","","true","","1","false","false","true","true","false","false","[1]","000","110","1","","","","","","",""
"","","","","","image-keyboard-response","139","716442","0.0-114.0","56849d528f456f000c45e1dd","665500ab8938657b03fbdba8","66579237e19bba6ec61fe1c4","623","stimuli/10001101.jpg"," ","","feedback_trial","1","","","","","","","","","","","","","","","","","","","","",""
"","","","","","image-keyboard-response","140","718078","0.0-115.0","56849d528f456f000c45e1dd","665500ab8938657b03fbdba8","66579237e19bba6ec61fe1c4","1629","stimuli/0101101.jpg","2","","prediction_trial","0","","false","","0","false","false","false","false","false","false","[0,2]","101","101","0","","","","","","",""
"","","","","","image-keyboard-response","141","718827","0.0-116.0","56849d528f456f000c45e1dd","665500ab8938657b03fbdba8","66579237e19bba6ec61fe1c4","743","stimuli/01011010.jpg"," ","","feedback_trial","0","","","","","","","","","","","","","","","","","","","","",""
"","","","","","image-keyboard-response","142","719772","0.0-117.0","56849d528f456f000c45e1dd","665500ab8938657b03fbdba8","66579237e19bba6ec61fe1c4","938","stimuli/0010011.jpg","0","","prediction_trial","0","","true","","0","true","true","true","true","true","true","[0]","010","011","1","","","","","","",""
"","","","","","image-keyboard-response","143","720403","0.0-118.0","56849d528f456f000c45e1dd","665500ab8938657b03fbdba8","66579237e19bba6ec61fe1c4","624","stimuli/00100110.jpg"," ","","feedback_trial","0","","","","","","","","","","","","","","","","","","","","",""
"","","","","","image-keyboard-response","144","722414","0.0-119.0","56849d528f456f000c45e1dd","665500ab8938657b03fbdba8","66579237e19bba6ec61fe1c4","2004","stimuli/1001011.jpg","1","","prediction_trial","1","","true","","1","false","false","true","true","false","false","[1]","001","011","1","","","","","","",""
"","","","","","image-keyboard-response","145","723120","0.0-120.0","56849d528f456f000c45e1dd","665500ab8938657b03fbdba8","66579237e19bba6ec61fe1c4","699","stimuli/10010111.jpg"," ","","feedback_trial","1","","","","","","","","","","","","","","","","","","","","",""
"","","","","","image-keyboard-response","146","725637","0.0-121.0","56849d528f456f000c45e1dd","665500ab8938657b03fbdba8","66579237e19bba6ec61fe1c4","2510","stimuli/0011101.jpg","2","","prediction_trial","0","","false","","0","false","false","true","true","false","false","[0]","011","101","0","","","","","","",""
"","","","","","image-keyboard-response","147","727257","0.0-122.0","56849d528f456f000c45e1dd","665500ab8938657b03fbdba8","66579237e19bba6ec61fe1c4","1614","stimuli/00111010.jpg"," ","","feedback_trial","0","","","","","","","","","","","","","","","","","","","","",""
"","","","","","image-keyboard-response","148","728864","0.0-123.0","56849d528f456f000c45e1dd","665500ab8938657b03fbdba8","66579237e19bba6ec61fe1c4","1600","stimuli/2010011.jpg","1","","prediction_trial","2","","false","","2","false","false","true","true","false","false","[2]","010","011","0","","","","","","",""
"","","","","","image-keyboard-response","149","729507","0.0-124.0","56849d528f456f000c45e1dd","665500ab8938657b03fbdba8","66579237e19bba6ec61fe1c4","636","stimuli/20100112.jpg"," ","","feedback_trial","2","","","","","","","","","","","","","","","","","","","","",""
"","","","","","image-keyboard-response","150","730244","0.0-125.0","56849d528f456f000c45e1dd","665500ab8938657b03fbdba8","66579237e19bba6ec61fe1c4","731","stimuli/1100000.jpg","1","","prediction_trial","1","","true","","1","true","true","true","true","true","true","[1]","100","000","1","","","","","","",""
"","","","","","image-keyboard-response","151","730723","0.0-126.0","56849d528f456f000c45e1dd","665500ab8938657b03fbdba8","66579237e19bba6ec61fe1c4","472","stimuli/11000001.jpg"," ","","feedback_trial","1","","","","","","","","","","","","","","","","","","","","",""
"","","","","","image-keyboard-response","152","731714","0.0-127.0","56849d528f456f000c45e1dd","665500ab8938657b03fbdba8","66579237e19bba6ec61fe1c4","986","stimuli/0111101.jpg","2","","prediction_trial","0","","false","","0","false","false","false","false","false","false","[0,2,1]","111","101","0","","","","","","",""
"","","","","","image-keyboard-response","153","732358","0.0-128.0","56849d528f456f000c45e1dd","665500ab8938657b03fbdba8","66579237e19bba6ec61fe1c4","637","stimuli/01111010.jpg"," ","","feedback_trial","0","","","","","","","","","","","","","","","","","","","","",""
"","","","","","image-keyboard-response","154","733333","0.0-129.0","56849d528f456f000c45e1dd","665500ab8938657b03fbdba8","66579237e19bba6ec61fe1c4","969","stimuli/0000100.jpg","0","","prediction_trial","0","","true","","0","false","true","true","true","false","true","[0]","000","100","1","","","","","","",""
"","","","","","image-keyboard-response","155","734069","0.0-130.0","56849d528f456f000c45e1dd","665500ab8938657b03fbdba8","66579237e19bba6ec61fe1c4","729","stimuli/00001000.jpg"," ","","feedback_trial","0","","","","","","","","","","","","","","","","","","","","",""
"","","","","","image-keyboard-response","156","735554","0.0-131.0","56849d528f456f000c45e1dd","665500ab8938657b03fbdba8","66579237e19bba6ec61fe1c4","1478","stimuli/1100110.jpg","1","","prediction_trial","1","","true","","1","false","false","true","true","false","false","[1]","100","110","1","","","","","","",""
"","","","","","image-keyboard-response","157","736243","0.0-132.0","56849d528f456f000c45e1dd","665500ab8938657b03fbdba8","66579237e19bba6ec61fe1c4","683","stimuli/11001101.jpg"," ","","feedback_trial","1","","","","","","","","","","","","","","","","","","","","",""
"","","","","","image-keyboard-response","158","737113","0.0-133.0","56849d528f456f000c45e1dd","665500ab8938657b03fbdba8","66579237e19bba6ec61fe1c4","864","stimuli/2101000.jpg","2","","prediction_trial","2","","true","","2","true","true","false","false","false","false","[2,0]","101","000","1","","","","","","",""
"","","","","","image-keyboard-response","159","737577","0.0-134.0","56849d528f456f000c45e1dd","665500ab8938657b03fbdba8","66579237e19bba6ec61fe1c4","457","stimuli/21010002.jpg"," ","","feedback_trial","2","","","","","","","","","","","","","","","","","","","","",""
"","","","","","image-keyboard-response","160","738359","0.0-135.0","56849d528f456f000c45e1dd","665500ab8938657b03fbdba8","66579237e19bba6ec61fe1c4","773","stimuli/2000010.jpg","2","","prediction_trial","2","","true","","2","true","true","true","true","true","true","[2]","000","010","1","","","","","","",""
"","","","","","image-keyboard-response","161","738796","0.0-136.0","56849d528f456f000c45e1dd","665500ab8938657b03fbdba8","66579237e19bba6ec61fe1c4","429","stimuli/20000102.jpg"," ","","feedback_trial","2","","","","","","","","","","","","","","","","","","","","",""
"","","","","","image-keyboard-response","162","739588","0.0-137.0","56849d528f456f000c45e1dd","665500ab8938657b03fbdba8","66579237e19bba6ec61fe1c4","785","stimuli/1001100.jpg","1","","prediction_trial","1","","true","","1","true","true","true","true","true","true","[1]","001","100","1","","","","","","",""
"","","","","","image-keyboard-response","163","739978","0.0-138.0","56849d528f456f000c45e1dd","665500ab8938657b03fbdba8","66579237e19bba6ec61fe1c4","384","stimuli/10011001.jpg"," ","","feedback_trial","1","","","","","","","","","","","","","","","","","","","","",""
"","","","","","image-keyboard-response","164","740937","0.0-139.0","56849d528f456f000c45e1dd","665500ab8938657b03fbdba8","66579237e19bba6ec61fe1c4","952","stimuli/1110011.jpg","2","","prediction_trial","0","","false","","1","false","false","false","false","false","false","[1,0]","110","011","0","","","","","","",""
"","","","","","image-keyboard-response","165","741689","0.0-140.0","56849d528f456f000c45e1dd","665500ab8938657b03fbdba8","66579237e19bba6ec61fe1c4","745","stimuli/11100110.jpg"," ","","feedback_trial","1","","","","","","","","","","","","","","","","","","","","",""
"","","","","","image-keyboard-response","166","742649","0.0-141.0","56849d528f456f000c45e1dd","665500ab8938657b03fbdba8","66579237e19bba6ec61fe1c4","954","stimuli/0110111.jpg","1","","prediction_trial","1","","true","","0","false","false","false","false","false","false","[1,0]","110","111","1","","","","","","",""
"","","","","","image-keyboard-response","167","743353","0.0-142.0","56849d528f456f000c45e1dd","665500ab8938657b03fbdba8","66579237e19bba6ec61fe1c4","698","stimuli/01101111.jpg"," ","","feedback_trial","1","","","","","","","","","","","","","","","","","","","","",""
"","","","","","image-keyboard-response","168","745258","0.0-143.0","56849d528f456f000c45e1dd","665500ab8938657b03fbdba8","66579237e19bba6ec61fe1c4","1898","stimuli/2100111.jpg","2","","prediction_trial","2","","true","","2","false","false","true","true","false","false","[2]","100","111","1","","","","","","",""
"","","","","","image-keyboard-response","169","746081","0.0-144.0","56849d528f456f000c45e1dd","665500ab8938657b03fbdba8","66579237e19bba6ec61fe1c4","815","stimuli/21001112.jpg"," ","","feedback_trial","2","","","","","","","","","","","","","","","","","","","","",""
"","","","","","image-keyboard-response","170","746969","0.0-145.0","56849d528f456f000c45e1dd","665500ab8938657b03fbdba8","66579237e19bba6ec61fe1c4","883","stimuli/2100011.jpg","1","","prediction_trial","2","","false","","2","false","false","true","true","false","false","[2]","100","011","0","","","","","","",""
"","","","","","image-keyboard-response","171","748154","0.0-146.0","56849d528f456f000c45e1dd","665500ab8938657b03fbdba8","66579237e19bba6ec61fe1c4","1177","stimuli/21000112.jpg"," ","","feedback_trial","2","","","","","","","","","","","","","","","","","","","","",""
"","","","","","image-keyboard-response","172","748843","0.0-147.0","56849d528f456f000c45e1dd","665500ab8938657b03fbdba8","66579237e19bba6ec61fe1c4","680","stimuli/1011111.jpg","1","","prediction_trial","1","","true","","1","false","false","false","false","false","false","[1,2]","011","111","1","","","","","","",""
"","","","","","image-keyboard-response","173","749564","0.0-148.0","56849d528f456f000c45e1dd","665500ab8938657b03fbdba8","66579237e19bba6ec61fe1c4","715","stimuli/10111111.jpg"," ","","feedback_trial","1","","","","","","","","","","","","","","","","","","","","",""
"","","","","","image-keyboard-response","174","750284","0.0-149.0","56849d528f456f000c45e1dd","665500ab8938657b03fbdba8","66579237e19bba6ec61fe1c4","712","stimuli/2011110.jpg","2","","prediction_trial","2","","true","","2","true","true","false","false","false","false","[2,1]","011","110","1","","","","","","",""
"","","","","","image-keyboard-response","175","750868","0.0-150.0","56849d528f456f000c45e1dd","665500ab8938657b03fbdba8","66579237e19bba6ec61fe1c4","578","stimuli/20111102.jpg"," ","","feedback_trial","2","","","","","","","","","","","","","","","","","","","","",""
"","","","","","image-keyboard-response","176","751784","0.0-151.0","56849d528f456f000c45e1dd","665500ab8938657b03fbdba8","66579237e19bba6ec61fe1c4","910","stimuli/2101011.jpg","1","","prediction_trial","0","","false","","2","false","false","false","false","false","false","[0,2]","101","011","0","","","","","","",""
"","","","","","image-keyboard-response","177","752504","0.0-152.0","56849d528f456f000c45e1dd","665500ab8938657b03fbdba8","66579237e19bba6ec61fe1c4","713","stimuli/21010110.jpg"," ","","feedback_trial","0","","","","","","","","","","","","","","","","","","","","",""
"","","","","","image-keyboard-response","178","753239","0.0-153.0","56849d528f456f000c45e1dd","665500ab8938657b03fbdba8","66579237e19bba6ec61fe1c4","729","stimuli/1101110.jpg","1","","prediction_trial","1","","true","","1","false","false","true","true","false","false","[1]","101","110","1","","","","","","",""
"","","","","","image-keyboard-response","179","753987","0.0-154.0","56849d528f456f000c45e1dd","665500ab8938657b03fbdba8","66579237e19bba6ec61fe1c4","742","stimuli/11011101.jpg"," ","","feedback_trial","1","","","","","","","","","","","","","","","","","","","","",""
"","","","","","image-keyboard-response","180","754814","0.0-155.0","56849d528f456f000c45e1dd","665500ab8938657b03fbdba8","66579237e19bba6ec61fe1c4","820","stimuli/1001110.jpg","1","","prediction_trial","1","","true","","1","false","false","true","true","false","false","[1]","001","110","1","","","","","","",""
"","","","","","image-keyboard-response","181","755563","0.0-156.0","56849d528f456f000c45e1dd","665500ab8938657b03fbdba8","66579237e19bba6ec61fe1c4","733","stimuli/10011101.jpg"," ","","feedback_trial","1","","","","","","","","","","","","","","","","","","","","",""
"","","","","","image-keyboard-response","182","756628","0.0-157.0","56849d528f456f000c45e1dd","665500ab8938657b03fbdba8","66579237e19bba6ec61fe1c4","1057","stimuli/0010101.jpg","2","","prediction_trial","0","","false","","0","false","false","true","true","false","false","[0]","010","101","0","","","","","","",""
"","","","","","image-keyboard-response","183","757619","0.0-158.0","56849d528f456f000c45e1dd","665500ab8938657b03fbdba8","66579237e19bba6ec61fe1c4","982","stimuli/00101010.jpg"," ","","feedback_trial","0","","","","","","","","","","","","","","","","","","","","",""
"","","","","","image-keyboard-response","184","758640","0.0-159.0","56849d528f456f000c45e1dd","665500ab8938657b03fbdba8","66579237e19bba6ec61fe1c4","1013","stimuli/0001010.jpg","0","","prediction_trial","0","","true","","0","true","true","true","true","true","true","[0]","001","010","1","","","","","","",""
"","","","","","image-keyboard-response","185","759299","0.0-160.0","56849d528f456f000c45e1dd","665500ab8938657b03fbdba8","66579237e19bba6ec61fe1c4","652","stimuli/00010100.jpg"," ","","feedback_trial","0","","","","","","","","","","","","","","","","","","","","",""
"","","","","","image-keyboard-response","186","760306","0.0-161.0","56849d528f456f000c45e1dd","665500ab8938657b03fbdba8","66579237e19bba6ec61fe1c4","1002","stimuli/0101110.jpg","1","","prediction_trial","2","","false","","0","false","false","false","false","false","false","[2,0]","101","110","0","","","","","","",""
"","","","","","image-keyboard-response","187","761021","0.0-162.0","56849d528f456f000c45e1dd","665500ab8938657b03fbdba8","66579237e19bba6ec61fe1c4","707","stimuli/01011102.jpg"," ","","feedback_trial","2","","","","","","","","","","","","","","","","","","","","",""
"","","","","","image-keyboard-response","188","761519","0.0-163.0","56849d528f456f000c45e1dd","665500ab8938657b03fbdba8","66579237e19bba6ec61fe1c4","494","stimuli/1001101.jpg","1","","prediction_trial","1","","true","","1","true","true","true","true","true","true","[1]","001","101","1","","","","","","",""
"","","","","","image-keyboard-response","189","762165","0.0-164.0","56849d528f456f000c45e1dd","665500ab8938657b03fbdba8","66579237e19bba6ec61fe1c4","639","stimuli/10011011.jpg"," ","","feedback_trial","1","","","","","","","","","","","","","","","","","","","","",""
"","","","","","image-keyboard-response","190","762823","0.0-165.0","56849d528f456f000c45e1dd","665500ab8938657b03fbdba8","66579237e19bba6ec61fe1c4","651","stimuli/2100010.jpg","2","","prediction_trial","2","","true","","2","true","true","true","true","true","true","[2]","100","010","1","","","","","","",""
"","","","","","image-keyboard-response","191","763425","0.0-166.0","56849d528f456f000c45e1dd","665500ab8938657b03fbdba8","66579237e19bba6ec61fe1c4","593","stimuli/21000102.jpg"," ","","feedback_trial","2","","","","","","","","","","","","","","","","","","","","",""
"","","","","","image-keyboard-response","192","764368","0.0-167.0","56849d528f456f000c45e1dd","665500ab8938657b03fbdba8","66579237e19bba6ec61fe1c4","937","stimuli/0000110.jpg","1","","prediction_trial","0","","false","","0","false","false","true","true","false","false","[0]","000","110","0","","","","","","",""
"","","","","","image-keyboard-response","193","765133","0.0-168.0","56849d528f456f000c45e1dd","665500ab8938657b03fbdba8","66579237e19bba6ec61fe1c4","757","stimuli/00001100.jpg"," ","","feedback_trial","0","","","","","","","","","","","","","","","","","","","","",""
"","","","","","image-keyboard-response","194","765719","0.0-169.0","56849d528f456f000c45e1dd","665500ab8938657b03fbdba8","66579237e19bba6ec61fe1c4","580","stimuli/0110001.jpg","0","","prediction_trial","0","","true","","0","true","true","false","false","false","false","[1,0]","110","001","1","","","","","","",""
"","","","","","image-keyboard-response","195","766245","0.0-170.0","56849d528f456f000c45e1dd","665500ab8938657b03fbdba8","66579237e19bba6ec61fe1c4","518","stimuli/01100010.jpg"," ","","feedback_trial","1","","","","","","","","","","","","","","","","","","","","",""
"","","","","","image-keyboard-response","196","766874","0.0-171.0","56849d528f456f000c45e1dd","665500ab8938657b03fbdba8","66579237e19bba6ec61fe1c4","623","stimuli/2011011.jpg","1","","prediction_trial","2","","false","","2","false","false","false","false","false","false","[2,1]","011","011","0","","","","","","",""
"","","","","","image-keyboard-response","197","767444","0.0-172.0","56849d528f456f000c45e1dd","665500ab8938657b03fbdba8","66579237e19bba6ec61fe1c4","564","stimuli/20110112.jpg"," ","","feedback_trial","2","","","","","","","","","","","","","","","","","","","","",""
"","","","","","image-keyboard-response","198","768224","0.0-173.0","56849d528f456f000c45e1dd","665500ab8938657b03fbdba8","66579237e19bba6ec61fe1c4","774","stimuli/1100011.jpg","2","","prediction_trial","1","","false","","1","false","false","true","true","false","false","[1]","100","011","0","","","","","","",""
"","","","","","image-keyboard-response","199","768748","0.0-174.0","56849d528f456f000c45e1dd","665500ab8938657b03fbdba8","66579237e19bba6ec61fe1c4","518","stimuli/11000111.jpg"," ","","feedback_trial","1","","","","","","","","","","","","","","","","","","","","",""
"","","","","","image-keyboard-response","200","769439","0.0-175.0","56849d528f456f000c45e1dd","665500ab8938657b03fbdba8","66579237e19bba6ec61fe1c4","685","stimuli/1010000.jpg","1","","prediction_trial","1","","true","","1","true","true","false","true","false","true","[1]","010","000","1","","","","","","",""
"","","","","","image-keyboard-response","201","770054","0.0-176.0","56849d528f456f000c45e1dd","665500ab8938657b03fbdba8","66579237e19bba6ec61fe1c4","609","stimuli/10100001.jpg"," ","","feedback_trial","1","","","","","","","","","","","","","","","","","","","","",""
"","","","","","image-keyboard-response","202","770685","0.0-177.0","56849d528f456f000c45e1dd","665500ab8938657b03fbdba8","66579237e19bba6ec61fe1c4","624","stimuli/1111111.jpg","2","","prediction_trial","2","","true","","1","false","false","false","false","false","false","[0,2,1]","111","111","1","","","","","","",""
"","","","","","image-keyboard-response","203","771509","0.0-178.0","56849d528f456f000c45e1dd","665500ab8938657b03fbdba8","66579237e19bba6ec61fe1c4","816","stimuli/11111112.jpg"," ","","feedback_trial","0","","","","","","","","","","","","","","","","","","","","",""
"","","","","","image-keyboard-response","204","772200","0.0-179.0","56849d528f456f000c45e1dd","665500ab8938657b03fbdba8","66579237e19bba6ec61fe1c4","685","stimuli/2000110.jpg","2","","prediction_trial","2","","true","","2","true","true","true","true","true","true","[2]","000","110","1","","","","","","",""
"","","","","","image-keyboard-response","205","772649","0.0-180.0","56849d528f456f000c45e1dd","665500ab8938657b03fbdba8","66579237e19bba6ec61fe1c4","442","stimuli/20001102.jpg"," ","","feedback_trial","2","","","","","","","","","","","","","","","","","","","","",""
"","","","","","image-keyboard-response","206","773490","0.0-181.0","56849d528f456f000c45e1dd","665500ab8938657b03fbdba8","66579237e19bba6ec61fe1c4","833","stimuli/0111001.jpg","0","","prediction_trial","1","","false","","0","true","true","false","false","false","false","[0,2,1]","111","001","0","","","","","","",""
"","","","","","image-keyboard-response","207","774464","0.0-182.0","56849d528f456f000c45e1dd","665500ab8938657b03fbdba8","66579237e19bba6ec61fe1c4","968","stimuli/01110011.jpg"," ","","feedback_trial","0","","","","","","","","","","","","","","","","","","","","",""
"","","","","","image-keyboard-response","208","775259","0.0-183.0","56849d528f456f000c45e1dd","665500ab8938657b03fbdba8","66579237e19bba6ec61fe1c4","788","stimuli/1101001.jpg","1","","prediction_trial","1","","true","","1","true","true","true","true","true","true","[1]","101","001","1","","","","","","",""
"","","","","","image-keyboard-response","209","775710","0.0-184.0","56849d528f456f000c45e1dd","665500ab8938657b03fbdba8","66579237e19bba6ec61fe1c4","445","stimuli/11010011.jpg"," ","","feedback_trial","1","","","","","","","","","","","","","","","","","","","","",""
"","","","","","image-keyboard-response","210","776535","0.0-185.0","56849d528f456f000c45e1dd","665500ab8938657b03fbdba8","66579237e19bba6ec61fe1c4","818","stimuli/0001111.jpg","0","","prediction_trial","0","","true","","0","false","false","true","true","false","false","[0]","001","111","1","","","","","","",""
"","","","","","image-keyboard-response","211","777134","0.0-186.0","56849d528f456f000c45e1dd","665500ab8938657b03fbdba8","66579237e19bba6ec61fe1c4","594","stimuli/00011110.jpg"," ","","feedback_trial","0","","","","","","","","","","","","","","","","","","","","",""
"","","","","","image-keyboard-response","212","777733","0.0-187.0","56849d528f456f000c45e1dd","665500ab8938657b03fbdba8","66579237e19bba6ec61fe1c4","592","stimuli/2000011.jpg","1","","prediction_trial","2","","false","","2","false","false","true","true","false","false","[2]","000","011","0","","","","","","",""
"","","","","","image-keyboard-response","213","778319","0.0-188.0","56849d528f456f000c45e1dd","665500ab8938657b03fbdba8","66579237e19bba6ec61fe1c4","578","stimuli/20000112.jpg"," ","","feedback_trial","2","","","","","","","","","","","","","","","","","","","","",""
"","","","","","image-keyboard-response","214","778769","0.0-189.0","56849d528f456f000c45e1dd","665500ab8938657b03fbdba8","66579237e19bba6ec61fe1c4","444","stimuli/1010110.jpg","1","","prediction_trial","1","","true","","1","false","false","false","true","false","false","[1]","010","110","1","","","","","","",""
"","","","","","image-keyboard-response","215","779339","0.0-190.0","56849d528f456f000c45e1dd","665500ab8938657b03fbdba8","66579237e19bba6ec61fe1c4","563","stimuli/10101101.jpg"," ","","feedback_trial","1","","","","","","","","","","","","","","","","","","","","",""
"","","","","","image-keyboard-response","216","779924","0.0-191.0","56849d528f456f000c45e1dd","665500ab8938657b03fbdba8","66579237e19bba6ec61fe1c4","580","stimuli/1111100.jpg","1","","prediction_trial","0","","false","","1","true","true","false","false","false","false","[0,1,2]","111","100","0","","","","","","",""
"","","","","","image-keyboard-response","217","780720","0.0-192.0","56849d528f456f000c45e1dd","665500ab8938657b03fbdba8","66579237e19bba6ec61fe1c4","789","stimuli/11111000.jpg"," ","","feedback_trial","0","","","","","","","","","","","","","","","","","","","","",""
"","","","","","image-keyboard-response","218","781467","0.0-193.0","56849d528f456f000c45e1dd","665500ab8938657b03fbdba8","66579237e19bba6ec61fe1c4","741","stimuli/2010000.jpg","2","","prediction_trial","2","","true","","2","true","true","true","true","true","true","[2]","010","000","1","","","","","","",""
"","","","","","image-keyboard-response","219","781936","0.0-194.0","56849d528f456f000c45e1dd","665500ab8938657b03fbdba8","66579237e19bba6ec61fe1c4","464","stimuli/20100002.jpg"," ","","feedback_trial","2","","","","","","","","","","","","","","","","","","","","",""
"","","","","","image-keyboard-response","220","782655","0.0-195.0","56849d528f456f000c45e1dd","665500ab8938657b03fbdba8","66579237e19bba6ec61fe1c4","713","stimuli/1011010.jpg","1","","prediction_trial","1","","true","","1","false","true","false","false","false","false","[1,2]","011","010","1","","","","","","",""
"","","","","","image-keyboard-response","221","783226","0.0-196.0","56849d528f456f000c45e1dd","665500ab8938657b03fbdba8","66579237e19bba6ec61fe1c4","563","stimuli/10110101.jpg"," ","","feedback_trial","1","","","","","","","","","","","","","","","","","","","","",""
"","","","","","image-keyboard-response","222","784005","0.0-197.0","56849d528f456f000c45e1dd","665500ab8938657b03fbdba8","66579237e19bba6ec61fe1c4","773","stimuli/2100101.jpg","2","","prediction_trial","2","","true","","2","false","false","true","true","false","false","[2]","100","101","1","","","","","","",""
"","","","","","image-keyboard-response","223","784529","0.0-198.0","56849d528f456f000c45e1dd","665500ab8938657b03fbdba8","66579237e19bba6ec61fe1c4","518","stimuli/21001012.jpg"," ","","feedback_trial","2","","","","","","","","","","","","","","","","","","","","",""
"","","","","","image-keyboard-response","224","785249","0.0-199.0","56849d528f456f000c45e1dd","665500ab8938657b03fbdba8","66579237e19bba6ec61fe1c4","714","stimuli/1010100.jpg","1","","prediction_trial","1","","true","","1","true","true","false","true","false","true","[1]","010","100","1","","","","","","",""
"","","","","","image-keyboard-response","225","785666","0.0-200.0","56849d528f456f000c45e1dd","665500ab8938657b03fbdba8","66579237e19bba6ec61fe1c4","410","stimuli/10101001.jpg"," ","","feedback_trial","1","","","","","","","","","","","","","","","","","","","","",""
"","","","","","image-keyboard-response","226","786225","0.0-201.0","56849d528f456f000c45e1dd","665500ab8938657b03fbdba8","66579237e19bba6ec61fe1c4","554","stimuli/2001110.jpg","2","","prediction_trial","2","","true","","2","true","true","false","true","false","true","[2]","001","110","1","","","","","","",""
"","","","","","image-keyboard-response","227","786629","0.0-202.0","56849d528f456f000c45e1dd","665500ab8938657b03fbdba8","66579237e19bba6ec61fe1c4","398","stimuli/20011102.jpg"," ","","feedback_trial","2","","","","","","","","","","","","","","","","","","","","",""
"","","","","","image-keyboard-response","228","787455","0.0-203.0","56849d528f456f000c45e1dd","665500ab8938657b03fbdba8","66579237e19bba6ec61fe1c4","819","stimuli/2111000.jpg","2","","prediction_trial","2","","true","","2","true","true","false","false","false","false","[0,2,1]","111","000","1","","","","","","",""
"","","","","","image-keyboard-response","229","787842","0.0-204.0","56849d528f456f000c45e1dd","665500ab8938657b03fbdba8","66579237e19bba6ec61fe1c4","382","stimuli/21110002.jpg"," ","","feedback_trial","0","","","","","","","","","","","","","","","","","","","","",""
"","","","","","image-keyboard-response","230","789059","0.0-205.0","56849d528f456f000c45e1dd","665500ab8938657b03fbdba8","66579237e19bba6ec61fe1c4","1212","stimuli/2110100.jpg","2","","prediction_trial","2","","true","","2","true","true","true","true","true","true","[2]","110","100","1","","","","","","",""
"","","","","","image-keyboard-response","231","789584","0.0-206.0","56849d528f456f000c45e1dd","665500ab8938657b03fbdba8","66579237e19bba6ec61fe1c4","518","stimuli/21101002.jpg"," ","","feedback_trial","2","","","","","","","","","","","","","","","","","","","","",""
"","","","","","image-keyboard-response","232","790735","0.0-207.0","56849d528f456f000c45e1dd","665500ab8938657b03fbdba8","66579237e19bba6ec61fe1c4","1146","stimuli/0110100.jpg","0","","prediction_trial","1","","false","","0","false","true","false","false","false","false","[0,1]","110","100","0","","","","","","",""
"","","","","","image-keyboard-response","233","791490","0.0-208.0","56849d528f456f000c45e1dd","665500ab8938657b03fbdba8","66579237e19bba6ec61fe1c4","751","stimuli/01101001.jpg"," ","","feedback_trial","0","","","","","","","","","","","","","","","","","","","","",""
"","","","","","image-keyboard-response","234","792078","0.0-209.0","56849d528f456f000c45e1dd","665500ab8938657b03fbdba8","66579237e19bba6ec61fe1c4","581","stimuli/1101011.jpg","1","","prediction_trial","1","","true","","1","false","false","true","true","false","false","[1]","101","011","1","","","","","","",""
"","","","","","image-keyboard-response","235","792705","0.0-210.0","56849d528f456f000c45e1dd","665500ab8938657b03fbdba8","66579237e19bba6ec61fe1c4","620","stimuli/11010111.jpg"," ","","feedback_trial","1","","","","","","","","","","","","","","","","","","","","",""
"","","","","","image-keyboard-response","236","793619","0.0-211.0","56849d528f456f000c45e1dd","665500ab8938657b03fbdba8","66579237e19bba6ec61fe1c4","907","stimuli/0110011.jpg","0","","prediction_trial","0","","true","","0","true","true","false","false","false","false","[0,1]","110","011","1","","","","","","",""
"","","","","","image-keyboard-response","237","794115","0.0-212.0","56849d528f456f000c45e1dd","665500ab8938657b03fbdba8","66579237e19bba6ec61fe1c4","489","stimuli/01100110.jpg"," ","","feedback_trial","0","","","","","","","","","","","","","","","","","","","","",""
"","","","","","image-keyboard-response","238","794747","0.0-213.0","56849d528f456f000c45e1dd","665500ab8938657b03fbdba8","66579237e19bba6ec61fe1c4","626","stimuli/1010101.jpg","1","","prediction_trial","1","","true","","1","true","true","false","true","false","true","[1]","010","101","1","","","","","","",""
"","","","","","image-keyboard-response","239","795195","0.0-214.0","56849d528f456f000c45e1dd","665500ab8938657b03fbdba8","66579237e19bba6ec61fe1c4","441","stimuli/10101011.jpg"," ","","feedback_trial","1","","","","","","","","","","","","","","","","","","","","",""
"","","","","","image-keyboard-response","240","795883","0.0-215.0","56849d528f456f000c45e1dd","665500ab8938657b03fbdba8","66579237e19bba6ec61fe1c4","682","stimuli/0011010.jpg","0","","prediction_trial","0","","true","","0","true","true","true","true","true","true","[0]","011","010","1","","","","","","",""
"","","","","","image-keyboard-response","241","796409","0.0-216.0","56849d528f456f000c45e1dd","665500ab8938657b03fbdba8","66579237e19bba6ec61fe1c4","520","stimuli/00110100.jpg"," ","","feedback_trial","0","","","","","","","","","","","","","","","","","","","","",""
"","","","","","image-keyboard-response","242","796889","0.0-217.0","56849d528f456f000c45e1dd","665500ab8938657b03fbdba8","66579237e19bba6ec61fe1c4","475","stimuli/1110000.jpg","1","","prediction_trial","1","","true","","1","true","true","false","false","false","false","[1,0]","110","000","1","","","","","","",""
"","","","","","image-keyboard-response","243","797396","0.0-218.0","56849d528f456f000c45e1dd","665500ab8938657b03fbdba8","66579237e19bba6ec61fe1c4","501","stimuli/11100001.jpg"," ","","feedback_trial","1","","","","","","","","","","","","","","","","","","","","",""
"","","","","","image-keyboard-response","244","798465","0.0-219.0","56849d528f456f000c45e1dd","665500ab8938657b03fbdba8","66579237e19bba6ec61fe1c4","1065","stimuli/2111011.jpg","1","","prediction_trial","1","","true","","2","false","false","false","false","false","false","[1,0,2]","111","011","1","","","","","","",""
"","","","","","image-keyboard-response","245","799049","0.0-220.0","56849d528f456f000c45e1dd","665500ab8938657b03fbdba8","66579237e19bba6ec61fe1c4","576","stimuli/21110111.jpg"," ","","feedback_trial","1","","","","","","","","","","","","","","","","","","","","",""
"","","","","","image-keyboard-response","246","799785","0.0-221.0","56849d528f456f000c45e1dd","665500ab8938657b03fbdba8","66579237e19bba6ec61fe1c4","729","stimuli/2001001.jpg","2","","prediction_trial","2","","true","","2","false","true","false","true","false","true","[2]","001","001","1","","","","","","",""
"","","","","","image-keyboard-response","247","800340","0.0-222.0","56849d528f456f000c45e1dd","665500ab8938657b03fbdba8","66579237e19bba6ec61fe1c4","546","stimuli/20010012.jpg"," ","","feedback_trial","2","","","","","","","","","","","","","","","","","","","","",""
"","","","","","image-keyboard-response","248","800969","0.0-223.0","56849d528f456f000c45e1dd","665500ab8938657b03fbdba8","66579237e19bba6ec61fe1c4","621","stimuli/1001001.jpg","1","","prediction_trial","1","","true","","1","true","true","true","true","true","true","[1]","001","001","1","","","","","","",""
"","","","","","image-keyboard-response","249","801450","0.0-224.0","56849d528f456f000c45e1dd","665500ab8938657b03fbdba8","66579237e19bba6ec61fe1c4","472","stimuli/10010011.jpg"," ","","feedback_trial","1","","","","","","","","","","","","","","","","","","","","",""
"","","","","","image-keyboard-response","250","802305","0.0-225.0","56849d528f456f000c45e1dd","665500ab8938657b03fbdba8","66579237e19bba6ec61fe1c4","849","stimuli/1111101.jpg","1","","prediction_trial","0","","false","","1","true","true","false","false","false","false","[0,1,2]","111","101","0","","","","","","",""
"","","","","","image-keyboard-response","251","803115","0.0-226.0","56849d528f456f000c45e1dd","665500ab8938657b03fbdba8","66579237e19bba6ec61fe1c4","803","stimuli/11111010.jpg"," ","","feedback_trial","0","","","","","","","","","","","","","","","","","","","","",""
"","","","","","image-keyboard-response","252","803760","0.0-227.0","56849d528f456f000c45e1dd","665500ab8938657b03fbdba8","66579237e19bba6ec61fe1c4","639","stimuli/0000101.jpg","2","","prediction_trial","0","","false","","0","false","false","true","true","false","false","[0]","000","101","0","","","","","","",""
"","","","","","image-keyboard-response","253","804422","0.0-228.0","56849d528f456f000c45e1dd","665500ab8938657b03fbdba8","66579237e19bba6ec61fe1c4","655","stimuli/00001010.jpg"," ","","feedback_trial","0","","","","","","","","","","","","","","","","","","","","",""
"","","","","","image-keyboard-response","254","805381","0.0-229.0","56849d528f456f000c45e1dd","665500ab8938657b03fbdba8","66579237e19bba6ec61fe1c4","953","stimuli/2001000.jpg","2","","prediction_trial","2","","true","","2","true","true","false","true","false","true","[2]","001","000","1","","","","","","",""
"","","","","","image-keyboard-response","255","805830","0.0-230.0","56849d528f456f000c45e1dd","665500ab8938657b03fbdba8","66579237e19bba6ec61fe1c4","442","stimuli/20010002.jpg"," ","","feedback_trial","2","","","","","","","","","","","","","","","","","","","","",""
"","","","","","image-keyboard-response","256","806697","0.0-231.0","56849d528f456f000c45e1dd","665500ab8938657b03fbdba8","66579237e19bba6ec61fe1c4","862","stimuli/1111001.jpg","1","","prediction_trial","1","","true","","1","true","true","false","false","false","false","[1,0,2]","111","001","1","","","","","","",""
"","","","","","image-keyboard-response","257","807465","0.0-232.0","56849d528f456f000c45e1dd","665500ab8938657b03fbdba8","66579237e19bba6ec61fe1c4","762","stimuli/11110011.jpg"," ","","feedback_trial","1","","","","","","","","","","","","","","","","","","","","",""
"","","","","","image-keyboard-response","258","808200","0.0-233.0","56849d528f456f000c45e1dd","665500ab8938657b03fbdba8","66579237e19bba6ec61fe1c4","727","stimuli/0110000.jpg","0","","prediction_trial","0","","true","","0","true","true","false","false","false","false","[1,0]","110","000","1","","","","","","",""
"","","","","","image-keyboard-response","259","808665","0.0-234.0","56849d528f456f000c45e1dd","665500ab8938657b03fbdba8","66579237e19bba6ec61fe1c4","459","stimuli/01100000.jpg"," ","","feedback_trial","1","","","","","","","","","","","","","","","","","","","","",""
"","","","","","image-keyboard-response","260","809369","0.0-235.0","56849d528f456f000c45e1dd","665500ab8938657b03fbdba8","66579237e19bba6ec61fe1c4","697","stimuli/2110010.jpg","2","","prediction_trial","2","","true","","2","true","true","true","true","true","true","[2]","110","010","1","","","","","","",""
"","","","","","image-keyboard-response","261","809728","0.0-236.0","56849d528f456f000c45e1dd","665500ab8938657b03fbdba8","66579237e19bba6ec61fe1c4","353","stimuli/21100102.jpg"," ","","feedback_trial","2","","","","","","","","","","","","","","","","","","","","",""
"","","","","","image-keyboard-response","262","810360","0.0-237.0","56849d528f456f000c45e1dd","665500ab8938657b03fbdba8","66579237e19bba6ec61fe1c4","626","stimuli/0111110.jpg","1","","prediction_trial","1","","true","","0","false","false","false","false","false","false","[1,2,0]","111","110","1","","","","","","",""
"","","","","","image-keyboard-response","263","810749","0.0-238.0","56849d528f456f000c45e1dd","665500ab8938657b03fbdba8","66579237e19bba6ec61fe1c4","383","stimuli/01111101.jpg"," ","","feedback_trial","1","","","","","","","","","","","","","","","","","","","","",""
"","","","","","image-keyboard-response","264","811411","0.0-239.0","56849d528f456f000c45e1dd","665500ab8938657b03fbdba8","66579237e19bba6ec61fe1c4","655","stimuli/0011110.jpg","0","","prediction_trial","0","","true","","0","false","false","true","true","false","false","[0]","011","110","1","","","","","","",""
"","","","","","image-keyboard-response","265","811906","0.0-240.0","56849d528f456f000c45e1dd","665500ab8938657b03fbdba8","66579237e19bba6ec61fe1c4","488","stimuli/00111100.jpg"," ","","feedback_trial","0","","","","","","","","","","","","","","","","","","","","",""
"","","","","","image-keyboard-response","266","812490","0.0-241.0","56849d528f456f000c45e1dd","665500ab8938657b03fbdba8","66579237e19bba6ec61fe1c4","578","stimuli/2111010.jpg","2","","prediction_trial","2","","true","","2","true","true","false","false","false","false","[1,0,2]","111","010","1","","","","","","",""
"","","","","","image-keyboard-response","267","812898","0.0-242.0","56849d528f456f000c45e1dd","665500ab8938657b03fbdba8","66579237e19bba6ec61fe1c4","401","stimuli/21110102.jpg"," ","","feedback_trial","1","","","","","","","","","","","","","","","","","","","","",""
"","","","","","image-keyboard-response","268","813839","0.0-243.0","56849d528f456f000c45e1dd","665500ab8938657b03fbdba8","66579237e19bba6ec61fe1c4","935","stimuli/2001100.jpg","2","","prediction_trial","2","","true","","2","true","true","false","true","false","true","[2]","001","100","1","","","","","","",""
"","","","","","image-keyboard-response","269","814365","0.0-244.0","56849d528f456f000c45e1dd","665500ab8938657b03fbdba8","66579237e19bba6ec61fe1c4","514","stimuli/20011002.jpg"," ","","feedback_trial","2","","","","","","","","","","","","","","","","","","","","",""
"","","","","","image-keyboard-response","270","815355","0.0-245.0","56849d528f456f000c45e1dd","665500ab8938657b03fbdba8","66579237e19bba6ec61fe1c4","983","stimuli/2101001.jpg","2","","prediction_trial","2","","true","","2","false","true","false","false","false","false","[2,0]","101","001","1","","","","","","",""
"","","","","","image-keyboard-response","271","815790","0.0-246.0","56849d528f456f000c45e1dd","665500ab8938657b03fbdba8","66579237e19bba6ec61fe1c4","426","stimuli/21010012.jpg"," ","","feedback_trial","2","","","","","","","","","","","","","","","","","","","","",""
"","","","","","image-keyboard-response","272","816631","0.0-247.0","56849d528f456f000c45e1dd","665500ab8938657b03fbdba8","66579237e19bba6ec61fe1c4","835","stimuli/0000000.jpg","0","","prediction_trial","0","","true","","0","true","true","true","true","true","true","[0]","000","000","1","","","","","","",""
"","","","","","image-keyboard-response","273","817005","0.0-248.0","56849d528f456f000c45e1dd","665500ab8938657b03fbdba8","66579237e19bba6ec61fe1c4","368","stimuli/00000000.jpg"," ","","feedback_trial","0","","","","","","","","","","","","","","","","","","","","",""
"","","","","","image-keyboard-response","274","817545","0.0-249.0","56849d528f456f000c45e1dd","665500ab8938657b03fbdba8","66579237e19bba6ec61fe1c4","533","stimuli/1100111.jpg","1","","prediction_trial","1","","true","","1","false","false","true","true","false","false","[1]","100","111","1","","","","","","",""
"","","","","","image-keyboard-response","275","817923","0.0-250.0","56849d528f456f000c45e1dd","665500ab8938657b03fbdba8","66579237e19bba6ec61fe1c4","371","stimuli/11001111.jpg"," ","","feedback_trial","1","","","","","","","","","","","","","","","","","","","","",""
"","","","","","image-keyboard-response","276","818970","0.0-251.0","56849d528f456f000c45e1dd","665500ab8938657b03fbdba8","66579237e19bba6ec61fe1c4","1042","stimuli/1011001.jpg","1","","prediction_trial","1","","true","","1","true","true","false","false","false","false","[1,2]","011","001","1","","","","","","",""
"","","","","","image-keyboard-response","277","819376","0.0-252.0","56849d528f456f000c45e1dd","665500ab8938657b03fbdba8","66579237e19bba6ec61fe1c4","399","stimuli/10110011.jpg"," ","","feedback_trial","1","","","","","","","","","","","","","","","","","","","","",""
"","","","","","image-keyboard-response","278","819989","0.0-253.0","56849d528f456f000c45e1dd","665500ab8938657b03fbdba8","66579237e19bba6ec61fe1c4","606","stimuli/2110101.jpg","2","","prediction_trial","2","","true","","2","false","false","true","true","false","false","[2]","110","101","1","","","","","","",""
"","","","","","image-keyboard-response","279","820366","0.0-254.0","56849d528f456f000c45e1dd","665500ab8938657b03fbdba8","66579237e19bba6ec61fe1c4","370","stimuli/21101012.jpg"," ","","feedback_trial","2","","","","","","","","","","","","","","","","","","","","",""
"","","","","","image-keyboard-response","280","821264","0.0-255.0","56849d528f456f000c45e1dd","665500ab8938657b03fbdba8","66579237e19bba6ec61fe1c4","892","stimuli/2010001.jpg","2","","prediction_trial","2","","true","","2","false","true","true","true","false","true","[2]","010","001","1","","","","","","",""
"","","","","","image-keyboard-response","281","821566","0.0-256.0","56849d528f456f000c45e1dd","665500ab8938657b03fbdba8","66579237e19bba6ec61fe1c4","294","stimuli/20100012.jpg"," ","","feedback_trial","2","","","","","","","","","","","","","","","","","","","","",""
"","","","","","image-keyboard-response","282","822316","0.0-257.0","56849d528f456f000c45e1dd","665500ab8938657b03fbdba8","66579237e19bba6ec61fe1c4","744","stimuli/2100100.jpg","2","","prediction_trial","2","","true","","2","true","true","true","true","true","true","[2]","100","100","1","","","","","","",""
"","","","","","image-keyboard-response","283","822795","0.0-258.0","56849d528f456f000c45e1dd","665500ab8938657b03fbdba8","66579237e19bba6ec61fe1c4","473","stimuli/21001002.jpg"," ","","feedback_trial","2","","","","","","","","","","","","","","","","","","","","",""
"","","","","","image-keyboard-response","284","823905","0.0-259.0","56849d528f456f000c45e1dd","665500ab8938657b03fbdba8","66579237e19bba6ec61fe1c4","1104","stimuli/1010011.jpg","1","","prediction_trial","1","","true","","1","false","false","false","true","false","false","[1]","010","011","1","","","","","","",""
"","","","","","image-keyboard-response","285","824370","0.0-260.0","56849d528f456f000c45e1dd","665500ab8938657b03fbdba8","66579237e19bba6ec61fe1c4","458","stimuli/10100111.jpg"," ","","feedback_trial","1","","","","","","","","","","","","","","","","","","","","",""
"","","","","","image-keyboard-response","286","825211","0.0-261.0","56849d528f456f000c45e1dd","665500ab8938657b03fbdba8","66579237e19bba6ec61fe1c4","835","stimuli/0001000.jpg","0","","prediction_trial","0","","true","","0","true","true","true","true","true","true","[0]","001","000","1","","","","","","",""
"","","","","","image-keyboard-response","287","825645","0.0-262.0","56849d528f456f000c45e1dd","665500ab8938657b03fbdba8","66579237e19bba6ec61fe1c4","427","stimuli/00010000.jpg"," ","","feedback_trial","0","","","","","","","","","","","","","","","","","","","","",""
"","","","","","image-keyboard-response","288","826380","0.0-263.0","56849d528f456f000c45e1dd","665500ab8938657b03fbdba8","66579237e19bba6ec61fe1c4","729","stimuli/2110001.jpg","2","","prediction_trial","2","","true","","2","false","true","true","true","false","true","[2]","110","001","1","","","","","","",""
"","","","","","image-keyboard-response","289","826907","0.0-264.0","56849d528f456f000c45e1dd","665500ab8938657b03fbdba8","66579237e19bba6ec61fe1c4","519","stimuli/21100012.jpg"," ","","feedback_trial","2","","","","","","","","","","","","","","","","","","","","",""
"","","","","","image-keyboard-response","290","827686","0.0-265.0","56849d528f456f000c45e1dd","665500ab8938657b03fbdba8","66579237e19bba6ec61fe1c4","772","stimuli/0100110.jpg","1","","prediction_trial","0","","false","","0","false","false","false","true","false","false","[0]","100","110","0","","","","","","",""
"","","","","","image-keyboard-response","291","828465","0.0-266.0","56849d528f456f000c45e1dd","665500ab8938657b03fbdba8","66579237e19bba6ec61fe1c4","769","stimuli/01001100.jpg"," ","","feedback_trial","0","","","","","","","","","","","","","","","","","","","","",""
"","","","","","image-keyboard-response","292","828976","0.0-267.0","56849d528f456f000c45e1dd","665500ab8938657b03fbdba8","66579237e19bba6ec61fe1c4","503","stimuli/1011100.jpg","1","","prediction_trial","1","","true","","1","true","true","false","false","false","false","[2,1]","011","100","1","","","","","","",""
"","","","","","image-keyboard-response","293","829366","0.0-268.0","56849d528f456f000c45e1dd","665500ab8938657b03fbdba8","66579237e19bba6ec61fe1c4","384","stimuli/10111001.jpg"," ","","feedback_trial","2","","","","","","","","","","","","","","","","","","","","",""
"","","","","","image-keyboard-response","294","830023","0.0-269.0","56849d528f456f000c45e1dd","665500ab8938657b03fbdba8","66579237e19bba6ec61fe1c4","651","stimuli/2010111.jpg","2","","prediction_trial","2","","true","","2","false","false","true","true","false","false","[2]","010","111","1","","","","","","",""
"","","","","","image-keyboard-response","295","830475","0.0-270.0","56849d528f456f000c45e1dd","665500ab8938657b03fbdba8","66579237e19bba6ec61fe1c4","446","stimuli/20101112.jpg"," ","","feedback_trial","2","","","","","","","","","","","","","","","","","","","","",""
"","","","","","image-keyboard-response","296","831226","0.0-271.0","56849d528f456f000c45e1dd","665500ab8938657b03fbdba8","66579237e19bba6ec61fe1c4","744","stimuli/0010000.jpg","0","","prediction_trial","0","","true","","0","true","true","true","true","true","true","[0]","010","000","1","","","","","","",""
"","","","","","image-keyboard-response","297","831602","0.0-272.0","56849d528f456f000c45e1dd","665500ab8938657b03fbdba8","66579237e19bba6ec61fe1c4","369","stimuli/00100000.jpg"," ","","feedback_trial","0","","","","","","","","","","","","","","","","","","","","",""
"","","","","","image-keyboard-response","298","832396","0.0-273.0","56849d528f456f000c45e1dd","665500ab8938657b03fbdba8","66579237e19bba6ec61fe1c4","788","stimuli/0101010.jpg","0","","prediction_trial","2","","false","","0","true","true","false","false","false","false","[2,0]","101","010","0","","","","","","",""
"","","","","","image-keyboard-response","299","833881","0.0-274.0","56849d528f456f000c45e1dd","665500ab8938657b03fbdba8","66579237e19bba6ec61fe1c4","1479","stimuli/01010102.jpg"," ","","feedback_trial","2","","","","","","","","","","","","","","","","","","","","",""
"","","","","","image-keyboard-response","300","834615","0.0-275.0","56849d528f456f000c45e1dd","665500ab8938657b03fbdba8","66579237e19bba6ec61fe1c4","726","stimuli/0010010.jpg","0","","prediction_trial","0","","true","","0","true","true","true","true","true","true","[0]","010","010","1","","","","","","",""
"","","","","","image-keyboard-response","301","835051","0.0-276.0","56849d528f456f000c45e1dd","665500ab8938657b03fbdba8","66579237e19bba6ec61fe1c4","430","stimuli/00100100.jpg"," ","","feedback_trial","0","","","","","","","","","","","","","","","","","","","","",""
"","","","","","image-keyboard-response","302","835546","0.0-277.0","56849d528f456f000c45e1dd","665500ab8938657b03fbdba8","66579237e19bba6ec61fe1c4","488","stimuli/1101010.jpg","1","","prediction_trial","1","","true","","1","false","true","true","true","false","true","[1]","101","010","1","","","","","","",""
"","","","","","image-keyboard-response","303","835950","0.0-278.0","56849d528f456f000c45e1dd","665500ab8938657b03fbdba8","66579237e19bba6ec61fe1c4","398","stimuli/11010101.jpg"," ","","feedback_trial","1","","","","","","","","","","","","","","","","","","","","",""
"","","","","","image-keyboard-response","304","836672","0.0-279.0","56849d528f456f000c45e1dd","665500ab8938657b03fbdba8","66579237e19bba6ec61fe1c4","715","stimuli/1101111.jpg","2","","prediction_trial","1","","false","","1","false","false","true","true","false","false","[1]","101","111","0","","","","","","",""
"","","","","","image-keyboard-response","305","837194","0.0-280.0","56849d528f456f000c45e1dd","665500ab8938657b03fbdba8","66579237e19bba6ec61fe1c4","517","stimuli/11011111.jpg"," ","","feedback_trial","1","","","","","","","","","","","","","","","","","","","","",""
"","","","","","image-keyboard-response","306","837946","0.0-281.0","56849d528f456f000c45e1dd","665500ab8938657b03fbdba8","66579237e19bba6ec61fe1c4","745","stimuli/0111111.jpg","2","","prediction_trial","1","","false","","0","false","false","false","false","false","false","[0,1,2]","111","111","0","","","","","","",""
"","","","","","image-keyboard-response","307","838995","0.0-282.0","56849d528f456f000c45e1dd","665500ab8938657b03fbdba8","66579237e19bba6ec61fe1c4","1043","stimuli/01111111.jpg"," ","","feedback_trial","0","","","","","","","","","","","","","","","","","","","","",""
"","","","","","image-keyboard-response","308","839536","0.0-283.0","56849d528f456f000c45e1dd","665500ab8938657b03fbdba8","66579237e19bba6ec61fe1c4","533","stimuli/0100001.jpg","0","","prediction_trial","0","","true","","0","true","true","false","true","false","true","[0]","100","001","1","","","","","","",""
"","","","","","image-keyboard-response","309","840014","0.0-284.0","56849d528f456f000c45e1dd","665500ab8938657b03fbdba8","66579237e19bba6ec61fe1c4","472","stimuli/01000010.jpg"," ","","feedback_trial","0","","","","","","","","","","","","","","","","","","","","",""
"","","","","","image-keyboard-response","310","840570","0.0-285.0","56849d528f456f000c45e1dd","665500ab8938657b03fbdba8","66579237e19bba6ec61fe1c4","551","stimuli/2101110.jpg","0","","prediction_trial","2","","false","","2","true","true","false","false","false","false","[2,0]","101","110","0","","","","","","",""
"","","","","","image-keyboard-response","311","843241","0.0-286.0","56849d528f456f000c45e1dd","665500ab8938657b03fbdba8","66579237e19bba6ec61fe1c4","2665","stimuli/21011102.jpg"," ","","feedback_trial","2","","","","","","","","","","","","","","","","","","","","",""
"","","","","","image-keyboard-response","312","844276","0.0-287.0","56849d528f456f000c45e1dd","665500ab8938657b03fbdba8","66579237e19bba6ec61fe1c4","1028","stimuli/1011110.jpg","1","","prediction_trial","2","","false","","1","false","false","false","false","false","false","[1,2]","011","110","0","","","","","","",""
"","","","","","image-keyboard-response","313","845535","0.0-288.0","56849d528f456f000c45e1dd","665500ab8938657b03fbdba8","66579237e19bba6ec61fe1c4","1248","stimuli/10111102.jpg"," ","","feedback_trial","1","","","","","","","","","","","","","","","","","","","","",""
"","","","","","image-keyboard-response","314","846226","0.0-289.0","56849d528f456f000c45e1dd","665500ab8938657b03fbdba8","66579237e19bba6ec61fe1c4","682","stimuli/1001000.jpg","0","","prediction_trial","1","","false","","1","true","true","true","true","true","true","[1]","001","000","0","","","","","","",""
"","","","","","image-keyboard-response","315","846717","0.0-290.0","56849d528f456f000c45e1dd","665500ab8938657b03fbdba8","66579237e19bba6ec61fe1c4","485","stimuli/10010001.jpg"," ","","feedback_trial","1","","","","","","","","","","","","","","","","","","","","",""
"","","","","","image-keyboard-response","316","849929","0.0-291.0","56849d528f456f000c45e1dd","665500ab8938657b03fbdba8","66579237e19bba6ec61fe1c4","3209","stimuli/0111100.jpg","0","","prediction_trial","0","","true","","0","false","true","false","false","false","false","[0,2,1]","111","100","1","","","","","","",""
"","","","","","image-keyboard-response","317","850577","0.0-292.0","56849d528f456f000c45e1dd","665500ab8938657b03fbdba8","66579237e19bba6ec61fe1c4","641","stimuli/01111000.jpg"," ","","feedback_trial","0","","","","","","","","","","","","","","","","","","","","",""
"","","","","","survey-html-form","318","973793","0.0-293.0","56849d528f456f000c45e1dd","665500ab8938657b03fbdba8","66579237e19bba6ec61fe1c4","123205","","{""feedback"":""Nothing specifically, I just tried to make the best possible choice randomly."",""age"":""37"",""gender"":""Female"",""other_gender"":"""",""race"":""Black/African American"",""other_race"":"""",""ethnicity"":""Non-Hispanic""}","","exit_survey","","","","","","","","","","","","","","","","Nothing specifically, I just tried to make the best possible choice randomly.","37","Non-Hispanic","Female","Black/African American","0.6944444444444444","0.6944444444444444"
