"success","timeout","failed_images","failed_audio","failed_video","trial_type","trial_index","time_elapsed","internal_node_id","prolific_id","prolific_study_id","prolific_session_id","rt","stimulus","response","view_history","trial","character_choice","stimulus_dict","accuracy","correct_response","ball_pos","ego_ball_visible","ego_can_infer","alter_ball_visible","alter_can_infer","collective_ball_visible","collective_can_infer","search_locations","alter_occluders","ego_occluders","accuracy_bool","feedback","age","ethnicity","gender","race","overall_accuracy","bonus"
"true","false","[]","[]","[]","preload","0","4197","0.0-0.0","6111a1893c0daa13e23ab15a","665500ab8938657b03fbdba8","665792bd2a087799023aae4e","","","","","","","","","","","","","","","","","","","","","","","","","","",""
"true","","","","","fullscreen","1","7349","0.0-1.0","6111a1893c0daa13e23ab15a","665500ab8938657b03fbdba8","665792bd2a087799023aae4e","","","","","","","","","","","","","","","","","","","","","","","","","","",""
"","","","","","html-button-response","2","10154","0.0-2.0","6111a1893c0daa13e23ab15a","665500ab8938657b03fbdba8","665792bd2a087799023aae4e","2803","<p><b>Consent Form</b></p> <div style=""text-align:left;background-color:lightgrey; padding:20px; max-width:900px;""><p>Please consider this information carefully before deciding whether to participate in this research.</p> <p>The purpose of this research is to examine which factors influence social judgment and decision-making. You will be asked to make judgements about individuals and actions in social scenarios. We are simply interested in your judgement. The study will take less than 1 hour to complete, and you will receive less than $20 on Prolific. Your compensation and time commitment are specified in the study description. There are no anticipated risks associated with participating in this study. The effects of participating should be comparable to those you would ordinarily experience from viewing a computer monitor and using a mouse or keyboard for a similar amount of time. At the end of the study, we will provide an explanation of the questions that motivate this line of research and will describe the potential implications. </p><p> Your participation in this study is completely voluntary and you may refuse to participate or you may choose to withdraw at any time without penalty or loss of benefits to you which are otherwise entitled. Your participation in this study will remain confidential. No personally identifiable information will be associated with your data. Also, all analyses of the data will be averaged across all the participants, so your individual responses will never be specifically analyzed. </p><p> If you have questions or concerns about your participation or payment, or want to request a summary of research findings, please contact Dr. Jonathan Phillips at Jonathan.S.Phillips@dartmouth.edu. </p><p> Please save a copy of this form for your records. </p><p><b>Agreement: </b>The nature and purpose of this research have been sufficiently explained and I agree to participate in this study. I understand that I am free to withdraw at any time without incurring any penalty. Please consent by clicking the button below to continue. Otherwise, please exit the study at any time. </p>","0","","","","","","","","","","","","","","","","","","","","","","","",""
"","","","","","instructions","3","80918","0.0-3.0-0.0","6111a1893c0daa13e23ab15a","665500ab8938657b03fbdba8","665792bd2a087799023aae4e","70762","","","[{""page_index"":0,""viewing_time"":2079},{""page_index"":1,""viewing_time"":4445},{""page_index"":2,""viewing_time"":2398},{""page_index"":3,""viewing_time"":4496},{""page_index"":4,""viewing_time"":3414},{""page_index"":5,""viewing_time"":2747},{""page_index"":6,""viewing_time"":3098},{""page_index"":7,""viewing_time"":2978},{""page_index"":8,""viewing_time"":3414},{""page_index"":9,""viewing_time"":2514},{""page_index"":10,""viewing_time"":13221},{""page_index"":11,""viewing_time"":14601},{""page_index"":12,""viewing_time"":8327},{""page_index"":13,""viewing_time"":3030}]","intro","","","","","","","","","","","","","","","","","","","","","",""
"","","","","","image-keyboard-response","4","83801","0.0-3.0-1.0","6111a1893c0daa13e23ab15a","665500ab8938657b03fbdba8","665792bd2a087799023aae4e","2876","stimuli/1000100.jpg","1","","prediction_practice","1","{""filepath"":""stimuli/1000100.jpg"",""ball_pos"":1,""ego_ball_visible"":true,""ego_can_infer"":true,""alter_ball_visible"":true,""alter_can_infer"":true,""collective_ball_visible"":true,""collective_can_infer"":true,""search_locations"":[1],""alter_occluders"":""000"",""ego_occluders"":""100""}","true","","","","","","","","","","","","","","","","","","",""
"","","","","","image-keyboard-response","5","85538","0.0-3.0-2.0","6111a1893c0daa13e23ab15a","665500ab8938657b03fbdba8","665792bd2a087799023aae4e","1735","stimuli/10001001.jpg"," ","","practrice_feedback","1","","","","","","","","","","","","","","","","","","","","",""
"","","","","","image-keyboard-response","6","87551","0.0-3.0-3.0","6111a1893c0daa13e23ab15a","665500ab8938657b03fbdba8","665792bd2a087799023aae4e","2012","stimuli/0101001.jpg","1","","prediction_practice","2","{""filepath"":""stimuli/0101001.jpg"",""ball_pos"":0,""ego_ball_visible"":true,""ego_can_infer"":true,""alter_ball_visible"":false,""alter_can_infer"":false,""collective_ball_visible"":false,""collective_can_infer"":false,""search_locations"":[2,0],""alter_occluders"":""101"",""ego_occluders"":""001""}","false","","","","","","","","","","","","","","","","","","",""
"","","","","","image-keyboard-response","7","89995","0.0-3.0-4.0","6111a1893c0daa13e23ab15a","665500ab8938657b03fbdba8","665792bd2a087799023aae4e","2443","stimuli/01010012.jpg"," ","","practrice_feedback","2","","","","","","","","","","","","","","","","","","","","",""
"","","","","","image-keyboard-response","8","92846","0.0-3.0-5.0","6111a1893c0daa13e23ab15a","665500ab8938657b03fbdba8","665792bd2a087799023aae4e","2850","stimuli/1001010.jpg","1","","prediction_practice","1","{""filepath"":""stimuli/1001010.jpg"",""ball_pos"":1,""ego_ball_visible"":false,""ego_can_infer"":true,""alter_ball_visible"":true,""alter_can_infer"":true,""collective_ball_visible"":false,""collective_can_infer"":true,""search_locations"":[1],""alter_occluders"":""001"",""ego_occluders"":""010""}","true","","","","","","","","","","","","","","","","","","",""
"","","","","","image-keyboard-response","9","94351","0.0-3.0-6.0","6111a1893c0daa13e23ab15a","665500ab8938657b03fbdba8","665792bd2a087799023aae4e","1503","stimuli/10010101.jpg"," ","","practrice_feedback","1","","","","","","","","","","","","","","","","","","","","",""
"","","","","","image-keyboard-response","10","98086","0.0-3.0-7.0","6111a1893c0daa13e23ab15a","665500ab8938657b03fbdba8","665792bd2a087799023aae4e","3734","stimuli/0001111.jpg","1","","prediction_practice","0","{""filepath"":""stimuli/0001111.jpg"",""ball_pos"":0,""ego_ball_visible"":false,""ego_can_infer"":false,""alter_ball_visible"":true,""alter_can_infer"":true,""collective_ball_visible"":false,""collective_can_infer"":false,""search_locations"":[0],""alter_occluders"":""001"",""ego_occluders"":""111""}","false","","","","","","","","","","","","","","","","","","",""
"","","","","","image-keyboard-response","11","99473","0.0-3.0-8.0","6111a1893c0daa13e23ab15a","665500ab8938657b03fbdba8","665792bd2a087799023aae4e","1386","stimuli/00011110.jpg"," ","","practrice_feedback","0","","","","","","","","","","","","","","","","","","","","",""
"","","","","","image-keyboard-response","12","104167","0.0-3.0-9.0","6111a1893c0daa13e23ab15a","665500ab8938657b03fbdba8","665792bd2a087799023aae4e","4692","stimuli/1101110.jpg","1","","prediction_practice","1","{""filepath"":""stimuli/1101110.jpg"",""ball_pos"":1,""ego_ball_visible"":false,""ego_can_infer"":false,""alter_ball_visible"":true,""alter_can_infer"":true,""collective_ball_visible"":false,""collective_can_infer"":false,""search_locations"":[1],""alter_occluders"":""101"",""ego_occluders"":""110""}","true","","","","","","","","","","","","","","","","","","",""
"","","","","","image-keyboard-response","13","105181","0.0-3.0-10.0","6111a1893c0daa13e23ab15a","665500ab8938657b03fbdba8","665792bd2a087799023aae4e","1014","stimuli/11011101.jpg"," ","","practrice_feedback","1","","","","","","","","","","","","","","","","","","","","",""
"","","","","","image-keyboard-response","14","106643","0.0-3.0-11.0","6111a1893c0daa13e23ab15a","665500ab8938657b03fbdba8","665792bd2a087799023aae4e","1453","stimuli/0011001.jpg","0","","prediction_practice","0","{""filepath"":""stimuli/0011001.jpg"",""ball_pos"":0,""ego_ball_visible"":true,""ego_can_infer"":true,""alter_ball_visible"":true,""alter_can_infer"":true,""collective_ball_visible"":true,""collective_can_infer"":true,""search_locations"":[0],""alter_occluders"":""011"",""ego_occluders"":""001""}","true","","","","","","","","","","","","","","","","","","",""
"","","","","","image-keyboard-response","15","107311","0.0-3.0-12.0","6111a1893c0daa13e23ab15a","665500ab8938657b03fbdba8","665792bd2a087799023aae4e","667","stimuli/00110010.jpg"," ","","practrice_feedback","0","","","","","","","","","","","","","","","","","","","","",""
"","","","","","image-keyboard-response","16","111353","0.0-3.0-13.0","6111a1893c0daa13e23ab15a","665500ab8938657b03fbdba8","665792bd2a087799023aae4e","4041","stimuli/1011010.jpg","1","","prediction_practice","1","{""filepath"":""stimuli/1011010.jpg"",""ball_pos"":1,""ego_ball_visible"":false,""ego_can_infer"":true,""alter_ball_visible"":false,""alter_can_infer"":false,""collective_ball_visible"":false,""collective_can_infer"":false,""search_locations"":[2,1],""alter_occluders"":""011"",""ego_occluders"":""010""}","true","","","","","","","","","","","","","","","","","","",""
"","","","","","image-keyboard-response","17","112358","0.0-3.0-14.0","6111a1893c0daa13e23ab15a","665500ab8938657b03fbdba8","665792bd2a087799023aae4e","1004","stimuli/10110101.jpg"," ","","practrice_feedback","2","","","","","","","","","","","","","","","","","","","","",""
"","","","","","image-keyboard-response","18","114999","0.0-3.0-15.0","6111a1893c0daa13e23ab15a","665500ab8938657b03fbdba8","665792bd2a087799023aae4e","2639","stimuli/1100111.jpg","1","","prediction_practice","1","{""filepath"":""stimuli/1100111.jpg"",""ball_pos"":1,""ego_ball_visible"":false,""ego_can_infer"":false,""alter_ball_visible"":true,""alter_can_infer"":true,""collective_ball_visible"":false,""collective_can_infer"":false,""search_locations"":[1],""alter_occluders"":""100"",""ego_occluders"":""111""}","true","","","","","","","","","","","","","","","","","","",""
"","","","","","image-keyboard-response","19","115739","0.0-3.0-16.0","6111a1893c0daa13e23ab15a","665500ab8938657b03fbdba8","665792bd2a087799023aae4e","738","stimuli/11001111.jpg"," ","","practrice_feedback","1","","","","","","","","","","","","","","","","","","","","",""
"","","","","","image-keyboard-response","20","119830","0.0-3.0-17.0","6111a1893c0daa13e23ab15a","665500ab8938657b03fbdba8","665792bd2a087799023aae4e","4090","stimuli/0110000.jpg","0","","prediction_practice","0","{""filepath"":""stimuli/0110000.jpg"",""ball_pos"":0,""ego_ball_visible"":true,""ego_can_infer"":true,""alter_ball_visible"":false,""alter_can_infer"":false,""collective_ball_visible"":false,""collective_can_infer"":false,""search_locations"":[0,1],""alter_occluders"":""110"",""ego_occluders"":""000""}","true","","","","","","","","","","","","","","","","","","",""
"","","","","","image-keyboard-response","21","120686","0.0-3.0-18.0","6111a1893c0daa13e23ab15a","665500ab8938657b03fbdba8","665792bd2a087799023aae4e","855","stimuli/01100000.jpg"," ","","practrice_feedback","0","","","","","","","","","","","","","","","","","","","","",""
"","","","","","image-keyboard-response","22","122220","0.0-3.0-19.0","6111a1893c0daa13e23ab15a","665500ab8938657b03fbdba8","665792bd2a087799023aae4e","1532","stimuli/0000111.jpg","1","","prediction_practice","0","{""filepath"":""stimuli/0000111.jpg"",""ball_pos"":0,""ego_ball_visible"":false,""ego_can_infer"":false,""alter_ball_visible"":true,""alter_can_infer"":true,""collective_ball_visible"":false,""collective_can_infer"":false,""search_locations"":[0],""alter_occluders"":""000"",""ego_occluders"":""111""}","false","","","","","","","","","","","","","","","","","","",""
"","","","","","image-keyboard-response","23","123289","0.0-3.0-20.0","6111a1893c0daa13e23ab15a","665500ab8938657b03fbdba8","665792bd2a087799023aae4e","1068","stimuli/00001110.jpg"," ","","practrice_feedback","0","","","","","","","","","","","","","","","","","","","","",""
"","","","","","html-button-response","24","142422","0.0-3.0-21.0","6111a1893c0daa13e23ab15a","665500ab8938657b03fbdba8","665792bd2a087799023aae4e","19132","Now that you've had some practice, you'll be tested with a couple of easy trials. If you correctly predict Sam's choice, you'll move on to complete the experiment!","0","","","","","","","","","","","","","","","","","","","","","","","",""
"","","","","","image-keyboard-response","25","144410","0.0-3.0-22.0-0.0","6111a1893c0daa13e23ab15a","665500ab8938657b03fbdba8","665792bd2a087799023aae4e","1986","stimuli/0000011.jpg","arrowleft","","comprehension_quiz","","","true","arrowleft","","","","","","","","","","","","","","","","","",""
"","","","","","image-keyboard-response","26","145768","0.0-3.0-22.0-1.0","6111a1893c0daa13e23ab15a","665500ab8938657b03fbdba8","665792bd2a087799023aae4e","1355","stimuli/00000110.jpg"," ","","comprehension_quiz","","","true"," ","","","","","","","","","","","","","","","","","",""
"","","","","","image-keyboard-response","27","149108","0.0-3.0-22.0-2.0","6111a1893c0daa13e23ab15a","665500ab8938657b03fbdba8","665792bd2a087799023aae4e","3339","stimuli/1010010.jpg","arrowdown","","comprehension_quiz","","","true","arrowdown","","","","","","","","","","","","","","","","","",""
"","","","","","image-keyboard-response","28","149910","0.0-3.0-22.0-3.0","6111a1893c0daa13e23ab15a","665500ab8938657b03fbdba8","665792bd2a087799023aae4e","800","stimuli/10100101.jpg"," ","","comprehension_quiz","","","true"," ","","","","","","","","","","","","","","","","","",""
"","","","","","html-button-response","29","152596","0.0-4.0","6111a1893c0daa13e23ab15a","665500ab8938657b03fbdba8","665792bd2a087799023aae4e","2684","The experiment will now begin.","0","","","","","","","","","","","","","","","","","","","","","","","",""
"","","","","","image-keyboard-response","30","154951","0.0-5.0","6111a1893c0daa13e23ab15a","665500ab8938657b03fbdba8","665792bd2a087799023aae4e","2354","stimuli/0101100.jpg","0","","prediction_trial","2","","false","","0","false","true","false","false","false","false","[2,0]","101","100","0","","","","","","",""
"","","","","","image-keyboard-response","31","156250","0.0-6.0","6111a1893c0daa13e23ab15a","665500ab8938657b03fbdba8","665792bd2a087799023aae4e","1296","stimuli/01011002.jpg"," ","","feedback_trial","2","","","","","","","","","","","","","","","","","","","","",""
"","","","","","image-keyboard-response","32","159694","0.0-7.0","6111a1893c0daa13e23ab15a","665500ab8938657b03fbdba8","665792bd2a087799023aae4e","3442","stimuli/2010011.jpg","1","","prediction_trial","2","","false","","2","false","false","true","true","false","false","[2]","010","011","0","","","","","","",""
"","","","","","image-keyboard-response","33","160859","0.0-8.0","6111a1893c0daa13e23ab15a","665500ab8938657b03fbdba8","665792bd2a087799023aae4e","1164","stimuli/20100112.jpg"," ","","feedback_trial","2","","","","","","","","","","","","","","","","","","","","",""
"","","","","","image-keyboard-response","34","162251","0.0-9.0","6111a1893c0daa13e23ab15a","665500ab8938657b03fbdba8","665792bd2a087799023aae4e","1392","stimuli/1101101.jpg","1","","prediction_trial","1","","true","","1","true","true","true","true","true","true","[1]","101","101","1","","","","","","",""
"","","","","","image-keyboard-response","35","164259","0.0-10.0","6111a1893c0daa13e23ab15a","665500ab8938657b03fbdba8","665792bd2a087799023aae4e","2007","stimuli/11011011.jpg"," ","","feedback_trial","1","","","","","","","","","","","","","","","","","","","","",""
"","","","","","image-keyboard-response","36","165300","0.0-11.0","6111a1893c0daa13e23ab15a","665500ab8938657b03fbdba8","665792bd2a087799023aae4e","1039","stimuli/2010010.jpg","2","","prediction_trial","2","","true","","2","true","true","true","true","true","true","[2]","010","010","1","","","","","","",""
"","","","","","image-keyboard-response","37","166020","0.0-12.0","6111a1893c0daa13e23ab15a","665500ab8938657b03fbdba8","665792bd2a087799023aae4e","719","stimuli/20100102.jpg"," ","","feedback_trial","2","","","","","","","","","","","","","","","","","","","","",""
"","","","","","image-keyboard-response","38","167292","0.0-13.0","6111a1893c0daa13e23ab15a","665500ab8938657b03fbdba8","665792bd2a087799023aae4e","1264","stimuli/1100111.jpg","1","","prediction_trial","1","","true","","1","false","false","true","true","false","false","[1]","100","111","1","","","","","","",""
"","","","","","image-keyboard-response","39","167961","0.0-14.0","6111a1893c0daa13e23ab15a","665500ab8938657b03fbdba8","665792bd2a087799023aae4e","668","stimuli/11001111.jpg"," ","","feedback_trial","1","","","","","","","","","","","","","","","","","","","","",""
"","","","","","image-keyboard-response","40","170832","0.0-15.0","6111a1893c0daa13e23ab15a","665500ab8938657b03fbdba8","665792bd2a087799023aae4e","2870","stimuli/2011110.jpg","2","","prediction_trial","1","","false","","2","true","true","false","false","false","false","[2,1]","011","110","0","","","","","","",""
"","","","","","image-keyboard-response","41","171557","0.0-16.0","6111a1893c0daa13e23ab15a","665500ab8938657b03fbdba8","665792bd2a087799023aae4e","724","stimuli/20111101.jpg"," ","","feedback_trial","2","","","","","","","","","","","","","","","","","","","","",""
"","","","","","image-keyboard-response","42","173918","0.0-17.0","6111a1893c0daa13e23ab15a","665500ab8938657b03fbdba8","665792bd2a087799023aae4e","2360","stimuli/1100110.jpg","1","","prediction_trial","1","","true","","1","false","false","true","true","false","false","[1]","100","110","1","","","","","","",""
"","","","","","image-keyboard-response","43","174602","0.0-18.0","6111a1893c0daa13e23ab15a","665500ab8938657b03fbdba8","665792bd2a087799023aae4e","684","stimuli/11001101.jpg"," ","","feedback_trial","1","","","","","","","","","","","","","","","","","","","","",""
"","","","","","image-keyboard-response","44","175783","0.0-19.0","6111a1893c0daa13e23ab15a","665500ab8938657b03fbdba8","665792bd2a087799023aae4e","1180","stimuli/2010100.jpg","2","","prediction_trial","2","","true","","2","true","true","true","true","true","true","[2]","010","100","1","","","","","","",""
"","","","","","image-keyboard-response","45","176332","0.0-20.0","6111a1893c0daa13e23ab15a","665500ab8938657b03fbdba8","665792bd2a087799023aae4e","547","stimuli/20101002.jpg"," ","","feedback_trial","2","","","","","","","","","","","","","","","","","","","","",""
"","","","","","image-keyboard-response","46","177777","0.0-21.0","6111a1893c0daa13e23ab15a","665500ab8938657b03fbdba8","665792bd2a087799023aae4e","1444","stimuli/0111001.jpg","1","","prediction_trial","2","","false","","0","true","true","false","false","false","false","[1,0,2]","111","001","0","","","","","","",""
"","","","","","image-keyboard-response","47","178767","0.0-22.0","6111a1893c0daa13e23ab15a","665500ab8938657b03fbdba8","665792bd2a087799023aae4e","989","stimuli/01110012.jpg"," ","","feedback_trial","1","","","","","","","","","","","","","","","","","","","","",""
"","","","","","image-keyboard-response","48","180639","0.0-23.0","6111a1893c0daa13e23ab15a","665500ab8938657b03fbdba8","665792bd2a087799023aae4e","1871","stimuli/0001101.jpg","0","","prediction_trial","0","","true","","0","false","false","true","true","false","false","[0]","001","101","1","","","","","","",""
"","","","","","image-keyboard-response","49","181296","0.0-24.0","6111a1893c0daa13e23ab15a","665500ab8938657b03fbdba8","665792bd2a087799023aae4e","649","stimuli/00011010.jpg"," ","","feedback_trial","0","","","","","","","","","","","","","","","","","","","","",""
"","","","","","image-keyboard-response","50","182155","0.0-25.0","6111a1893c0daa13e23ab15a","665500ab8938657b03fbdba8","665792bd2a087799023aae4e","858","stimuli/1000101.jpg","1","","prediction_trial","1","","true","","1","true","true","true","true","true","true","[1]","000","101","1","","","","","","",""
"","","","","","image-keyboard-response","51","182728","0.0-26.0","6111a1893c0daa13e23ab15a","665500ab8938657b03fbdba8","665792bd2a087799023aae4e","572","stimuli/10001011.jpg"," ","","feedback_trial","1","","","","","","","","","","","","","","","","","","","","",""
"","","","","","image-keyboard-response","52","183600","0.0-27.0","6111a1893c0daa13e23ab15a","665500ab8938657b03fbdba8","665792bd2a087799023aae4e","871","stimuli/0010011.jpg","0","","prediction_trial","0","","true","","0","true","true","true","true","true","true","[0]","010","011","1","","","","","","",""
"","","","","","image-keyboard-response","53","184172","0.0-28.0","6111a1893c0daa13e23ab15a","665500ab8938657b03fbdba8","665792bd2a087799023aae4e","571","stimuli/00100110.jpg"," ","","feedback_trial","0","","","","","","","","","","","","","","","","","","","","",""
"","","","","","image-keyboard-response","54","185881","0.0-29.0","6111a1893c0daa13e23ab15a","665500ab8938657b03fbdba8","665792bd2a087799023aae4e","1708","stimuli/0110001.jpg","0","","prediction_trial","0","","true","","0","true","true","false","false","false","false","[1,0]","110","001","1","","","","","","",""
"","","","","","image-keyboard-response","55","186448","0.0-30.0","6111a1893c0daa13e23ab15a","665500ab8938657b03fbdba8","665792bd2a087799023aae4e","565","stimuli/01100010.jpg"," ","","feedback_trial","1","","","","","","","","","","","","","","","","","","","","",""
"","","","","","image-keyboard-response","56","187645","0.0-31.0","6111a1893c0daa13e23ab15a","665500ab8938657b03fbdba8","665792bd2a087799023aae4e","1196","stimuli/1011100.jpg","1","","prediction_trial","1","","true","","1","true","true","false","false","false","false","[2,1]","011","100","1","","","","","","",""
"","","","","","image-keyboard-response","57","188260","0.0-32.0","6111a1893c0daa13e23ab15a","665500ab8938657b03fbdba8","665792bd2a087799023aae4e","614","stimuli/10111001.jpg"," ","","feedback_trial","2","","","","","","","","","","","","","","","","","","","","",""
"","","","","","image-keyboard-response","58","189744","0.0-33.0","6111a1893c0daa13e23ab15a","665500ab8938657b03fbdba8","665792bd2a087799023aae4e","1483","stimuli/0011100.jpg","0","","prediction_trial","0","","true","","0","false","true","true","true","false","true","[0]","011","100","1","","","","","","",""
"","","","","","image-keyboard-response","59","190295","0.0-34.0","6111a1893c0daa13e23ab15a","665500ab8938657b03fbdba8","665792bd2a087799023aae4e","550","stimuli/00111000.jpg"," ","","feedback_trial","0","","","","","","","","","","","","","","","","","","","","",""
"","","","","","image-keyboard-response","60","191029","0.0-35.0","6111a1893c0daa13e23ab15a","665500ab8938657b03fbdba8","665792bd2a087799023aae4e","726","stimuli/1101100.jpg","1","","prediction_trial","1","","true","","1","true","true","true","true","true","true","[1]","101","100","1","","","","","","",""
"","","","","","image-keyboard-response","61","191408","0.0-36.0","6111a1893c0daa13e23ab15a","665500ab8938657b03fbdba8","665792bd2a087799023aae4e","378","stimuli/11011001.jpg"," ","","feedback_trial","1","","","","","","","","","","","","","","","","","","","","",""
"","","","","","image-keyboard-response","62","192020","0.0-37.0","6111a1893c0daa13e23ab15a","665500ab8938657b03fbdba8","665792bd2a087799023aae4e","612","stimuli/2000100.jpg","2","","prediction_trial","2","","true","","2","true","true","true","true","true","true","[2]","000","100","1","","","","","","",""
"","","","","","image-keyboard-response","63","192387","0.0-38.0","6111a1893c0daa13e23ab15a","665500ab8938657b03fbdba8","665792bd2a087799023aae4e","365","stimuli/20001002.jpg"," ","","feedback_trial","2","","","","","","","","","","","","","","","","","","","","",""
"","","","","","image-keyboard-response","64","193301","0.0-39.0","6111a1893c0daa13e23ab15a","665500ab8938657b03fbdba8","665792bd2a087799023aae4e","913","stimuli/1010000.jpg","1","","prediction_trial","1","","true","","1","true","true","false","true","false","true","[1]","010","000","1","","","","","","",""
"","","","","","image-keyboard-response","65","193742","0.0-40.0","6111a1893c0daa13e23ab15a","665500ab8938657b03fbdba8","665792bd2a087799023aae4e","439","stimuli/10100001.jpg"," ","","feedback_trial","1","","","","","","","","","","","","","","","","","","","","",""
"","","","","","image-keyboard-response","66","195661","0.0-41.0","6111a1893c0daa13e23ab15a","665500ab8938657b03fbdba8","665792bd2a087799023aae4e","1919","stimuli/2101110.jpg","2","","prediction_trial","0","","false","","2","true","true","false","false","false","false","[2,0]","101","110","0","","","","","","",""
"","","","","","image-keyboard-response","67","196437","0.0-42.0","6111a1893c0daa13e23ab15a","665500ab8938657b03fbdba8","665792bd2a087799023aae4e","775","stimuli/21011100.jpg"," ","","feedback_trial","2","","","","","","","","","","","","","","","","","","","","",""
"","","","","","image-keyboard-response","68","197593","0.0-43.0","6111a1893c0daa13e23ab15a","665500ab8938657b03fbdba8","665792bd2a087799023aae4e","1155","stimuli/1011011.jpg","1","","prediction_trial","2","","false","","1","false","false","false","false","false","false","[2,1]","011","011","0","","","","","","",""
"","","","","","image-keyboard-response","69","198257","0.0-44.0","6111a1893c0daa13e23ab15a","665500ab8938657b03fbdba8","665792bd2a087799023aae4e","663","stimuli/10110112.jpg"," ","","feedback_trial","2","","","","","","","","","","","","","","","","","","","","",""
"","","","","","image-keyboard-response","70","198884","0.0-45.0","6111a1893c0daa13e23ab15a","665500ab8938657b03fbdba8","665792bd2a087799023aae4e","626","stimuli/1100000.jpg","1","","prediction_trial","1","","true","","1","true","true","true","true","true","true","[1]","100","000","1","","","","","","",""
"","","","","","image-keyboard-response","71","199257","0.0-46.0","6111a1893c0daa13e23ab15a","665500ab8938657b03fbdba8","665792bd2a087799023aae4e","365","stimuli/11000001.jpg"," ","","feedback_trial","1","","","","","","","","","","","","","","","","","","","","",""
"","","","","","image-keyboard-response","72","201149","0.0-47.0","6111a1893c0daa13e23ab15a","665500ab8938657b03fbdba8","665792bd2a087799023aae4e","1890","stimuli/2011001.jpg","2","","prediction_trial","2","","true","","2","false","true","false","false","false","false","[1,2]","011","001","1","","","","","","",""
"","","","","","image-keyboard-response","73","201561","0.0-48.0","6111a1893c0daa13e23ab15a","665500ab8938657b03fbdba8","665792bd2a087799023aae4e","411","stimuli/20110012.jpg"," ","","feedback_trial","1","","","","","","","","","","","","","","","","","","","","",""
"","","","","","image-keyboard-response","74","203923","0.0-49.0","6111a1893c0daa13e23ab15a","665500ab8938657b03fbdba8","665792bd2a087799023aae4e","2362","stimuli/2111101.jpg","0","","prediction_trial","0","","true","","2","false","false","false","false","false","false","[2,1,0]","111","101","1","","","","","","",""
"","","","","","image-keyboard-response","75","204272","0.0-50.0","6111a1893c0daa13e23ab15a","665500ab8938657b03fbdba8","665792bd2a087799023aae4e","348","stimuli/21111010.jpg"," ","","feedback_trial","2","","","","","","","","","","","","","","","","","","","","",""
"","","","","","image-keyboard-response","76","205838","0.0-51.0","6111a1893c0daa13e23ab15a","665500ab8938657b03fbdba8","665792bd2a087799023aae4e","1564","stimuli/1000110.jpg","1","","prediction_trial","1","","true","","1","false","false","true","true","false","false","[1]","000","110","1","","","","","","",""
"","","","","","image-keyboard-response","77","206340","0.0-52.0","6111a1893c0daa13e23ab15a","665500ab8938657b03fbdba8","665792bd2a087799023aae4e","500","stimuli/10001101.jpg"," ","","feedback_trial","1","","","","","","","","","","","","","","","","","","","","",""
"","","","","","image-keyboard-response","78","207237","0.0-53.0","6111a1893c0daa13e23ab15a","665500ab8938657b03fbdba8","665792bd2a087799023aae4e","896","stimuli/2010000.jpg","2","","prediction_trial","2","","true","","2","true","true","true","true","true","true","[2]","010","000","1","","","","","","",""
"","","","","","image-keyboard-response","79","207560","0.0-54.0","6111a1893c0daa13e23ab15a","665500ab8938657b03fbdba8","665792bd2a087799023aae4e","322","stimuli/20100002.jpg"," ","","feedback_trial","2","","","","","","","","","","","","","","","","","","","","",""
"","","","","","image-keyboard-response","80","209517","0.0-55.0","6111a1893c0daa13e23ab15a","665500ab8938657b03fbdba8","665792bd2a087799023aae4e","1955","stimuli/1110111.jpg","2","","prediction_trial","0","","false","","1","false","false","false","false","false","false","[0,1]","110","111","0","","","","","","",""
"","","","","","image-keyboard-response","81","209939","0.0-56.0","6111a1893c0daa13e23ab15a","665500ab8938657b03fbdba8","665792bd2a087799023aae4e","421","stimuli/11101110.jpg"," ","","feedback_trial","0","","","","","","","","","","","","","","","","","","","","",""
"","","","","","image-keyboard-response","82","211091","0.0-57.0","6111a1893c0daa13e23ab15a","665500ab8938657b03fbdba8","665792bd2a087799023aae4e","1141","stimuli/1110000.jpg","1","","prediction_trial","0","","false","","1","true","true","false","false","false","false","[1,0]","110","000","0","","","","","","",""
"","","","","","image-keyboard-response","83","211568","0.0-58.0","6111a1893c0daa13e23ab15a","665500ab8938657b03fbdba8","665792bd2a087799023aae4e","476","stimuli/11100000.jpg"," ","","feedback_trial","1","","","","","","","","","","","","","","","","","","","","",""
"","","","","","image-keyboard-response","84","212986","0.0-59.0","6111a1893c0daa13e23ab15a","665500ab8938657b03fbdba8","665792bd2a087799023aae4e","1416","stimuli/1011010.jpg","1","","prediction_trial","1","","true","","1","false","true","false","false","false","false","[2,1]","011","010","1","","","","","","",""
"","","","","","image-keyboard-response","85","213372","0.0-60.0","6111a1893c0daa13e23ab15a","665500ab8938657b03fbdba8","665792bd2a087799023aae4e","385","stimuli/10110101.jpg"," ","","feedback_trial","2","","","","","","","","","","","","","","","","","","","","",""
"","","","","","image-keyboard-response","86","214786","0.0-61.0","6111a1893c0daa13e23ab15a","665500ab8938657b03fbdba8","665792bd2a087799023aae4e","1414","stimuli/0001011.jpg","1","","prediction_trial","0","","false","","0","true","true","true","true","true","true","[0]","001","011","0","","","","","","",""
"","","","","","image-keyboard-response","87","215662","0.0-62.0","6111a1893c0daa13e23ab15a","665500ab8938657b03fbdba8","665792bd2a087799023aae4e","875","stimuli/00010110.jpg"," ","","feedback_trial","0","","","","","","","","","","","","","","","","","","","","",""
"","","","","","image-keyboard-response","88","217657","0.0-63.0","6111a1893c0daa13e23ab15a","665500ab8938657b03fbdba8","665792bd2a087799023aae4e","1994","stimuli/2001010.jpg","2","","prediction_trial","2","","true","","2","true","true","false","true","false","true","[2]","001","010","1","","","","","","",""
"","","","","","image-keyboard-response","89","218659","0.0-64.0","6111a1893c0daa13e23ab15a","665500ab8938657b03fbdba8","665792bd2a087799023aae4e","1001","stimuli/20010102.jpg"," ","","feedback_trial","2","","","","","","","","","","","","","","","","","","","","",""
"","","","","","image-keyboard-response","90","219925","0.0-65.0","6111a1893c0daa13e23ab15a","665500ab8938657b03fbdba8","665792bd2a087799023aae4e","1265","stimuli/0111110.jpg","0","","prediction_trial","1","","false","","0","false","false","false","false","false","false","[2,0,1]","111","110","0","","","","","","",""
"","","","","","image-keyboard-response","91","220299","0.0-66.0","6111a1893c0daa13e23ab15a","665500ab8938657b03fbdba8","665792bd2a087799023aae4e","373","stimuli/01111101.jpg"," ","","feedback_trial","2","","","","","","","","","","","","","","","","","","","","",""
"","","","","","image-keyboard-response","92","221587","0.0-67.0","6111a1893c0daa13e23ab15a","665500ab8938657b03fbdba8","665792bd2a087799023aae4e","1287","stimuli/0101101.jpg","0","","prediction_trial","0","","true","","0","false","false","false","false","false","false","[2,0]","101","101","1","","","","","","",""
"","","","","","image-keyboard-response","93","221852","0.0-68.0","6111a1893c0daa13e23ab15a","665500ab8938657b03fbdba8","665792bd2a087799023aae4e","257","stimuli/01011010.jpg"," ","","feedback_trial","2","","","","","","","","","","","","","","","","","","","","",""
"","","","","","image-keyboard-response","94","222813","0.0-69.0","6111a1893c0daa13e23ab15a","665500ab8938657b03fbdba8","665792bd2a087799023aae4e","960","stimuli/0000100.jpg","0","","prediction_trial","0","","true","","0","false","true","true","true","false","true","[0]","000","100","1","","","","","","",""
"","","","","","image-keyboard-response","95","223267","0.0-70.0","6111a1893c0daa13e23ab15a","665500ab8938657b03fbdba8","665792bd2a087799023aae4e","453","stimuli/00001000.jpg"," ","","feedback_trial","0","","","","","","","","","","","","","","","","","","","","",""
"","","","","","image-keyboard-response","96","224362","0.0-71.0","6111a1893c0daa13e23ab15a","665500ab8938657b03fbdba8","665792bd2a087799023aae4e","1094","stimuli/0010100.jpg","0","","prediction_trial","0","","true","","0","false","true","true","true","false","true","[0]","010","100","1","","","","","","",""
"","","","","","image-keyboard-response","97","224737","0.0-72.0","6111a1893c0daa13e23ab15a","665500ab8938657b03fbdba8","665792bd2a087799023aae4e","374","stimuli/00101000.jpg"," ","","feedback_trial","0","","","","","","","","","","","","","","","","","","","","",""
"","","","","","image-keyboard-response","98","225505","0.0-73.0","6111a1893c0daa13e23ab15a","665500ab8938657b03fbdba8","665792bd2a087799023aae4e","766","stimuli/1000000.jpg","1","","prediction_trial","1","","true","","1","true","true","true","true","true","true","[1]","000","000","1","","","","","","",""
"","","","","","image-keyboard-response","99","225880","0.0-74.0","6111a1893c0daa13e23ab15a","665500ab8938657b03fbdba8","665792bd2a087799023aae4e","374","stimuli/10000001.jpg"," ","","feedback_trial","1","","","","","","","","","","","","","","","","","","","","",""
"","","","","","image-keyboard-response","100","226750","0.0-75.0","6111a1893c0daa13e23ab15a","665500ab8938657b03fbdba8","665792bd2a087799023aae4e","869","stimuli/1000100.jpg","1","","prediction_trial","1","","true","","1","true","true","true","true","true","true","[1]","000","100","1","","","","","","",""
"","","","","","image-keyboard-response","101","227257","0.0-76.0","6111a1893c0daa13e23ab15a","665500ab8938657b03fbdba8","665792bd2a087799023aae4e","506","stimuli/10001001.jpg"," ","","feedback_trial","1","","","","","","","","","","","","","","","","","","","","",""
"","","","","","image-keyboard-response","102","228076","0.0-77.0","6111a1893c0daa13e23ab15a","665500ab8938657b03fbdba8","665792bd2a087799023aae4e","817","stimuli/2110001.jpg","2","","prediction_trial","2","","true","","2","false","true","true","true","false","true","[2]","110","001","1","","","","","","",""
"","","","","","image-keyboard-response","103","228500","0.0-78.0","6111a1893c0daa13e23ab15a","665500ab8938657b03fbdba8","665792bd2a087799023aae4e","423","stimuli/21100012.jpg"," ","","feedback_trial","2","","","","","","","","","","","","","","","","","","","","",""
"","","","","","image-keyboard-response","104","229318","0.0-79.0","6111a1893c0daa13e23ab15a","665500ab8938657b03fbdba8","665792bd2a087799023aae4e","807","stimuli/1100010.jpg","1","","prediction_trial","1","","true","","1","false","true","true","true","false","true","[1]","100","010","1","","","","","","",""
"","","","","","image-keyboard-response","105","229808","0.0-80.0","6111a1893c0daa13e23ab15a","665500ab8938657b03fbdba8","665792bd2a087799023aae4e","489","stimuli/11000101.jpg"," ","","feedback_trial","1","","","","","","","","","","","","","","","","","","","","",""
"","","","","","image-keyboard-response","106","230828","0.0-81.0","6111a1893c0daa13e23ab15a","665500ab8938657b03fbdba8","665792bd2a087799023aae4e","1019","stimuli/2100011.jpg","1","","prediction_trial","2","","false","","2","false","false","true","true","false","false","[2]","100","011","0","","","","","","",""
"","","","","","image-keyboard-response","107","231527","0.0-82.0","6111a1893c0daa13e23ab15a","665500ab8938657b03fbdba8","665792bd2a087799023aae4e","698","stimuli/21000112.jpg"," ","","feedback_trial","2","","","","","","","","","","","","","","","","","","","","",""
"","","","","","image-keyboard-response","108","232314","0.0-83.0","6111a1893c0daa13e23ab15a","665500ab8938657b03fbdba8","665792bd2a087799023aae4e","786","stimuli/2100110.jpg","2","","prediction_trial","2","","true","","2","true","true","true","true","true","true","[2]","100","110","1","","","","","","",""
"","","","","","image-keyboard-response","109","232769","0.0-84.0","6111a1893c0daa13e23ab15a","665500ab8938657b03fbdba8","665792bd2a087799023aae4e","454","stimuli/21001102.jpg"," ","","feedback_trial","2","","","","","","","","","","","","","","","","","","","","",""
"","","","","","image-keyboard-response","110","233651","0.0-85.0","6111a1893c0daa13e23ab15a","665500ab8938657b03fbdba8","665792bd2a087799023aae4e","881","stimuli/1101000.jpg","1","","prediction_trial","1","","true","","1","true","true","true","true","true","true","[1]","101","000","1","","","","","","",""
"","","","","","image-keyboard-response","111","233960","0.0-86.0","6111a1893c0daa13e23ab15a","665500ab8938657b03fbdba8","665792bd2a087799023aae4e","308","stimuli/11010001.jpg"," ","","feedback_trial","1","","","","","","","","","","","","","","","","","","","","",""
"","","","","","image-keyboard-response","112","235386","0.0-87.0","6111a1893c0daa13e23ab15a","665500ab8938657b03fbdba8","665792bd2a087799023aae4e","1425","stimuli/2111001.jpg","2","","prediction_trial","2","","true","","2","false","true","false","false","false","false","[1,2,0]","111","001","1","","","","","","",""
"","","","","","image-keyboard-response","113","235986","0.0-88.0","6111a1893c0daa13e23ab15a","665500ab8938657b03fbdba8","665792bd2a087799023aae4e","599","stimuli/21110012.jpg"," ","","feedback_trial","1","","","","","","","","","","","","","","","","","","","","",""
"","","","","","image-keyboard-response","114","236995","0.0-89.0","6111a1893c0daa13e23ab15a","665500ab8938657b03fbdba8","665792bd2a087799023aae4e","1007","stimuli/0001110.jpg","1","","prediction_trial","0","","false","","0","false","false","true","true","false","false","[0]","001","110","0","","","","","","",""
"","","","","","image-keyboard-response","115","237442","0.0-90.0","6111a1893c0daa13e23ab15a","665500ab8938657b03fbdba8","665792bd2a087799023aae4e","441","stimuli/00011100.jpg"," ","","feedback_trial","0","","","","","","","","","","","","","","","","","","","","",""
"","","","","","image-keyboard-response","116","238910","0.0-91.0","6111a1893c0daa13e23ab15a","665500ab8938657b03fbdba8","665792bd2a087799023aae4e","1466","stimuli/0110011.jpg","0","","prediction_trial","0","","true","","0","true","true","false","false","false","false","[1,0]","110","011","1","","","","","","",""
"","","","","","image-keyboard-response","117","239387","0.0-92.0","6111a1893c0daa13e23ab15a","665500ab8938657b03fbdba8","665792bd2a087799023aae4e","476","stimuli/01100110.jpg"," ","","feedback_trial","1","","","","","","","","","","","","","","","","","","","","",""
"","","","","","image-keyboard-response","118","240329","0.0-93.0","6111a1893c0daa13e23ab15a","665500ab8938657b03fbdba8","665792bd2a087799023aae4e","941","stimuli/0111111.jpg","1","","prediction_trial","1","","true","","0","false","false","false","false","false","false","[0,2,1]","111","111","1","","","","","","",""
"","","","","","image-keyboard-response","119","240793","0.0-94.0","6111a1893c0daa13e23ab15a","665500ab8938657b03fbdba8","665792bd2a087799023aae4e","463","stimuli/01111111.jpg"," ","","feedback_trial","0","","","","","","","","","","","","","","","","","","","","",""
"","","","","","image-keyboard-response","120","241520","0.0-95.0","6111a1893c0daa13e23ab15a","665500ab8938657b03fbdba8","665792bd2a087799023aae4e","725","stimuli/0000000.jpg","0","","prediction_trial","0","","true","","0","true","true","true","true","true","true","[0]","000","000","1","","","","","","",""
"","","","","","image-keyboard-response","121","241908","0.0-96.0","6111a1893c0daa13e23ab15a","665500ab8938657b03fbdba8","665792bd2a087799023aae4e","387","stimuli/00000000.jpg"," ","","feedback_trial","0","","","","","","","","","","","","","","","","","","","","",""
"","","","","","image-keyboard-response","122","243435","0.0-97.0","6111a1893c0daa13e23ab15a","665500ab8938657b03fbdba8","665792bd2a087799023aae4e","1526","stimuli/0010111.jpg","1","","prediction_trial","0","","false","","0","false","false","true","true","false","false","[0]","010","111","0","","","","","","",""
"","","","","","image-keyboard-response","123","244192","0.0-98.0","6111a1893c0daa13e23ab15a","665500ab8938657b03fbdba8","665792bd2a087799023aae4e","756","stimuli/00101110.jpg"," ","","feedback_trial","0","","","","","","","","","","","","","","","","","","","","",""
"","","","","","image-keyboard-response","124","245388","0.0-99.0","6111a1893c0daa13e23ab15a","665500ab8938657b03fbdba8","665792bd2a087799023aae4e","1194","stimuli/0100100.jpg","0","","prediction_trial","0","","true","","0","false","true","false","true","false","true","[0]","100","100","1","","","","","","",""
"","","","","","image-keyboard-response","125","245923","0.0-100.0","6111a1893c0daa13e23ab15a","665500ab8938657b03fbdba8","665792bd2a087799023aae4e","534","stimuli/01001000.jpg"," ","","feedback_trial","0","","","","","","","","","","","","","","","","","","","","",""
"","","","","","image-keyboard-response","126","247224","0.0-101.0","6111a1893c0daa13e23ab15a","665500ab8938657b03fbdba8","665792bd2a087799023aae4e","1293","stimuli/0110110.jpg","0","","prediction_trial","0","","true","","0","false","false","false","false","false","false","[0,1]","110","110","1","","","","","","",""
"","","","","","image-keyboard-response","127","247590","0.0-102.0","6111a1893c0daa13e23ab15a","665500ab8938657b03fbdba8","665792bd2a087799023aae4e","365","stimuli/01101100.jpg"," ","","feedback_trial","0","","","","","","","","","","","","","","","","","","","","",""
"","","","","","image-keyboard-response","128","248384","0.0-103.0","6111a1893c0daa13e23ab15a","665500ab8938657b03fbdba8","665792bd2a087799023aae4e","792","stimuli/0110010.jpg","0","","prediction_trial","1","","false","","0","true","true","false","false","false","false","[1,0]","110","010","0","","","","","","",""
"","","","","","image-keyboard-response","129","248770","0.0-104.0","6111a1893c0daa13e23ab15a","665500ab8938657b03fbdba8","665792bd2a087799023aae4e","385","stimuli/01100101.jpg"," ","","feedback_trial","1","","","","","","","","","","","","","","","","","","","","",""
"","","","","","image-keyboard-response","130","251183","0.0-105.0","6111a1893c0daa13e23ab15a","665500ab8938657b03fbdba8","665792bd2a087799023aae4e","2412","stimuli/2011101.jpg","2","","prediction_trial","2","","true","","2","false","false","false","false","false","false","[2,1]","011","101","1","","","","","","",""
"","","","","","image-keyboard-response","131","251726","0.0-106.0","6111a1893c0daa13e23ab15a","665500ab8938657b03fbdba8","665792bd2a087799023aae4e","542","stimuli/20111012.jpg"," ","","feedback_trial","2","","","","","","","","","","","","","","","","","","","","",""
"","","","","","image-keyboard-response","132","252675","0.0-107.0","6111a1893c0daa13e23ab15a","665500ab8938657b03fbdba8","665792bd2a087799023aae4e","948","stimuli/0001010.jpg","0","","prediction_trial","0","","true","","0","true","true","true","true","true","true","[0]","001","010","1","","","","","","",""
"","","","","","image-keyboard-response","133","253013","0.0-108.0","6111a1893c0daa13e23ab15a","665500ab8938657b03fbdba8","665792bd2a087799023aae4e","337","stimuli/00010100.jpg"," ","","feedback_trial","0","","","","","","","","","","","","","","","","","","","","",""
"","","","","","image-keyboard-response","134","254047","0.0-109.0","6111a1893c0daa13e23ab15a","665500ab8938657b03fbdba8","665792bd2a087799023aae4e","1033","stimuli/2011000.jpg","2","","prediction_trial","1","","false","","2","true","true","false","false","false","false","[1,2]","011","000","0","","","","","","",""
"","","","","","image-keyboard-response","135","254618","0.0-110.0","6111a1893c0daa13e23ab15a","665500ab8938657b03fbdba8","665792bd2a087799023aae4e","570","stimuli/20110001.jpg"," ","","feedback_trial","1","","","","","","","","","","","","","","","","","","","","",""
"","","","","","image-keyboard-response","136","255334","0.0-111.0","6111a1893c0daa13e23ab15a","665500ab8938657b03fbdba8","665792bd2a087799023aae4e","714","stimuli/2101011.jpg","1","","prediction_trial","2","","false","","2","false","false","false","false","false","false","[0,2]","101","011","0","","","","","","",""
"","","","","","image-keyboard-response","137","255790","0.0-112.0","6111a1893c0daa13e23ab15a","665500ab8938657b03fbdba8","665792bd2a087799023aae4e","448","stimuli/21010112.jpg"," ","","feedback_trial","0","","","","","","","","","","","","","","","","","","","","",""
"","","","","","image-keyboard-response","138","256426","0.0-113.0","6111a1893c0daa13e23ab15a","665500ab8938657b03fbdba8","665792bd2a087799023aae4e","635","stimuli/2100100.jpg","2","","prediction_trial","2","","true","","2","true","true","true","true","true","true","[2]","100","100","1","","","","","","",""
"","","","","","image-keyboard-response","139","256770","0.0-114.0","6111a1893c0daa13e23ab15a","665500ab8938657b03fbdba8","665792bd2a087799023aae4e","342","stimuli/21001002.jpg"," ","","feedback_trial","2","","","","","","","","","","","","","","","","","","","","",""
"","","","","","image-keyboard-response","140","257492","0.0-115.0","6111a1893c0daa13e23ab15a","665500ab8938657b03fbdba8","665792bd2a087799023aae4e","721","stimuli/1011110.jpg","0","","prediction_trial","1","","false","","1","false","false","false","false","false","false","[1,2]","011","110","0","","","","","","",""
"","","","","","image-keyboard-response","141","257920","0.0-116.0","6111a1893c0daa13e23ab15a","665500ab8938657b03fbdba8","665792bd2a087799023aae4e","428","stimuli/10111101.jpg"," ","","feedback_trial","1","","","","","","","","","","","","","","","","","","","","",""
"","","","","","image-keyboard-response","142","258547","0.0-117.0","6111a1893c0daa13e23ab15a","665500ab8938657b03fbdba8","665792bd2a087799023aae4e","626","stimuli/0000001.jpg","0","","prediction_trial","0","","true","","0","true","true","true","true","true","true","[0]","000","001","1","","","","","","",""
"","","","","","image-keyboard-response","143","258899","0.0-118.0","6111a1893c0daa13e23ab15a","665500ab8938657b03fbdba8","665792bd2a087799023aae4e","351","stimuli/00000010.jpg"," ","","feedback_trial","0","","","","","","","","","","","","","","","","","","","","",""
"","","","","","image-keyboard-response","144","259653","0.0-119.0","6111a1893c0daa13e23ab15a","665500ab8938657b03fbdba8","665792bd2a087799023aae4e","753","stimuli/0111000.jpg","0","","prediction_trial","2","","false","","0","true","true","false","false","false","false","[0,2,1]","111","000","0","","","","","","",""
"","","","","","image-keyboard-response","145","260188","0.0-120.0","6111a1893c0daa13e23ab15a","665500ab8938657b03fbdba8","665792bd2a087799023aae4e","533","stimuli/01110002.jpg"," ","","feedback_trial","0","","","","","","","","","","","","","","","","","","","","",""
"","","","","","image-keyboard-response","146","261015","0.0-121.0","6111a1893c0daa13e23ab15a","665500ab8938657b03fbdba8","665792bd2a087799023aae4e","825","stimuli/0011111.jpg","0","","prediction_trial","0","","true","","0","false","false","true","true","false","false","[0]","011","111","1","","","","","","",""
"","","","","","image-keyboard-response","147","261394","0.0-122.0","6111a1893c0daa13e23ab15a","665500ab8938657b03fbdba8","665792bd2a087799023aae4e","378","stimuli/00111110.jpg"," ","","feedback_trial","0","","","","","","","","","","","","","","","","","","","","",""
"","","","","","image-keyboard-response","148","262241","0.0-123.0","6111a1893c0daa13e23ab15a","665500ab8938657b03fbdba8","665792bd2a087799023aae4e","837","stimuli/2100001.jpg","2","","prediction_trial","2","","true","","2","false","true","true","true","false","true","[2]","100","001","1","","","","","","",""
"","","","","","image-keyboard-response","149","262752","0.0-124.0","6111a1893c0daa13e23ab15a","665500ab8938657b03fbdba8","665792bd2a087799023aae4e","509","stimuli/21000012.jpg"," ","","feedback_trial","2","","","","","","","","","","","","","","","","","","","","",""
"","","","","","image-keyboard-response","150","264503","0.0-125.0","6111a1893c0daa13e23ab15a","665500ab8938657b03fbdba8","665792bd2a087799023aae4e","1759","stimuli/1101011.jpg","1","","prediction_trial","1","","true","","1","false","false","true","true","false","false","[1]","101","011","1","","","","","","",""
"","","","","","image-keyboard-response","151","264826","0.0-126.0","6111a1893c0daa13e23ab15a","665500ab8938657b03fbdba8","665792bd2a087799023aae4e","323","stimuli/11010111.jpg"," ","","feedback_trial","1","","","","","","","","","","","","","","","","","","","","",""
"","","","","","image-keyboard-response","152","265612","0.0-127.0","6111a1893c0daa13e23ab15a","665500ab8938657b03fbdba8","665792bd2a087799023aae4e","784","stimuli/0000010.jpg","0","","prediction_trial","0","","true","","0","true","true","true","true","true","true","[0]","000","010","1","","","","","","",""
"","","","","","image-keyboard-response","153","265922","0.0-128.0","6111a1893c0daa13e23ab15a","665500ab8938657b03fbdba8","665792bd2a087799023aae4e","309","stimuli/00000100.jpg"," ","","feedback_trial","0","","","","","","","","","","","","","","","","","","","","",""
"","","","","","image-keyboard-response","154","266441","0.0-129.0","6111a1893c0daa13e23ab15a","665500ab8938657b03fbdba8","665792bd2a087799023aae4e","518","stimuli/0001000.jpg","0","","prediction_trial","0","","true","","0","true","true","true","true","true","true","[0]","001","000","1","","","","","","",""
"","","","","","image-keyboard-response","155","266822","0.0-130.0","6111a1893c0daa13e23ab15a","665500ab8938657b03fbdba8","665792bd2a087799023aae4e","379","stimuli/00010000.jpg"," ","","feedback_trial","0","","","","","","","","","","","","","","","","","","","","",""
"","","","","","image-keyboard-response","156","267475","0.0-131.0","6111a1893c0daa13e23ab15a","665500ab8938657b03fbdba8","665792bd2a087799023aae4e","653","stimuli/0111011.jpg","0","","prediction_trial","0","","true","","0","true","true","false","false","false","false","[0,2,1]","111","011","1","","","","","","",""
"","","","","","image-keyboard-response","157","267886","0.0-132.0","6111a1893c0daa13e23ab15a","665500ab8938657b03fbdba8","665792bd2a087799023aae4e","410","stimuli/01110110.jpg"," ","","feedback_trial","0","","","","","","","","","","","","","","","","","","","","",""
"","","","","","image-keyboard-response","158","271240","0.0-133.0","6111a1893c0daa13e23ab15a","665500ab8938657b03fbdba8","665792bd2a087799023aae4e","3353","stimuli/2001101.jpg","0","","prediction_trial","2","","false","","2","false","false","false","true","false","false","[2]","001","101","0","","","","","","",""
"","","","","","image-keyboard-response","159","271697","0.0-134.0","6111a1893c0daa13e23ab15a","665500ab8938657b03fbdba8","665792bd2a087799023aae4e","455","stimuli/20011012.jpg"," ","","feedback_trial","2","","","","","","","","","","","","","","","","","","","","",""
"","","","","","image-keyboard-response","160","272967","0.0-135.0","6111a1893c0daa13e23ab15a","665500ab8938657b03fbdba8","665792bd2a087799023aae4e","1269","stimuli/1111011.jpg","1","","prediction_trial","1","","true","","1","false","false","false","false","false","false","[1,0,2]","111","011","1","","","","","","",""
"","","","","","image-keyboard-response","161","273389","0.0-136.0","6111a1893c0daa13e23ab15a","665500ab8938657b03fbdba8","665792bd2a087799023aae4e","421","stimuli/11110111.jpg"," ","","feedback_trial","1","","","","","","","","","","","","","","","","","","","","",""
"","","","","","image-keyboard-response","162","274411","0.0-137.0","6111a1893c0daa13e23ab15a","665500ab8938657b03fbdba8","665792bd2a087799023aae4e","1021","stimuli/1010111.jpg","1","","prediction_trial","1","","true","","1","false","false","false","true","false","false","[1]","010","111","1","","","","","","",""
"","","","","","image-keyboard-response","163","274698","0.0-138.0","6111a1893c0daa13e23ab15a","665500ab8938657b03fbdba8","665792bd2a087799023aae4e","286","stimuli/10101111.jpg"," ","","feedback_trial","1","","","","","","","","","","","","","","","","","","","","",""
"","","","","","image-keyboard-response","164","275286","0.0-139.0","6111a1893c0daa13e23ab15a","665500ab8938657b03fbdba8","665792bd2a087799023aae4e","587","stimuli/0100111.jpg","1","","prediction_trial","0","","false","","0","false","false","false","true","false","false","[0]","100","111","0","","","","","","",""
"","","","","","image-keyboard-response","165","275666","0.0-140.0","6111a1893c0daa13e23ab15a","665500ab8938657b03fbdba8","665792bd2a087799023aae4e","378","stimuli/01001110.jpg"," ","","feedback_trial","0","","","","","","","","","","","","","","","","","","","","",""
"","","","","","image-keyboard-response","166","276470","0.0-141.0","6111a1893c0daa13e23ab15a","665500ab8938657b03fbdba8","665792bd2a087799023aae4e","803","stimuli/1111000.jpg","1","","prediction_trial","2","","false","","1","true","true","false","false","false","false","[0,2,1]","111","000","0","","","","","","",""
"","","","","","image-keyboard-response","167","276921","0.0-142.0","6111a1893c0daa13e23ab15a","665500ab8938657b03fbdba8","665792bd2a087799023aae4e","450","stimuli/11110002.jpg"," ","","feedback_trial","0","","","","","","","","","","","","","","","","","","","","",""
"","","","","","image-keyboard-response","168","277766","0.0-143.0","6111a1893c0daa13e23ab15a","665500ab8938657b03fbdba8","665792bd2a087799023aae4e","844","stimuli/2110101.jpg","2","","prediction_trial","2","","true","","2","false","false","true","true","false","false","[2]","110","101","1","","","","","","",""
"","","","","","image-keyboard-response","169","278123","0.0-144.0","6111a1893c0daa13e23ab15a","665500ab8938657b03fbdba8","665792bd2a087799023aae4e","356","stimuli/21101012.jpg"," ","","feedback_trial","2","","","","","","","","","","","","","","","","","","","","",""
"","","","","","image-keyboard-response","170","279197","0.0-145.0","6111a1893c0daa13e23ab15a","665500ab8938657b03fbdba8","665792bd2a087799023aae4e","1063","stimuli/2101010.jpg","2","","prediction_trial","0","","false","","2","true","true","false","false","false","false","[0,2]","101","010","0","","","","","","",""
"","","","","","image-keyboard-response","171","279590","0.0-146.0","6111a1893c0daa13e23ab15a","665500ab8938657b03fbdba8","665792bd2a087799023aae4e","391","stimuli/21010100.jpg"," ","","feedback_trial","0","","","","","","","","","","","","","","","","","","","","",""
"","","","","","image-keyboard-response","172","280408","0.0-147.0","6111a1893c0daa13e23ab15a","665500ab8938657b03fbdba8","665792bd2a087799023aae4e","817","stimuli/2111010.jpg","2","","prediction_trial","1","","false","","2","true","true","false","false","false","false","[1,0,2]","111","010","0","","","","","","",""
"","","","","","image-keyboard-response","173","280820","0.0-148.0","6111a1893c0daa13e23ab15a","665500ab8938657b03fbdba8","665792bd2a087799023aae4e","412","stimuli/21110101.jpg"," ","","feedback_trial","1","","","","","","","","","","","","","","","","","","","","",""
"","","","","","image-keyboard-response","174","281444","0.0-149.0","6111a1893c0daa13e23ab15a","665500ab8938657b03fbdba8","665792bd2a087799023aae4e","623","stimuli/1111111.jpg","2","","prediction_trial","1","","false","","1","false","false","false","false","false","false","[0,2,1]","111","111","0","","","","","","",""
"","","","","","image-keyboard-response","175","282079","0.0-150.0","6111a1893c0daa13e23ab15a","665500ab8938657b03fbdba8","665792bd2a087799023aae4e","634","stimuli/11111111.jpg"," ","","feedback_trial","0","","","","","","","","","","","","","","","","","","","","",""
"","","","","","image-keyboard-response","176","283215","0.0-151.0","6111a1893c0daa13e23ab15a","665500ab8938657b03fbdba8","665792bd2a087799023aae4e","1135","stimuli/1000111.jpg","1","","prediction_trial","1","","true","","1","false","false","true","true","false","false","[1]","000","111","1","","","","","","",""
"","","","","","image-keyboard-response","177","283539","0.0-152.0","6111a1893c0daa13e23ab15a","665500ab8938657b03fbdba8","665792bd2a087799023aae4e","322","stimuli/10001111.jpg"," ","","feedback_trial","1","","","","","","","","","","","","","","","","","","","","",""
"","","","","","image-keyboard-response","178","284201","0.0-153.0","6111a1893c0daa13e23ab15a","665500ab8938657b03fbdba8","665792bd2a087799023aae4e","661","stimuli/2111110.jpg","2","","prediction_trial","0","","false","","2","true","true","false","false","false","false","[2,0,1]","111","110","0","","","","","","",""
"","","","","","image-keyboard-response","179","284538","0.0-154.0","6111a1893c0daa13e23ab15a","665500ab8938657b03fbdba8","665792bd2a087799023aae4e","336","stimuli/21111100.jpg"," ","","feedback_trial","2","","","","","","","","","","","","","","","","","","","","",""
"","","","","","image-keyboard-response","180","285173","0.0-155.0","6111a1893c0daa13e23ab15a","665500ab8938657b03fbdba8","665792bd2a087799023aae4e","634","stimuli/1111100.jpg","1","","prediction_trial","0","","false","","1","true","true","false","false","false","false","[1,2,0]","111","100","0","","","","","","",""
"","","","","","image-keyboard-response","181","285556","0.0-156.0","6111a1893c0daa13e23ab15a","665500ab8938657b03fbdba8","665792bd2a087799023aae4e","372","stimuli/11111000.jpg"," ","","feedback_trial","1","","","","","","","","","","","","","","","","","","","","",""
"","","","","","image-keyboard-response","182","286396","0.0-157.0","6111a1893c0daa13e23ab15a","665500ab8938657b03fbdba8","665792bd2a087799023aae4e","839","stimuli/2001011.jpg","1","","prediction_trial","2","","false","","2","false","false","false","true","false","false","[2]","001","011","0","","","","","","",""
"","","","","","image-keyboard-response","183","286757","0.0-158.0","6111a1893c0daa13e23ab15a","665500ab8938657b03fbdba8","665792bd2a087799023aae4e","360","stimuli/20010112.jpg"," ","","feedback_trial","2","","","","","","","","","","","","","","","","","","","","",""
"","","","","","image-keyboard-response","184","287522","0.0-159.0","6111a1893c0daa13e23ab15a","665500ab8938657b03fbdba8","665792bd2a087799023aae4e","763","stimuli/1011111.jpg","0","","prediction_trial","1","","false","","1","false","false","false","false","false","false","[1,2]","011","111","0","","","","","","",""
"","","","","","image-keyboard-response","185","287904","0.0-160.0","6111a1893c0daa13e23ab15a","665500ab8938657b03fbdba8","665792bd2a087799023aae4e","380","stimuli/10111111.jpg"," ","","feedback_trial","1","","","","","","","","","","","","","","","","","","","","",""
"","","","","","image-keyboard-response","186","288788","0.0-161.0","6111a1893c0daa13e23ab15a","665500ab8938657b03fbdba8","665792bd2a087799023aae4e","884","stimuli/1111101.jpg","1","","prediction_trial","1","","true","","1","true","true","false","false","false","false","[2,1,0]","111","101","1","","","","","","",""
"","","","","","image-keyboard-response","187","289086","0.0-162.0","6111a1893c0daa13e23ab15a","665500ab8938657b03fbdba8","665792bd2a087799023aae4e","296","stimuli/11111011.jpg"," ","","feedback_trial","2","","","","","","","","","","","","","","","","","","","","",""
"","","","","","image-keyboard-response","188","289954","0.0-163.0","6111a1893c0daa13e23ab15a","665500ab8938657b03fbdba8","665792bd2a087799023aae4e","867","stimuli/2101111.jpg","1","","prediction_trial","2","","false","","2","false","false","false","false","false","false","[2,0]","101","111","0","","","","","","",""
"","","","","","image-keyboard-response","189","290325","0.0-164.0","6111a1893c0daa13e23ab15a","665500ab8938657b03fbdba8","665792bd2a087799023aae4e","370","stimuli/21011112.jpg"," ","","feedback_trial","2","","","","","","","","","","","","","","","","","","","","",""
"","","","","","image-keyboard-response","190","291169","0.0-165.0","6111a1893c0daa13e23ab15a","665500ab8938657b03fbdba8","665792bd2a087799023aae4e","843","stimuli/1111010.jpg","0","","prediction_trial","0","","true","","1","false","true","false","false","false","false","[0,2,1]","111","010","1","","","","","","",""
"","","","","","image-keyboard-response","191","291543","0.0-166.0","6111a1893c0daa13e23ab15a","665500ab8938657b03fbdba8","665792bd2a087799023aae4e","373","stimuli/11110100.jpg"," ","","feedback_trial","0","","","","","","","","","","","","","","","","","","","","",""
"","","","","","image-keyboard-response","192","293176","0.0-167.0","6111a1893c0daa13e23ab15a","665500ab8938657b03fbdba8","665792bd2a087799023aae4e","1623","stimuli/0101111.jpg","1","","prediction_trial","2","","false","","0","false","false","false","false","false","false","[2,0]","101","111","0","","","","","","",""
"","","","","","image-keyboard-response","193","293881","0.0-168.0","6111a1893c0daa13e23ab15a","665500ab8938657b03fbdba8","665792bd2a087799023aae4e","704","stimuli/01011112.jpg"," ","","feedback_trial","2","","","","","","","","","","","","","","","","","","","","",""
"","","","","","image-keyboard-response","194","294584","0.0-169.0","6111a1893c0daa13e23ab15a","665500ab8938657b03fbdba8","665792bd2a087799023aae4e","701","stimuli/1001001.jpg","1","","prediction_trial","1","","true","","1","true","true","true","true","true","true","[1]","001","001","1","","","","","","",""
"","","","","","image-keyboard-response","195","294915","0.0-170.0","6111a1893c0daa13e23ab15a","665500ab8938657b03fbdba8","665792bd2a087799023aae4e","330","stimuli/10010011.jpg"," ","","feedback_trial","1","","","","","","","","","","","","","","","","","","","","",""
"","","","","","image-keyboard-response","196","295687","0.0-171.0","6111a1893c0daa13e23ab15a","665500ab8938657b03fbdba8","665792bd2a087799023aae4e","770","stimuli/2001100.jpg","2","","prediction_trial","2","","true","","2","true","true","false","true","false","true","[2]","001","100","1","","","","","","",""
"","","","","","image-keyboard-response","197","296016","0.0-172.0","6111a1893c0daa13e23ab15a","665500ab8938657b03fbdba8","665792bd2a087799023aae4e","328","stimuli/20011002.jpg"," ","","feedback_trial","2","","","","","","","","","","","","","","","","","","","","",""
"","","","","","image-keyboard-response","198","297183","0.0-173.0","6111a1893c0daa13e23ab15a","665500ab8938657b03fbdba8","665792bd2a087799023aae4e","1166","stimuli/1001010.jpg","1","","prediction_trial","1","","true","","1","false","true","true","true","false","true","[1]","001","010","1","","","","","","",""
"","","","","","image-keyboard-response","199","297624","0.0-174.0","6111a1893c0daa13e23ab15a","665500ab8938657b03fbdba8","665792bd2a087799023aae4e","440","stimuli/10010101.jpg"," ","","feedback_trial","1","","","","","","","","","","","","","","","","","","","","",""
"","","","","","image-keyboard-response","200","298989","0.0-175.0","6111a1893c0daa13e23ab15a","665500ab8938657b03fbdba8","665792bd2a087799023aae4e","1364","stimuli/0100000.jpg","0","","prediction_trial","0","","true","","0","true","true","false","true","false","true","[0]","100","000","1","","","","","","",""
"","","","","","image-keyboard-response","201","299280","0.0-176.0","6111a1893c0daa13e23ab15a","665500ab8938657b03fbdba8","665792bd2a087799023aae4e","290","stimuli/01000000.jpg"," ","","feedback_trial","0","","","","","","","","","","","","","","","","","","","","",""
"","","","","","image-keyboard-response","202","300076","0.0-177.0","6111a1893c0daa13e23ab15a","665500ab8938657b03fbdba8","665792bd2a087799023aae4e","795","stimuli/0111010.jpg","0","","prediction_trial","2","","false","","0","true","true","false","false","false","false","[0,1,2]","111","010","0","","","","","","",""
"","","","","","image-keyboard-response","203","300631","0.0-178.0","6111a1893c0daa13e23ab15a","665500ab8938657b03fbdba8","665792bd2a087799023aae4e","548","stimuli/01110102.jpg"," ","","feedback_trial","0","","","","","","","","","","","","","","","","","","","","",""
"","","","","","image-keyboard-response","204","301218","0.0-179.0","6111a1893c0daa13e23ab15a","665500ab8938657b03fbdba8","665792bd2a087799023aae4e","586","stimuli/1000010.jpg","1","","prediction_trial","1","","true","","1","false","true","true","true","false","true","[1]","000","010","1","","","","","","",""
"","","","","","image-keyboard-response","205","301590","0.0-180.0","6111a1893c0daa13e23ab15a","665500ab8938657b03fbdba8","665792bd2a087799023aae4e","371","stimuli/10000101.jpg"," ","","feedback_trial","1","","","","","","","","","","","","","","","","","","","","",""
"","","","","","image-keyboard-response","206","302781","0.0-181.0","6111a1893c0daa13e23ab15a","665500ab8938657b03fbdba8","665792bd2a087799023aae4e","1190","stimuli/0010110.jpg","1","","prediction_trial","0","","false","","0","false","false","true","true","false","false","[0]","010","110","0","","","","","","",""
"","","","","","image-keyboard-response","207","303138","0.0-182.0","6111a1893c0daa13e23ab15a","665500ab8938657b03fbdba8","665792bd2a087799023aae4e","356","stimuli/00101100.jpg"," ","","feedback_trial","0","","","","","","","","","","","","","","","","","","","","",""
"","","","","","image-keyboard-response","208","303746","0.0-183.0","6111a1893c0daa13e23ab15a","665500ab8938657b03fbdba8","665792bd2a087799023aae4e","608","stimuli/2000110.jpg","2","","prediction_trial","2","","true","","2","true","true","true","true","true","true","[2]","000","110","1","","","","","","",""
"","","","","","image-keyboard-response","209","304125","0.0-184.0","6111a1893c0daa13e23ab15a","665500ab8938657b03fbdba8","665792bd2a087799023aae4e","377","stimuli/20001102.jpg"," ","","feedback_trial","2","","","","","","","","","","","","","","","","","","","","",""
"","","","","","image-keyboard-response","210","307643","0.0-185.0","6111a1893c0daa13e23ab15a","665500ab8938657b03fbdba8","665792bd2a087799023aae4e","3517","stimuli/1001011.jpg","1","","prediction_trial","1","","true","","1","false","false","true","true","false","false","[1]","001","011","1","","","","","","",""
"","","","","","image-keyboard-response","211","307945","0.0-186.0","6111a1893c0daa13e23ab15a","665500ab8938657b03fbdba8","665792bd2a087799023aae4e","301","stimuli/10010111.jpg"," ","","feedback_trial","1","","","","","","","","","","","","","","","","","","","","",""
"","","","","","image-keyboard-response","212","308752","0.0-187.0","6111a1893c0daa13e23ab15a","665500ab8938657b03fbdba8","665792bd2a087799023aae4e","805","stimuli/1001110.jpg","1","","prediction_trial","1","","true","","1","false","false","true","true","false","false","[1]","001","110","1","","","","","","",""
"","","","","","image-keyboard-response","213","311044","0.0-188.0","6111a1893c0daa13e23ab15a","665500ab8938657b03fbdba8","665792bd2a087799023aae4e","2291","stimuli/10011101.jpg"," ","","feedback_trial","1","","","","","","","","","","","","","","","","","","","","",""
"","","","","","image-keyboard-response","214","312202","0.0-189.0","6111a1893c0daa13e23ab15a","665500ab8938657b03fbdba8","665792bd2a087799023aae4e","1150","stimuli/1000011.jpg","1","","prediction_trial","1","","true","","1","false","false","true","true","false","false","[1]","000","011","1","","","","","","",""
"","","","","","image-keyboard-response","215","312532","0.0-190.0","6111a1893c0daa13e23ab15a","665500ab8938657b03fbdba8","665792bd2a087799023aae4e","329","stimuli/10000111.jpg"," ","","feedback_trial","1","","","","","","","","","","","","","","","","","","","","",""
"","","","","","image-keyboard-response","216","313074","0.0-191.0","6111a1893c0daa13e23ab15a","665500ab8938657b03fbdba8","665792bd2a087799023aae4e","541","stimuli/1110101.jpg","1","","prediction_trial","1","","true","","1","true","true","false","false","false","false","[1,0]","110","101","1","","","","","","",""
"","","","","","image-keyboard-response","217","313432","0.0-192.0","6111a1893c0daa13e23ab15a","665500ab8938657b03fbdba8","665792bd2a087799023aae4e","356","stimuli/11101011.jpg"," ","","feedback_trial","1","","","","","","","","","","","","","","","","","","","","",""
"","","","","","image-keyboard-response","218","314201","0.0-193.0","6111a1893c0daa13e23ab15a","665500ab8938657b03fbdba8","665792bd2a087799023aae4e","768","stimuli/2011100.jpg","2","","prediction_trial","1","","false","","2","true","true","false","false","false","false","[1,2]","011","100","0","","","","","","",""
"","","","","","image-keyboard-response","219","314946","0.0-194.0","6111a1893c0daa13e23ab15a","665500ab8938657b03fbdba8","665792bd2a087799023aae4e","743","stimuli/20111001.jpg"," ","","feedback_trial","1","","","","","","","","","","","","","","","","","","","","",""
"","","","","","image-keyboard-response","220","316234","0.0-195.0","6111a1893c0daa13e23ab15a","665500ab8938657b03fbdba8","665792bd2a087799023aae4e","1287","stimuli/2011111.jpg","1","","prediction_trial","2","","false","","2","false","false","false","false","false","false","[2,1]","011","111","0","","","","","","",""
"","","","","","image-keyboard-response","221","316625","0.0-196.0","6111a1893c0daa13e23ab15a","665500ab8938657b03fbdba8","665792bd2a087799023aae4e","390","stimuli/20111112.jpg"," ","","feedback_trial","2","","","","","","","","","","","","","","","","","","","","",""
"","","","","","image-keyboard-response","222","317147","0.0-197.0","6111a1893c0daa13e23ab15a","665500ab8938657b03fbdba8","665792bd2a087799023aae4e","521","stimuli/0101110.jpg","1","","prediction_trial","2","","false","","0","false","false","false","false","false","false","[0,2]","101","110","0","","","","","","",""
"","","","","","image-keyboard-response","223","317571","0.0-198.0","6111a1893c0daa13e23ab15a","665500ab8938657b03fbdba8","665792bd2a087799023aae4e","423","stimuli/01011102.jpg"," ","","feedback_trial","0","","","","","","","","","","","","","","","","","","","","",""
"","","","","","image-keyboard-response","224","318383","0.0-199.0","6111a1893c0daa13e23ab15a","665500ab8938657b03fbdba8","665792bd2a087799023aae4e","811","stimuli/1010110.jpg","1","","prediction_trial","1","","true","","1","false","false","false","true","false","false","[1]","010","110","1","","","","","","",""
"","","","","","image-keyboard-response","225","318808","0.0-200.0","6111a1893c0daa13e23ab15a","665500ab8938657b03fbdba8","665792bd2a087799023aae4e","414","stimuli/10101101.jpg"," ","","feedback_trial","1","","","","","","","","","","","","","","","","","","","","",""
"","","","","","image-keyboard-response","226","319506","0.0-201.0","6111a1893c0daa13e23ab15a","665500ab8938657b03fbdba8","665792bd2a087799023aae4e","697","stimuli/2100000.jpg","2","","prediction_trial","2","","true","","2","true","true","true","true","true","true","[2]","100","000","1","","","","","","",""
"","","","","","image-keyboard-response","227","319790","0.0-202.0","6111a1893c0daa13e23ab15a","665500ab8938657b03fbdba8","665792bd2a087799023aae4e","282","stimuli/21000002.jpg"," ","","feedback_trial","2","","","","","","","","","","","","","","","","","","","","",""
"","","","","","image-keyboard-response","228","320959","0.0-203.0","6111a1893c0daa13e23ab15a","665500ab8938657b03fbdba8","665792bd2a087799023aae4e","1168","stimuli/2001000.jpg","2","","prediction_trial","2","","true","","2","true","true","false","true","false","true","[2]","001","000","1","","","","","","",""
"","","","","","image-keyboard-response","229","321210","0.0-204.0","6111a1893c0daa13e23ab15a","665500ab8938657b03fbdba8","665792bd2a087799023aae4e","250","stimuli/20010002.jpg"," ","","feedback_trial","2","","","","","","","","","","","","","","","","","","","","",""
"","","","","","image-keyboard-response","230","322004","0.0-205.0","6111a1893c0daa13e23ab15a","665500ab8938657b03fbdba8","665792bd2a087799023aae4e","793","stimuli/0001111.jpg","1","","prediction_trial","0","","false","","0","false","false","true","true","false","false","[0]","001","111","0","","","","","","",""
"","","","","","image-keyboard-response","231","322272","0.0-206.0","6111a1893c0daa13e23ab15a","665500ab8938657b03fbdba8","665792bd2a087799023aae4e","266","stimuli/00011110.jpg"," ","","feedback_trial","0","","","","","","","","","","","","","","","","","","","","",""
"","","","","","image-keyboard-response","232","322916","0.0-207.0","6111a1893c0daa13e23ab15a","665500ab8938657b03fbdba8","665792bd2a087799023aae4e","643","stimuli/2111000.jpg","2","","prediction_trial","1","","false","","2","true","true","false","false","false","false","[2,1,0]","111","000","0","","","","","","",""
"","","","","","image-keyboard-response","233","323237","0.0-208.0","6111a1893c0daa13e23ab15a","665500ab8938657b03fbdba8","665792bd2a087799023aae4e","320","stimuli/21110001.jpg"," ","","feedback_trial","2","","","","","","","","","","","","","","","","","","","","",""
"","","","","","image-keyboard-response","234","323916","0.0-209.0","6111a1893c0daa13e23ab15a","665500ab8938657b03fbdba8","665792bd2a087799023aae4e","678","stimuli/0101001.jpg","0","","prediction_trial","2","","false","","0","true","true","false","false","false","false","[2,0]","101","001","0","","","","","","",""
"","","","","","image-keyboard-response","235","324181","0.0-210.0","6111a1893c0daa13e23ab15a","665500ab8938657b03fbdba8","665792bd2a087799023aae4e","264","stimuli/01010012.jpg"," ","","feedback_trial","2","","","","","","","","","","","","","","","","","","","","",""
"","","","","","image-keyboard-response","236","324836","0.0-211.0","6111a1893c0daa13e23ab15a","665500ab8938657b03fbdba8","665792bd2a087799023aae4e","642","stimuli/2111100.jpg","2","","prediction_trial","2","","true","","2","true","true","false","false","false","false","[0,2,1]","111","100","1","","","","","","",""
"","","","","","image-keyboard-response","237","325109","0.0-212.0","6111a1893c0daa13e23ab15a","665500ab8938657b03fbdba8","665792bd2a087799023aae4e","272","stimuli/21111002.jpg"," ","","feedback_trial","0","","","","","","","","","","","","","","","","","","","","",""
"","","","","","image-keyboard-response","238","325645","0.0-213.0","6111a1893c0daa13e23ab15a","665500ab8938657b03fbdba8","665792bd2a087799023aae4e","535","stimuli/1010010.jpg","1","","prediction_trial","1","","true","","1","false","true","false","true","false","true","[1]","010","010","1","","","","","","",""
"","","","","","image-keyboard-response","239","325982","0.0-214.0","6111a1893c0daa13e23ab15a","665500ab8938657b03fbdba8","665792bd2a087799023aae4e","336","stimuli/10100101.jpg"," ","","feedback_trial","1","","","","","","","","","","","","","","","","","","","","",""
"","","","","","image-keyboard-response","240","326757","0.0-215.0","6111a1893c0daa13e23ab15a","665500ab8938657b03fbdba8","665792bd2a087799023aae4e","774","stimuli/0000101.jpg","0","","prediction_trial","0","","true","","0","false","false","true","true","false","false","[0]","000","101","1","","","","","","",""
"","","","","","image-keyboard-response","241","327025","0.0-216.0","6111a1893c0daa13e23ab15a","665500ab8938657b03fbdba8","665792bd2a087799023aae4e","267","stimuli/00001010.jpg"," ","","feedback_trial","0","","","","","","","","","","","","","","","","","","","","",""
"","","","","","image-keyboard-response","242","327753","0.0-217.0","6111a1893c0daa13e23ab15a","665500ab8938657b03fbdba8","665792bd2a087799023aae4e","727","stimuli/0000111.jpg","1","","prediction_trial","0","","false","","0","false","false","true","true","false","false","[0]","000","111","0","","","","","","",""
"","","","","","image-keyboard-response","243","328098","0.0-218.0","6111a1893c0daa13e23ab15a","665500ab8938657b03fbdba8","665792bd2a087799023aae4e","344","stimuli/00001110.jpg"," ","","feedback_trial","0","","","","","","","","","","","","","","","","","","","","",""
"","","","","","image-keyboard-response","244","328905","0.0-219.0","6111a1893c0daa13e23ab15a","665500ab8938657b03fbdba8","665792bd2a087799023aae4e","805","stimuli/1111110.jpg","0","","prediction_trial","2","","false","","1","false","false","false","false","false","false","[2,0,1]","111","110","0","","","","","","",""
"","","","","","image-keyboard-response","245","329262","0.0-220.0","6111a1893c0daa13e23ab15a","665500ab8938657b03fbdba8","665792bd2a087799023aae4e","356","stimuli/11111102.jpg"," ","","feedback_trial","2","","","","","","","","","","","","","","","","","","","","",""
"","","","","","image-keyboard-response","246","329771","0.0-221.0","6111a1893c0daa13e23ab15a","665500ab8938657b03fbdba8","665792bd2a087799023aae4e","507","stimuli/1011000.jpg","1","","prediction_trial","2","","false","","1","true","true","false","false","false","false","[2,1]","011","000","0","","","","","","",""
"","","","","","image-keyboard-response","247","330073","0.0-222.0","6111a1893c0daa13e23ab15a","665500ab8938657b03fbdba8","665792bd2a087799023aae4e","291","stimuli/10110002.jpg"," ","","feedback_trial","2","","","","","","","","","","","","","","","","","","","","",""
"","","","","","image-keyboard-response","248","330897","0.0-223.0","6111a1893c0daa13e23ab15a","665500ab8938657b03fbdba8","665792bd2a087799023aae4e","823","stimuli/2110011.jpg","2","","prediction_trial","2","","true","","2","false","false","true","true","false","false","[2]","110","011","1","","","","","","",""
"","","","","","image-keyboard-response","249","331205","0.0-224.0","6111a1893c0daa13e23ab15a","665500ab8938657b03fbdba8","665792bd2a087799023aae4e","307","stimuli/21100112.jpg"," ","","feedback_trial","2","","","","","","","","","","","","","","","","","","","","",""
"","","","","","image-keyboard-response","250","331655","0.0-225.0","6111a1893c0daa13e23ab15a","665500ab8938657b03fbdba8","665792bd2a087799023aae4e","449","stimuli/0011110.jpg","1","","prediction_trial","0","","false","","0","false","false","true","true","false","false","[0]","011","110","0","","","","","","",""
"","","","","","image-keyboard-response","251","332328","0.0-226.0","6111a1893c0daa13e23ab15a","665500ab8938657b03fbdba8","665792bd2a087799023aae4e","673","stimuli/00111100.jpg"," ","","feedback_trial","0","","","","","","","","","","","","","","","","","","","","",""
"","","","","","image-keyboard-response","252","333026","0.0-227.0","6111a1893c0daa13e23ab15a","665500ab8938657b03fbdba8","665792bd2a087799023aae4e","696","stimuli/2000000.jpg","2","","prediction_trial","2","","true","","2","true","true","true","true","true","true","[2]","000","000","1","","","","","","",""
"","","","","","image-keyboard-response","253","333349","0.0-228.0","6111a1893c0daa13e23ab15a","665500ab8938657b03fbdba8","665792bd2a087799023aae4e","322","stimuli/20000002.jpg"," ","","feedback_trial","2","","","","","","","","","","","","","","","","","","","","",""
"","","","","","image-keyboard-response","254","333993","0.0-229.0","6111a1893c0daa13e23ab15a","665500ab8938657b03fbdba8","665792bd2a087799023aae4e","643","stimuli/1101111.jpg","1","","prediction_trial","1","","true","","1","false","false","true","true","false","false","[1]","101","111","1","","","","","","",""
"","","","","","image-keyboard-response","255","334335","0.0-230.0","6111a1893c0daa13e23ab15a","665500ab8938657b03fbdba8","665792bd2a087799023aae4e","341","stimuli/11011111.jpg"," ","","feedback_trial","1","","","","","","","","","","","","","","","","","","","","",""
"","","","","","image-keyboard-response","256","334889","0.0-231.0","6111a1893c0daa13e23ab15a","665500ab8938657b03fbdba8","665792bd2a087799023aae4e","553","stimuli/1010011.jpg","1","","prediction_trial","1","","true","","1","false","false","false","true","false","false","[1]","010","011","1","","","","","","",""
"","","","","","image-keyboard-response","257","335210","0.0-232.0","6111a1893c0daa13e23ab15a","665500ab8938657b03fbdba8","665792bd2a087799023aae4e","320","stimuli/10100111.jpg"," ","","feedback_trial","1","","","","","","","","","","","","","","","","","","","","",""
"","","","","","image-keyboard-response","258","335719","0.0-233.0","6111a1893c0daa13e23ab15a","665500ab8938657b03fbdba8","665792bd2a087799023aae4e","501","stimuli/1110110.jpg","1","","prediction_trial","0","","false","","1","false","false","false","false","false","false","[0,1]","110","110","0","","","","","","",""
"","","","","","image-keyboard-response","259","336514","0.0-234.0","6111a1893c0daa13e23ab15a","665500ab8938657b03fbdba8","665792bd2a087799023aae4e","793","stimuli/11101100.jpg"," ","","feedback_trial","0","","","","","","","","","","","","","","","","","","","","",""
"","","","","","image-keyboard-response","260","337087","0.0-235.0","6111a1893c0daa13e23ab15a","665500ab8938657b03fbdba8","665792bd2a087799023aae4e","572","stimuli/1101001.jpg","1","","prediction_trial","1","","true","","1","true","true","true","true","true","true","[1]","101","001","1","","","","","","",""
"","","","","","image-keyboard-response","261","337436","0.0-236.0","6111a1893c0daa13e23ab15a","665500ab8938657b03fbdba8","665792bd2a087799023aae4e","348","stimuli/11010011.jpg"," ","","feedback_trial","1","","","","","","","","","","","","","","","","","","","","",""
"","","","","","image-keyboard-response","262","338052","0.0-237.0","6111a1893c0daa13e23ab15a","665500ab8938657b03fbdba8","665792bd2a087799023aae4e","616","stimuli/1010001.jpg","1","","prediction_trial","1","","true","","1","true","true","false","true","false","true","[1]","010","001","1","","","","","","",""
"","","","","","image-keyboard-response","263","338390","0.0-238.0","6111a1893c0daa13e23ab15a","665500ab8938657b03fbdba8","665792bd2a087799023aae4e","337","stimuli/10100011.jpg"," ","","feedback_trial","1","","","","","","","","","","","","","","","","","","","","",""
"","","","","","image-keyboard-response","264","338987","0.0-239.0","6111a1893c0daa13e23ab15a","665500ab8938657b03fbdba8","665792bd2a087799023aae4e","596","stimuli/1100011.jpg","1","","prediction_trial","1","","true","","1","false","false","true","true","false","false","[1]","100","011","1","","","","","","",""
"","","","","","image-keyboard-response","265","339337","0.0-240.0","6111a1893c0daa13e23ab15a","665500ab8938657b03fbdba8","665792bd2a087799023aae4e","349","stimuli/11000111.jpg"," ","","feedback_trial","1","","","","","","","","","","","","","","","","","","","","",""
"","","","","","image-keyboard-response","266","339954","0.0-241.0","6111a1893c0daa13e23ab15a","665500ab8938657b03fbdba8","665792bd2a087799023aae4e","616","stimuli/2010110.jpg","2","","prediction_trial","2","","true","","2","true","true","true","true","true","true","[2]","010","110","1","","","","","","",""
"","","","","","image-keyboard-response","267","340325","0.0-242.0","6111a1893c0daa13e23ab15a","665500ab8938657b03fbdba8","665792bd2a087799023aae4e","369","stimuli/20101102.jpg"," ","","feedback_trial","2","","","","","","","","","","","","","","","","","","","","",""
"","","","","","image-keyboard-response","268","341111","0.0-243.0","6111a1893c0daa13e23ab15a","665500ab8938657b03fbdba8","665792bd2a087799023aae4e","785","stimuli/2011011.jpg","1","","prediction_trial","1","","true","","2","false","false","false","false","false","false","[1,2]","011","011","1","","","","","","",""
"","","","","","image-keyboard-response","269","341485","0.0-244.0","6111a1893c0daa13e23ab15a","665500ab8938657b03fbdba8","665792bd2a087799023aae4e","367","stimuli/20110111.jpg"," ","","feedback_trial","1","","","","","","","","","","","","","","","","","","","","",""
"","","","","","image-keyboard-response","270","342160","0.0-245.0","6111a1893c0daa13e23ab15a","665500ab8938657b03fbdba8","665792bd2a087799023aae4e","674","stimuli/1110010.jpg","1","","prediction_trial","0","","false","","1","false","true","false","false","false","false","[1,0]","110","010","0","","","","","","",""
"","","","","","image-keyboard-response","271","342521","0.0-246.0","6111a1893c0daa13e23ab15a","665500ab8938657b03fbdba8","665792bd2a087799023aae4e","360","stimuli/11100100.jpg"," ","","feedback_trial","1","","","","","","","","","","","","","","","","","","","","",""
"","","","","","image-keyboard-response","272","343353","0.0-247.0","6111a1893c0daa13e23ab15a","665500ab8938657b03fbdba8","665792bd2a087799023aae4e","830","stimuli/2101001.jpg","2","","prediction_trial","0","","false","","2","false","true","false","false","false","false","[2,0]","101","001","0","","","","","","",""
"","","","","","image-keyboard-response","273","344511","0.0-248.0","6111a1893c0daa13e23ab15a","665500ab8938657b03fbdba8","665792bd2a087799023aae4e","1157","stimuli/21010010.jpg"," ","","feedback_trial","2","","","","","","","","","","","","","","","","","","","","",""
"","","","","","image-keyboard-response","274","345436","0.0-249.0","6111a1893c0daa13e23ab15a","665500ab8938657b03fbdba8","665792bd2a087799023aae4e","923","stimuli/0100110.jpg","1","","prediction_trial","0","","false","","0","false","false","false","true","false","false","[0]","100","110","0","","","","","","",""
"","","","","","image-keyboard-response","275","345846","0.0-250.0","6111a1893c0daa13e23ab15a","665500ab8938657b03fbdba8","665792bd2a087799023aae4e","409","stimuli/01001100.jpg"," ","","feedback_trial","0","","","","","","","","","","","","","","","","","","","","",""
"","","","","","image-keyboard-response","276","346947","0.0-251.0","6111a1893c0daa13e23ab15a","665500ab8938657b03fbdba8","665792bd2a087799023aae4e","1101","stimuli/1101110.jpg","0","","prediction_trial","1","","false","","1","false","false","true","true","false","false","[1]","101","110","0","","","","","","",""
"","","","","","image-keyboard-response","277","347381","0.0-252.0","6111a1893c0daa13e23ab15a","665500ab8938657b03fbdba8","665792bd2a087799023aae4e","433","stimuli/11011101.jpg"," ","","feedback_trial","1","","","","","","","","","","","","","","","","","","","","",""
"","","","","","image-keyboard-response","278","347926","0.0-253.0","6111a1893c0daa13e23ab15a","665500ab8938657b03fbdba8","665792bd2a087799023aae4e","543","stimuli/1001101.jpg","1","","prediction_trial","1","","true","","1","true","true","true","true","true","true","[1]","001","101","1","","","","","","",""
"","","","","","image-keyboard-response","279","348398","0.0-254.0","6111a1893c0daa13e23ab15a","665500ab8938657b03fbdba8","665792bd2a087799023aae4e","471","stimuli/10011011.jpg"," ","","feedback_trial","1","","","","","","","","","","","","","","","","","","","","",""
"","","","","","image-keyboard-response","280","349087","0.0-255.0","6111a1893c0daa13e23ab15a","665500ab8938657b03fbdba8","665792bd2a087799023aae4e","677","stimuli/0110000.jpg","0","","prediction_trial","1","","false","","0","true","true","false","false","false","false","[0,1]","110","000","0","","","","","","",""
"","","","","","image-keyboard-response","281","350571","0.0-256.0","6111a1893c0daa13e23ab15a","665500ab8938657b03fbdba8","665792bd2a087799023aae4e","1483","stimuli/01100001.jpg"," ","","feedback_trial","0","","","","","","","","","","","","","","","","","","","","",""
"","","","","","image-keyboard-response","282","351568","0.0-257.0","6111a1893c0daa13e23ab15a","665500ab8938657b03fbdba8","665792bd2a087799023aae4e","996","stimuli/0011001.jpg","0","","prediction_trial","0","","true","","0","true","true","true","true","true","true","[0]","011","001","1","","","","","","",""
"","","","","","image-keyboard-response","283","351850","0.0-258.0","6111a1893c0daa13e23ab15a","665500ab8938657b03fbdba8","665792bd2a087799023aae4e","280","stimuli/00110010.jpg"," ","","feedback_trial","0","","","","","","","","","","","","","","","","","","","","",""
"","","","","","image-keyboard-response","284","353444","0.0-259.0","6111a1893c0daa13e23ab15a","665500ab8938657b03fbdba8","665792bd2a087799023aae4e","1593","stimuli/0010101.jpg","2","","prediction_trial","0","","false","","0","false","false","true","true","false","false","[0]","010","101","0","","","","","","",""
"","","","","","image-keyboard-response","285","353920","0.0-260.0","6111a1893c0daa13e23ab15a","665500ab8938657b03fbdba8","665792bd2a087799023aae4e","476","stimuli/00101010.jpg"," ","","feedback_trial","0","","","","","","","","","","","","","","","","","","","","",""
"","","","","","image-keyboard-response","286","354708","0.0-261.0","6111a1893c0daa13e23ab15a","665500ab8938657b03fbdba8","665792bd2a087799023aae4e","787","stimuli/2100111.jpg","1","","prediction_trial","2","","false","","2","false","false","true","true","false","false","[2]","100","111","0","","","","","","",""
"","","","","","image-keyboard-response","287","355092","0.0-262.0","6111a1893c0daa13e23ab15a","665500ab8938657b03fbdba8","665792bd2a087799023aae4e","382","stimuli/21001112.jpg"," ","","feedback_trial","2","","","","","","","","","","","","","","","","","","","","",""
"","","","","","image-keyboard-response","288","355640","0.0-263.0","6111a1893c0daa13e23ab15a","665500ab8938657b03fbdba8","665792bd2a087799023aae4e","547","stimuli/1100001.jpg","1","","prediction_trial","1","","true","","1","true","true","true","true","true","true","[1]","100","001","1","","","","","","",""
"","","","","","image-keyboard-response","289","356019","0.0-264.0","6111a1893c0daa13e23ab15a","665500ab8938657b03fbdba8","665792bd2a087799023aae4e","377","stimuli/11000011.jpg"," ","","feedback_trial","1","","","","","","","","","","","","","","","","","","","","",""
"","","","","","image-keyboard-response","290","356543","0.0-265.0","6111a1893c0daa13e23ab15a","665500ab8938657b03fbdba8","665792bd2a087799023aae4e","522","stimuli/0011000.jpg","0","","prediction_trial","0","","true","","0","true","true","true","true","true","true","[0]","011","000","1","","","","","","",""
"","","","","","image-keyboard-response","291","356911","0.0-266.0","6111a1893c0daa13e23ab15a","665500ab8938657b03fbdba8","665792bd2a087799023aae4e","355","stimuli/00110000.jpg"," ","","feedback_trial","0","","","","","","","","","","","","","","","","","","","","",""
"","","","","","image-keyboard-response","292","357614","0.0-267.0","6111a1893c0daa13e23ab15a","665500ab8938657b03fbdba8","665792bd2a087799023aae4e","702","stimuli/1101010.jpg","1","","prediction_trial","1","","true","","1","false","true","true","true","false","true","[1]","101","010","1","","","","","","",""
"","","","","","image-keyboard-response","293","358010","0.0-268.0","6111a1893c0daa13e23ab15a","665500ab8938657b03fbdba8","665792bd2a087799023aae4e","394","stimuli/11010101.jpg"," ","","feedback_trial","1","","","","","","","","","","","","","","","","","","","","",""
"","","","","","image-keyboard-response","294","358780","0.0-269.0","6111a1893c0daa13e23ab15a","665500ab8938657b03fbdba8","665792bd2a087799023aae4e","768","stimuli/2000001.jpg","2","","prediction_trial","2","","true","","2","false","true","true","true","false","true","[2]","000","001","1","","","","","","",""
"","","","","","image-keyboard-response","295","359143","0.0-270.0","6111a1893c0daa13e23ab15a","665500ab8938657b03fbdba8","665792bd2a087799023aae4e","361","stimuli/20000012.jpg"," ","","feedback_trial","2","","","","","","","","","","","","","","","","","","","","",""
"","","","","","image-keyboard-response","296","360582","0.0-271.0","6111a1893c0daa13e23ab15a","665500ab8938657b03fbdba8","665792bd2a087799023aae4e","1438","stimuli/2010101.jpg","2","","prediction_trial","2","","true","","2","false","false","true","true","false","false","[2]","010","101","1","","","","","","",""
"","","","","","image-keyboard-response","297","360937","0.0-272.0","6111a1893c0daa13e23ab15a","665500ab8938657b03fbdba8","665792bd2a087799023aae4e","355","stimuli/20101012.jpg"," ","","feedback_trial","2","","","","","","","","","","","","","","","","","","","","",""
"","","","","","image-keyboard-response","298","361689","0.0-273.0","6111a1893c0daa13e23ab15a","665500ab8938657b03fbdba8","665792bd2a087799023aae4e","751","stimuli/0010000.jpg","0","","prediction_trial","0","","true","","0","true","true","true","true","true","true","[0]","010","000","1","","","","","","",""
"","","","","","image-keyboard-response","299","362060","0.0-274.0","6111a1893c0daa13e23ab15a","665500ab8938657b03fbdba8","665792bd2a087799023aae4e","368","stimuli/00100000.jpg"," ","","feedback_trial","0","","","","","","","","","","","","","","","","","","","","",""
"","","","","","image-keyboard-response","300","363264","0.0-275.0","6111a1893c0daa13e23ab15a","665500ab8938657b03fbdba8","665792bd2a087799023aae4e","1204","stimuli/2011010.jpg","2","","prediction_trial","2","","true","","2","true","true","false","false","false","false","[2,1]","011","010","1","","","","","","",""
"","","","","","image-keyboard-response","301","363703","0.0-276.0","6111a1893c0daa13e23ab15a","665500ab8938657b03fbdba8","665792bd2a087799023aae4e","438","stimuli/20110102.jpg"," ","","feedback_trial","2","","","","","","","","","","","","","","","","","","","","",""
"","","","","","image-keyboard-response","302","365525","0.0-277.0","6111a1893c0daa13e23ab15a","665500ab8938657b03fbdba8","665792bd2a087799023aae4e","1811","stimuli/2101101.jpg","0","","prediction_trial","0","","true","","2","false","false","false","false","false","false","[2,0]","101","101","1","","","","","","",""
"","","","","","image-keyboard-response","303","365996","0.0-278.0","6111a1893c0daa13e23ab15a","665500ab8938657b03fbdba8","665792bd2a087799023aae4e","470","stimuli/21011010.jpg"," ","","feedback_trial","2","","","","","","","","","","","","","","","","","","","","",""
"","","","","","image-keyboard-response","304","366952","0.0-279.0","6111a1893c0daa13e23ab15a","665500ab8938657b03fbdba8","665792bd2a087799023aae4e","955","stimuli/2100101.jpg","2","","prediction_trial","2","","true","","2","false","false","true","true","false","false","[2]","100","101","1","","","","","","",""
"","","","","","image-keyboard-response","305","367424","0.0-280.0","6111a1893c0daa13e23ab15a","665500ab8938657b03fbdba8","665792bd2a087799023aae4e","471","stimuli/21001012.jpg"," ","","feedback_trial","2","","","","","","","","","","","","","","","","","","","","",""
"","","","","","image-keyboard-response","306","368134","0.0-281.0","6111a1893c0daa13e23ab15a","665500ab8938657b03fbdba8","665792bd2a087799023aae4e","708","stimuli/2001001.jpg","2","","prediction_trial","2","","true","","2","false","true","false","true","false","true","[2]","001","001","1","","","","","","",""
"","","","","","image-keyboard-response","307","368516","0.0-282.0","6111a1893c0daa13e23ab15a","665500ab8938657b03fbdba8","665792bd2a087799023aae4e","381","stimuli/20010012.jpg"," ","","feedback_trial","2","","","","","","","","","","","","","","","","","","","","",""
"","","","","","image-keyboard-response","308","370562","0.0-283.0","6111a1893c0daa13e23ab15a","665500ab8938657b03fbdba8","665792bd2a087799023aae4e","2045","stimuli/0101000.jpg","0","","prediction_trial","2","","false","","0","true","true","false","false","false","false","[0,2]","101","000","0","","","","","","",""
"","","","","","image-keyboard-response","309","371106","0.0-284.0","6111a1893c0daa13e23ab15a","665500ab8938657b03fbdba8","665792bd2a087799023aae4e","543","stimuli/01010002.jpg"," ","","feedback_trial","0","","","","","","","","","","","","","","","","","","","","",""
"","","","","","image-keyboard-response","310","371982","0.0-285.0","6111a1893c0daa13e23ab15a","665500ab8938657b03fbdba8","665792bd2a087799023aae4e","875","stimuli/1111001.jpg","1","","prediction_trial","0","","false","","1","true","true","false","false","false","false","[1,0,2]","111","001","0","","","","","","",""
"","","","","","image-keyboard-response","311","372411","0.0-286.0","6111a1893c0daa13e23ab15a","665500ab8938657b03fbdba8","665792bd2a087799023aae4e","428","stimuli/11110010.jpg"," ","","feedback_trial","1","","","","","","","","","","","","","","","","","","","","",""
"","","","","","image-keyboard-response","312","373063","0.0-287.0","6111a1893c0daa13e23ab15a","665500ab8938657b03fbdba8","665792bd2a087799023aae4e","652","stimuli/1000001.jpg","1","","prediction_trial","1","","true","","1","true","true","true","true","true","true","[1]","000","001","1","","","","","","",""
"","","","","","image-keyboard-response","313","373433","0.0-288.0","6111a1893c0daa13e23ab15a","665500ab8938657b03fbdba8","665792bd2a087799023aae4e","362","stimuli/10000011.jpg"," ","","feedback_trial","1","","","","","","","","","","","","","","","","","","","","",""
"","","","","","image-keyboard-response","314","374512","0.0-289.0","6111a1893c0daa13e23ab15a","665500ab8938657b03fbdba8","665792bd2a087799023aae4e","1078","stimuli/2000111.jpg","1","","prediction_trial","2","","false","","2","false","false","true","true","false","false","[2]","000","111","0","","","","","","",""
"","","","","","image-keyboard-response","315","374987","0.0-290.0","6111a1893c0daa13e23ab15a","665500ab8938657b03fbdba8","665792bd2a087799023aae4e","473","stimuli/20001112.jpg"," ","","feedback_trial","2","","","","","","","","","","","","","","","","","","","","",""
"","","","","","image-keyboard-response","316","375656","0.0-291.0","6111a1893c0daa13e23ab15a","665500ab8938657b03fbdba8","665792bd2a087799023aae4e","668","stimuli/0101011.jpg","0","","prediction_trial","2","","false","","0","true","true","false","false","false","false","[0,2]","101","011","0","","","","","","",""
"","","","","","image-keyboard-response","317","376895","0.0-292.0","6111a1893c0daa13e23ab15a","665500ab8938657b03fbdba8","665792bd2a087799023aae4e","1237","stimuli/01010112.jpg"," ","","feedback_trial","0","","","","","","","","","","","","","","","","","","","","",""
"","","","","","survey-html-form","318","483404","0.0-293.0","6111a1893c0daa13e23ab15a","665500ab8938657b03fbdba8","665792bd2a087799023aae4e","106499","","{""feedback"":""If the ball was visible then it was an obvious choice. Also used process of elimination when appropriate. Otherwise, I took a guess based on Sam's prior choices."",""age"":""39"",""gender"":""Male"",""other_gender"":"""",""race"":""Black/African American"",""other_race"":"""",""ethnicity"":""Non-Hispanic""}","","exit_survey","","","","","","","","","","","","","","","","If the ball was visible then it was an obvious choice. Also used process of elimination when appropriate. Otherwise, I took a guess based on Sam's prior choices.","39","Non-Hispanic","Male","Black/African American","0.625","0.625"
