"success","timeout","failed_images","failed_audio","failed_video","trial_type","trial_index","time_elapsed","internal_node_id","prolific_id","prolific_study_id","prolific_session_id","rt","stimulus","response","view_history","trial","character_choice","stimulus_dict","accuracy","correct_response","ball_pos","ego_ball_visible","ego_can_infer","alter_ball_visible","alter_can_infer","collective_ball_visible","collective_can_infer","search_locations","alter_occluders","ego_occluders","accuracy_bool","feedback","age","ethnicity","gender","race","overall_accuracy","bonus"
"true","false","[]","[]","[]","preload","0","1048","0.0-0.0","63d96d5957cdd8a417721253","665500ab8938657b03fbdba8","6657931f3acb6e0722e1ee6f","","","","","","","","","","","","","","","","","","","","","","","","","","",""
"true","","","","","fullscreen","1","3985","0.0-1.0","63d96d5957cdd8a417721253","665500ab8938657b03fbdba8","6657931f3acb6e0722e1ee6f","","","","","","","","","","","","","","","","","","","","","","","","","","",""
"","","","","","html-button-response","2","15442","0.0-2.0","63d96d5957cdd8a417721253","665500ab8938657b03fbdba8","6657931f3acb6e0722e1ee6f","11457","<p><b>Consent Form</b></p> <div style=""text-align:left;background-color:lightgrey; padding:20px; max-width:900px;""><p>Please consider this information carefully before deciding whether to participate in this research.</p> <p>The purpose of this research is to examine which factors influence social judgment and decision-making. You will be asked to make judgements about individuals and actions in social scenarios. We are simply interested in your judgement. The study will take less than 1 hour to complete, and you will receive less than $20 on Prolific. Your compensation and time commitment are specified in the study description. There are no anticipated risks associated with participating in this study. The effects of participating should be comparable to those you would ordinarily experience from viewing a computer monitor and using a mouse or keyboard for a similar amount of time. At the end of the study, we will provide an explanation of the questions that motivate this line of research and will describe the potential implications. </p><p> Your participation in this study is completely voluntary and you may refuse to participate or you may choose to withdraw at any time without penalty or loss of benefits to you which are otherwise entitled. Your participation in this study will remain confidential. No personally identifiable information will be associated with your data. Also, all analyses of the data will be averaged across all the participants, so your individual responses will never be specifically analyzed. </p><p> If you have questions or concerns about your participation or payment, or want to request a summary of research findings, please contact Dr. Jonathan Phillips at Jonathan.S.Phillips@dartmouth.edu. </p><p> Please save a copy of this form for your records. </p><p><b>Agreement: </b>The nature and purpose of this research have been sufficiently explained and I agree to participate in this study. I understand that I am free to withdraw at any time without incurring any penalty. Please consent by clicking the button below to continue. Otherwise, please exit the study at any time. </p>","0","","","","","","","","","","","","","","","","","","","","","","","",""
"","","","","","instructions","3","74854","0.0-3.0-0.0","63d96d5957cdd8a417721253","665500ab8938657b03fbdba8","6657931f3acb6e0722e1ee6f","59412","","","[{""page_index"":0,""viewing_time"":1479},{""page_index"":1,""viewing_time"":2688},{""page_index"":2,""viewing_time"":3198},{""page_index"":3,""viewing_time"":4059},{""page_index"":4,""viewing_time"":1808},{""page_index"":5,""viewing_time"":1958},{""page_index"":6,""viewing_time"":3682},{""page_index"":7,""viewing_time"":3154},{""page_index"":8,""viewing_time"":4298},{""page_index"":9,""viewing_time"":2991},{""page_index"":10,""viewing_time"":11187},{""page_index"":11,""viewing_time"":7087},{""page_index"":12,""viewing_time"":10372},{""page_index"":13,""viewing_time"":1451}]","intro","","","","","","","","","","","","","","","","","","","","","",""
"","","","","","image-keyboard-response","4","78219","0.0-3.0-1.0","63d96d5957cdd8a417721253","665500ab8938657b03fbdba8","6657931f3acb6e0722e1ee6f","3362","stimuli/0010010.jpg","0","","prediction_practice","0","{""filepath"":""stimuli/0010010.jpg"",""ball_pos"":0,""ego_ball_visible"":true,""ego_can_infer"":true,""alter_ball_visible"":true,""alter_can_infer"":true,""collective_ball_visible"":true,""collective_can_infer"":true,""search_locations"":[0],""alter_occluders"":""010"",""ego_occluders"":""010""}","true","","","","","","","","","","","","","","","","","","",""
"","","","","","image-keyboard-response","5","79699","0.0-3.0-2.0","63d96d5957cdd8a417721253","665500ab8938657b03fbdba8","6657931f3acb6e0722e1ee6f","1478","stimuli/00100100.jpg"," ","","practrice_feedback","0","","","","","","","","","","","","","","","","","","","","",""
"","","","","","image-keyboard-response","6","84475","0.0-3.0-3.0","63d96d5957cdd8a417721253","665500ab8938657b03fbdba8","6657931f3acb6e0722e1ee6f","4774","stimuli/2110001.jpg","2","","prediction_practice","2","{""filepath"":""stimuli/2110001.jpg"",""ball_pos"":2,""ego_ball_visible"":false,""ego_can_infer"":true,""alter_ball_visible"":true,""alter_can_infer"":true,""collective_ball_visible"":false,""collective_can_infer"":true,""search_locations"":[2],""alter_occluders"":""110"",""ego_occluders"":""001""}","true","","","","","","","","","","","","","","","","","","",""
"","","","","","image-keyboard-response","7","85412","0.0-3.0-4.0","63d96d5957cdd8a417721253","665500ab8938657b03fbdba8","6657931f3acb6e0722e1ee6f","933","stimuli/21100012.jpg"," ","","practrice_feedback","2","","","","","","","","","","","","","","","","","","","","",""
"","","","","","image-keyboard-response","8","100174","0.0-3.0-5.0","63d96d5957cdd8a417721253","665500ab8938657b03fbdba8","6657931f3acb6e0722e1ee6f","14761","stimuli/2101011.jpg","1","","prediction_practice","2","{""filepath"":""stimuli/2101011.jpg"",""ball_pos"":2,""ego_ball_visible"":false,""ego_can_infer"":false,""alter_ball_visible"":false,""alter_can_infer"":false,""collective_ball_visible"":false,""collective_can_infer"":false,""search_locations"":[2,0],""alter_occluders"":""101"",""ego_occluders"":""011""}","false","","","","","","","","","","","","","","","","","","",""
"","","","","","image-keyboard-response","9","101382","0.0-3.0-6.0","63d96d5957cdd8a417721253","665500ab8938657b03fbdba8","6657931f3acb6e0722e1ee6f","1206","stimuli/21010112.jpg"," ","","practrice_feedback","2","","","","","","","","","","","","","","","","","","","","",""
"","","","","","image-keyboard-response","10","103806","0.0-3.0-7.0","63d96d5957cdd8a417721253","665500ab8938657b03fbdba8","6657931f3acb6e0722e1ee6f","2423","stimuli/2010100.jpg","2","","prediction_practice","2","{""filepath"":""stimuli/2010100.jpg"",""ball_pos"":2,""ego_ball_visible"":true,""ego_can_infer"":true,""alter_ball_visible"":true,""alter_can_infer"":true,""collective_ball_visible"":true,""collective_can_infer"":true,""search_locations"":[2],""alter_occluders"":""010"",""ego_occluders"":""100""}","true","","","","","","","","","","","","","","","","","","",""
"","","","","","image-keyboard-response","11","104703","0.0-3.0-8.0","63d96d5957cdd8a417721253","665500ab8938657b03fbdba8","6657931f3acb6e0722e1ee6f","894","stimuli/20101002.jpg"," ","","practrice_feedback","2","","","","","","","","","","","","","","","","","","","","",""
"","","","","","image-keyboard-response","12","111567","0.0-3.0-9.0","63d96d5957cdd8a417721253","665500ab8938657b03fbdba8","6657931f3acb6e0722e1ee6f","6863","stimuli/2011010.jpg","2","","prediction_practice","2","{""filepath"":""stimuli/2011010.jpg"",""ball_pos"":2,""ego_ball_visible"":true,""ego_can_infer"":true,""alter_ball_visible"":false,""alter_can_infer"":false,""collective_ball_visible"":false,""collective_can_infer"":false,""search_locations"":[2,1],""alter_occluders"":""011"",""ego_occluders"":""010""}","true","","","","","","","","","","","","","","","","","","",""
"","","","","","image-keyboard-response","13","112575","0.0-3.0-10.0","63d96d5957cdd8a417721253","665500ab8938657b03fbdba8","6657931f3acb6e0722e1ee6f","1006","stimuli/20110102.jpg"," ","","practrice_feedback","2","","","","","","","","","","","","","","","","","","","","",""
"","","","","","image-keyboard-response","14","114527","0.0-3.0-11.0","63d96d5957cdd8a417721253","665500ab8938657b03fbdba8","6657931f3acb6e0722e1ee6f","1951","stimuli/1101000.jpg","1","","prediction_practice","1","{""filepath"":""stimuli/1101000.jpg"",""ball_pos"":1,""ego_ball_visible"":true,""ego_can_infer"":true,""alter_ball_visible"":true,""alter_can_infer"":true,""collective_ball_visible"":true,""collective_can_infer"":true,""search_locations"":[1],""alter_occluders"":""101"",""ego_occluders"":""000""}","true","","","","","","","","","","","","","","","","","","",""
"","","","","","image-keyboard-response","15","114928","0.0-3.0-12.0","63d96d5957cdd8a417721253","665500ab8938657b03fbdba8","6657931f3acb6e0722e1ee6f","399","stimuli/11010001.jpg"," ","","practrice_feedback","1","","","","","","","","","","","","","","","","","","","","",""
"","","","","","image-keyboard-response","16","118168","0.0-3.0-13.0","63d96d5957cdd8a417721253","665500ab8938657b03fbdba8","6657931f3acb6e0722e1ee6f","3238","stimuli/1110111.jpg","1","","prediction_practice","1","{""filepath"":""stimuli/1110111.jpg"",""ball_pos"":1,""ego_ball_visible"":false,""ego_can_infer"":false,""alter_ball_visible"":false,""alter_can_infer"":false,""collective_ball_visible"":false,""collective_can_infer"":false,""search_locations"":[0,1],""alter_occluders"":""110"",""ego_occluders"":""111""}","true","","","","","","","","","","","","","","","","","","",""
"","","","","","image-keyboard-response","17","119104","0.0-3.0-14.0","63d96d5957cdd8a417721253","665500ab8938657b03fbdba8","6657931f3acb6e0722e1ee6f","935","stimuli/11101111.jpg"," ","","practrice_feedback","0","","","","","","","","","","","","","","","","","","","","",""
"","","","","","image-keyboard-response","18","121481","0.0-3.0-15.0","63d96d5957cdd8a417721253","665500ab8938657b03fbdba8","6657931f3acb6e0722e1ee6f","2374","stimuli/2001110.jpg","2","","prediction_practice","2","{""filepath"":""stimuli/2001110.jpg"",""ball_pos"":2,""ego_ball_visible"":true,""ego_can_infer"":true,""alter_ball_visible"":false,""alter_can_infer"":true,""collective_ball_visible"":false,""collective_can_infer"":true,""search_locations"":[2],""alter_occluders"":""001"",""ego_occluders"":""110""}","true","","","","","","","","","","","","","","","","","","",""
"","","","","","image-keyboard-response","19","122080","0.0-3.0-16.0","63d96d5957cdd8a417721253","665500ab8938657b03fbdba8","6657931f3acb6e0722e1ee6f","598","stimuli/20011102.jpg"," ","","practrice_feedback","2","","","","","","","","","","","","","","","","","","","","",""
"","","","","","image-keyboard-response","20","124689","0.0-3.0-17.0","63d96d5957cdd8a417721253","665500ab8938657b03fbdba8","6657931f3acb6e0722e1ee6f","2606","stimuli/1111011.jpg","1","","prediction_practice","0","{""filepath"":""stimuli/1111011.jpg"",""ball_pos"":1,""ego_ball_visible"":false,""ego_can_infer"":false,""alter_ball_visible"":false,""alter_can_infer"":false,""collective_ball_visible"":false,""collective_can_infer"":false,""search_locations"":[2,1,0],""alter_occluders"":""111"",""ego_occluders"":""011""}","false","","","","","","","","","","","","","","","","","","",""
"","","","","","image-keyboard-response","21","125712","0.0-3.0-18.0","63d96d5957cdd8a417721253","665500ab8938657b03fbdba8","6657931f3acb6e0722e1ee6f","1021","stimuli/11110110.jpg"," ","","practrice_feedback","2","","","","","","","","","","","","","","","","","","","","",""
"","","","","","image-keyboard-response","22","128305","0.0-3.0-19.0","63d96d5957cdd8a417721253","665500ab8938657b03fbdba8","6657931f3acb6e0722e1ee6f","2590","stimuli/0000010.jpg","0","","prediction_practice","0","{""filepath"":""stimuli/0000010.jpg"",""ball_pos"":0,""ego_ball_visible"":true,""ego_can_infer"":true,""alter_ball_visible"":true,""alter_can_infer"":true,""collective_ball_visible"":true,""collective_can_infer"":true,""search_locations"":[0],""alter_occluders"":""000"",""ego_occluders"":""010""}","true","","","","","","","","","","","","","","","","","","",""
"","","","","","image-keyboard-response","23","128993","0.0-3.0-20.0","63d96d5957cdd8a417721253","665500ab8938657b03fbdba8","6657931f3acb6e0722e1ee6f","686","stimuli/00000100.jpg"," ","","practrice_feedback","0","","","","","","","","","","","","","","","","","","","","",""
"","","","","","html-button-response","24","134646","0.0-3.0-21.0","63d96d5957cdd8a417721253","665500ab8938657b03fbdba8","6657931f3acb6e0722e1ee6f","5652","Now that you've had some practice, you'll be tested with a couple of easy trials. If you correctly predict Sam's choice, you'll move on to complete the experiment!","0","","","","","","","","","","","","","","","","","","","","","","","",""
"","","","","","image-keyboard-response","25","136002","0.0-3.0-22.0-0.0","63d96d5957cdd8a417721253","665500ab8938657b03fbdba8","6657931f3acb6e0722e1ee6f","1353","stimuli/0000011.jpg","arrowleft","","comprehension_quiz","","","true","arrowleft","","","","","","","","","","","","","","","","","",""
"","","","","","image-keyboard-response","26","136858","0.0-3.0-22.0-1.0","63d96d5957cdd8a417721253","665500ab8938657b03fbdba8","6657931f3acb6e0722e1ee6f","855","stimuli/00000110.jpg"," ","","comprehension_quiz","","","true"," ","","","","","","","","","","","","","","","","","",""
"","","","","","image-keyboard-response","27","138482","0.0-3.0-22.0-2.0","63d96d5957cdd8a417721253","665500ab8938657b03fbdba8","6657931f3acb6e0722e1ee6f","1622","stimuli/1010010.jpg","arrowdown","","comprehension_quiz","","","true","arrowdown","","","","","","","","","","","","","","","","","",""
"","","","","","image-keyboard-response","28","139499","0.0-3.0-22.0-3.0","63d96d5957cdd8a417721253","665500ab8938657b03fbdba8","6657931f3acb6e0722e1ee6f","1014","stimuli/10100101.jpg"," ","","comprehension_quiz","","","true"," ","","","","","","","","","","","","","","","","","",""
"","","","","","html-button-response","29","141661","0.0-4.0","63d96d5957cdd8a417721253","665500ab8938657b03fbdba8","6657931f3acb6e0722e1ee6f","2162","The experiment will now begin.","0","","","","","","","","","","","","","","","","","","","","","","","",""
"","","","","","image-keyboard-response","30","146315","0.0-5.0","63d96d5957cdd8a417721253","665500ab8938657b03fbdba8","6657931f3acb6e0722e1ee6f","4652","stimuli/0101110.jpg","0","","prediction_trial","2","","false","","0","false","false","false","false","false","false","[2,0]","101","110","0","","","","","","",""
"","","","","","image-keyboard-response","31","149636","0.0-6.0","63d96d5957cdd8a417721253","665500ab8938657b03fbdba8","6657931f3acb6e0722e1ee6f","3318","stimuli/01011102.jpg"," ","","feedback_trial","2","","","","","","","","","","","","","","","","","","","","",""
"","","","","","image-keyboard-response","32","150579","0.0-7.0","63d96d5957cdd8a417721253","665500ab8938657b03fbdba8","6657931f3acb6e0722e1ee6f","942","stimuli/1000100.jpg","1","","prediction_trial","1","","true","","1","true","true","true","true","true","true","[1]","000","100","1","","","","","","",""
"","","","","","image-keyboard-response","33","151307","0.0-8.0","63d96d5957cdd8a417721253","665500ab8938657b03fbdba8","6657931f3acb6e0722e1ee6f","725","stimuli/10001001.jpg"," ","","feedback_trial","1","","","","","","","","","","","","","","","","","","","","",""
"","","","","","image-keyboard-response","34","151988","0.0-9.0","63d96d5957cdd8a417721253","665500ab8938657b03fbdba8","6657931f3acb6e0722e1ee6f","678","stimuli/0001001.jpg","0","","prediction_trial","0","","true","","0","true","true","true","true","true","true","[0]","001","001","1","","","","","","",""
"","","","","","image-keyboard-response","35","152596","0.0-10.0","63d96d5957cdd8a417721253","665500ab8938657b03fbdba8","6657931f3acb6e0722e1ee6f","606","stimuli/00010010.jpg"," ","","feedback_trial","0","","","","","","","","","","","","","","","","","","","","",""
"","","","","","image-keyboard-response","36","155973","0.0-11.0","63d96d5957cdd8a417721253","665500ab8938657b03fbdba8","6657931f3acb6e0722e1ee6f","3374","stimuli/0001111.jpg","2","","prediction_trial","0","","false","","0","false","false","true","true","false","false","[0]","001","111","0","","","","","","",""
"","","","","","image-keyboard-response","37","156876","0.0-12.0","63d96d5957cdd8a417721253","665500ab8938657b03fbdba8","6657931f3acb6e0722e1ee6f","902","stimuli/00011110.jpg"," ","","feedback_trial","0","","","","","","","","","","","","","","","","","","","","",""
"","","","","","image-keyboard-response","38","163878","0.0-13.0","63d96d5957cdd8a417721253","665500ab8938657b03fbdba8","6657931f3acb6e0722e1ee6f","7000","stimuli/2011001.jpg","2","","prediction_trial","2","","true","","2","false","true","false","false","false","false","[1,2]","011","001","1","","","","","","",""
"","","","","","image-keyboard-response","39","164742","0.0-14.0","63d96d5957cdd8a417721253","665500ab8938657b03fbdba8","6657931f3acb6e0722e1ee6f","862","stimuli/20110012.jpg"," ","","feedback_trial","1","","","","","","","","","","","","","","","","","","","","",""
"","","","","","image-keyboard-response","40","166549","0.0-15.0","63d96d5957cdd8a417721253","665500ab8938657b03fbdba8","6657931f3acb6e0722e1ee6f","1805","stimuli/1101010.jpg","1","","prediction_trial","1","","true","","1","false","true","true","true","false","true","[1]","101","010","1","","","","","","",""
"","","","","","image-keyboard-response","41","167070","0.0-16.0","63d96d5957cdd8a417721253","665500ab8938657b03fbdba8","6657931f3acb6e0722e1ee6f","518","stimuli/11010101.jpg"," ","","feedback_trial","1","","","","","","","","","","","","","","","","","","","","",""
"","","","","","image-keyboard-response","42","169319","0.0-17.0","63d96d5957cdd8a417721253","665500ab8938657b03fbdba8","6657931f3acb6e0722e1ee6f","2246","stimuli/1011100.jpg","1","","prediction_trial","2","","false","","1","true","true","false","false","false","false","[2,1]","011","100","0","","","","","","",""
"","","","","","image-keyboard-response","43","171294","0.0-18.0","63d96d5957cdd8a417721253","665500ab8938657b03fbdba8","6657931f3acb6e0722e1ee6f","1974","stimuli/10111002.jpg"," ","","feedback_trial","2","","","","","","","","","","","","","","","","","","","","",""
"","","","","","image-keyboard-response","44","176799","0.0-19.0","63d96d5957cdd8a417721253","665500ab8938657b03fbdba8","6657931f3acb6e0722e1ee6f","5503","stimuli/2110011.jpg","2","","prediction_trial","2","","true","","2","false","false","true","true","false","false","[2]","110","011","1","","","","","","",""
"","","","","","image-keyboard-response","45","177647","0.0-20.0","63d96d5957cdd8a417721253","665500ab8938657b03fbdba8","6657931f3acb6e0722e1ee6f","846","stimuli/21100112.jpg"," ","","feedback_trial","2","","","","","","","","","","","","","","","","","","","","",""
"","","","","","image-keyboard-response","46","179768","0.0-21.0","63d96d5957cdd8a417721253","665500ab8938657b03fbdba8","6657931f3acb6e0722e1ee6f","2118","stimuli/0101000.jpg","0","","prediction_trial","2","","false","","0","true","true","false","false","false","false","[0,2]","101","000","0","","","","","","",""
"","","","","","image-keyboard-response","47","186656","0.0-22.0","63d96d5957cdd8a417721253","665500ab8938657b03fbdba8","6657931f3acb6e0722e1ee6f","6886","stimuli/01010002.jpg"," ","","feedback_trial","0","","","","","","","","","","","","","","","","","","","","",""
"","","","","","image-keyboard-response","48","192041","0.0-23.0","63d96d5957cdd8a417721253","665500ab8938657b03fbdba8","6657931f3acb6e0722e1ee6f","5383","stimuli/2100111.jpg","1","","prediction_trial","2","","false","","2","false","false","true","true","false","false","[2]","100","111","0","","","","","","",""
"","","","","","image-keyboard-response","49","195481","0.0-24.0","63d96d5957cdd8a417721253","665500ab8938657b03fbdba8","6657931f3acb6e0722e1ee6f","3439","stimuli/21001112.jpg"," ","","feedback_trial","2","","","","","","","","","","","","","","","","","","","","",""
"","","","","","image-keyboard-response","50","197506","0.0-25.0","63d96d5957cdd8a417721253","665500ab8938657b03fbdba8","6657931f3acb6e0722e1ee6f","2022","stimuli/2000110.jpg","2","","prediction_trial","2","","true","","2","true","true","true","true","true","true","[2]","000","110","1","","","","","","",""
"","","","","","image-keyboard-response","51","198346","0.0-26.0","63d96d5957cdd8a417721253","665500ab8938657b03fbdba8","6657931f3acb6e0722e1ee6f","839","stimuli/20001102.jpg"," ","","feedback_trial","2","","","","","","","","","","","","","","","","","","","","",""
"","","","","","image-keyboard-response","52","199162","0.0-27.0","63d96d5957cdd8a417721253","665500ab8938657b03fbdba8","6657931f3acb6e0722e1ee6f","813","stimuli/1100000.jpg","1","","prediction_trial","1","","true","","1","true","true","true","true","true","true","[1]","100","000","1","","","","","","",""
"","","","","","image-keyboard-response","53","199642","0.0-28.0","63d96d5957cdd8a417721253","665500ab8938657b03fbdba8","6657931f3acb6e0722e1ee6f","477","stimuli/11000001.jpg"," ","","feedback_trial","1","","","","","","","","","","","","","","","","","","","","",""
"","","","","","image-keyboard-response","54","201138","0.0-29.0","63d96d5957cdd8a417721253","665500ab8938657b03fbdba8","6657931f3acb6e0722e1ee6f","1495","stimuli/0110010.jpg","0","","prediction_trial","0","","true","","0","true","true","false","false","false","false","[0,1]","110","010","1","","","","","","",""
"","","","","","image-keyboard-response","55","201643","0.0-30.0","63d96d5957cdd8a417721253","665500ab8938657b03fbdba8","6657931f3acb6e0722e1ee6f","503","stimuli/01100100.jpg"," ","","feedback_trial","0","","","","","","","","","","","","","","","","","","","","",""
"","","","","","image-keyboard-response","56","202538","0.0-31.0","63d96d5957cdd8a417721253","665500ab8938657b03fbdba8","6657931f3acb6e0722e1ee6f","894","stimuli/1000000.jpg","1","","prediction_trial","1","","true","","1","true","true","true","true","true","true","[1]","000","000","1","","","","","","",""
"","","","","","image-keyboard-response","57","202938","0.0-32.0","63d96d5957cdd8a417721253","665500ab8938657b03fbdba8","6657931f3acb6e0722e1ee6f","399","stimuli/10000001.jpg"," ","","feedback_trial","1","","","","","","","","","","","","","","","","","","","","",""
"","","","","","image-keyboard-response","58","205130","0.0-33.0","63d96d5957cdd8a417721253","665500ab8938657b03fbdba8","6657931f3acb6e0722e1ee6f","2190","stimuli/1011101.jpg","1","","prediction_trial","1","","true","","1","true","true","false","false","false","false","[2,1]","011","101","1","","","","","","",""
"","","","","","image-keyboard-response","59","205626","0.0-34.0","63d96d5957cdd8a417721253","665500ab8938657b03fbdba8","6657931f3acb6e0722e1ee6f","493","stimuli/10111011.jpg"," ","","feedback_trial","2","","","","","","","","","","","","","","","","","","","","",""
"","","","","","image-keyboard-response","60","208611","0.0-35.0","63d96d5957cdd8a417721253","665500ab8938657b03fbdba8","6657931f3acb6e0722e1ee6f","2982","stimuli/2001110.jpg","2","","prediction_trial","2","","true","","2","true","true","false","true","false","true","[2]","001","110","1","","","","","","",""
"","","","","","image-keyboard-response","61","208995","0.0-36.0","63d96d5957cdd8a417721253","665500ab8938657b03fbdba8","6657931f3acb6e0722e1ee6f","382","stimuli/20011102.jpg"," ","","feedback_trial","2","","","","","","","","","","","","","","","","","","","","",""
"","","","","","image-keyboard-response","62","211267","0.0-37.0","63d96d5957cdd8a417721253","665500ab8938657b03fbdba8","6657931f3acb6e0722e1ee6f","2270","stimuli/0101100.jpg","0","","prediction_trial","2","","false","","0","false","true","false","false","false","false","[2,0]","101","100","0","","","","","","",""
"","","","","","image-keyboard-response","63","211836","0.0-38.0","63d96d5957cdd8a417721253","665500ab8938657b03fbdba8","6657931f3acb6e0722e1ee6f","565","stimuli/01011002.jpg"," ","","feedback_trial","2","","","","","","","","","","","","","","","","","","","","",""
"","","","","","image-keyboard-response","64","214140","0.0-39.0","63d96d5957cdd8a417721253","665500ab8938657b03fbdba8","6657931f3acb6e0722e1ee6f","2302","stimuli/2001111.jpg","1","","prediction_trial","2","","false","","2","false","false","false","true","false","false","[2]","001","111","0","","","","","","",""
"","","","","","image-keyboard-response","65","215051","0.0-40.0","63d96d5957cdd8a417721253","665500ab8938657b03fbdba8","6657931f3acb6e0722e1ee6f","910","stimuli/20011112.jpg"," ","","feedback_trial","2","","","","","","","","","","","","","","","","","","","","",""
"","","","","","image-keyboard-response","66","219692","0.0-41.0","63d96d5957cdd8a417721253","665500ab8938657b03fbdba8","6657931f3acb6e0722e1ee6f","4639","stimuli/0010100.jpg","0","","prediction_trial","0","","true","","0","false","true","true","true","false","true","[0]","010","100","1","","","","","","",""
"","","","","","image-keyboard-response","67","220245","0.0-42.0","63d96d5957cdd8a417721253","665500ab8938657b03fbdba8","6657931f3acb6e0722e1ee6f","549","stimuli/00101000.jpg"," ","","feedback_trial","0","","","","","","","","","","","","","","","","","","","","",""
"","","","","","image-keyboard-response","68","222333","0.0-43.0","63d96d5957cdd8a417721253","665500ab8938657b03fbdba8","6657931f3acb6e0722e1ee6f","2086","stimuli/0100101.jpg","2","","prediction_trial","0","","false","","0","false","false","false","true","false","false","[0]","100","101","0","","","","","","",""
"","","","","","image-keyboard-response","69","223012","0.0-44.0","63d96d5957cdd8a417721253","665500ab8938657b03fbdba8","6657931f3acb6e0722e1ee6f","678","stimuli/01001010.jpg"," ","","feedback_trial","0","","","","","","","","","","","","","","","","","","","","",""
"","","","","","image-keyboard-response","70","224005","0.0-45.0","63d96d5957cdd8a417721253","665500ab8938657b03fbdba8","6657931f3acb6e0722e1ee6f","990","stimuli/2100100.jpg","2","","prediction_trial","2","","true","","2","true","true","true","true","true","true","[2]","100","100","1","","","","","","",""
"","","","","","image-keyboard-response","71","224332","0.0-46.0","63d96d5957cdd8a417721253","665500ab8938657b03fbdba8","6657931f3acb6e0722e1ee6f","326","stimuli/21001002.jpg"," ","","feedback_trial","2","","","","","","","","","","","","","","","","","","","","",""
"","","","","","image-keyboard-response","72","226566","0.0-47.0","63d96d5957cdd8a417721253","665500ab8938657b03fbdba8","6657931f3acb6e0722e1ee6f","2231","stimuli/0011111.jpg","1","","prediction_trial","0","","false","","0","false","false","true","true","false","false","[0]","011","111","0","","","","","","",""
"","","","","","image-keyboard-response","73","227093","0.0-48.0","63d96d5957cdd8a417721253","665500ab8938657b03fbdba8","6657931f3acb6e0722e1ee6f","527","stimuli/00111110.jpg"," ","","feedback_trial","0","","","","","","","","","","","","","","","","","","","","",""
"","","","","","image-keyboard-response","74","230614","0.0-49.0","63d96d5957cdd8a417721253","665500ab8938657b03fbdba8","6657931f3acb6e0722e1ee6f","3518","stimuli/2111010.jpg","2","","prediction_trial","2","","true","","2","true","true","false","false","false","false","[2,1,0]","111","010","1","","","","","","",""
"","","","","","image-keyboard-response","75","231054","0.0-50.0","63d96d5957cdd8a417721253","665500ab8938657b03fbdba8","6657931f3acb6e0722e1ee6f","438","stimuli/21110102.jpg"," ","","feedback_trial","2","","","","","","","","","","","","","","","","","","","","",""
"","","","","","image-keyboard-response","76","233062","0.0-51.0","63d96d5957cdd8a417721253","665500ab8938657b03fbdba8","6657931f3acb6e0722e1ee6f","2005","stimuli/2101000.jpg","2","","prediction_trial","2","","true","","2","true","true","false","false","false","false","[2,0]","101","000","1","","","","","","",""
"","","","","","image-keyboard-response","77","233438","0.0-52.0","63d96d5957cdd8a417721253","665500ab8938657b03fbdba8","6657931f3acb6e0722e1ee6f","373","stimuli/21010002.jpg"," ","","feedback_trial","2","","","","","","","","","","","","","","","","","","","","",""
"","","","","","image-keyboard-response","78","234502","0.0-53.0","63d96d5957cdd8a417721253","665500ab8938657b03fbdba8","6657931f3acb6e0722e1ee6f","1063","stimuli/2100110.jpg","2","","prediction_trial","2","","true","","2","true","true","true","true","true","true","[2]","100","110","1","","","","","","",""
"","","","","","image-keyboard-response","79","234798","0.0-54.0","63d96d5957cdd8a417721253","665500ab8938657b03fbdba8","6657931f3acb6e0722e1ee6f","294","stimuli/21001102.jpg"," ","","feedback_trial","2","","","","","","","","","","","","","","","","","","","","",""
"","","","","","image-keyboard-response","80","235486","0.0-55.0","63d96d5957cdd8a417721253","665500ab8938657b03fbdba8","6657931f3acb6e0722e1ee6f","686","stimuli/1001100.jpg","1","","prediction_trial","1","","true","","1","true","true","true","true","true","true","[1]","001","100","1","","","","","","",""
"","","","","","image-keyboard-response","81","235638","0.0-56.0","63d96d5957cdd8a417721253","665500ab8938657b03fbdba8","6657931f3acb6e0722e1ee6f","149","stimuli/10011001.jpg"," ","","feedback_trial","1","","","","","","","","","","","","","","","","","","","","",""
"","","","","","image-keyboard-response","82","239022","0.0-57.0","63d96d5957cdd8a417721253","665500ab8938657b03fbdba8","6657931f3acb6e0722e1ee6f","3383","stimuli/1110101.jpg","1","","prediction_trial","0","","false","","1","true","true","false","false","false","false","[1,0]","110","101","0","","","","","","",""
"","","","","","image-keyboard-response","83","239463","0.0-58.0","63d96d5957cdd8a417721253","665500ab8938657b03fbdba8","6657931f3acb6e0722e1ee6f","439","stimuli/11101010.jpg"," ","","feedback_trial","1","","","","","","","","","","","","","","","","","","","","",""
"","","","","","image-keyboard-response","84","243287","0.0-59.0","63d96d5957cdd8a417721253","665500ab8938657b03fbdba8","6657931f3acb6e0722e1ee6f","3823","stimuli/1110001.jpg","1","","prediction_trial","1","","true","","1","true","true","false","false","false","false","[0,1]","110","001","1","","","","","","",""
"","","","","","image-keyboard-response","85","243687","0.0-60.0","63d96d5957cdd8a417721253","665500ab8938657b03fbdba8","6657931f3acb6e0722e1ee6f","398","stimuli/11100011.jpg"," ","","feedback_trial","0","","","","","","","","","","","","","","","","","","","","",""
"","","","","","image-keyboard-response","86","245224","0.0-61.0","63d96d5957cdd8a417721253","665500ab8938657b03fbdba8","6657931f3acb6e0722e1ee6f","1534","stimuli/0110000.jpg","0","","prediction_trial","1","","false","","0","true","true","false","false","false","false","[1,0]","110","000","0","","","","","","",""
"","","","","","image-keyboard-response","87","245807","0.0-62.0","63d96d5957cdd8a417721253","665500ab8938657b03fbdba8","6657931f3acb6e0722e1ee6f","582","stimuli/01100001.jpg"," ","","feedback_trial","1","","","","","","","","","","","","","","","","","","","","",""
"","","","","","image-keyboard-response","88","248816","0.0-63.0","63d96d5957cdd8a417721253","665500ab8938657b03fbdba8","6657931f3acb6e0722e1ee6f","3006","stimuli/2100101.jpg","0","","prediction_trial","2","","false","","2","false","false","true","true","false","false","[2]","100","101","0","","","","","","",""
"","","","","","image-keyboard-response","89","249360","0.0-64.0","63d96d5957cdd8a417721253","665500ab8938657b03fbdba8","6657931f3acb6e0722e1ee6f","542","stimuli/21001012.jpg"," ","","feedback_trial","2","","","","","","","","","","","","","","","","","","","","",""
"","","","","","image-keyboard-response","90","252280","0.0-65.0","63d96d5957cdd8a417721253","665500ab8938657b03fbdba8","6657931f3acb6e0722e1ee6f","2917","stimuli/1110011.jpg","1","","prediction_trial","0","","false","","1","false","false","false","false","false","false","[1,0]","110","011","0","","","","","","",""
"","","","","","image-keyboard-response","91","254272","0.0-66.0","63d96d5957cdd8a417721253","665500ab8938657b03fbdba8","6657931f3acb6e0722e1ee6f","1990","stimuli/11100110.jpg"," ","","feedback_trial","1","","","","","","","","","","","","","","","","","","","","",""
"","","","","","image-keyboard-response","92","258913","0.0-67.0","63d96d5957cdd8a417721253","665500ab8938657b03fbdba8","6657931f3acb6e0722e1ee6f","4638","stimuli/2010101.jpg","0","","prediction_trial","2","","false","","2","false","false","true","true","false","false","[2]","010","101","0","","","","","","",""
"","","","","","image-keyboard-response","93","259474","0.0-68.0","63d96d5957cdd8a417721253","665500ab8938657b03fbdba8","6657931f3acb6e0722e1ee6f","559","stimuli/20101012.jpg"," ","","feedback_trial","2","","","","","","","","","","","","","","","","","","","","",""
"","","","","","image-keyboard-response","94","261025","0.0-69.0","63d96d5957cdd8a417721253","665500ab8938657b03fbdba8","6657931f3acb6e0722e1ee6f","1550","stimuli/2011011.jpg","1","","prediction_trial","1","","true","","2","false","false","false","false","false","false","[1,2]","011","011","1","","","","","","",""
"","","","","","image-keyboard-response","95","261450","0.0-70.0","63d96d5957cdd8a417721253","665500ab8938657b03fbdba8","6657931f3acb6e0722e1ee6f","422","stimuli/20110111.jpg"," ","","feedback_trial","1","","","","","","","","","","","","","","","","","","","","",""
"","","","","","image-keyboard-response","96","263522","0.0-71.0","63d96d5957cdd8a417721253","665500ab8938657b03fbdba8","6657931f3acb6e0722e1ee6f","2071","stimuli/1011010.jpg","1","","prediction_trial","2","","false","","1","false","true","false","false","false","false","[1,2]","011","010","0","","","","","","",""
"","","","","","image-keyboard-response","97","264378","0.0-72.0","63d96d5957cdd8a417721253","665500ab8938657b03fbdba8","6657931f3acb6e0722e1ee6f","854","stimuli/10110102.jpg"," ","","feedback_trial","1","","","","","","","","","","","","","","","","","","","","",""
"","","","","","image-keyboard-response","98","266666","0.0-73.0","63d96d5957cdd8a417721253","665500ab8938657b03fbdba8","6657931f3acb6e0722e1ee6f","2286","stimuli/0010111.jpg","0","","prediction_trial","0","","true","","0","false","false","true","true","false","false","[0]","010","111","1","","","","","","",""
"","","","","","image-keyboard-response","99","267186","0.0-74.0","63d96d5957cdd8a417721253","665500ab8938657b03fbdba8","6657931f3acb6e0722e1ee6f","518","stimuli/00101110.jpg"," ","","feedback_trial","0","","","","","","","","","","","","","","","","","","","","",""
"","","","","","image-keyboard-response","100","269091","0.0-75.0","63d96d5957cdd8a417721253","665500ab8938657b03fbdba8","6657931f3acb6e0722e1ee6f","1902","stimuli/2000111.jpg","1","","prediction_trial","2","","false","","2","false","false","true","true","false","false","[2]","000","111","0","","","","","","",""
"","","","","","image-keyboard-response","101","269723","0.0-76.0","63d96d5957cdd8a417721253","665500ab8938657b03fbdba8","6657931f3acb6e0722e1ee6f","630","stimuli/20001112.jpg"," ","","feedback_trial","2","","","","","","","","","","","","","","","","","","","","",""
"","","","","","image-keyboard-response","102","271747","0.0-77.0","63d96d5957cdd8a417721253","665500ab8938657b03fbdba8","6657931f3acb6e0722e1ee6f","2022","stimuli/2000101.jpg","0","","prediction_trial","2","","false","","2","false","false","true","true","false","false","[2]","000","101","0","","","","","","",""
"","","","","","image-keyboard-response","103","272267","0.0-78.0","63d96d5957cdd8a417721253","665500ab8938657b03fbdba8","6657931f3acb6e0722e1ee6f","518","stimuli/20001012.jpg"," ","","feedback_trial","2","","","","","","","","","","","","","","","","","","","","",""
"","","","","","image-keyboard-response","104","273171","0.0-79.0","63d96d5957cdd8a417721253","665500ab8938657b03fbdba8","6657931f3acb6e0722e1ee6f","902","stimuli/0001011.jpg","0","","prediction_trial","0","","true","","0","true","true","true","true","true","true","[0]","001","011","1","","","","","","",""
"","","","","","image-keyboard-response","105","273539","0.0-80.0","63d96d5957cdd8a417721253","665500ab8938657b03fbdba8","6657931f3acb6e0722e1ee6f","366","stimuli/00010110.jpg"," ","","feedback_trial","0","","","","","","","","","","","","","","","","","","","","",""
"","","","","","image-keyboard-response","106","275116","0.0-81.0","63d96d5957cdd8a417721253","665500ab8938657b03fbdba8","6657931f3acb6e0722e1ee6f","1575","stimuli/0100110.jpg","1","","prediction_trial","0","","false","","0","false","false","false","true","false","false","[0]","100","110","0","","","","","","",""
"","","","","","image-keyboard-response","107","276707","0.0-82.0","63d96d5957cdd8a417721253","665500ab8938657b03fbdba8","6657931f3acb6e0722e1ee6f","1590","stimuli/01001100.jpg"," ","","feedback_trial","0","","","","","","","","","","","","","","","","","","","","",""
"","","","","","image-keyboard-response","108","278651","0.0-83.0","63d96d5957cdd8a417721253","665500ab8938657b03fbdba8","6657931f3acb6e0722e1ee6f","1941","stimuli/0110110.jpg","0","","prediction_trial","0","","true","","0","false","false","false","false","false","false","[1,0]","110","110","1","","","","","","",""
"","","","","","image-keyboard-response","109","279316","0.0-84.0","63d96d5957cdd8a417721253","665500ab8938657b03fbdba8","6657931f3acb6e0722e1ee6f","661","stimuli/01101100.jpg"," ","","feedback_trial","1","","","","","","","","","","","","","","","","","","","","",""
"","","","","","image-keyboard-response","110","280364","0.0-85.0","63d96d5957cdd8a417721253","665500ab8938657b03fbdba8","6657931f3acb6e0722e1ee6f","1046","stimuli/1100001.jpg","1","","prediction_trial","1","","true","","1","true","true","true","true","true","true","[1]","100","001","1","","","","","","",""
"","","","","","image-keyboard-response","111","280644","0.0-86.0","63d96d5957cdd8a417721253","665500ab8938657b03fbdba8","6657931f3acb6e0722e1ee6f","279","stimuli/11000011.jpg"," ","","feedback_trial","1","","","","","","","","","","","","","","","","","","","","",""
"","","","","","image-keyboard-response","112","284356","0.0-87.0","63d96d5957cdd8a417721253","665500ab8938657b03fbdba8","6657931f3acb6e0722e1ee6f","3710","stimuli/0001101.jpg","2","","prediction_trial","0","","false","","0","false","false","true","true","false","false","[0]","001","101","0","","","","","","",""
"","","","","","image-keyboard-response","113","284901","0.0-88.0","63d96d5957cdd8a417721253","665500ab8938657b03fbdba8","6657931f3acb6e0722e1ee6f","542","stimuli/00011010.jpg"," ","","feedback_trial","0","","","","","","","","","","","","","","","","","","","","",""
"","","","","","image-keyboard-response","114","287685","0.0-89.0","63d96d5957cdd8a417721253","665500ab8938657b03fbdba8","6657931f3acb6e0722e1ee6f","2782","stimuli/2001011.jpg","2","","prediction_trial","2","","true","","2","false","false","false","true","false","false","[2]","001","011","1","","","","","","",""
"","","","","","image-keyboard-response","115","288173","0.0-90.0","63d96d5957cdd8a417721253","665500ab8938657b03fbdba8","6657931f3acb6e0722e1ee6f","486","stimuli/20010112.jpg"," ","","feedback_trial","2","","","","","","","","","","","","","","","","","","","","",""
"","","","","","image-keyboard-response","116","289813","0.0-91.0","63d96d5957cdd8a417721253","665500ab8938657b03fbdba8","6657931f3acb6e0722e1ee6f","1638","stimuli/0110011.jpg","0","","prediction_trial","1","","false","","0","true","true","false","false","false","false","[1,0]","110","011","0","","","","","","",""
"","","","","","image-keyboard-response","117","290270","0.0-92.0","63d96d5957cdd8a417721253","665500ab8938657b03fbdba8","6657931f3acb6e0722e1ee6f","454","stimuli/01100111.jpg"," ","","feedback_trial","1","","","","","","","","","","","","","","","","","","","","",""
"","","","","","image-keyboard-response","118","292029","0.0-93.0","63d96d5957cdd8a417721253","665500ab8938657b03fbdba8","6657931f3acb6e0722e1ee6f","1759","stimuli/0000111.jpg","1","","prediction_trial","0","","false","","0","false","false","true","true","false","false","[0]","000","111","0","","","","","","",""
"","","","","","image-keyboard-response","119","292470","0.0-94.0","63d96d5957cdd8a417721253","665500ab8938657b03fbdba8","6657931f3acb6e0722e1ee6f","438","stimuli/00001110.jpg"," ","","feedback_trial","0","","","","","","","","","","","","","","","","","","","","",""
"","","","","","image-keyboard-response","120","293493","0.0-95.0","63d96d5957cdd8a417721253","665500ab8938657b03fbdba8","6657931f3acb6e0722e1ee6f","1021","stimuli/1111100.jpg","1","","prediction_trial","2","","false","","1","true","true","false","false","false","false","[0,1,2]","111","100","0","","","","","","",""
"","","","","","image-keyboard-response","121","293814","0.0-96.0","63d96d5957cdd8a417721253","665500ab8938657b03fbdba8","6657931f3acb6e0722e1ee6f","318","stimuli/11111002.jpg"," ","","feedback_trial","0","","","","","","","","","","","","","","","","","","","","",""
"","","","","","image-keyboard-response","122","296358","0.0-97.0","63d96d5957cdd8a417721253","665500ab8938657b03fbdba8","6657931f3acb6e0722e1ee6f","2542","stimuli/1010101.jpg","1","","prediction_trial","1","","true","","1","true","true","false","true","false","true","[1]","010","101","1","","","","","","",""
"","","","","","image-keyboard-response","123","296669","0.0-98.0","63d96d5957cdd8a417721253","665500ab8938657b03fbdba8","6657931f3acb6e0722e1ee6f","310","stimuli/10101011.jpg"," ","","feedback_trial","1","","","","","","","","","","","","","","","","","","","","",""
"","","","","","image-keyboard-response","124","297510","0.0-99.0","63d96d5957cdd8a417721253","665500ab8938657b03fbdba8","6657931f3acb6e0722e1ee6f","838","stimuli/0011000.jpg","0","","prediction_trial","0","","true","","0","true","true","true","true","true","true","[0]","011","000","1","","","","","","",""
"","","","","","image-keyboard-response","125","297781","0.0-100.0","63d96d5957cdd8a417721253","665500ab8938657b03fbdba8","6657931f3acb6e0722e1ee6f","269","stimuli/00110000.jpg"," ","","feedback_trial","0","","","","","","","","","","","","","","","","","","","","",""
"","","","","","image-keyboard-response","126","299334","0.0-101.0","63d96d5957cdd8a417721253","665500ab8938657b03fbdba8","6657931f3acb6e0722e1ee6f","1551","stimuli/2111001.jpg","2","","prediction_trial","2","","true","","2","false","true","false","false","false","false","[0,2,1]","111","001","1","","","","","","",""
"","","","","","image-keyboard-response","127","299670","0.0-102.0","63d96d5957cdd8a417721253","665500ab8938657b03fbdba8","6657931f3acb6e0722e1ee6f","334","stimuli/21110012.jpg"," ","","feedback_trial","0","","","","","","","","","","","","","","","","","","","","",""
"","","","","","image-keyboard-response","128","300983","0.0-103.0","63d96d5957cdd8a417721253","665500ab8938657b03fbdba8","6657931f3acb6e0722e1ee6f","1310","stimuli/0111111.jpg","1","","prediction_trial","1","","true","","0","false","false","false","false","false","false","[1,0,2]","111","111","1","","","","","","",""
"","","","","","image-keyboard-response","129","301423","0.0-104.0","63d96d5957cdd8a417721253","665500ab8938657b03fbdba8","6657931f3acb6e0722e1ee6f","438","stimuli/01111111.jpg"," ","","feedback_trial","1","","","","","","","","","","","","","","","","","","","","",""
"","","","","","image-keyboard-response","130","303695","0.0-105.0","63d96d5957cdd8a417721253","665500ab8938657b03fbdba8","6657931f3acb6e0722e1ee6f","2270","stimuli/2010011.jpg","2","","prediction_trial","2","","true","","2","false","false","true","true","false","false","[2]","010","011","1","","","","","","",""
"","","","","","image-keyboard-response","131","304134","0.0-106.0","63d96d5957cdd8a417721253","665500ab8938657b03fbdba8","6657931f3acb6e0722e1ee6f","438","stimuli/20100112.jpg"," ","","feedback_trial","2","","","","","","","","","","","","","","","","","","","","",""
"","","","","","image-keyboard-response","132","304871","0.0-107.0","63d96d5957cdd8a417721253","665500ab8938657b03fbdba8","6657931f3acb6e0722e1ee6f","734","stimuli/0011010.jpg","0","","prediction_trial","0","","true","","0","true","true","true","true","true","true","[0]","011","010","1","","","","","","",""
"","","","","","image-keyboard-response","133","305126","0.0-108.0","63d96d5957cdd8a417721253","665500ab8938657b03fbdba8","6657931f3acb6e0722e1ee6f","254","stimuli/00110100.jpg"," ","","feedback_trial","0","","","","","","","","","","","","","","","","","","","","",""
"","","","","","image-keyboard-response","134","306415","0.0-109.0","63d96d5957cdd8a417721253","665500ab8938657b03fbdba8","6657931f3acb6e0722e1ee6f","1286","stimuli/2000001.jpg","2","","prediction_trial","2","","true","","2","false","true","true","true","false","true","[2]","000","001","1","","","","","","",""
"","","","","","image-keyboard-response","135","306767","0.0-110.0","63d96d5957cdd8a417721253","665500ab8938657b03fbdba8","6657931f3acb6e0722e1ee6f","351","stimuli/20000012.jpg"," ","","feedback_trial","2","","","","","","","","","","","","","","","","","","","","",""
"","","","","","image-keyboard-response","136","307455","0.0-111.0","63d96d5957cdd8a417721253","665500ab8938657b03fbdba8","6657931f3acb6e0722e1ee6f","685","stimuli/0000001.jpg","0","","prediction_trial","0","","true","","0","true","true","true","true","true","true","[0]","000","001","1","","","","","","",""
"","","","","","image-keyboard-response","137","307735","0.0-112.0","63d96d5957cdd8a417721253","665500ab8938657b03fbdba8","6657931f3acb6e0722e1ee6f","278","stimuli/00000010.jpg"," ","","feedback_trial","0","","","","","","","","","","","","","","","","","","","","",""
"","","","","","image-keyboard-response","138","308352","0.0-113.0","63d96d5957cdd8a417721253","665500ab8938657b03fbdba8","6657931f3acb6e0722e1ee6f","615","stimuli/0011001.jpg","0","","prediction_trial","0","","true","","0","true","true","true","true","true","true","[0]","011","001","1","","","","","","",""
"","","","","","image-keyboard-response","139","308567","0.0-114.0","63d96d5957cdd8a417721253","665500ab8938657b03fbdba8","6657931f3acb6e0722e1ee6f","212","stimuli/00110010.jpg"," ","","feedback_trial","0","","","","","","","","","","","","","","","","","","","","",""
"","","","","","image-keyboard-response","140","310487","0.0-115.0","63d96d5957cdd8a417721253","665500ab8938657b03fbdba8","6657931f3acb6e0722e1ee6f","1918","stimuli/0101101.jpg","0","","prediction_trial","0","","true","","0","false","false","false","false","false","false","[2,0]","101","101","1","","","","","","",""
"","","","","","image-keyboard-response","141","310992","0.0-116.0","63d96d5957cdd8a417721253","665500ab8938657b03fbdba8","6657931f3acb6e0722e1ee6f","501","stimuli/01011010.jpg"," ","","feedback_trial","2","","","","","","","","","","","","","","","","","","","","",""
"","","","","","image-keyboard-response","142","311872","0.0-117.0","63d96d5957cdd8a417721253","665500ab8938657b03fbdba8","6657931f3acb6e0722e1ee6f","879","stimuli/1100101.jpg","1","","prediction_trial","1","","true","","1","true","true","true","true","true","true","[1]","100","101","1","","","","","","",""
"","","","","","image-keyboard-response","143","312128","0.0-118.0","63d96d5957cdd8a417721253","665500ab8938657b03fbdba8","6657931f3acb6e0722e1ee6f","253","stimuli/11001011.jpg"," ","","feedback_trial","1","","","","","","","","","","","","","","","","","","","","",""
"","","","","","image-keyboard-response","144","315320","0.0-119.0","63d96d5957cdd8a417721253","665500ab8938657b03fbdba8","6657931f3acb6e0722e1ee6f","3191","stimuli/1100011.jpg","2","","prediction_trial","1","","false","","1","false","false","true","true","false","false","[1]","100","011","0","","","","","","",""
"","","","","","image-keyboard-response","145","315808","0.0-120.0","63d96d5957cdd8a417721253","665500ab8938657b03fbdba8","6657931f3acb6e0722e1ee6f","485","stimuli/11000111.jpg"," ","","feedback_trial","1","","","","","","","","","","","","","","","","","","","","",""
"","","","","","image-keyboard-response","146","316841","0.0-121.0","63d96d5957cdd8a417721253","665500ab8938657b03fbdba8","6657931f3acb6e0722e1ee6f","1029","stimuli/2011110.jpg","2","","prediction_trial","2","","true","","2","true","true","false","false","false","false","[1,2]","011","110","1","","","","","","",""
"","","","","","image-keyboard-response","147","317081","0.0-122.0","63d96d5957cdd8a417721253","665500ab8938657b03fbdba8","6657931f3acb6e0722e1ee6f","238","stimuli/20111102.jpg"," ","","feedback_trial","1","","","","","","","","","","","","","","","","","","","","",""
"","","","","","image-keyboard-response","148","318048","0.0-123.0","63d96d5957cdd8a417721253","665500ab8938657b03fbdba8","6657931f3acb6e0722e1ee6f","966","stimuli/2000011.jpg","1","","prediction_trial","2","","false","","2","false","false","true","true","false","false","[2]","000","011","0","","","","","","",""
"","","","","","image-keyboard-response","149","318504","0.0-124.0","63d96d5957cdd8a417721253","665500ab8938657b03fbdba8","6657931f3acb6e0722e1ee6f","454","stimuli/20000112.jpg"," ","","feedback_trial","2","","","","","","","","","","","","","","","","","","","","",""
"","","","","","image-keyboard-response","150","319992","0.0-125.0","63d96d5957cdd8a417721253","665500ab8938657b03fbdba8","6657931f3acb6e0722e1ee6f","1486","stimuli/2001100.jpg","2","","prediction_trial","2","","true","","2","true","true","false","true","false","true","[2]","001","100","1","","","","","","",""
"","","","","","image-keyboard-response","151","320344","0.0-126.0","63d96d5957cdd8a417721253","665500ab8938657b03fbdba8","6657931f3acb6e0722e1ee6f","349","stimuli/20011002.jpg"," ","","feedback_trial","2","","","","","","","","","","","","","","","","","","","","",""
"","","","","","image-keyboard-response","152","321929","0.0-127.0","63d96d5957cdd8a417721253","665500ab8938657b03fbdba8","6657931f3acb6e0722e1ee6f","1582","stimuli/1001011.jpg","2","","prediction_trial","1","","false","","1","false","false","true","true","false","false","[1]","001","011","0","","","","","","",""
"","","","","","image-keyboard-response","153","322673","0.0-128.0","63d96d5957cdd8a417721253","665500ab8938657b03fbdba8","6657931f3acb6e0722e1ee6f","742","stimuli/10010111.jpg"," ","","feedback_trial","1","","","","","","","","","","","","","","","","","","","","",""
"","","","","","image-keyboard-response","154","328154","0.0-129.0","63d96d5957cdd8a417721253","665500ab8938657b03fbdba8","6657931f3acb6e0722e1ee6f","5478","stimuli/1110010.jpg","1","","prediction_trial","1","","true","","1","false","true","false","false","false","false","[1,0]","110","010","1","","","","","","",""
"","","","","","image-keyboard-response","155","328530","0.0-130.0","63d96d5957cdd8a417721253","665500ab8938657b03fbdba8","6657931f3acb6e0722e1ee6f","373","stimuli/11100101.jpg"," ","","feedback_trial","1","","","","","","","","","","","","","","","","","","","","",""
"","","","","","image-keyboard-response","156","329537","0.0-131.0","63d96d5957cdd8a417721253","665500ab8938657b03fbdba8","6657931f3acb6e0722e1ee6f","1006","stimuli/0000100.jpg","0","","prediction_trial","0","","true","","0","false","true","true","true","false","true","[0]","000","100","1","","","","","","",""
"","","","","","image-keyboard-response","157","329794","0.0-132.0","63d96d5957cdd8a417721253","665500ab8938657b03fbdba8","6657931f3acb6e0722e1ee6f","254","stimuli/00001000.jpg"," ","","feedback_trial","0","","","","","","","","","","","","","","","","","","","","",""
"","","","","","image-keyboard-response","158","331002","0.0-133.0","63d96d5957cdd8a417721253","665500ab8938657b03fbdba8","6657931f3acb6e0722e1ee6f","1207","stimuli/2101110.jpg","2","","prediction_trial","0","","false","","2","true","true","false","false","false","false","[0,2]","101","110","0","","","","","","",""
"","","","","","image-keyboard-response","159","331346","0.0-134.0","63d96d5957cdd8a417721253","665500ab8938657b03fbdba8","6657931f3acb6e0722e1ee6f","342","stimuli/21011100.jpg"," ","","feedback_trial","0","","","","","","","","","","","","","","","","","","","","",""
"","","","","","image-keyboard-response","160","332066","0.0-135.0","63d96d5957cdd8a417721253","665500ab8938657b03fbdba8","6657931f3acb6e0722e1ee6f","719","stimuli/1001000.jpg","1","","prediction_trial","1","","true","","1","true","true","true","true","true","true","[1]","001","000","1","","","","","","",""
"","","","","","image-keyboard-response","161","332242","0.0-136.0","63d96d5957cdd8a417721253","665500ab8938657b03fbdba8","6657931f3acb6e0722e1ee6f","173","stimuli/10010001.jpg"," ","","feedback_trial","1","","","","","","","","","","","","","","","","","","","","",""
"","","","","","image-keyboard-response","162","333890","0.0-137.0","63d96d5957cdd8a417721253","665500ab8938657b03fbdba8","6657931f3acb6e0722e1ee6f","1646","stimuli/2011101.jpg","0","","prediction_trial","2","","false","","2","false","false","false","false","false","false","[1,2]","011","101","0","","","","","","",""
"","","","","","image-keyboard-response","163","334307","0.0-138.0","63d96d5957cdd8a417721253","665500ab8938657b03fbdba8","6657931f3acb6e0722e1ee6f","414","stimuli/20111012.jpg"," ","","feedback_trial","1","","","","","","","","","","","","","","","","","","","","",""
"","","","","","image-keyboard-response","164","335003","0.0-139.0","63d96d5957cdd8a417721253","665500ab8938657b03fbdba8","6657931f3acb6e0722e1ee6f","694","stimuli/1101100.jpg","1","","prediction_trial","1","","true","","1","true","true","true","true","true","true","[1]","101","100","1","","","","","","",""
"","","","","","image-keyboard-response","165","335139","0.0-140.0","63d96d5957cdd8a417721253","665500ab8938657b03fbdba8","6657931f3acb6e0722e1ee6f","134","stimuli/11011001.jpg"," ","","feedback_trial","1","","","","","","","","","","","","","","","","","","","","",""
"","","","","","image-keyboard-response","166","336547","0.0-141.0","63d96d5957cdd8a417721253","665500ab8938657b03fbdba8","6657931f3acb6e0722e1ee6f","1406","stimuli/1111010.jpg","1","","prediction_trial","1","","true","","1","false","true","false","false","false","false","[1,0,2]","111","010","1","","","","","","",""
"","","","","","image-keyboard-response","167","336739","0.0-142.0","63d96d5957cdd8a417721253","665500ab8938657b03fbdba8","6657931f3acb6e0722e1ee6f","190","stimuli/11110101.jpg"," ","","feedback_trial","1","","","","","","","","","","","","","","","","","","","","",""
"","","","","","image-keyboard-response","168","338571","0.0-143.0","63d96d5957cdd8a417721253","665500ab8938657b03fbdba8","6657931f3acb6e0722e1ee6f","1831","stimuli/2101001.jpg","2","","prediction_trial","2","","true","","2","false","true","false","false","false","false","[0,2]","101","001","1","","","","","","",""
"","","","","","image-keyboard-response","169","338819","0.0-144.0","63d96d5957cdd8a417721253","665500ab8938657b03fbdba8","6657931f3acb6e0722e1ee6f","245","stimuli/21010012.jpg"," ","","feedback_trial","0","","","","","","","","","","","","","","","","","","","","",""
"","","","","","image-keyboard-response","170","339995","0.0-145.0","63d96d5957cdd8a417721253","665500ab8938657b03fbdba8","6657931f3acb6e0722e1ee6f","1175","stimuli/1011011.jpg","1","","prediction_trial","2","","false","","1","false","false","false","false","false","false","[1,2]","011","011","0","","","","","","",""
"","","","","","image-keyboard-response","171","340379","0.0-146.0","63d96d5957cdd8a417721253","665500ab8938657b03fbdba8","6657931f3acb6e0722e1ee6f","382","stimuli/10110112.jpg"," ","","feedback_trial","1","","","","","","","","","","","","","","","","","","","","",""
"","","","","","image-keyboard-response","172","341275","0.0-147.0","63d96d5957cdd8a417721253","665500ab8938657b03fbdba8","6657931f3acb6e0722e1ee6f","894","stimuli/2100010.jpg","2","","prediction_trial","2","","true","","2","true","true","true","true","true","true","[2]","100","010","1","","","","","","",""
"","","","","","image-keyboard-response","173","341419","0.0-148.0","63d96d5957cdd8a417721253","665500ab8938657b03fbdba8","6657931f3acb6e0722e1ee6f","142","stimuli/21000102.jpg"," ","","feedback_trial","2","","","","","","","","","","","","","","","","","","","","",""
"","","","","","image-keyboard-response","174","342611","0.0-149.0","63d96d5957cdd8a417721253","665500ab8938657b03fbdba8","6657931f3acb6e0722e1ee6f","1191","stimuli/1101110.jpg","1","","prediction_trial","1","","true","","1","false","false","true","true","false","false","[1]","101","110","1","","","","","","",""
"","","","","","image-keyboard-response","175","342931","0.0-150.0","63d96d5957cdd8a417721253","665500ab8938657b03fbdba8","6657931f3acb6e0722e1ee6f","317","stimuli/11011101.jpg"," ","","feedback_trial","1","","","","","","","","","","","","","","","","","","","","",""
"","","","","","image-keyboard-response","176","344996","0.0-151.0","63d96d5957cdd8a417721253","665500ab8938657b03fbdba8","6657931f3acb6e0722e1ee6f","2062","stimuli/1100010.jpg","1","","prediction_trial","1","","true","","1","false","true","true","true","false","true","[1]","100","010","1","","","","","","",""
"","","","","","image-keyboard-response","177","345156","0.0-152.0","63d96d5957cdd8a417721253","665500ab8938657b03fbdba8","6657931f3acb6e0722e1ee6f","157","stimuli/11000101.jpg"," ","","feedback_trial","1","","","","","","","","","","","","","","","","","","","","",""
"","","","","","image-keyboard-response","178","346652","0.0-153.0","63d96d5957cdd8a417721253","665500ab8938657b03fbdba8","6657931f3acb6e0722e1ee6f","1494","stimuli/1010001.jpg","1","","prediction_trial","1","","true","","1","true","true","false","true","false","true","[1]","010","001","1","","","","","","",""
"","","","","","image-keyboard-response","179","346772","0.0-154.0","63d96d5957cdd8a417721253","665500ab8938657b03fbdba8","6657931f3acb6e0722e1ee6f","117","stimuli/10100011.jpg"," ","","feedback_trial","1","","","","","","","","","","","","","","","","","","","","",""
"","","","","","image-keyboard-response","180","348100","0.0-155.0","63d96d5957cdd8a417721253","665500ab8938657b03fbdba8","6657931f3acb6e0722e1ee6f","1326","stimuli/1110110.jpg","0","","prediction_trial","1","","false","","1","false","false","false","false","false","false","[0,1]","110","110","0","","","","","","",""
"","","","","","image-keyboard-response","181","348516","0.0-156.0","63d96d5957cdd8a417721253","665500ab8938657b03fbdba8","6657931f3acb6e0722e1ee6f","414","stimuli/11101101.jpg"," ","","feedback_trial","0","","","","","","","","","","","","","","","","","","","","",""
"","","","","","image-keyboard-response","182","349460","0.0-157.0","63d96d5957cdd8a417721253","665500ab8938657b03fbdba8","6657931f3acb6e0722e1ee6f","941","stimuli/0111001.jpg","0","","prediction_trial","0","","true","","0","true","true","false","false","false","false","[0,1,2]","111","001","1","","","","","","",""
"","","","","","image-keyboard-response","183","349820","0.0-158.0","63d96d5957cdd8a417721253","665500ab8938657b03fbdba8","6657931f3acb6e0722e1ee6f","358","stimuli/01110010.jpg"," ","","feedback_trial","0","","","","","","","","","","","","","","","","","","","","",""
"","","","","","image-keyboard-response","184","350557","0.0-159.0","63d96d5957cdd8a417721253","665500ab8938657b03fbdba8","6657931f3acb6e0722e1ee6f","734","stimuli/2110100.jpg","2","","prediction_trial","2","","true","","2","true","true","true","true","true","true","[2]","110","100","1","","","","","","",""
"","","","","","image-keyboard-response","185","350821","0.0-160.0","63d96d5957cdd8a417721253","665500ab8938657b03fbdba8","6657931f3acb6e0722e1ee6f","262","stimuli/21101002.jpg"," ","","feedback_trial","2","","","","","","","","","","","","","","","","","","","","",""
"","","","","","image-keyboard-response","186","351517","0.0-161.0","63d96d5957cdd8a417721253","665500ab8938657b03fbdba8","6657931f3acb6e0722e1ee6f","694","stimuli/0010001.jpg","0","","prediction_trial","0","","true","","0","true","true","true","true","true","true","[0]","010","001","1","","","","","","",""
"","","","","","image-keyboard-response","187","351845","0.0-162.0","63d96d5957cdd8a417721253","665500ab8938657b03fbdba8","6657931f3acb6e0722e1ee6f","326","stimuli/00100010.jpg"," ","","feedback_trial","0","","","","","","","","","","","","","","","","","","","","",""
"","","","","","image-keyboard-response","188","352453","0.0-163.0","63d96d5957cdd8a417721253","665500ab8938657b03fbdba8","6657931f3acb6e0722e1ee6f","606","stimuli/2110000.jpg","2","","prediction_trial","2","","true","","2","true","true","true","true","true","true","[2]","110","000","1","","","","","","",""
"","","","","","image-keyboard-response","189","352828","0.0-164.0","63d96d5957cdd8a417721253","665500ab8938657b03fbdba8","6657931f3acb6e0722e1ee6f","374","stimuli/21100002.jpg"," ","","feedback_trial","2","","","","","","","","","","","","","","","","","","","","",""
"","","","","","image-keyboard-response","190","353957","0.0-165.0","63d96d5957cdd8a417721253","665500ab8938657b03fbdba8","6657931f3acb6e0722e1ee6f","1126","stimuli/2111111.jpg","1","","prediction_trial","0","","false","","2","false","false","false","false","false","false","[2,1,0]","111","111","0","","","","","","",""
"","","","","","image-keyboard-response","191","354349","0.0-166.0","63d96d5957cdd8a417721253","665500ab8938657b03fbdba8","6657931f3acb6e0722e1ee6f","390","stimuli/21111110.jpg"," ","","feedback_trial","2","","","","","","","","","","","","","","","","","","","","",""
"","","","","","image-keyboard-response","192","356063","0.0-167.0","63d96d5957cdd8a417721253","665500ab8938657b03fbdba8","6657931f3acb6e0722e1ee6f","1712","stimuli/0010110.jpg","1","","prediction_trial","0","","false","","0","false","false","true","true","false","false","[0]","010","110","0","","","","","","",""
"","","","","","image-keyboard-response","193","356389","0.0-168.0","63d96d5957cdd8a417721253","665500ab8938657b03fbdba8","6657931f3acb6e0722e1ee6f","323","stimuli/00101100.jpg"," ","","feedback_trial","0","","","","","","","","","","","","","","","","","","","","",""
"","","","","","image-keyboard-response","194","359349","0.0-169.0","63d96d5957cdd8a417721253","665500ab8938657b03fbdba8","6657931f3acb6e0722e1ee6f","2958","stimuli/2111011.jpg","1","","prediction_trial","1","","true","","2","false","false","false","false","false","false","[1,2,0]","111","011","1","","","","","","",""
"","","","","","image-keyboard-response","195","359662","0.0-170.0","63d96d5957cdd8a417721253","665500ab8938657b03fbdba8","6657931f3acb6e0722e1ee6f","310","stimuli/21110111.jpg"," ","","feedback_trial","1","","","","","","","","","","","","","","","","","","","","",""
"","","","","","image-keyboard-response","196","360373","0.0-171.0","63d96d5957cdd8a417721253","665500ab8938657b03fbdba8","6657931f3acb6e0722e1ee6f","710","stimuli/0111010.jpg","0","","prediction_trial","2","","false","","0","true","true","false","false","false","false","[0,2,1]","111","010","0","","","","","","",""
"","","","","","image-keyboard-response","197","360846","0.0-172.0","63d96d5957cdd8a417721253","665500ab8938657b03fbdba8","6657931f3acb6e0722e1ee6f","470","stimuli/01110102.jpg"," ","","feedback_trial","0","","","","","","","","","","","","","","","","","","","","",""
"","","","","","image-keyboard-response","198","362350","0.0-173.0","63d96d5957cdd8a417721253","665500ab8938657b03fbdba8","6657931f3acb6e0722e1ee6f","1502","stimuli/2100011.jpg","2","","prediction_trial","2","","true","","2","false","false","true","true","false","false","[2]","100","011","1","","","","","","",""
"","","","","","image-keyboard-response","199","362685","0.0-174.0","63d96d5957cdd8a417721253","665500ab8938657b03fbdba8","6657931f3acb6e0722e1ee6f","334","stimuli/21000112.jpg"," ","","feedback_trial","2","","","","","","","","","","","","","","","","","","","","",""
"","","","","","image-keyboard-response","200","363478","0.0-175.0","63d96d5957cdd8a417721253","665500ab8938657b03fbdba8","6657931f3acb6e0722e1ee6f","789","stimuli/1111101.jpg","1","","prediction_trial","1","","true","","1","true","true","false","false","false","false","[1,2,0]","111","101","1","","","","","","",""
"","","","","","image-keyboard-response","201","363637","0.0-176.0","63d96d5957cdd8a417721253","665500ab8938657b03fbdba8","6657931f3acb6e0722e1ee6f","158","stimuli/11111011.jpg"," ","","feedback_trial","1","","","","","","","","","","","","","","","","","","","","",""
"","","","","","image-keyboard-response","202","365319","0.0-177.0","63d96d5957cdd8a417721253","665500ab8938657b03fbdba8","6657931f3acb6e0722e1ee6f","1679","stimuli/2100001.jpg","2","","prediction_trial","2","","true","","2","false","true","true","true","false","true","[2]","100","001","1","","","","","","",""
"","","","","","image-keyboard-response","203","365591","0.0-178.0","63d96d5957cdd8a417721253","665500ab8938657b03fbdba8","6657931f3acb6e0722e1ee6f","270","stimuli/21000012.jpg"," ","","feedback_trial","2","","","","","","","","","","","","","","","","","","","","",""
"","","","","","image-keyboard-response","204","366455","0.0-179.0","63d96d5957cdd8a417721253","665500ab8938657b03fbdba8","6657931f3acb6e0722e1ee6f","862","stimuli/1110000.jpg","1","","prediction_trial","1","","true","","1","true","true","false","false","false","false","[0,1]","110","000","1","","","","","","",""
"","","","","","image-keyboard-response","205","366663","0.0-180.0","63d96d5957cdd8a417721253","665500ab8938657b03fbdba8","6657931f3acb6e0722e1ee6f","206","stimuli/11100001.jpg"," ","","feedback_trial","0","","","","","","","","","","","","","","","","","","","","",""
"","","","","","image-keyboard-response","206","367350","0.0-181.0","63d96d5957cdd8a417721253","665500ab8938657b03fbdba8","6657931f3acb6e0722e1ee6f","687","stimuli/2010010.jpg","2","","prediction_trial","2","","true","","2","true","true","true","true","true","true","[2]","010","010","1","","","","","","",""
"","","","","","image-keyboard-response","207","367534","0.0-182.0","63d96d5957cdd8a417721253","665500ab8938657b03fbdba8","6657931f3acb6e0722e1ee6f","182","stimuli/20100102.jpg"," ","","feedback_trial","2","","","","","","","","","","","","","","","","","","","","",""
"","","","","","image-keyboard-response","208","368222","0.0-183.0","63d96d5957cdd8a417721253","665500ab8938657b03fbdba8","6657931f3acb6e0722e1ee6f","687","stimuli/1101101.jpg","1","","prediction_trial","1","","true","","1","true","true","true","true","true","true","[1]","101","101","1","","","","","","",""
"","","","","","image-keyboard-response","209","368367","0.0-184.0","63d96d5957cdd8a417721253","665500ab8938657b03fbdba8","6657931f3acb6e0722e1ee6f","142","stimuli/11011011.jpg"," ","","feedback_trial","1","","","","","","","","","","","","","","","","","","","","",""
"","","","","","image-keyboard-response","210","369902","0.0-185.0","63d96d5957cdd8a417721253","665500ab8938657b03fbdba8","6657931f3acb6e0722e1ee6f","1534","stimuli/0011110.jpg","0","","prediction_trial","0","","true","","0","false","false","true","true","false","false","[0]","011","110","1","","","","","","",""
"","","","","","image-keyboard-response","211","370215","0.0-186.0","63d96d5957cdd8a417721253","665500ab8938657b03fbdba8","6657931f3acb6e0722e1ee6f","309","stimuli/00111100.jpg"," ","","feedback_trial","0","","","","","","","","","","","","","","","","","","","","",""
"","","","","","image-keyboard-response","212","371759","0.0-187.0","63d96d5957cdd8a417721253","665500ab8938657b03fbdba8","6657931f3acb6e0722e1ee6f","1542","stimuli/1000011.jpg","1","","prediction_trial","1","","true","","1","false","false","true","true","false","false","[1]","000","011","1","","","","","","",""
"","","","","","image-keyboard-response","213","372079","0.0-188.0","63d96d5957cdd8a417721253","665500ab8938657b03fbdba8","6657931f3acb6e0722e1ee6f","319","stimuli/10000111.jpg"," ","","feedback_trial","1","","","","","","","","","","","","","","","","","","","","",""
"","","","","","image-keyboard-response","214","372815","0.0-189.0","63d96d5957cdd8a417721253","665500ab8938657b03fbdba8","6657931f3acb6e0722e1ee6f","733","stimuli/2001010.jpg","2","","prediction_trial","2","","true","","2","true","true","false","true","false","true","[2]","001","010","1","","","","","","",""
"","","","","","image-keyboard-response","215","373255","0.0-190.0","63d96d5957cdd8a417721253","665500ab8938657b03fbdba8","6657931f3acb6e0722e1ee6f","437","stimuli/20010102.jpg"," ","","feedback_trial","2","","","","","","","","","","","","","","","","","","","","",""
"","","","","","image-keyboard-response","216","374743","0.0-191.0","63d96d5957cdd8a417721253","665500ab8938657b03fbdba8","6657931f3acb6e0722e1ee6f","1486","stimuli/2001001.jpg","2","","prediction_trial","2","","true","","2","false","true","false","true","false","true","[2]","001","001","1","","","","","","",""
"","","","","","image-keyboard-response","217","375055","0.0-192.0","63d96d5957cdd8a417721253","665500ab8938657b03fbdba8","6657931f3acb6e0722e1ee6f","310","stimuli/20010012.jpg"," ","","feedback_trial","2","","","","","","","","","","","","","","","","","","","","",""
"","","","","","image-keyboard-response","218","376968","0.0-193.0","63d96d5957cdd8a417721253","665500ab8938657b03fbdba8","6657931f3acb6e0722e1ee6f","1910","stimuli/0110100.jpg","0","","prediction_trial","0","","true","","0","false","true","false","false","false","false","[0,1]","110","100","1","","","","","","",""
"","","","","","image-keyboard-response","219","377296","0.0-194.0","63d96d5957cdd8a417721253","665500ab8938657b03fbdba8","6657931f3acb6e0722e1ee6f","326","stimuli/01101000.jpg"," ","","feedback_trial","0","","","","","","","","","","","","","","","","","","","","",""
"","","","","","image-keyboard-response","220","378712","0.0-195.0","63d96d5957cdd8a417721253","665500ab8938657b03fbdba8","6657931f3acb6e0722e1ee6f","1415","stimuli/0000101.jpg","0","","prediction_trial","0","","true","","0","false","false","true","true","false","false","[0]","000","101","1","","","","","","",""
"","","","","","image-keyboard-response","221","379040","0.0-196.0","63d96d5957cdd8a417721253","665500ab8938657b03fbdba8","6657931f3acb6e0722e1ee6f","327","stimuli/00001010.jpg"," ","","feedback_trial","0","","","","","","","","","","","","","","","","","","","","",""
"","","","","","image-keyboard-response","222","381177","0.0-197.0","63d96d5957cdd8a417721253","665500ab8938657b03fbdba8","6657931f3acb6e0722e1ee6f","2133","stimuli/1010110.jpg","1","","prediction_trial","1","","true","","1","false","false","false","true","false","false","[1]","010","110","1","","","","","","",""
"","","","","","image-keyboard-response","223","381536","0.0-198.0","63d96d5957cdd8a417721253","665500ab8938657b03fbdba8","6657931f3acb6e0722e1ee6f","359","stimuli/10101101.jpg"," ","","feedback_trial","1","","","","","","","","","","","","","","","","","","","","",""
"","","","","","image-keyboard-response","224","382288","0.0-199.0","63d96d5957cdd8a417721253","665500ab8938657b03fbdba8","6657931f3acb6e0722e1ee6f","750","stimuli/0111000.jpg","0","","prediction_trial","2","","false","","0","true","true","false","false","false","false","[2,0,1]","111","000","0","","","","","","",""
"","","","","","image-keyboard-response","225","382648","0.0-200.0","63d96d5957cdd8a417721253","665500ab8938657b03fbdba8","6657931f3acb6e0722e1ee6f","359","stimuli/01110002.jpg"," ","","feedback_trial","2","","","","","","","","","","","","","","","","","","","","",""
"","","","","","image-keyboard-response","226","383944","0.0-201.0","63d96d5957cdd8a417721253","665500ab8938657b03fbdba8","6657931f3acb6e0722e1ee6f","1294","stimuli/1000111.jpg","1","","prediction_trial","1","","true","","1","false","false","true","true","false","false","[1]","000","111","1","","","","","","",""
"","","","","","image-keyboard-response","227","384200","0.0-202.0","63d96d5957cdd8a417721253","665500ab8938657b03fbdba8","6657931f3acb6e0722e1ee6f","254","stimuli/10001111.jpg"," ","","feedback_trial","1","","","","","","","","","","","","","","","","","","","","",""
"","","","","","image-keyboard-response","228","385777","0.0-203.0","63d96d5957cdd8a417721253","665500ab8938657b03fbdba8","6657931f3acb6e0722e1ee6f","1574","stimuli/1100110.jpg","0","","prediction_trial","1","","false","","1","false","false","true","true","false","false","[1]","100","110","0","","","","","","",""
"","","","","","image-keyboard-response","229","386185","0.0-204.0","63d96d5957cdd8a417721253","665500ab8938657b03fbdba8","6657931f3acb6e0722e1ee6f","406","stimuli/11001101.jpg"," ","","feedback_trial","1","","","","","","","","","","","","","","","","","","","","",""
"","","","","","image-keyboard-response","230","386817","0.0-205.0","63d96d5957cdd8a417721253","665500ab8938657b03fbdba8","6657931f3acb6e0722e1ee6f","630","stimuli/0000000.jpg","0","","prediction_trial","0","","true","","0","true","true","true","true","true","true","[0]","000","000","1","","","","","","",""
"","","","","","image-keyboard-response","231","387097","0.0-206.0","63d96d5957cdd8a417721253","665500ab8938657b03fbdba8","6657931f3acb6e0722e1ee6f","278","stimuli/00000000.jpg"," ","","feedback_trial","0","","","","","","","","","","","","","","","","","","","","",""
"","","","","","image-keyboard-response","232","388577","0.0-207.0","63d96d5957cdd8a417721253","665500ab8938657b03fbdba8","6657931f3acb6e0722e1ee6f","1477","stimuli/0111101.jpg","2","","prediction_trial","2","","true","","0","false","false","false","false","false","false","[2,1,0]","111","101","1","","","","","","",""
"","","","","","image-keyboard-response","233","388906","0.0-208.0","63d96d5957cdd8a417721253","665500ab8938657b03fbdba8","6657931f3acb6e0722e1ee6f","325","stimuli/01111012.jpg"," ","","feedback_trial","2","","","","","","","","","","","","","","","","","","","","",""
"","","","","","image-keyboard-response","234","389546","0.0-209.0","63d96d5957cdd8a417721253","665500ab8938657b03fbdba8","6657931f3acb6e0722e1ee6f","637","stimuli/1101000.jpg","1","","prediction_trial","1","","true","","1","true","true","true","true","true","true","[1]","101","000","1","","","","","","",""
"","","","","","image-keyboard-response","235","389737","0.0-210.0","63d96d5957cdd8a417721253","665500ab8938657b03fbdba8","6657931f3acb6e0722e1ee6f","190","stimuli/11010001.jpg"," ","","feedback_trial","1","","","","","","","","","","","","","","","","","","","","",""
"","","","","","image-keyboard-response","236","390521","0.0-211.0","63d96d5957cdd8a417721253","665500ab8938657b03fbdba8","6657931f3acb6e0722e1ee6f","782","stimuli/2011000.jpg","2","","prediction_trial","1","","false","","2","true","true","false","false","false","false","[1,2]","011","000","0","","","","","","",""
"","","","","","image-keyboard-response","237","391026","0.0-212.0","63d96d5957cdd8a417721253","665500ab8938657b03fbdba8","6657931f3acb6e0722e1ee6f","502","stimuli/20110001.jpg"," ","","feedback_trial","1","","","","","","","","","","","","","","","","","","","","",""
"","","","","","image-keyboard-response","238","392178","0.0-213.0","63d96d5957cdd8a417721253","665500ab8938657b03fbdba8","6657931f3acb6e0722e1ee6f","1150","stimuli/0010101.jpg","0","","prediction_trial","0","","true","","0","false","false","true","true","false","false","[0]","010","101","1","","","","","","",""
"","","","","","image-keyboard-response","239","392498","0.0-214.0","63d96d5957cdd8a417721253","665500ab8938657b03fbdba8","6657931f3acb6e0722e1ee6f","318","stimuli/00101010.jpg"," ","","feedback_trial","0","","","","","","","","","","","","","","","","","","","","",""
"","","","","","image-keyboard-response","240","393130","0.0-215.0","63d96d5957cdd8a417721253","665500ab8938657b03fbdba8","6657931f3acb6e0722e1ee6f","629","stimuli/2100000.jpg","2","","prediction_trial","2","","true","","2","true","true","true","true","true","true","[2]","100","000","1","","","","","","",""
"","","","","","image-keyboard-response","241","393346","0.0-216.0","63d96d5957cdd8a417721253","665500ab8938657b03fbdba8","6657931f3acb6e0722e1ee6f","213","stimuli/21000002.jpg"," ","","feedback_trial","2","","","","","","","","","","","","","","","","","","","","",""
"","","","","","image-keyboard-response","242","394322","0.0-217.0","63d96d5957cdd8a417721253","665500ab8938657b03fbdba8","6657931f3acb6e0722e1ee6f","974","stimuli/2011111.jpg","1","","prediction_trial","2","","false","","2","false","false","false","false","false","false","[1,2]","011","111","0","","","","","","",""
"","","","","","image-keyboard-response","243","394658","0.0-218.0","63d96d5957cdd8a417721253","665500ab8938657b03fbdba8","6657931f3acb6e0722e1ee6f","334","stimuli/20111112.jpg"," ","","feedback_trial","1","","","","","","","","","","","","","","","","","","","","",""
"","","","","","image-keyboard-response","244","395882","0.0-219.0","63d96d5957cdd8a417721253","665500ab8938657b03fbdba8","6657931f3acb6e0722e1ee6f","1223","stimuli/0011100.jpg","0","","prediction_trial","0","","true","","0","false","true","true","true","false","true","[0]","011","100","1","","","","","","",""
"","","","","","image-keyboard-response","245","396194","0.0-220.0","63d96d5957cdd8a417721253","665500ab8938657b03fbdba8","6657931f3acb6e0722e1ee6f","310","stimuli/00111000.jpg"," ","","feedback_trial","0","","","","","","","","","","","","","","","","","","","","",""
"","","","","","image-keyboard-response","246","397594","0.0-221.0","63d96d5957cdd8a417721253","665500ab8938657b03fbdba8","6657931f3acb6e0722e1ee6f","1397","stimuli/2010111.jpg","2","","prediction_trial","2","","true","","2","false","false","true","true","false","false","[2]","010","111","1","","","","","","",""
"","","","","","image-keyboard-response","247","397922","0.0-222.0","63d96d5957cdd8a417721253","665500ab8938657b03fbdba8","6657931f3acb6e0722e1ee6f","327","stimuli/20101112.jpg"," ","","feedback_trial","2","","","","","","","","","","","","","","","","","","","","",""
"","","","","","image-keyboard-response","248","399266","0.0-223.0","63d96d5957cdd8a417721253","665500ab8938657b03fbdba8","6657931f3acb6e0722e1ee6f","1341","stimuli/1010010.jpg","1","","prediction_trial","1","","true","","1","false","true","false","true","false","true","[1]","010","010","1","","","","","","",""
"","","","","","image-keyboard-response","249","399466","0.0-224.0","63d96d5957cdd8a417721253","665500ab8938657b03fbdba8","6657931f3acb6e0722e1ee6f","198","stimuli/10100101.jpg"," ","","feedback_trial","1","","","","","","","","","","","","","","","","","","","","",""
"","","","","","image-keyboard-response","250","400227","0.0-225.0","63d96d5957cdd8a417721253","665500ab8938657b03fbdba8","6657931f3acb6e0722e1ee6f","758","stimuli/0110001.jpg","0","","prediction_trial","0","","true","","0","true","true","false","false","false","false","[0,1]","110","001","1","","","","","","",""
"","","","","","image-keyboard-response","251","400546","0.0-226.0","63d96d5957cdd8a417721253","665500ab8938657b03fbdba8","6657931f3acb6e0722e1ee6f","318","stimuli/01100010.jpg"," ","","feedback_trial","0","","","","","","","","","","","","","","","","","","","","",""
"","","","","","image-keyboard-response","252","401218","0.0-227.0","63d96d5957cdd8a417721253","665500ab8938657b03fbdba8","6657931f3acb6e0722e1ee6f","670","stimuli/0011011.jpg","0","","prediction_trial","0","","true","","0","true","true","true","true","true","true","[0]","011","011","1","","","","","","",""
"","","","","","image-keyboard-response","253","401434","0.0-228.0","63d96d5957cdd8a417721253","665500ab8938657b03fbdba8","6657931f3acb6e0722e1ee6f","214","stimuli/00110110.jpg"," ","","feedback_trial","0","","","","","","","","","","","","","","","","","","","","",""
"","","","","","image-keyboard-response","254","402731","0.0-229.0","63d96d5957cdd8a417721253","665500ab8938657b03fbdba8","6657931f3acb6e0722e1ee6f","1294","stimuli/0001010.jpg","0","","prediction_trial","0","","true","","0","true","true","true","true","true","true","[0]","001","010","1","","","","","","",""
"","","","","","image-keyboard-response","255","402906","0.0-230.0","63d96d5957cdd8a417721253","665500ab8938657b03fbdba8","6657931f3acb6e0722e1ee6f","174","stimuli/00010100.jpg"," ","","feedback_trial","0","","","","","","","","","","","","","","","","","","","","",""
"","","","","","image-keyboard-response","256","404083","0.0-231.0","63d96d5957cdd8a417721253","665500ab8938657b03fbdba8","6657931f3acb6e0722e1ee6f","1175","stimuli/0111100.jpg","0","","prediction_trial","1","","false","","0","false","true","false","false","false","false","[2,0,1]","111","100","0","","","","","","",""
"","","","","","image-keyboard-response","257","404283","0.0-232.0","63d96d5957cdd8a417721253","665500ab8938657b03fbdba8","6657931f3acb6e0722e1ee6f","197","stimuli/01111001.jpg"," ","","feedback_trial","2","","","","","","","","","","","","","","","","","","","","",""
"","","","","","image-keyboard-response","258","404931","0.0-233.0","63d96d5957cdd8a417721253","665500ab8938657b03fbdba8","6657931f3acb6e0722e1ee6f","646","stimuli/1111000.jpg","1","","prediction_trial","0","","false","","1","true","true","false","false","false","false","[1,2,0]","111","000","0","","","","","","",""
"","","","","","image-keyboard-response","259","405107","0.0-234.0","63d96d5957cdd8a417721253","665500ab8938657b03fbdba8","6657931f3acb6e0722e1ee6f","174","stimuli/11110000.jpg"," ","","feedback_trial","1","","","","","","","","","","","","","","","","","","","","",""
"","","","","","image-keyboard-response","260","406388","0.0-235.0","63d96d5957cdd8a417721253","665500ab8938657b03fbdba8","6657931f3acb6e0722e1ee6f","1279","stimuli/1101111.jpg","1","","prediction_trial","1","","true","","1","false","false","true","true","false","false","[1]","101","111","1","","","","","","",""
"","","","","","image-keyboard-response","261","406555","0.0-236.0","63d96d5957cdd8a417721253","665500ab8938657b03fbdba8","6657931f3acb6e0722e1ee6f","166","stimuli/11011111.jpg"," ","","feedback_trial","1","","","","","","","","","","","","","","","","","","","","",""
"","","","","","image-keyboard-response","262","407211","0.0-237.0","63d96d5957cdd8a417721253","665500ab8938657b03fbdba8","6657931f3acb6e0722e1ee6f","654","stimuli/2011010.jpg","2","","prediction_trial","1","","false","","2","true","true","false","false","false","false","[2,1]","011","010","0","","","","","","",""
"","","","","","image-keyboard-response","263","407371","0.0-238.0","63d96d5957cdd8a417721253","665500ab8938657b03fbdba8","6657931f3acb6e0722e1ee6f","158","stimuli/20110101.jpg"," ","","feedback_trial","2","","","","","","","","","","","","","","","","","","","","",""
"","","","","","image-keyboard-response","264","408972","0.0-239.0","63d96d5957cdd8a417721253","665500ab8938657b03fbdba8","6657931f3acb6e0722e1ee6f","1598","stimuli/0110101.jpg","0","","prediction_trial","1","","false","","0","false","false","false","false","false","false","[1,0]","110","101","0","","","","","","",""
"","","","","","image-keyboard-response","265","409828","0.0-240.0","63d96d5957cdd8a417721253","665500ab8938657b03fbdba8","6657931f3acb6e0722e1ee6f","854","stimuli/01101011.jpg"," ","","feedback_trial","1","","","","","","","","","","","","","","","","","","","","",""
"","","","","","image-keyboard-response","266","411620","0.0-241.0","63d96d5957cdd8a417721253","665500ab8938657b03fbdba8","6657931f3acb6e0722e1ee6f","1790","stimuli/1000110.jpg","0","","prediction_trial","1","","false","","1","false","false","true","true","false","false","[1]","000","110","0","","","","","","",""
"","","","","","image-keyboard-response","267","411988","0.0-242.0","63d96d5957cdd8a417721253","665500ab8938657b03fbdba8","6657931f3acb6e0722e1ee6f","365","stimuli/10001101.jpg"," ","","feedback_trial","1","","","","","","","","","","","","","","","","","","","","",""
"","","","","","image-keyboard-response","268","413412","0.0-243.0","63d96d5957cdd8a417721253","665500ab8938657b03fbdba8","6657931f3acb6e0722e1ee6f","1422","stimuli/1001110.jpg","1","","prediction_trial","1","","true","","1","false","false","true","true","false","false","[1]","001","110","1","","","","","","",""
"","","","","","image-keyboard-response","269","413748","0.0-244.0","63d96d5957cdd8a417721253","665500ab8938657b03fbdba8","6657931f3acb6e0722e1ee6f","335","stimuli/10011101.jpg"," ","","feedback_trial","1","","","","","","","","","","","","","","","","","","","","",""
"","","","","","image-keyboard-response","270","415341","0.0-245.0","63d96d5957cdd8a417721253","665500ab8938657b03fbdba8","6657931f3acb6e0722e1ee6f","1590","stimuli/0011101.jpg","2","","prediction_trial","0","","false","","0","false","false","true","true","false","false","[0]","011","101","0","","","","","","",""
"","","","","","image-keyboard-response","271","415725","0.0-246.0","63d96d5957cdd8a417721253","665500ab8938657b03fbdba8","6657931f3acb6e0722e1ee6f","382","stimuli/00111010.jpg"," ","","feedback_trial","0","","","","","","","","","","","","","","","","","","","","",""
"","","","","","image-keyboard-response","272","416564","0.0-247.0","63d96d5957cdd8a417721253","665500ab8938657b03fbdba8","6657931f3acb6e0722e1ee6f","838","stimuli/2011100.jpg","2","","prediction_trial","1","","false","","2","true","true","false","false","false","false","[1,2]","011","100","0","","","","","","",""
"","","","","","image-keyboard-response","273","416772","0.0-248.0","63d96d5957cdd8a417721253","665500ab8938657b03fbdba8","6657931f3acb6e0722e1ee6f","206","stimuli/20111001.jpg"," ","","feedback_trial","1","","","","","","","","","","","","","","","","","","","","",""
"","","","","","image-keyboard-response","274","419989","0.0-249.0","63d96d5957cdd8a417721253","665500ab8938657b03fbdba8","6657931f3acb6e0722e1ee6f","3215","stimuli/0111110.jpg","0","","prediction_trial","0","","true","","0","false","false","false","false","false","false","[1,0,2]","111","110","1","","","","","","",""
"","","","","","image-keyboard-response","275","420461","0.0-250.0","63d96d5957cdd8a417721253","665500ab8938657b03fbdba8","6657931f3acb6e0722e1ee6f","470","stimuli/01111100.jpg"," ","","feedback_trial","1","","","","","","","","","","","","","","","","","","","","",""
"","","","","","image-keyboard-response","276","421853","0.0-251.0","63d96d5957cdd8a417721253","665500ab8938657b03fbdba8","6657931f3acb6e0722e1ee6f","1390","stimuli/1100111.jpg","1","","prediction_trial","1","","true","","1","false","false","true","true","false","false","[1]","100","111","1","","","","","","",""
"","","","","","image-keyboard-response","277","422165","0.0-252.0","63d96d5957cdd8a417721253","665500ab8938657b03fbdba8","6657931f3acb6e0722e1ee6f","309","stimuli/11001111.jpg"," ","","feedback_trial","1","","","","","","","","","","","","","","","","","","","","",""
"","","","","","image-keyboard-response","278","423581","0.0-253.0","63d96d5957cdd8a417721253","665500ab8938657b03fbdba8","6657931f3acb6e0722e1ee6f","1415","stimuli/1101011.jpg","2","","prediction_trial","1","","false","","1","false","false","true","true","false","false","[1]","101","011","0","","","","","","",""
"","","","","","image-keyboard-response","279","423853","0.0-254.0","63d96d5957cdd8a417721253","665500ab8938657b03fbdba8","6657931f3acb6e0722e1ee6f","270","stimuli/11010111.jpg"," ","","feedback_trial","1","","","","","","","","","","","","","","","","","","","","",""
"","","","","","image-keyboard-response","280","424526","0.0-255.0","63d96d5957cdd8a417721253","665500ab8938657b03fbdba8","6657931f3acb6e0722e1ee6f","670","stimuli/2110110.jpg","2","","prediction_trial","2","","true","","2","true","true","true","true","true","true","[2]","110","110","1","","","","","","",""
"","","","","","image-keyboard-response","281","424669","0.0-256.0","63d96d5957cdd8a417721253","665500ab8938657b03fbdba8","6657931f3acb6e0722e1ee6f","142","stimuli/21101102.jpg"," ","","feedback_trial","2","","","","","","","","","","","","","","","","","","","","",""
"","","","","","image-keyboard-response","282","425437","0.0-257.0","63d96d5957cdd8a417721253","665500ab8938657b03fbdba8","6657931f3acb6e0722e1ee6f","766","stimuli/1101001.jpg","1","","prediction_trial","1","","true","","1","true","true","true","true","true","true","[1]","101","001","1","","","","","","",""
"","","","","","image-keyboard-response","283","425605","0.0-258.0","63d96d5957cdd8a417721253","665500ab8938657b03fbdba8","6657931f3acb6e0722e1ee6f","166","stimuli/11010011.jpg"," ","","feedback_trial","1","","","","","","","","","","","","","","","","","","","","",""
"","","","","","image-keyboard-response","284","426149","0.0-259.0","63d96d5957cdd8a417721253","665500ab8938657b03fbdba8","6657931f3acb6e0722e1ee6f","542","stimuli/1111001.jpg","1","","prediction_trial","2","","false","","1","true","true","false","false","false","false","[1,0,2]","111","001","0","","","","","","",""
"","","","","","image-keyboard-response","285","426709","0.0-260.0","63d96d5957cdd8a417721253","665500ab8938657b03fbdba8","6657931f3acb6e0722e1ee6f","558","stimuli/11110012.jpg"," ","","feedback_trial","1","","","","","","","","","","","","","","","","","","","","",""
"","","","","","image-keyboard-response","286","427750","0.0-261.0","63d96d5957cdd8a417721253","665500ab8938657b03fbdba8","6657931f3acb6e0722e1ee6f","1037","stimuli/2010001.jpg","2","","prediction_trial","2","","true","","2","false","true","true","true","false","true","[2]","010","001","1","","","","","","",""
"","","","","","image-keyboard-response","287","427974","0.0-262.0","63d96d5957cdd8a417721253","665500ab8938657b03fbdba8","6657931f3acb6e0722e1ee6f","221","stimuli/20100012.jpg"," ","","feedback_trial","2","","","","","","","","","","","","","","","","","","","","",""
"","","","","","image-keyboard-response","288","428766","0.0-263.0","63d96d5957cdd8a417721253","665500ab8938657b03fbdba8","6657931f3acb6e0722e1ee6f","790","stimuli/0101010.jpg","0","","prediction_trial","2","","false","","0","true","true","false","false","false","false","[0,2]","101","010","0","","","","","","",""
"","","","","","image-keyboard-response","289","429014","0.0-264.0","63d96d5957cdd8a417721253","665500ab8938657b03fbdba8","6657931f3acb6e0722e1ee6f","245","stimuli/01010102.jpg"," ","","feedback_trial","0","","","","","","","","","","","","","","","","","","","","",""
"","","","","","image-keyboard-response","290","430654","0.0-265.0","63d96d5957cdd8a417721253","665500ab8938657b03fbdba8","6657931f3acb6e0722e1ee6f","1639","stimuli/0101011.jpg","0","","prediction_trial","0","","true","","0","true","true","false","false","false","false","[2,0]","101","011","1","","","","","","",""
"","","","","","image-keyboard-response","291","430830","0.0-266.0","63d96d5957cdd8a417721253","665500ab8938657b03fbdba8","6657931f3acb6e0722e1ee6f","173","stimuli/01010110.jpg"," ","","feedback_trial","2","","","","","","","","","","","","","","","","","","","","",""
"","","","","","image-keyboard-response","292","432591","0.0-267.0","63d96d5957cdd8a417721253","665500ab8938657b03fbdba8","6657931f3acb6e0722e1ee6f","1758","stimuli/0100001.jpg","0","","prediction_trial","0","","true","","0","true","true","false","true","false","true","[0]","100","001","1","","","","","","",""
"","","","","","image-keyboard-response","293","432775","0.0-268.0","63d96d5957cdd8a417721253","665500ab8938657b03fbdba8","6657931f3acb6e0722e1ee6f","181","stimuli/01000010.jpg"," ","","feedback_trial","0","","","","","","","","","","","","","","","","","","","","",""
"","","","","","image-keyboard-response","294","434103","0.0-269.0","63d96d5957cdd8a417721253","665500ab8938657b03fbdba8","6657931f3acb6e0722e1ee6f","1326","stimuli/2101111.jpg","2","","prediction_trial","2","","true","","2","false","false","false","false","false","false","[2,0]","101","111","1","","","","","","",""
"","","","","","image-keyboard-response","295","434359","0.0-270.0","63d96d5957cdd8a417721253","665500ab8938657b03fbdba8","6657931f3acb6e0722e1ee6f","255","stimuli/21011112.jpg"," ","","feedback_trial","2","","","","","","","","","","","","","","","","","","","","",""
"","","","","","image-keyboard-response","296","435391","0.0-271.0","63d96d5957cdd8a417721253","665500ab8938657b03fbdba8","6657931f3acb6e0722e1ee6f","1029","stimuli/2111000.jpg","2","","prediction_trial","2","","true","","2","true","true","false","false","false","false","[0,2,1]","111","000","1","","","","","","",""
"","","","","","image-keyboard-response","297","435567","0.0-272.0","63d96d5957cdd8a417721253","665500ab8938657b03fbdba8","6657931f3acb6e0722e1ee6f","174","stimuli/21110002.jpg"," ","","feedback_trial","0","","","","","","","","","","","","","","","","","","","","",""
"","","","","","image-keyboard-response","298","436679","0.0-273.0","63d96d5957cdd8a417721253","665500ab8938657b03fbdba8","6657931f3acb6e0722e1ee6f","1111","stimuli/2101010.jpg","2","","prediction_trial","2","","true","","2","true","true","false","false","false","false","[0,2]","101","010","1","","","","","","",""
"","","","","","image-keyboard-response","299","436847","0.0-274.0","63d96d5957cdd8a417721253","665500ab8938657b03fbdba8","6657931f3acb6e0722e1ee6f","166","stimuli/21010102.jpg"," ","","feedback_trial","0","","","","","","","","","","","","","","","","","","","","",""
"","","","","","image-keyboard-response","300","437767","0.0-275.0","63d96d5957cdd8a417721253","665500ab8938657b03fbdba8","6657931f3acb6e0722e1ee6f","918","stimuli/1111011.jpg","1","","prediction_trial","1","","true","","1","false","false","false","false","false","false","[2,1,0]","111","011","1","","","","","","",""
"","","","","","image-keyboard-response","301","438031","0.0-276.0","63d96d5957cdd8a417721253","665500ab8938657b03fbdba8","6657931f3acb6e0722e1ee6f","262","stimuli/11110111.jpg"," ","","feedback_trial","2","","","","","","","","","","","","","","","","","","","","",""
"","","","","","image-keyboard-response","302","439080","0.0-277.0","63d96d5957cdd8a417721253","665500ab8938657b03fbdba8","6657931f3acb6e0722e1ee6f","1046","stimuli/1111110.jpg","1","","prediction_trial","1","","true","","1","false","false","false","false","false","false","[1,0,2]","111","110","1","","","","","","",""
"","","","","","image-keyboard-response","303","439255","0.0-278.0","63d96d5957cdd8a417721253","665500ab8938657b03fbdba8","6657931f3acb6e0722e1ee6f","174","stimuli/11111101.jpg"," ","","feedback_trial","1","","","","","","","","","","","","","","","","","","","","",""
"","","","","","image-keyboard-response","304","441184","0.0-279.0","63d96d5957cdd8a417721253","665500ab8938657b03fbdba8","6657931f3acb6e0722e1ee6f","1927","stimuli/0000110.jpg","0","","prediction_trial","0","","true","","0","false","false","true","true","false","false","[0]","000","110","1","","","","","","",""
"","","","","","image-keyboard-response","305","441416","0.0-280.0","63d96d5957cdd8a417721253","665500ab8938657b03fbdba8","6657931f3acb6e0722e1ee6f","228","stimuli/00001100.jpg"," ","","feedback_trial","0","","","","","","","","","","","","","","","","","","","","",""
"","","","","","image-keyboard-response","306","443120","0.0-281.0","63d96d5957cdd8a417721253","665500ab8938657b03fbdba8","6657931f3acb6e0722e1ee6f","1702","stimuli/1110111.jpg","1","","prediction_trial","0","","false","","1","false","false","false","false","false","false","[0,1]","110","111","0","","","","","","",""
"","","","","","image-keyboard-response","307","443288","0.0-282.0","63d96d5957cdd8a417721253","665500ab8938657b03fbdba8","6657931f3acb6e0722e1ee6f","166","stimuli/11101110.jpg"," ","","feedback_trial","0","","","","","","","","","","","","","","","","","","","","",""
"","","","","","image-keyboard-response","308","444024","0.0-283.0","63d96d5957cdd8a417721253","665500ab8938657b03fbdba8","6657931f3acb6e0722e1ee6f","734","stimuli/0100100.jpg","0","","prediction_trial","0","","true","","0","false","true","false","true","false","true","[0]","100","100","1","","","","","","",""
"","","","","","image-keyboard-response","309","444200","0.0-284.0","63d96d5957cdd8a417721253","665500ab8938657b03fbdba8","6657931f3acb6e0722e1ee6f","174","stimuli/01001000.jpg"," ","","feedback_trial","0","","","","","","","","","","","","","","","","","","","","",""
"","","","","","image-keyboard-response","310","444848","0.0-285.0","63d96d5957cdd8a417721253","665500ab8938657b03fbdba8","6657931f3acb6e0722e1ee6f","646","stimuli/0001000.jpg","0","","prediction_trial","0","","true","","0","true","true","true","true","true","true","[0]","001","000","1","","","","","","",""
"","","","","","image-keyboard-response","311","445000","0.0-286.0","63d96d5957cdd8a417721253","665500ab8938657b03fbdba8","6657931f3acb6e0722e1ee6f","150","stimuli/00010000.jpg"," ","","feedback_trial","0","","","","","","","","","","","","","","","","","","","","",""
"","","","","","image-keyboard-response","312","446800","0.0-287.0","63d96d5957cdd8a417721253","665500ab8938657b03fbdba8","6657931f3acb6e0722e1ee6f","1798","stimuli/1011110.jpg","1","","prediction_trial","2","","false","","1","false","false","false","false","false","false","[1,2]","011","110","0","","","","","","",""
"","","","","","image-keyboard-response","313","446936","0.0-288.0","63d96d5957cdd8a417721253","665500ab8938657b03fbdba8","6657931f3acb6e0722e1ee6f","134","stimuli/10111102.jpg"," ","","feedback_trial","1","","","","","","","","","","","","","","","","","","","","",""
"","","","","","image-keyboard-response","314","448112","0.0-289.0","63d96d5957cdd8a417721253","665500ab8938657b03fbdba8","6657931f3acb6e0722e1ee6f","1174","stimuli/0100011.jpg","0","","prediction_trial","0","","true","","0","true","true","false","true","false","true","[0]","100","011","1","","","","","","",""
"","","","","","image-keyboard-response","315","448241","0.0-290.0","63d96d5957cdd8a417721253","665500ab8938657b03fbdba8","6657931f3acb6e0722e1ee6f","126","stimuli/01000110.jpg"," ","","feedback_trial","0","","","","","","","","","","","","","","","","","","","","",""
"","","","","","image-keyboard-response","316","448929","0.0-291.0","63d96d5957cdd8a417721253","665500ab8938657b03fbdba8","6657931f3acb6e0722e1ee6f","685","stimuli/1000001.jpg","1","","prediction_trial","1","","true","","1","true","true","true","true","true","true","[1]","000","001","1","","","","","","",""
"","","","","","image-keyboard-response","317","449088","0.0-292.0","63d96d5957cdd8a417721253","665500ab8938657b03fbdba8","6657931f3acb6e0722e1ee6f","157","stimuli/10000011.jpg"," ","","feedback_trial","1","","","","","","","","","","","","","","","","","","","","",""
"","","","","","survey-html-form","318","529312","0.0-293.0","63d96d5957cdd8a417721253","665500ab8938657b03fbdba8","6657931f3acb6e0722e1ee6f","80222","","{""feedback"":""I based it off of what he could see. If I couldn't see 2 or more baskets, I just chose randomly."",""age"":""37"",""gender"":""Male"",""other_gender"":"""",""race"":""White"",""other_race"":"""",""ethnicity"":""Non-Hispanic""}","","exit_survey","","","","","","","","","","","","","","","","I based it off of what he could see. If I couldn't see 2 or more baskets, I just chose randomly.","37","Non-Hispanic","Male","White","0.6666666666666666","0.6666666666666666"
