"success","timeout","failed_images","failed_audio","failed_video","trial_type","trial_index","time_elapsed","internal_node_id","prolific_id","prolific_study_id","prolific_session_id","rt","stimulus","response","view_history","trial","character_choice","stimulus_dict","accuracy","correct_response","ball_pos","ego_ball_visible","ego_can_infer","alter_ball_visible","alter_can_infer","collective_ball_visible","collective_can_infer","search_locations","alter_occluders","ego_occluders","accuracy_bool","feedback","age","ethnicity","gender","race","overall_accuracy","bonus"
"true","false","[]","[]","[]","preload","0","1581","0.0-0.0","5d4254db5b2c430001418a3c","665500ab8938657b03fbdba8","665793422dab1baf738a777c","","","","","","","","","","","","","","","","","","","","","","","","","","",""
"true","","","","","fullscreen","1","8849","0.0-1.0","5d4254db5b2c430001418a3c","665500ab8938657b03fbdba8","665793422dab1baf738a777c","","","","","","","","","","","","","","","","","","","","","","","","","","",""
"","","","","","html-button-response","2","19721","0.0-2.0","5d4254db5b2c430001418a3c","665500ab8938657b03fbdba8","665793422dab1baf738a777c","10871","<p><b>Consent Form</b></p> <div style=""text-align:left;background-color:lightgrey; padding:20px; max-width:900px;""><p>Please consider this information carefully before deciding whether to participate in this research.</p> <p>The purpose of this research is to examine which factors influence social judgment and decision-making. You will be asked to make judgements about individuals and actions in social scenarios. We are simply interested in your judgement. The study will take less than 1 hour to complete, and you will receive less than $20 on Prolific. Your compensation and time commitment are specified in the study description. There are no anticipated risks associated with participating in this study. The effects of participating should be comparable to those you would ordinarily experience from viewing a computer monitor and using a mouse or keyboard for a similar amount of time. At the end of the study, we will provide an explanation of the questions that motivate this line of research and will describe the potential implications. </p><p> Your participation in this study is completely voluntary and you may refuse to participate or you may choose to withdraw at any time without penalty or loss of benefits to you which are otherwise entitled. Your participation in this study will remain confidential. No personally identifiable information will be associated with your data. Also, all analyses of the data will be averaged across all the participants, so your individual responses will never be specifically analyzed. </p><p> If you have questions or concerns about your participation or payment, or want to request a summary of research findings, please contact Dr. Jonathan Phillips at Jonathan.S.Phillips@dartmouth.edu. </p><p> Please save a copy of this form for your records. </p><p><b>Agreement: </b>The nature and purpose of this research have been sufficiently explained and I agree to participate in this study. I understand that I am free to withdraw at any time without incurring any penalty. Please consent by clicking the button below to continue. Otherwise, please exit the study at any time. </p>","0","","","","","","","","","","","","","","","","","","","","","","","",""
"","","","","","instructions","3","74072","0.0-3.0-0.0","5d4254db5b2c430001418a3c","665500ab8938657b03fbdba8","665793422dab1baf738a777c","54350","","","[{""page_index"":0,""viewing_time"":1500},{""page_index"":1,""viewing_time"":2125},{""page_index"":2,""viewing_time"":2675},{""page_index"":3,""viewing_time"":5358},{""page_index"":4,""viewing_time"":3038},{""page_index"":5,""viewing_time"":3177},{""page_index"":6,""viewing_time"":3333},{""page_index"":7,""viewing_time"":3944},{""page_index"":8,""viewing_time"":2585},{""page_index"":9,""viewing_time"":2262},{""page_index"":10,""viewing_time"":14168},{""page_index"":11,""viewing_time"":3258},{""page_index"":12,""viewing_time"":5585},{""page_index"":13,""viewing_time"":1340}]","intro","","","","","","","","","","","","","","","","","","","","","",""
"","","","","","image-keyboard-response","4","77562","0.0-3.0-1.0","5d4254db5b2c430001418a3c","665500ab8938657b03fbdba8","665793422dab1baf738a777c","3487","stimuli/1100111.jpg","2","","prediction_practice","1","{""filepath"":""stimuli/1100111.jpg"",""ball_pos"":1,""ego_ball_visible"":false,""ego_can_infer"":false,""alter_ball_visible"":true,""alter_can_infer"":true,""collective_ball_visible"":false,""collective_can_infer"":false,""search_locations"":[1],""alter_occluders"":""100"",""ego_occluders"":""111""}","false","","","","","","","","","","","","","","","","","","",""
"","","","","","image-keyboard-response","5","80563","0.0-3.0-2.0","5d4254db5b2c430001418a3c","665500ab8938657b03fbdba8","665793422dab1baf738a777c","2999","stimuli/11001111.jpg"," ","","practrice_feedback","1","","","","","","","","","","","","","","","","","","","","",""
"","","","","","image-keyboard-response","6","86351","0.0-3.0-3.0","5d4254db5b2c430001418a3c","665500ab8938657b03fbdba8","665793422dab1baf738a777c","5786","stimuli/1010111.jpg","0","","prediction_practice","1","{""filepath"":""stimuli/1010111.jpg"",""ball_pos"":1,""ego_ball_visible"":false,""ego_can_infer"":false,""alter_ball_visible"":false,""alter_can_infer"":true,""collective_ball_visible"":false,""collective_can_infer"":false,""search_locations"":[1],""alter_occluders"":""010"",""ego_occluders"":""111""}","false","","","","","","","","","","","","","","","","","","",""
"","","","","","image-keyboard-response","7","90037","0.0-3.0-4.0","5d4254db5b2c430001418a3c","665500ab8938657b03fbdba8","665793422dab1baf738a777c","3685","stimuli/10101111.jpg"," ","","practrice_feedback","1","","","","","","","","","","","","","","","","","","","","",""
"","","","","","image-keyboard-response","8","90656","0.0-3.0-5.0","5d4254db5b2c430001418a3c","665500ab8938657b03fbdba8","665793422dab1baf738a777c","617","stimuli/0100011.jpg","1","","prediction_practice","0","{""filepath"":""stimuli/0100011.jpg"",""ball_pos"":0,""ego_ball_visible"":true,""ego_can_infer"":true,""alter_ball_visible"":false,""alter_can_infer"":true,""collective_ball_visible"":false,""collective_can_infer"":true,""search_locations"":[0],""alter_occluders"":""100"",""ego_occluders"":""011""}","false","","","","","","","","","","","","","","","","","","",""
"","","","","","image-keyboard-response","9","92125","0.0-3.0-6.0","5d4254db5b2c430001418a3c","665500ab8938657b03fbdba8","665793422dab1baf738a777c","1468","stimuli/01000110.jpg"," ","","practrice_feedback","0","","","","","","","","","","","","","","","","","","","","",""
"","","","","","image-keyboard-response","10","92565","0.0-3.0-7.0","5d4254db5b2c430001418a3c","665500ab8938657b03fbdba8","665793422dab1baf738a777c","438","stimuli/2100000.jpg","2","","prediction_practice","2","{""filepath"":""stimuli/2100000.jpg"",""ball_pos"":2,""ego_ball_visible"":true,""ego_can_infer"":true,""alter_ball_visible"":true,""alter_can_infer"":true,""collective_ball_visible"":true,""collective_can_infer"":true,""search_locations"":[2],""alter_occluders"":""100"",""ego_occluders"":""000""}","true","","","","","","","","","","","","","","","","","","",""
"","","","","","image-keyboard-response","11","94421","0.0-3.0-8.0","5d4254db5b2c430001418a3c","665500ab8938657b03fbdba8","665793422dab1baf738a777c","1855","stimuli/21000002.jpg"," ","","practrice_feedback","2","","","","","","","","","","","","","","","","","","","","",""
"","","","","","image-keyboard-response","12","96313","0.0-3.0-9.0","5d4254db5b2c430001418a3c","665500ab8938657b03fbdba8","665793422dab1baf738a777c","1891","stimuli/0010100.jpg","2","","prediction_practice","0","{""filepath"":""stimuli/0010100.jpg"",""ball_pos"":0,""ego_ball_visible"":false,""ego_can_infer"":true,""alter_ball_visible"":true,""alter_can_infer"":true,""collective_ball_visible"":false,""collective_can_infer"":true,""search_locations"":[0],""alter_occluders"":""010"",""ego_occluders"":""100""}","false","","","","","","","","","","","","","","","","","","",""
"","","","","","image-keyboard-response","13","98332","0.0-3.0-10.0","5d4254db5b2c430001418a3c","665500ab8938657b03fbdba8","665793422dab1baf738a777c","2017","stimuli/00101000.jpg"," ","","practrice_feedback","0","","","","","","","","","","","","","","","","","","","","",""
"","","","","","image-keyboard-response","14","99385","0.0-3.0-11.0","5d4254db5b2c430001418a3c","665500ab8938657b03fbdba8","665793422dab1baf738a777c","1052","stimuli/1001101.jpg","0","","prediction_practice","1","{""filepath"":""stimuli/1001101.jpg"",""ball_pos"":1,""ego_ball_visible"":true,""ego_can_infer"":true,""alter_ball_visible"":true,""alter_can_infer"":true,""collective_ball_visible"":true,""collective_can_infer"":true,""search_locations"":[1],""alter_occluders"":""001"",""ego_occluders"":""101""}","false","","","","","","","","","","","","","","","","","","",""
"","","","","","image-keyboard-response","15","100566","0.0-3.0-12.0","5d4254db5b2c430001418a3c","665500ab8938657b03fbdba8","665793422dab1baf738a777c","1178","stimuli/10011011.jpg"," ","","practrice_feedback","1","","","","","","","","","","","","","","","","","","","","",""
"","","","","","image-keyboard-response","16","101780","0.0-3.0-13.0","5d4254db5b2c430001418a3c","665500ab8938657b03fbdba8","665793422dab1baf738a777c","1206","stimuli/2010001.jpg","1","","prediction_practice","2","{""filepath"":""stimuli/2010001.jpg"",""ball_pos"":2,""ego_ball_visible"":false,""ego_can_infer"":true,""alter_ball_visible"":true,""alter_can_infer"":true,""collective_ball_visible"":false,""collective_can_infer"":true,""search_locations"":[2],""alter_occluders"":""010"",""ego_occluders"":""001""}","false","","","","","","","","","","","","","","","","","","",""
"","","","","","image-keyboard-response","17","102432","0.0-3.0-14.0","5d4254db5b2c430001418a3c","665500ab8938657b03fbdba8","665793422dab1baf738a777c","651","stimuli/20100012.jpg"," ","","practrice_feedback","2","","","","","","","","","","","","","","","","","","","","",""
"","","","","","image-keyboard-response","18","104761","0.0-3.0-15.0","5d4254db5b2c430001418a3c","665500ab8938657b03fbdba8","665793422dab1baf738a777c","2328","stimuli/0011111.jpg","1","","prediction_practice","0","{""filepath"":""stimuli/0011111.jpg"",""ball_pos"":0,""ego_ball_visible"":false,""ego_can_infer"":false,""alter_ball_visible"":true,""alter_can_infer"":true,""collective_ball_visible"":false,""collective_can_infer"":false,""search_locations"":[0],""alter_occluders"":""011"",""ego_occluders"":""111""}","false","","","","","","","","","","","","","","","","","","",""
"","","","","","image-keyboard-response","19","105840","0.0-3.0-16.0","5d4254db5b2c430001418a3c","665500ab8938657b03fbdba8","665793422dab1baf738a777c","1078","stimuli/00111110.jpg"," ","","practrice_feedback","0","","","","","","","","","","","","","","","","","","","","",""
"","","","","","image-keyboard-response","20","107099","0.0-3.0-17.0","5d4254db5b2c430001418a3c","665500ab8938657b03fbdba8","665793422dab1baf738a777c","1258","stimuli/2011000.jpg","2","","prediction_practice","2","{""filepath"":""stimuli/2011000.jpg"",""ball_pos"":2,""ego_ball_visible"":true,""ego_can_infer"":true,""alter_ball_visible"":false,""alter_can_infer"":false,""collective_ball_visible"":false,""collective_can_infer"":false,""search_locations"":[1,2],""alter_occluders"":""011"",""ego_occluders"":""000""}","true","","","","","","","","","","","","","","","","","","",""
"","","","","","image-keyboard-response","21","107941","0.0-3.0-18.0","5d4254db5b2c430001418a3c","665500ab8938657b03fbdba8","665793422dab1baf738a777c","841","stimuli/20110002.jpg"," ","","practrice_feedback","1","","","","","","","","","","","","","","","","","","","","",""
"","","","","","image-keyboard-response","22","110562","0.0-3.0-19.0","5d4254db5b2c430001418a3c","665500ab8938657b03fbdba8","665793422dab1baf738a777c","2620","stimuli/2100101.jpg","2","","prediction_practice","2","{""filepath"":""stimuli/2100101.jpg"",""ball_pos"":2,""ego_ball_visible"":false,""ego_can_infer"":false,""alter_ball_visible"":true,""alter_can_infer"":true,""collective_ball_visible"":false,""collective_can_infer"":false,""search_locations"":[2],""alter_occluders"":""100"",""ego_occluders"":""101""}","true","","","","","","","","","","","","","","","","","","",""
"","","","","","image-keyboard-response","23","111592","0.0-3.0-20.0","5d4254db5b2c430001418a3c","665500ab8938657b03fbdba8","665793422dab1baf738a777c","1028","stimuli/21001012.jpg"," ","","practrice_feedback","2","","","","","","","","","","","","","","","","","","","","",""
"","","","","","html-button-response","24","115238","0.0-3.0-21.0","5d4254db5b2c430001418a3c","665500ab8938657b03fbdba8","665793422dab1baf738a777c","3646","Now that you've had some practice, you'll be tested with a couple of easy trials. If you correctly predict Sam's choice, you'll move on to complete the experiment!","0","","","","","","","","","","","","","","","","","","","","","","","",""
"","","","","","image-keyboard-response","25","117502","0.0-3.0-22.0-0.0","5d4254db5b2c430001418a3c","665500ab8938657b03fbdba8","665793422dab1baf738a777c","2262","stimuli/0000011.jpg","arrowleft","","comprehension_quiz","","","true","arrowleft","","","","","","","","","","","","","","","","","",""
"","","","","","image-keyboard-response","26","120328","0.0-3.0-22.0-1.0","5d4254db5b2c430001418a3c","665500ab8938657b03fbdba8","665793422dab1baf738a777c","2824","stimuli/00000110.jpg"," ","","comprehension_quiz","","","true"," ","","","","","","","","","","","","","","","","","",""
"","","","","","image-keyboard-response","27","122437","0.0-3.0-22.0-2.0","5d4254db5b2c430001418a3c","665500ab8938657b03fbdba8","665793422dab1baf738a777c","2108","stimuli/1010010.jpg","arrowdown","","comprehension_quiz","","","true","arrowdown","","","","","","","","","","","","","","","","","",""
"","","","","","image-keyboard-response","28","123491","0.0-3.0-22.0-3.0","5d4254db5b2c430001418a3c","665500ab8938657b03fbdba8","665793422dab1baf738a777c","1052","stimuli/10100101.jpg"," ","","comprehension_quiz","","","true"," ","","","","","","","","","","","","","","","","","",""
"","","","","","html-button-response","29","127365","0.0-4.0","5d4254db5b2c430001418a3c","665500ab8938657b03fbdba8","665793422dab1baf738a777c","3871","The experiment will now begin.","0","","","","","","","","","","","","","","","","","","","","","","","",""
"","","","","","image-keyboard-response","30","128882","0.0-5.0","5d4254db5b2c430001418a3c","665500ab8938657b03fbdba8","665793422dab1baf738a777c","1516","stimuli/1011101.jpg","1","","prediction_trial","1","","true","","1","true","true","false","false","false","false","[2,1]","011","101","1","","","","","","",""
"","","","","","image-keyboard-response","31","130293","0.0-6.0","5d4254db5b2c430001418a3c","665500ab8938657b03fbdba8","665793422dab1baf738a777c","1409","stimuli/10111011.jpg"," ","","feedback_trial","2","","","","","","","","","","","","","","","","","","","","",""
"","","","","","image-keyboard-response","32","132065","0.0-7.0","5d4254db5b2c430001418a3c","665500ab8938657b03fbdba8","665793422dab1baf738a777c","1772","stimuli/0101100.jpg","0","","prediction_trial","0","","true","","0","false","true","false","false","false","false","[0,2]","101","100","1","","","","","","",""
"","","","","","image-keyboard-response","33","133083","0.0-8.0","5d4254db5b2c430001418a3c","665500ab8938657b03fbdba8","665793422dab1baf738a777c","1016","stimuli/01011000.jpg"," ","","feedback_trial","0","","","","","","","","","","","","","","","","","","","","",""
"","","","","","image-keyboard-response","34","134022","0.0-9.0","5d4254db5b2c430001418a3c","665500ab8938657b03fbdba8","665793422dab1baf738a777c","938","stimuli/2110110.jpg","2","","prediction_trial","2","","true","","2","true","true","true","true","true","true","[2]","110","110","1","","","","","","",""
"","","","","","image-keyboard-response","35","134405","0.0-10.0","5d4254db5b2c430001418a3c","665500ab8938657b03fbdba8","665793422dab1baf738a777c","382","stimuli/21101102.jpg"," ","","feedback_trial","2","","","","","","","","","","","","","","","","","","","","",""
"","","","","","image-keyboard-response","36","135730","0.0-11.0","5d4254db5b2c430001418a3c","665500ab8938657b03fbdba8","665793422dab1baf738a777c","1324","stimuli/2000011.jpg","1","","prediction_trial","2","","false","","2","false","false","true","true","false","false","[2]","000","011","0","","","","","","",""
"","","","","","image-keyboard-response","37","136905","0.0-12.0","5d4254db5b2c430001418a3c","665500ab8938657b03fbdba8","665793422dab1baf738a777c","1174","stimuli/20000112.jpg"," ","","feedback_trial","2","","","","","","","","","","","","","","","","","","","","",""
"","","","","","image-keyboard-response","38","138371","0.0-13.0","5d4254db5b2c430001418a3c","665500ab8938657b03fbdba8","665793422dab1baf738a777c","1464","stimuli/0001011.jpg","0","","prediction_trial","0","","true","","0","true","true","true","true","true","true","[0]","001","011","1","","","","","","",""
"","","","","","image-keyboard-response","39","138994","0.0-14.0","5d4254db5b2c430001418a3c","665500ab8938657b03fbdba8","665793422dab1baf738a777c","622","stimuli/00010110.jpg"," ","","feedback_trial","0","","","","","","","","","","","","","","","","","","","","",""
"","","","","","image-keyboard-response","40","139871","0.0-15.0","5d4254db5b2c430001418a3c","665500ab8938657b03fbdba8","665793422dab1baf738a777c","868","stimuli/1100000.jpg","1","","prediction_trial","1","","true","","1","true","true","true","true","true","true","[1]","100","000","1","","","","","","",""
"","","","","","image-keyboard-response","41","140242","0.0-16.0","5d4254db5b2c430001418a3c","665500ab8938657b03fbdba8","665793422dab1baf738a777c","370","stimuli/11000001.jpg"," ","","feedback_trial","1","","","","","","","","","","","","","","","","","","","","",""
"","","","","","image-keyboard-response","42","141486","0.0-17.0","5d4254db5b2c430001418a3c","665500ab8938657b03fbdba8","665793422dab1baf738a777c","1243","stimuli/1100011.jpg","1","","prediction_trial","1","","true","","1","false","false","true","true","false","false","[1]","100","011","1","","","","","","",""
"","","","","","image-keyboard-response","43","142195","0.0-18.0","5d4254db5b2c430001418a3c","665500ab8938657b03fbdba8","665793422dab1baf738a777c","708","stimuli/11000111.jpg"," ","","feedback_trial","1","","","","","","","","","","","","","","","","","","","","",""
"","","","","","image-keyboard-response","44","143065","0.0-19.0","5d4254db5b2c430001418a3c","665500ab8938657b03fbdba8","665793422dab1baf738a777c","869","stimuli/1000100.jpg","1","","prediction_trial","1","","true","","1","true","true","true","true","true","true","[1]","000","100","1","","","","","","",""
"","","","","","image-keyboard-response","45","143350","0.0-20.0","5d4254db5b2c430001418a3c","665500ab8938657b03fbdba8","665793422dab1baf738a777c","284","stimuli/10001001.jpg"," ","","feedback_trial","1","","","","","","","","","","","","","","","","","","","","",""
"","","","","","image-keyboard-response","46","144017","0.0-21.0","5d4254db5b2c430001418a3c","665500ab8938657b03fbdba8","665793422dab1baf738a777c","665","stimuli/0101010.jpg","0","","prediction_trial","2","","false","","0","true","true","false","false","false","false","[0,2]","101","010","0","","","","","","",""
"","","","","","image-keyboard-response","47","144360","0.0-22.0","5d4254db5b2c430001418a3c","665500ab8938657b03fbdba8","665793422dab1baf738a777c","342","stimuli/01010102.jpg"," ","","feedback_trial","0","","","","","","","","","","","","","","","","","","","","",""
"","","","","","image-keyboard-response","48","145821","0.0-23.0","5d4254db5b2c430001418a3c","665500ab8938657b03fbdba8","665793422dab1baf738a777c","1459","stimuli/2110010.jpg","2","","prediction_trial","2","","true","","2","true","true","true","true","true","true","[2]","110","010","1","","","","","","",""
"","","","","","image-keyboard-response","49","146188","0.0-24.0","5d4254db5b2c430001418a3c","665500ab8938657b03fbdba8","665793422dab1baf738a777c","367","stimuli/21100102.jpg"," ","","feedback_trial","2","","","","","","","","","","","","","","","","","","","","",""
"","","","","","image-keyboard-response","50","148109","0.0-25.0","5d4254db5b2c430001418a3c","665500ab8938657b03fbdba8","665793422dab1baf738a777c","1920","stimuli/1010010.jpg","1","","prediction_trial","1","","true","","1","false","true","false","true","false","true","[1]","010","010","1","","","","","","",""
"","","","","","image-keyboard-response","51","148420","0.0-26.0","5d4254db5b2c430001418a3c","665500ab8938657b03fbdba8","665793422dab1baf738a777c","310","stimuli/10100101.jpg"," ","","feedback_trial","1","","","","","","","","","","","","","","","","","","","","",""
"","","","","","image-keyboard-response","52","150070","0.0-27.0","5d4254db5b2c430001418a3c","665500ab8938657b03fbdba8","665793422dab1baf738a777c","1648","stimuli/1001111.jpg","2","","prediction_trial","1","","false","","1","false","false","true","true","false","false","[1]","001","111","0","","","","","","",""
"","","","","","image-keyboard-response","53","151457","0.0-28.0","5d4254db5b2c430001418a3c","665500ab8938657b03fbdba8","665793422dab1baf738a777c","1386","stimuli/10011111.jpg"," ","","feedback_trial","1","","","","","","","","","","","","","","","","","","","","",""
"","","","","","image-keyboard-response","54","153051","0.0-29.0","5d4254db5b2c430001418a3c","665500ab8938657b03fbdba8","665793422dab1baf738a777c","1593","stimuli/1110111.jpg","2","","prediction_trial","0","","false","","1","false","false","false","false","false","false","[1,0]","110","111","0","","","","","","",""
"","","","","","image-keyboard-response","55","154047","0.0-30.0","5d4254db5b2c430001418a3c","665500ab8938657b03fbdba8","665793422dab1baf738a777c","994","stimuli/11101110.jpg"," ","","feedback_trial","1","","","","","","","","","","","","","","","","","","","","",""
"","","","","","image-keyboard-response","56","154906","0.0-31.0","5d4254db5b2c430001418a3c","665500ab8938657b03fbdba8","665793422dab1baf738a777c","858","stimuli/1011100.jpg","1","","prediction_trial","2","","false","","1","true","true","false","false","false","false","[2,1]","011","100","0","","","","","","",""
"","","","","","image-keyboard-response","57","155260","0.0-32.0","5d4254db5b2c430001418a3c","665500ab8938657b03fbdba8","665793422dab1baf738a777c","352","stimuli/10111002.jpg"," ","","feedback_trial","2","","","","","","","","","","","","","","","","","","","","",""
"","","","","","image-keyboard-response","58","160526","0.0-33.0","5d4254db5b2c430001418a3c","665500ab8938657b03fbdba8","665793422dab1baf738a777c","5265","stimuli/2100111.jpg","0","","prediction_trial","2","","false","","2","false","false","true","true","false","false","[2]","100","111","0","","","","","","",""
"","","","","","image-keyboard-response","59","161754","0.0-34.0","5d4254db5b2c430001418a3c","665500ab8938657b03fbdba8","665793422dab1baf738a777c","1227","stimuli/21001112.jpg"," ","","feedback_trial","2","","","","","","","","","","","","","","","","","","","","",""
"","","","","","image-keyboard-response","60","163066","0.0-35.0","5d4254db5b2c430001418a3c","665500ab8938657b03fbdba8","665793422dab1baf738a777c","1311","stimuli/2001111.jpg","1","","prediction_trial","2","","false","","2","false","false","false","true","false","false","[2]","001","111","0","","","","","","",""
"","","","","","image-keyboard-response","61","163528","0.0-36.0","5d4254db5b2c430001418a3c","665500ab8938657b03fbdba8","665793422dab1baf738a777c","461","stimuli/20011112.jpg"," ","","feedback_trial","2","","","","","","","","","","","","","","","","","","","","",""
"","","","","","image-keyboard-response","62","165610","0.0-37.0","5d4254db5b2c430001418a3c","665500ab8938657b03fbdba8","665793422dab1baf738a777c","2075","stimuli/0111100.jpg","0","","prediction_trial","0","","true","","0","false","true","false","false","false","false","[2,1,0]","111","100","1","","","","","","",""
"","","","","","image-keyboard-response","63","166650","0.0-38.0","5d4254db5b2c430001418a3c","665500ab8938657b03fbdba8","665793422dab1baf738a777c","1039","stimuli/01111000.jpg"," ","","feedback_trial","2","","","","","","","","","","","","","","","","","","","","",""
"","","","","","image-keyboard-response","64","168034","0.0-39.0","5d4254db5b2c430001418a3c","665500ab8938657b03fbdba8","665793422dab1baf738a777c","1382","stimuli/1000010.jpg","1","","prediction_trial","1","","true","","1","false","true","true","true","false","true","[1]","000","010","1","","","","","","",""
"","","","","","image-keyboard-response","65","168459","0.0-40.0","5d4254db5b2c430001418a3c","665500ab8938657b03fbdba8","665793422dab1baf738a777c","424","stimuli/10000101.jpg"," ","","feedback_trial","1","","","","","","","","","","","","","","","","","","","","",""
"","","","","","image-keyboard-response","66","169269","0.0-41.0","5d4254db5b2c430001418a3c","665500ab8938657b03fbdba8","665793422dab1baf738a777c","809","stimuli/2011000.jpg","2","","prediction_trial","2","","true","","2","true","true","false","false","false","false","[1,2]","011","000","1","","","","","","",""
"","","","","","image-keyboard-response","67","170022","0.0-42.0","5d4254db5b2c430001418a3c","665500ab8938657b03fbdba8","665793422dab1baf738a777c","751","stimuli/20110002.jpg"," ","","feedback_trial","1","","","","","","","","","","","","","","","","","","","","",""
"","","","","","image-keyboard-response","68","171222","0.0-43.0","5d4254db5b2c430001418a3c","665500ab8938657b03fbdba8","665793422dab1baf738a777c","1199","stimuli/1000001.jpg","1","","prediction_trial","1","","true","","1","true","true","true","true","true","true","[1]","000","001","1","","","","","","",""
"","","","","","image-keyboard-response","69","171543","0.0-44.0","5d4254db5b2c430001418a3c","665500ab8938657b03fbdba8","665793422dab1baf738a777c","319","stimuli/10000011.jpg"," ","","feedback_trial","1","","","","","","","","","","","","","","","","","","","","",""
"","","","","","image-keyboard-response","70","173232","0.0-45.0","5d4254db5b2c430001418a3c","665500ab8938657b03fbdba8","665793422dab1baf738a777c","1688","stimuli/2011011.jpg","1","","prediction_trial","2","","false","","2","false","false","false","false","false","false","[2,1]","011","011","0","","","","","","",""
"","","","","","image-keyboard-response","71","174448","0.0-46.0","5d4254db5b2c430001418a3c","665500ab8938657b03fbdba8","665793422dab1baf738a777c","1215","stimuli/20110112.jpg"," ","","feedback_trial","2","","","","","","","","","","","","","","","","","","","","",""
"","","","","","image-keyboard-response","72","177178","0.0-47.0","5d4254db5b2c430001418a3c","665500ab8938657b03fbdba8","665793422dab1baf738a777c","2729","stimuli/2110011.jpg","2","","prediction_trial","2","","true","","2","false","false","true","true","false","false","[2]","110","011","1","","","","","","",""
"","","","","","image-keyboard-response","73","177927","0.0-48.0","5d4254db5b2c430001418a3c","665500ab8938657b03fbdba8","665793422dab1baf738a777c","747","stimuli/21100112.jpg"," ","","feedback_trial","2","","","","","","","","","","","","","","","","","","","","",""
"","","","","","image-keyboard-response","74","178728","0.0-49.0","5d4254db5b2c430001418a3c","665500ab8938657b03fbdba8","665793422dab1baf738a777c","799","stimuli/2111010.jpg","2","","prediction_trial","1","","false","","2","true","true","false","false","false","false","[1,0,2]","111","010","0","","","","","","",""
"","","","","","image-keyboard-response","75","181828","0.0-50.0","5d4254db5b2c430001418a3c","665500ab8938657b03fbdba8","665793422dab1baf738a777c","3098","stimuli/21110101.jpg"," ","","feedback_trial","1","","","","","","","","","","","","","","","","","","","","",""
"","","","","","image-keyboard-response","76","182838","0.0-51.0","5d4254db5b2c430001418a3c","665500ab8938657b03fbdba8","665793422dab1baf738a777c","1009","stimuli/0001100.jpg","0","","prediction_trial","0","","true","","0","false","true","true","true","false","true","[0]","001","100","1","","","","","","",""
"","","","","","image-keyboard-response","77","183691","0.0-52.0","5d4254db5b2c430001418a3c","665500ab8938657b03fbdba8","665793422dab1baf738a777c","851","stimuli/00011000.jpg"," ","","feedback_trial","0","","","","","","","","","","","","","","","","","","","","",""
"","","","","","image-keyboard-response","78","184790","0.0-53.0","5d4254db5b2c430001418a3c","665500ab8938657b03fbdba8","665793422dab1baf738a777c","1097","stimuli/0000011.jpg","0","","prediction_trial","0","","true","","0","true","true","true","true","true","true","[0]","000","011","1","","","","","","",""
"","","","","","image-keyboard-response","79","185352","0.0-54.0","5d4254db5b2c430001418a3c","665500ab8938657b03fbdba8","665793422dab1baf738a777c","560","stimuli/00000110.jpg"," ","","feedback_trial","0","","","","","","","","","","","","","","","","","","","","",""
"","","","","","image-keyboard-response","80","186153","0.0-55.0","5d4254db5b2c430001418a3c","665500ab8938657b03fbdba8","665793422dab1baf738a777c","800","stimuli/2101010.jpg","2","","prediction_trial","0","","false","","2","true","true","false","false","false","false","[0,2]","101","010","0","","","","","","",""
"","","","","","image-keyboard-response","81","187942","0.0-56.0","5d4254db5b2c430001418a3c","665500ab8938657b03fbdba8","665793422dab1baf738a777c","1788","stimuli/21010100.jpg"," ","","feedback_trial","0","","","","","","","","","","","","","","","","","","","","",""
"","","","","","image-keyboard-response","82","188495","0.0-57.0","5d4254db5b2c430001418a3c","665500ab8938657b03fbdba8","665793422dab1baf738a777c","551","stimuli/0110011.jpg","0","","prediction_trial","1","","false","","0","true","true","false","false","false","false","[1,0]","110","011","0","","","","","","",""
"","","","","","image-keyboard-response","83","189009","0.0-58.0","5d4254db5b2c430001418a3c","665500ab8938657b03fbdba8","665793422dab1baf738a777c","513","stimuli/01100111.jpg"," ","","feedback_trial","1","","","","","","","","","","","","","","","","","","","","",""
"","","","","","image-keyboard-response","84","189769","0.0-59.0","5d4254db5b2c430001418a3c","665500ab8938657b03fbdba8","665793422dab1baf738a777c","752","stimuli/1010000.jpg","1","","prediction_trial","1","","true","","1","true","true","false","true","false","true","[1]","010","000","1","","","","","","",""
"","","","","","image-keyboard-response","85","190114","0.0-60.0","5d4254db5b2c430001418a3c","665500ab8938657b03fbdba8","665793422dab1baf738a777c","343","stimuli/10100001.jpg"," ","","feedback_trial","1","","","","","","","","","","","","","","","","","","","","",""
"","","","","","image-keyboard-response","86","190989","0.0-61.0","5d4254db5b2c430001418a3c","665500ab8938657b03fbdba8","665793422dab1baf738a777c","874","stimuli/0011111.jpg","1","","prediction_trial","0","","false","","0","false","false","true","true","false","false","[0]","011","111","0","","","","","","",""
"","","","","","image-keyboard-response","87","191452","0.0-62.0","5d4254db5b2c430001418a3c","665500ab8938657b03fbdba8","665793422dab1baf738a777c","462","stimuli/00111110.jpg"," ","","feedback_trial","0","","","","","","","","","","","","","","","","","","","","",""
"","","","","","image-keyboard-response","88","192765","0.0-63.0","5d4254db5b2c430001418a3c","665500ab8938657b03fbdba8","665793422dab1baf738a777c","1311","stimuli/2001101.jpg","2","","prediction_trial","2","","true","","2","false","false","false","true","false","false","[2]","001","101","1","","","","","","",""
"","","","","","image-keyboard-response","89","193123","0.0-64.0","5d4254db5b2c430001418a3c","665500ab8938657b03fbdba8","665793422dab1baf738a777c","357","stimuli/20011012.jpg"," ","","feedback_trial","2","","","","","","","","","","","","","","","","","","","","",""
"","","","","","image-keyboard-response","90","193771","0.0-65.0","5d4254db5b2c430001418a3c","665500ab8938657b03fbdba8","665793422dab1baf738a777c","646","stimuli/0111010.jpg","0","","prediction_trial","1","","false","","0","true","true","false","false","false","false","[1,0,2]","111","010","0","","","","","","",""
"","","","","","image-keyboard-response","91","194299","0.0-66.0","5d4254db5b2c430001418a3c","665500ab8938657b03fbdba8","665793422dab1baf738a777c","526","stimuli/01110101.jpg"," ","","feedback_trial","1","","","","","","","","","","","","","","","","","","","","",""
"","","","","","image-keyboard-response","92","194982","0.0-67.0","5d4254db5b2c430001418a3c","665500ab8938657b03fbdba8","665793422dab1baf738a777c","681","stimuli/2010000.jpg","2","","prediction_trial","2","","true","","2","true","true","true","true","true","true","[2]","010","000","1","","","","","","",""
"","","","","","image-keyboard-response","93","195517","0.0-68.0","5d4254db5b2c430001418a3c","665500ab8938657b03fbdba8","665793422dab1baf738a777c","534","stimuli/20100002.jpg"," ","","feedback_trial","2","","","","","","","","","","","","","","","","","","","","",""
"","","","","","image-keyboard-response","94","196372","0.0-69.0","5d4254db5b2c430001418a3c","665500ab8938657b03fbdba8","665793422dab1baf738a777c","852","stimuli/0111101.jpg","1","","prediction_trial","0","","false","","0","false","false","false","false","false","false","[1,0,2]","111","101","0","","","","","","",""
"","","","","","image-keyboard-response","95","196693","0.0-70.0","5d4254db5b2c430001418a3c","665500ab8938657b03fbdba8","665793422dab1baf738a777c","320","stimuli/01111010.jpg"," ","","feedback_trial","1","","","","","","","","","","","","","","","","","","","","",""
"","","","","","image-keyboard-response","96","197596","0.0-71.0","5d4254db5b2c430001418a3c","665500ab8938657b03fbdba8","665793422dab1baf738a777c","901","stimuli/0000001.jpg","0","","prediction_trial","0","","true","","0","true","true","true","true","true","true","[0]","000","001","1","","","","","","",""
"","","","","","image-keyboard-response","97","197924","0.0-72.0","5d4254db5b2c430001418a3c","665500ab8938657b03fbdba8","665793422dab1baf738a777c","326","stimuli/00000010.jpg"," ","","feedback_trial","0","","","","","","","","","","","","","","","","","","","","",""
"","","","","","image-keyboard-response","98","198942","0.0-73.0","5d4254db5b2c430001418a3c","665500ab8938657b03fbdba8","665793422dab1baf738a777c","1017","stimuli/1001001.jpg","1","","prediction_trial","1","","true","","1","true","true","true","true","true","true","[1]","001","001","1","","","","","","",""
"","","","","","image-keyboard-response","99","199268","0.0-74.0","5d4254db5b2c430001418a3c","665500ab8938657b03fbdba8","665793422dab1baf738a777c","324","stimuli/10010011.jpg"," ","","feedback_trial","1","","","","","","","","","","","","","","","","","","","","",""
"","","","","","image-keyboard-response","100","200570","0.0-75.0","5d4254db5b2c430001418a3c","665500ab8938657b03fbdba8","665793422dab1baf738a777c","1300","stimuli/0010000.jpg","0","","prediction_trial","0","","true","","0","true","true","true","true","true","true","[0]","010","000","1","","","","","","",""
"","","","","","image-keyboard-response","101","200862","0.0-76.0","5d4254db5b2c430001418a3c","665500ab8938657b03fbdba8","665793422dab1baf738a777c","291","stimuli/00100000.jpg"," ","","feedback_trial","0","","","","","","","","","","","","","","","","","","","","",""
"","","","","","image-keyboard-response","102","202060","0.0-77.0","5d4254db5b2c430001418a3c","665500ab8938657b03fbdba8","665793422dab1baf738a777c","1197","stimuli/0000101.jpg","2","","prediction_trial","0","","false","","0","false","false","true","true","false","false","[0]","000","101","0","","","","","","",""
"","","","","","image-keyboard-response","103","202535","0.0-78.0","5d4254db5b2c430001418a3c","665500ab8938657b03fbdba8","665793422dab1baf738a777c","473","stimuli/00001010.jpg"," ","","feedback_trial","0","","","","","","","","","","","","","","","","","","","","",""
"","","","","","image-keyboard-response","104","203339","0.0-79.0","5d4254db5b2c430001418a3c","665500ab8938657b03fbdba8","665793422dab1baf738a777c","803","stimuli/0010010.jpg","0","","prediction_trial","0","","true","","0","true","true","true","true","true","true","[0]","010","010","1","","","","","","",""
"","","","","","image-keyboard-response","105","203698","0.0-80.0","5d4254db5b2c430001418a3c","665500ab8938657b03fbdba8","665793422dab1baf738a777c","358","stimuli/00100100.jpg"," ","","feedback_trial","0","","","","","","","","","","","","","","","","","","","","",""
"","","","","","image-keyboard-response","106","204460","0.0-81.0","5d4254db5b2c430001418a3c","665500ab8938657b03fbdba8","665793422dab1baf738a777c","752","stimuli/2100000.jpg","2","","prediction_trial","2","","true","","2","true","true","true","true","true","true","[2]","100","000","1","","","","","","",""
"","","","","","image-keyboard-response","107","204751","0.0-82.0","5d4254db5b2c430001418a3c","665500ab8938657b03fbdba8","665793422dab1baf738a777c","290","stimuli/21000002.jpg"," ","","feedback_trial","2","","","","","","","","","","","","","","","","","","","","",""
"","","","","","image-keyboard-response","108","206771","0.0-83.0","5d4254db5b2c430001418a3c","665500ab8938657b03fbdba8","665793422dab1baf738a777c","2019","stimuli/0010110.jpg","0","","prediction_trial","0","","true","","0","false","false","true","true","false","false","[0]","010","110","1","","","","","","",""
"","","","","","image-keyboard-response","109","207106","0.0-84.0","5d4254db5b2c430001418a3c","665500ab8938657b03fbdba8","665793422dab1baf738a777c","334","stimuli/00101100.jpg"," ","","feedback_trial","0","","","","","","","","","","","","","","","","","","","","",""
"","","","","","image-keyboard-response","110","208216","0.0-85.0","5d4254db5b2c430001418a3c","665500ab8938657b03fbdba8","665793422dab1baf738a777c","1109","stimuli/1101100.jpg","1","","prediction_trial","1","","true","","1","true","true","true","true","true","true","[1]","101","100","1","","","","","","",""
"","","","","","image-keyboard-response","111","208486","0.0-86.0","5d4254db5b2c430001418a3c","665500ab8938657b03fbdba8","665793422dab1baf738a777c","268","stimuli/11011001.jpg"," ","","feedback_trial","1","","","","","","","","","","","","","","","","","","","","",""
"","","","","","image-keyboard-response","112","210739","0.0-87.0","5d4254db5b2c430001418a3c","665500ab8938657b03fbdba8","665793422dab1baf738a777c","2252","stimuli/1100010.jpg","1","","prediction_trial","1","","true","","1","false","true","true","true","false","true","[1]","100","010","1","","","","","","",""
"","","","","","image-keyboard-response","113","211092","0.0-88.0","5d4254db5b2c430001418a3c","665500ab8938657b03fbdba8","665793422dab1baf738a777c","352","stimuli/11000101.jpg"," ","","feedback_trial","1","","","","","","","","","","","","","","","","","","","","",""
"","","","","","image-keyboard-response","114","212536","0.0-89.0","5d4254db5b2c430001418a3c","665500ab8938657b03fbdba8","665793422dab1baf738a777c","1443","stimuli/1010110.jpg","1","","prediction_trial","1","","true","","1","false","false","false","true","false","false","[1]","010","110","1","","","","","","",""
"","","","","","image-keyboard-response","115","212790","0.0-90.0","5d4254db5b2c430001418a3c","665500ab8938657b03fbdba8","665793422dab1baf738a777c","253","stimuli/10101101.jpg"," ","","feedback_trial","1","","","","","","","","","","","","","","","","","","","","",""
"","","","","","image-keyboard-response","116","214264","0.0-91.0","5d4254db5b2c430001418a3c","665500ab8938657b03fbdba8","665793422dab1baf738a777c","1472","stimuli/1101000.jpg","1","","prediction_trial","1","","true","","1","true","true","true","true","true","true","[1]","101","000","1","","","","","","",""
"","","","","","image-keyboard-response","117","214847","0.0-92.0","5d4254db5b2c430001418a3c","665500ab8938657b03fbdba8","665793422dab1baf738a777c","581","stimuli/11010001.jpg"," ","","feedback_trial","1","","","","","","","","","","","","","","","","","","","","",""
"","","","","","image-keyboard-response","118","215976","0.0-93.0","5d4254db5b2c430001418a3c","665500ab8938657b03fbdba8","665793422dab1baf738a777c","1128","stimuli/2010001.jpg","2","","prediction_trial","2","","true","","2","false","true","true","true","false","true","[2]","010","001","1","","","","","","",""
"","","","","","image-keyboard-response","119","216440","0.0-94.0","5d4254db5b2c430001418a3c","665500ab8938657b03fbdba8","665793422dab1baf738a777c","462","stimuli/20100012.jpg"," ","","feedback_trial","2","","","","","","","","","","","","","","","","","","","","",""
"","","","","","image-keyboard-response","120","217219","0.0-95.0","5d4254db5b2c430001418a3c","665500ab8938657b03fbdba8","665793422dab1baf738a777c","778","stimuli/1010001.jpg","1","","prediction_trial","1","","true","","1","true","true","false","true","false","true","[1]","010","001","1","","","","","","",""
"","","","","","image-keyboard-response","121","217585","0.0-96.0","5d4254db5b2c430001418a3c","665500ab8938657b03fbdba8","665793422dab1baf738a777c","364","stimuli/10100011.jpg"," ","","feedback_trial","1","","","","","","","","","","","","","","","","","","","","",""
"","","","","","image-keyboard-response","122","219019","0.0-97.0","5d4254db5b2c430001418a3c","665500ab8938657b03fbdba8","665793422dab1baf738a777c","1433","stimuli/2101011.jpg","1","","prediction_trial","2","","false","","2","false","false","false","false","false","false","[2,0]","101","011","0","","","","","","",""
"","","","","","image-keyboard-response","123","219384","0.0-98.0","5d4254db5b2c430001418a3c","665500ab8938657b03fbdba8","665793422dab1baf738a777c","363","stimuli/21010112.jpg"," ","","feedback_trial","2","","","","","","","","","","","","","","","","","","","","",""
"","","","","","image-keyboard-response","124","220075","0.0-99.0","5d4254db5b2c430001418a3c","665500ab8938657b03fbdba8","665793422dab1baf738a777c","690","stimuli/2001110.jpg","2","","prediction_trial","2","","true","","2","true","true","false","true","false","true","[2]","001","110","1","","","","","","",""
"","","","","","image-keyboard-response","125","220388","0.0-100.0","5d4254db5b2c430001418a3c","665500ab8938657b03fbdba8","665793422dab1baf738a777c","312","stimuli/20011102.jpg"," ","","feedback_trial","2","","","","","","","","","","","","","","","","","","","","",""
"","","","","","image-keyboard-response","126","221586","0.0-101.0","5d4254db5b2c430001418a3c","665500ab8938657b03fbdba8","665793422dab1baf738a777c","1197","stimuli/1000101.jpg","1","","prediction_trial","1","","true","","1","true","true","true","true","true","true","[1]","000","101","1","","","","","","",""
"","","","","","image-keyboard-response","127","222285","0.0-102.0","5d4254db5b2c430001418a3c","665500ab8938657b03fbdba8","665793422dab1baf738a777c","698","stimuli/10001011.jpg"," ","","feedback_trial","1","","","","","","","","","","","","","","","","","","","","",""
"","","","","","image-keyboard-response","128","223148","0.0-103.0","5d4254db5b2c430001418a3c","665500ab8938657b03fbdba8","665793422dab1baf738a777c","856","stimuli/1000011.jpg","0","","prediction_trial","1","","false","","1","false","false","true","true","false","false","[1]","000","011","0","","","","","","",""
"","","","","","image-keyboard-response","129","223617","0.0-104.0","5d4254db5b2c430001418a3c","665500ab8938657b03fbdba8","665793422dab1baf738a777c","468","stimuli/10000111.jpg"," ","","feedback_trial","1","","","","","","","","","","","","","","","","","","","","",""
"","","","","","image-keyboard-response","130","224419","0.0-105.0","5d4254db5b2c430001418a3c","665500ab8938657b03fbdba8","665793422dab1baf738a777c","801","stimuli/0001111.jpg","1","","prediction_trial","0","","false","","0","false","false","true","true","false","false","[0]","001","111","0","","","","","","",""
"","","","","","image-keyboard-response","131","225077","0.0-106.0","5d4254db5b2c430001418a3c","665500ab8938657b03fbdba8","665793422dab1baf738a777c","657","stimuli/00011110.jpg"," ","","feedback_trial","0","","","","","","","","","","","","","","","","","","","","",""
"","","","","","image-keyboard-response","132","225747","0.0-107.0","5d4254db5b2c430001418a3c","665500ab8938657b03fbdba8","665793422dab1baf738a777c","668","stimuli/2010101.jpg","2","","prediction_trial","2","","true","","2","false","false","true","true","false","false","[2]","010","101","1","","","","","","",""
"","","","","","image-keyboard-response","133","226170","0.0-108.0","5d4254db5b2c430001418a3c","665500ab8938657b03fbdba8","665793422dab1baf738a777c","422","stimuli/20101012.jpg"," ","","feedback_trial","2","","","","","","","","","","","","","","","","","","","","",""
"","","","","","image-keyboard-response","134","226810","0.0-109.0","5d4254db5b2c430001418a3c","665500ab8938657b03fbdba8","665793422dab1baf738a777c","639","stimuli/0101111.jpg","1","","prediction_trial","0","","false","","0","false","false","false","false","false","false","[0,2]","101","111","0","","","","","","",""
"","","","","","image-keyboard-response","135","227230","0.0-110.0","5d4254db5b2c430001418a3c","665500ab8938657b03fbdba8","665793422dab1baf738a777c","418","stimuli/01011110.jpg"," ","","feedback_trial","0","","","","","","","","","","","","","","","","","","","","",""
"","","","","","image-keyboard-response","136","227942","0.0-111.0","5d4254db5b2c430001418a3c","665500ab8938657b03fbdba8","665793422dab1baf738a777c","711","stimuli/0100011.jpg","0","","prediction_trial","0","","true","","0","true","true","false","true","false","true","[0]","100","011","1","","","","","","",""
"","","","","","image-keyboard-response","137","228300","0.0-112.0","5d4254db5b2c430001418a3c","665500ab8938657b03fbdba8","665793422dab1baf738a777c","357","stimuli/01000110.jpg"," ","","feedback_trial","0","","","","","","","","","","","","","","","","","","","","",""
"","","","","","image-keyboard-response","138","229261","0.0-113.0","5d4254db5b2c430001418a3c","665500ab8938657b03fbdba8","665793422dab1baf738a777c","960","stimuli/1101010.jpg","1","","prediction_trial","1","","true","","1","false","true","true","true","false","true","[1]","101","010","1","","","","","","",""
"","","","","","image-keyboard-response","139","229553","0.0-114.0","5d4254db5b2c430001418a3c","665500ab8938657b03fbdba8","665793422dab1baf738a777c","290","stimuli/11010101.jpg"," ","","feedback_trial","1","","","","","","","","","","","","","","","","","","","","",""
"","","","","","image-keyboard-response","140","231457","0.0-115.0","5d4254db5b2c430001418a3c","665500ab8938657b03fbdba8","665793422dab1baf738a777c","1903","stimuli/2101001.jpg","2","","prediction_trial","0","","false","","2","false","true","false","false","false","false","[2,0]","101","001","0","","","","","","",""
"","","","","","image-keyboard-response","141","232344","0.0-116.0","5d4254db5b2c430001418a3c","665500ab8938657b03fbdba8","665793422dab1baf738a777c","885","stimuli/21010010.jpg"," ","","feedback_trial","2","","","","","","","","","","","","","","","","","","","","",""
"","","","","","image-keyboard-response","142","233108","0.0-117.0","5d4254db5b2c430001418a3c","665500ab8938657b03fbdba8","665793422dab1baf738a777c","763","stimuli/1111000.jpg","1","","prediction_trial","1","","true","","1","true","true","false","false","false","false","[2,1,0]","111","000","1","","","","","","",""
"","","","","","image-keyboard-response","143","233385","0.0-118.0","5d4254db5b2c430001418a3c","665500ab8938657b03fbdba8","665793422dab1baf738a777c","276","stimuli/11110001.jpg"," ","","feedback_trial","2","","","","","","","","","","","","","","","","","","","","",""
"","","","","","image-keyboard-response","144","234780","0.0-119.0","5d4254db5b2c430001418a3c","665500ab8938657b03fbdba8","665793422dab1baf738a777c","1394","stimuli/1110010.jpg","1","","prediction_trial","0","","false","","1","false","true","false","false","false","false","[1,0]","110","010","0","","","","","","",""
"","","","","","image-keyboard-response","145","235059","0.0-120.0","5d4254db5b2c430001418a3c","665500ab8938657b03fbdba8","665793422dab1baf738a777c","277","stimuli/11100100.jpg"," ","","feedback_trial","1","","","","","","","","","","","","","","","","","","","","",""
"","","","","","image-keyboard-response","146","235817","0.0-121.0","5d4254db5b2c430001418a3c","665500ab8938657b03fbdba8","665793422dab1baf738a777c","757","stimuli/0111000.jpg","0","","prediction_trial","0","","true","","0","true","true","false","false","false","false","[2,0,1]","111","000","1","","","","","","",""
"","","","","","image-keyboard-response","147","236118","0.0-122.0","5d4254db5b2c430001418a3c","665500ab8938657b03fbdba8","665793422dab1baf738a777c","300","stimuli/01110000.jpg"," ","","feedback_trial","2","","","","","","","","","","","","","","","","","","","","",""
"","","","","","image-keyboard-response","148","237691","0.0-123.0","5d4254db5b2c430001418a3c","665500ab8938657b03fbdba8","665793422dab1baf738a777c","1572","stimuli/1101110.jpg","1","","prediction_trial","1","","true","","1","false","false","true","true","false","false","[1]","101","110","1","","","","","","",""
"","","","","","image-keyboard-response","149","237999","0.0-124.0","5d4254db5b2c430001418a3c","665500ab8938657b03fbdba8","665793422dab1baf738a777c","307","stimuli/11011101.jpg"," ","","feedback_trial","1","","","","","","","","","","","","","","","","","","","","",""
"","","","","","image-keyboard-response","150","239125","0.0-125.0","5d4254db5b2c430001418a3c","665500ab8938657b03fbdba8","665793422dab1baf738a777c","1118","stimuli/2111101.jpg","1","","prediction_trial","2","","false","","2","false","false","false","false","false","false","[2,0,1]","111","101","0","","","","","","",""
"","","","","","image-keyboard-response","151","239748","0.0-126.0","5d4254db5b2c430001418a3c","665500ab8938657b03fbdba8","665793422dab1baf738a777c","621","stimuli/21111012.jpg"," ","","feedback_trial","2","","","","","","","","","","","","","","","","","","","","",""
"","","","","","image-keyboard-response","152","240502","0.0-127.0","5d4254db5b2c430001418a3c","665500ab8938657b03fbdba8","665793422dab1baf738a777c","753","stimuli/0100001.jpg","0","","prediction_trial","0","","true","","0","true","true","false","true","false","true","[0]","100","001","1","","","","","","",""
"","","","","","image-keyboard-response","153","240707","0.0-128.0","5d4254db5b2c430001418a3c","665500ab8938657b03fbdba8","665793422dab1baf738a777c","204","stimuli/01000010.jpg"," ","","feedback_trial","0","","","","","","","","","","","","","","","","","","","","",""
"","","","","","image-keyboard-response","154","241436","0.0-129.0","5d4254db5b2c430001418a3c","665500ab8938657b03fbdba8","665793422dab1baf738a777c","727","stimuli/1001100.jpg","1","","prediction_trial","1","","true","","1","true","true","true","true","true","true","[1]","001","100","1","","","","","","",""
"","","","","","image-keyboard-response","155","241639","0.0-130.0","5d4254db5b2c430001418a3c","665500ab8938657b03fbdba8","665793422dab1baf738a777c","202","stimuli/10011001.jpg"," ","","feedback_trial","1","","","","","","","","","","","","","","","","","","","","",""
"","","","","","image-keyboard-response","156","242267","0.0-131.0","5d4254db5b2c430001418a3c","665500ab8938657b03fbdba8","665793422dab1baf738a777c","627","stimuli/1100101.jpg","1","","prediction_trial","1","","true","","1","true","true","true","true","true","true","[1]","100","101","1","","","","","","",""
"","","","","","image-keyboard-response","157","242518","0.0-132.0","5d4254db5b2c430001418a3c","665500ab8938657b03fbdba8","665793422dab1baf738a777c","250","stimuli/11001011.jpg"," ","","feedback_trial","1","","","","","","","","","","","","","","","","","","","","",""
"","","","","","image-keyboard-response","158","243134","0.0-133.0","5d4254db5b2c430001418a3c","665500ab8938657b03fbdba8","665793422dab1baf738a777c","615","stimuli/1010111.jpg","2","","prediction_trial","1","","false","","1","false","false","false","true","false","false","[1]","010","111","0","","","","","","",""
"","","","","","image-keyboard-response","159","243535","0.0-134.0","5d4254db5b2c430001418a3c","665500ab8938657b03fbdba8","665793422dab1baf738a777c","400","stimuli/10101111.jpg"," ","","feedback_trial","1","","","","","","","","","","","","","","","","","","","","",""
"","","","","","image-keyboard-response","160","244486","0.0-135.0","5d4254db5b2c430001418a3c","665500ab8938657b03fbdba8","665793422dab1baf738a777c","949","stimuli/2100001.jpg","2","","prediction_trial","2","","true","","2","false","true","true","true","false","true","[2]","100","001","1","","","","","","",""
"","","","","","image-keyboard-response","161","244719","0.0-136.0","5d4254db5b2c430001418a3c","665500ab8938657b03fbdba8","665793422dab1baf738a777c","231","stimuli/21000012.jpg"," ","","feedback_trial","2","","","","","","","","","","","","","","","","","","","","",""
"","","","","","image-keyboard-response","162","245414","0.0-137.0","5d4254db5b2c430001418a3c","665500ab8938657b03fbdba8","665793422dab1baf738a777c","693","stimuli/0110110.jpg","2","","prediction_trial","0","","false","","0","false","false","false","false","false","false","[1,0]","110","110","0","","","","","","",""
"","","","","","image-keyboard-response","163","245607","0.0-138.0","5d4254db5b2c430001418a3c","665500ab8938657b03fbdba8","665793422dab1baf738a777c","191","stimuli/01101100.jpg"," ","","feedback_trial","1","","","","","","","","","","","","","","","","","","","","",""
"","","","","","image-keyboard-response","164","246693","0.0-139.0","5d4254db5b2c430001418a3c","665500ab8938657b03fbdba8","665793422dab1baf738a777c","1085","stimuli/2000000.jpg","2","","prediction_trial","2","","true","","2","true","true","true","true","true","true","[2]","000","000","1","","","","","","",""
"","","","","","image-keyboard-response","165","246954","0.0-140.0","5d4254db5b2c430001418a3c","665500ab8938657b03fbdba8","665793422dab1baf738a777c","260","stimuli/20000002.jpg"," ","","feedback_trial","2","","","","","","","","","","","","","","","","","","","","",""
"","","","","","image-keyboard-response","166","247604","0.0-141.0","5d4254db5b2c430001418a3c","665500ab8938657b03fbdba8","665793422dab1baf738a777c","649","stimuli/1011111.jpg","1","","prediction_trial","2","","false","","1","false","false","false","false","false","false","[1,2]","011","111","0","","","","","","",""
"","","","","","image-keyboard-response","167","247843","0.0-142.0","5d4254db5b2c430001418a3c","665500ab8938657b03fbdba8","665793422dab1baf738a777c","239","stimuli/10111112.jpg"," ","","feedback_trial","1","","","","","","","","","","","","","","","","","","","","",""
"","","","","","image-keyboard-response","168","248652","0.0-143.0","5d4254db5b2c430001418a3c","665500ab8938657b03fbdba8","665793422dab1baf738a777c","807","stimuli/2010010.jpg","2","","prediction_trial","2","","true","","2","true","true","true","true","true","true","[2]","010","010","1","","","","","","",""
"","","","","","image-keyboard-response","169","248874","0.0-144.0","5d4254db5b2c430001418a3c","665500ab8938657b03fbdba8","665793422dab1baf738a777c","221","stimuli/20100102.jpg"," ","","feedback_trial","2","","","","","","","","","","","","","","","","","","","","",""
"","","","","","image-keyboard-response","170","249513","0.0-145.0","5d4254db5b2c430001418a3c","665500ab8938657b03fbdba8","665793422dab1baf738a777c","638","stimuli/1111001.jpg","1","","prediction_trial","0","","false","","1","true","true","false","false","false","false","[0,1,2]","111","001","0","","","","","","",""
"","","","","","image-keyboard-response","171","249700","0.0-146.0","5d4254db5b2c430001418a3c","665500ab8938657b03fbdba8","665793422dab1baf738a777c","186","stimuli/11110010.jpg"," ","","feedback_trial","0","","","","","","","","","","","","","","","","","","","","",""
"","","","","","image-keyboard-response","172","250720","0.0-147.0","5d4254db5b2c430001418a3c","665500ab8938657b03fbdba8","665793422dab1baf738a777c","1019","stimuli/1111111.jpg","1","","prediction_trial","2","","false","","1","false","false","false","false","false","false","[1,0,2]","111","111","0","","","","","","",""
"","","","","","image-keyboard-response","173","250953","0.0-148.0","5d4254db5b2c430001418a3c","665500ab8938657b03fbdba8","665793422dab1baf738a777c","231","stimuli/11111112.jpg"," ","","feedback_trial","1","","","","","","","","","","","","","","","","","","","","",""
"","","","","","image-keyboard-response","174","251560","0.0-149.0","5d4254db5b2c430001418a3c","665500ab8938657b03fbdba8","665793422dab1baf738a777c","606","stimuli/2110100.jpg","2","","prediction_trial","2","","true","","2","true","true","true","true","true","true","[2]","110","100","1","","","","","","",""
"","","","","","image-keyboard-response","175","251835","0.0-150.0","5d4254db5b2c430001418a3c","665500ab8938657b03fbdba8","665793422dab1baf738a777c","274","stimuli/21101002.jpg"," ","","feedback_trial","2","","","","","","","","","","","","","","","","","","","","",""
"","","","","","image-keyboard-response","176","252440","0.0-151.0","5d4254db5b2c430001418a3c","665500ab8938657b03fbdba8","665793422dab1baf738a777c","603","stimuli/1111010.jpg","1","","prediction_trial","2","","false","","1","false","true","false","false","false","false","[0,1,2]","111","010","0","","","","","","",""
"","","","","","image-keyboard-response","177","252676","0.0-152.0","5d4254db5b2c430001418a3c","665500ab8938657b03fbdba8","665793422dab1baf738a777c","235","stimuli/11110102.jpg"," ","","feedback_trial","0","","","","","","","","","","","","","","","","","","","","",""
"","","","","","image-keyboard-response","178","253429","0.0-153.0","5d4254db5b2c430001418a3c","665500ab8938657b03fbdba8","665793422dab1baf738a777c","752","stimuli/0100101.jpg","1","","prediction_trial","0","","false","","0","false","false","false","true","false","false","[0]","100","101","0","","","","","","",""
"","","","","","image-keyboard-response","179","253728","0.0-154.0","5d4254db5b2c430001418a3c","665500ab8938657b03fbdba8","665793422dab1baf738a777c","297","stimuli/01001010.jpg"," ","","feedback_trial","0","","","","","","","","","","","","","","","","","","","","",""
"","","","","","image-keyboard-response","180","254237","0.0-155.0","5d4254db5b2c430001418a3c","665500ab8938657b03fbdba8","665793422dab1baf738a777c","508","stimuli/2010111.jpg","1","","prediction_trial","2","","false","","2","false","false","true","true","false","false","[2]","010","111","0","","","","","","",""
"","","","","","image-keyboard-response","181","254469","0.0-156.0","5d4254db5b2c430001418a3c","665500ab8938657b03fbdba8","665793422dab1baf738a777c","231","stimuli/20101112.jpg"," ","","feedback_trial","2","","","","","","","","","","","","","","","","","","","","",""
"","","","","","image-keyboard-response","182","255140","0.0-157.0","5d4254db5b2c430001418a3c","665500ab8938657b03fbdba8","665793422dab1baf738a777c","670","stimuli/1100100.jpg","1","","prediction_trial","1","","true","","1","true","true","true","true","true","true","[1]","100","100","1","","","","","","",""
"","","","","","image-keyboard-response","183","255324","0.0-158.0","5d4254db5b2c430001418a3c","665500ab8938657b03fbdba8","665793422dab1baf738a777c","182","stimuli/11001001.jpg"," ","","feedback_trial","1","","","","","","","","","","","","","","","","","","","","",""
"","","","","","image-keyboard-response","184","255914","0.0-159.0","5d4254db5b2c430001418a3c","665500ab8938657b03fbdba8","665793422dab1baf738a777c","589","stimuli/1100111.jpg","1","","prediction_trial","1","","true","","1","false","false","true","true","false","false","[1]","100","111","1","","","","","","",""
"","","","","","image-keyboard-response","185","256300","0.0-160.0","5d4254db5b2c430001418a3c","665500ab8938657b03fbdba8","665793422dab1baf738a777c","385","stimuli/11001111.jpg"," ","","feedback_trial","1","","","","","","","","","","","","","","","","","","","","",""
"","","","","","image-keyboard-response","186","256980","0.0-161.0","5d4254db5b2c430001418a3c","665500ab8938657b03fbdba8","665793422dab1baf738a777c","678","stimuli/2101111.jpg","1","","prediction_trial","0","","false","","2","false","false","false","false","false","false","[0,2]","101","111","0","","","","","","",""
"","","","","","image-keyboard-response","187","257417","0.0-162.0","5d4254db5b2c430001418a3c","665500ab8938657b03fbdba8","665793422dab1baf738a777c","436","stimuli/21011110.jpg"," ","","feedback_trial","0","","","","","","","","","","","","","","","","","","","","",""
"","","","","","image-keyboard-response","188","258265","0.0-163.0","5d4254db5b2c430001418a3c","665500ab8938657b03fbdba8","665793422dab1baf738a777c","847","stimuli/2000111.jpg","1","","prediction_trial","2","","false","","2","false","false","true","true","false","false","[2]","000","111","0","","","","","","",""
"","","","","","image-keyboard-response","189","258670","0.0-164.0","5d4254db5b2c430001418a3c","665500ab8938657b03fbdba8","665793422dab1baf738a777c","404","stimuli/20001112.jpg"," ","","feedback_trial","2","","","","","","","","","","","","","","","","","","","","",""
"","","","","","image-keyboard-response","190","259119","0.0-165.0","5d4254db5b2c430001418a3c","665500ab8938657b03fbdba8","665793422dab1baf738a777c","447","stimuli/0010011.jpg","2","","prediction_trial","0","","false","","0","true","true","true","true","true","true","[0]","010","011","0","","","","","","",""
"","","","","","image-keyboard-response","191","260949","0.0-166.0","5d4254db5b2c430001418a3c","665500ab8938657b03fbdba8","665793422dab1baf738a777c","1829","stimuli/00100110.jpg"," ","","feedback_trial","0","","","","","","","","","","","","","","","","","","","","",""
"","","","","","image-keyboard-response","192","261525","0.0-167.0","5d4254db5b2c430001418a3c","665500ab8938657b03fbdba8","665793422dab1baf738a777c","575","stimuli/2111110.jpg","2","","prediction_trial","2","","true","","2","true","true","false","false","false","false","[1,2,0]","111","110","1","","","","","","",""
"","","","","","image-keyboard-response","193","261758","0.0-168.0","5d4254db5b2c430001418a3c","665500ab8938657b03fbdba8","665793422dab1baf738a777c","231","stimuli/21111102.jpg"," ","","feedback_trial","1","","","","","","","","","","","","","","","","","","","","",""
"","","","","","image-keyboard-response","194","262677","0.0-169.0","5d4254db5b2c430001418a3c","665500ab8938657b03fbdba8","665793422dab1baf738a777c","917","stimuli/1001110.jpg","1","","prediction_trial","1","","true","","1","false","false","true","true","false","false","[1]","001","110","1","","","","","","",""
"","","","","","image-keyboard-response","195","263339","0.0-170.0","5d4254db5b2c430001418a3c","665500ab8938657b03fbdba8","665793422dab1baf738a777c","661","stimuli/10011101.jpg"," ","","feedback_trial","1","","","","","","","","","","","","","","","","","","","","",""
"","","","","","image-keyboard-response","196","264063","0.0-171.0","5d4254db5b2c430001418a3c","665500ab8938657b03fbdba8","665793422dab1baf738a777c","723","stimuli/0011001.jpg","0","","prediction_trial","0","","true","","0","true","true","true","true","true","true","[0]","011","001","1","","","","","","",""
"","","","","","image-keyboard-response","197","264270","0.0-172.0","5d4254db5b2c430001418a3c","665500ab8938657b03fbdba8","665793422dab1baf738a777c","206","stimuli/00110010.jpg"," ","","feedback_trial","0","","","","","","","","","","","","","","","","","","","","",""
"","","","","","image-keyboard-response","198","265639","0.0-173.0","5d4254db5b2c430001418a3c","665500ab8938657b03fbdba8","665793422dab1baf738a777c","1367","stimuli/2011100.jpg","1","","prediction_trial","2","","false","","2","true","true","false","false","false","false","[2,1]","011","100","0","","","","","","",""
"","","","","","image-keyboard-response","199","266633","0.0-174.0","5d4254db5b2c430001418a3c","665500ab8938657b03fbdba8","665793422dab1baf738a777c","992","stimuli/20111002.jpg"," ","","feedback_trial","2","","","","","","","","","","","","","","","","","","","","",""
"","","","","","image-keyboard-response","200","267153","0.0-175.0","5d4254db5b2c430001418a3c","665500ab8938657b03fbdba8","665793422dab1baf738a777c","519","stimuli/0000000.jpg","1","","prediction_trial","0","","false","","0","true","true","true","true","true","true","[0]","000","000","0","","","","","","",""
"","","","","","image-keyboard-response","201","268003","0.0-176.0","5d4254db5b2c430001418a3c","665500ab8938657b03fbdba8","665793422dab1baf738a777c","849","stimuli/00000000.jpg"," ","","feedback_trial","0","","","","","","","","","","","","","","","","","","","","",""
"","","","","","image-keyboard-response","202","268562","0.0-177.0","5d4254db5b2c430001418a3c","665500ab8938657b03fbdba8","665793422dab1baf738a777c","557","stimuli/2010100.jpg","2","","prediction_trial","2","","true","","2","true","true","true","true","true","true","[2]","010","100","1","","","","","","",""
"","","","","","image-keyboard-response","203","268907","0.0-178.0","5d4254db5b2c430001418a3c","665500ab8938657b03fbdba8","665793422dab1baf738a777c","344","stimuli/20101002.jpg"," ","","feedback_trial","2","","","","","","","","","","","","","","","","","","","","",""
"","","","","","image-keyboard-response","204","269813","0.0-179.0","5d4254db5b2c430001418a3c","665500ab8938657b03fbdba8","665793422dab1baf738a777c","905","stimuli/1011011.jpg","1","","prediction_trial","1","","true","","1","false","false","false","false","false","false","[2,1]","011","011","1","","","","","","",""
"","","","","","image-keyboard-response","205","270056","0.0-180.0","5d4254db5b2c430001418a3c","665500ab8938657b03fbdba8","665793422dab1baf738a777c","242","stimuli/10110111.jpg"," ","","feedback_trial","2","","","","","","","","","","","","","","","","","","","","",""
"","","","","","image-keyboard-response","206","271009","0.0-181.0","5d4254db5b2c430001418a3c","665500ab8938657b03fbdba8","665793422dab1baf738a777c","950","stimuli/1110100.jpg","1","","prediction_trial","0","","false","","1","true","true","false","false","false","false","[1,0]","110","100","0","","","","","","",""
"","","","","","image-keyboard-response","207","271216","0.0-182.0","5d4254db5b2c430001418a3c","665500ab8938657b03fbdba8","665793422dab1baf738a777c","206","stimuli/11101000.jpg"," ","","feedback_trial","1","","","","","","","","","","","","","","","","","","","","",""
"","","","","","image-keyboard-response","208","271899","0.0-183.0","5d4254db5b2c430001418a3c","665500ab8938657b03fbdba8","665793422dab1baf738a777c","681","stimuli/0011011.jpg","0","","prediction_trial","0","","true","","0","true","true","true","true","true","true","[0]","011","011","1","","","","","","",""
"","","","","","image-keyboard-response","209","272129","0.0-184.0","5d4254db5b2c430001418a3c","665500ab8938657b03fbdba8","665793422dab1baf738a777c","229","stimuli/00110110.jpg"," ","","feedback_trial","0","","","","","","","","","","","","","","","","","","","","",""
"","","","","","image-keyboard-response","210","272742","0.0-185.0","5d4254db5b2c430001418a3c","665500ab8938657b03fbdba8","665793422dab1baf738a777c","613","stimuli/0001000.jpg","0","","prediction_trial","0","","true","","0","true","true","true","true","true","true","[0]","001","000","1","","","","","","",""
"","","","","","image-keyboard-response","211","273035","0.0-186.0","5d4254db5b2c430001418a3c","665500ab8938657b03fbdba8","665793422dab1baf738a777c","291","stimuli/00010000.jpg"," ","","feedback_trial","0","","","","","","","","","","","","","","","","","","","","",""
"","","","","","image-keyboard-response","212","273782","0.0-187.0","5d4254db5b2c430001418a3c","665500ab8938657b03fbdba8","665793422dab1baf738a777c","746","stimuli/1100001.jpg","1","","prediction_trial","1","","true","","1","true","true","true","true","true","true","[1]","100","001","1","","","","","","",""
"","","","","","image-keyboard-response","213","273959","0.0-188.0","5d4254db5b2c430001418a3c","665500ab8938657b03fbdba8","665793422dab1baf738a777c","175","stimuli/11000011.jpg"," ","","feedback_trial","1","","","","","","","","","","","","","","","","","","","","",""
"","","","","","image-keyboard-response","214","274566","0.0-189.0","5d4254db5b2c430001418a3c","665500ab8938657b03fbdba8","665793422dab1baf738a777c","606","stimuli/0011010.jpg","0","","prediction_trial","0","","true","","0","true","true","true","true","true","true","[0]","011","010","1","","","","","","",""
"","","","","","image-keyboard-response","215","274740","0.0-190.0","5d4254db5b2c430001418a3c","665500ab8938657b03fbdba8","665793422dab1baf738a777c","173","stimuli/00110100.jpg"," ","","feedback_trial","0","","","","","","","","","","","","","","","","","","","","",""
"","","","","","image-keyboard-response","216","275613","0.0-191.0","5d4254db5b2c430001418a3c","665500ab8938657b03fbdba8","665793422dab1baf738a777c","865","stimuli/2100011.jpg","2","","prediction_trial","2","","true","","2","false","false","true","true","false","false","[2]","100","011","1","","","","","","",""
"","","","","","image-keyboard-response","217","275930","0.0-192.0","5d4254db5b2c430001418a3c","665500ab8938657b03fbdba8","665793422dab1baf738a777c","315","stimuli/21000112.jpg"," ","","feedback_trial","2","","","","","","","","","","","","","","","","","","","","",""
"","","","","","image-keyboard-response","218","276644","0.0-193.0","5d4254db5b2c430001418a3c","665500ab8938657b03fbdba8","665793422dab1baf738a777c","712","stimuli/2111100.jpg","2","","prediction_trial","0","","false","","2","true","true","false","false","false","false","[1,0,2]","111","100","0","","","","","","",""
"","","","","","image-keyboard-response","219","276866","0.0-194.0","5d4254db5b2c430001418a3c","665500ab8938657b03fbdba8","665793422dab1baf738a777c","221","stimuli/21111000.jpg"," ","","feedback_trial","1","","","","","","","","","","","","","","","","","","","","",""
"","","","","","image-keyboard-response","220","277761","0.0-195.0","5d4254db5b2c430001418a3c","665500ab8938657b03fbdba8","665793422dab1baf738a777c","894","stimuli/0100110.jpg","1","","prediction_trial","0","","false","","0","false","false","false","true","false","false","[0]","100","110","0","","","","","","",""
"","","","","","image-keyboard-response","221","277929","0.0-196.0","5d4254db5b2c430001418a3c","665500ab8938657b03fbdba8","665793422dab1baf738a777c","166","stimuli/01001100.jpg"," ","","feedback_trial","0","","","","","","","","","","","","","","","","","","","","",""
"","","","","","image-keyboard-response","222","279657","0.0-197.0","5d4254db5b2c430001418a3c","665500ab8938657b03fbdba8","665793422dab1baf738a777c","1727","stimuli/1011110.jpg","1","","prediction_trial","2","","false","","1","false","false","false","false","false","false","[1,2]","011","110","0","","","","","","",""
"","","","","","image-keyboard-response","223","280808","0.0-198.0","5d4254db5b2c430001418a3c","665500ab8938657b03fbdba8","665793422dab1baf738a777c","1149","stimuli/10111102.jpg"," ","","feedback_trial","1","","","","","","","","","","","","","","","","","","","","",""
"","","","","","image-keyboard-response","224","282526","0.0-199.0","5d4254db5b2c430001418a3c","665500ab8938657b03fbdba8","665793422dab1baf738a777c","1717","stimuli/1110101.jpg","1","","prediction_trial","0","","false","","1","true","true","false","false","false","false","[1,0]","110","101","0","","","","","","",""
"","","","","","image-keyboard-response","225","283849","0.0-200.0","5d4254db5b2c430001418a3c","665500ab8938657b03fbdba8","665793422dab1baf738a777c","1321","stimuli/11101010.jpg"," ","","feedback_trial","1","","","","","","","","","","","","","","","","","","","","",""
"","","","","","image-keyboard-response","226","285055","0.0-201.0","5d4254db5b2c430001418a3c","665500ab8938657b03fbdba8","665793422dab1baf738a777c","1205","stimuli/1110000.jpg","1","","prediction_trial","0","","false","","1","true","true","false","false","false","false","[1,0]","110","000","0","","","","","","",""
"","","","","","image-keyboard-response","227","285750","0.0-202.0","5d4254db5b2c430001418a3c","665500ab8938657b03fbdba8","665793422dab1baf738a777c","692","stimuli/11100000.jpg"," ","","feedback_trial","1","","","","","","","","","","","","","","","","","","","","",""
"","","","","","image-keyboard-response","228","286541","0.0-203.0","5d4254db5b2c430001418a3c","665500ab8938657b03fbdba8","665793422dab1baf738a777c","789","stimuli/1000111.jpg","2","","prediction_trial","1","","false","","1","false","false","true","true","false","false","[1]","000","111","0","","","","","","",""
"","","","","","image-keyboard-response","229","288400","0.0-204.0","5d4254db5b2c430001418a3c","665500ab8938657b03fbdba8","665793422dab1baf738a777c","1858","stimuli/10001111.jpg"," ","","feedback_trial","1","","","","","","","","","","","","","","","","","","","","",""
"","","","","","image-keyboard-response","230","289378","0.0-205.0","5d4254db5b2c430001418a3c","665500ab8938657b03fbdba8","665793422dab1baf738a777c","977","stimuli/1011001.jpg","2","","prediction_trial","1","","false","","1","true","true","false","false","false","false","[2,1]","011","001","0","","","","","","",""
"","","","","","image-keyboard-response","231","289644","0.0-206.0","5d4254db5b2c430001418a3c","665500ab8938657b03fbdba8","665793422dab1baf738a777c","264","stimuli/10110011.jpg"," ","","feedback_trial","2","","","","","","","","","","","","","","","","","","","","",""
"","","","","","image-keyboard-response","232","290218","0.0-207.0","5d4254db5b2c430001418a3c","665500ab8938657b03fbdba8","665793422dab1baf738a777c","572","stimuli/1000000.jpg","1","","prediction_trial","1","","true","","1","true","true","true","true","true","true","[1]","000","000","1","","","","","","",""
"","","","","","image-keyboard-response","233","290443","0.0-208.0","5d4254db5b2c430001418a3c","665500ab8938657b03fbdba8","665793422dab1baf738a777c","223","stimuli/10000001.jpg"," ","","feedback_trial","1","","","","","","","","","","","","","","","","","","","","",""
"","","","","","image-keyboard-response","234","291156","0.0-209.0","5d4254db5b2c430001418a3c","665500ab8938657b03fbdba8","665793422dab1baf738a777c","712","stimuli/0111110.jpg","1","","prediction_trial","2","","false","","0","false","false","false","false","false","false","[0,1,2]","111","110","0","","","","","","",""
"","","","","","image-keyboard-response","235","291416","0.0-210.0","5d4254db5b2c430001418a3c","665500ab8938657b03fbdba8","665793422dab1baf738a777c","258","stimuli/01111102.jpg"," ","","feedback_trial","0","","","","","","","","","","","","","","","","","","","","",""
"","","","","","image-keyboard-response","236","292504","0.0-211.0","5d4254db5b2c430001418a3c","665500ab8938657b03fbdba8","665793422dab1baf738a777c","1086","stimuli/1110001.jpg","1","","prediction_trial","1","","true","","1","true","true","false","false","false","false","[1,0]","110","001","1","","","","","","",""
"","","","","","image-keyboard-response","237","292714","0.0-212.0","5d4254db5b2c430001418a3c","665500ab8938657b03fbdba8","665793422dab1baf738a777c","208","stimuli/11100011.jpg"," ","","feedback_trial","1","","","","","","","","","","","","","","","","","","","","",""
"","","","","","image-keyboard-response","238","293532","0.0-213.0","5d4254db5b2c430001418a3c","665500ab8938657b03fbdba8","665793422dab1baf738a777c","816","stimuli/0001110.jpg","0","","prediction_trial","0","","true","","0","false","false","true","true","false","false","[0]","001","110","1","","","","","","",""
"","","","","","image-keyboard-response","239","293765","0.0-214.0","5d4254db5b2c430001418a3c","665500ab8938657b03fbdba8","665793422dab1baf738a777c","231","stimuli/00011100.jpg"," ","","feedback_trial","0","","","","","","","","","","","","","","","","","","","","",""
"","","","","","image-keyboard-response","240","295004","0.0-215.0","5d4254db5b2c430001418a3c","665500ab8938657b03fbdba8","665793422dab1baf738a777c","1238","stimuli/1111110.jpg","0","","prediction_trial","0","","true","","1","false","false","false","false","false","false","[2,1,0]","111","110","1","","","","","","",""
"","","","","","image-keyboard-response","241","295209","0.0-216.0","5d4254db5b2c430001418a3c","665500ab8938657b03fbdba8","665793422dab1baf738a777c","203","stimuli/11111100.jpg"," ","","feedback_trial","2","","","","","","","","","","","","","","","","","","","","",""
"","","","","","image-keyboard-response","242","296178","0.0-217.0","5d4254db5b2c430001418a3c","665500ab8938657b03fbdba8","665793422dab1baf738a777c","968","stimuli/1001011.jpg","2","","prediction_trial","1","","false","","1","false","false","true","true","false","false","[1]","001","011","0","","","","","","",""
"","","","","","image-keyboard-response","243","296398","0.0-218.0","5d4254db5b2c430001418a3c","665500ab8938657b03fbdba8","665793422dab1baf738a777c","218","stimuli/10010111.jpg"," ","","feedback_trial","1","","","","","","","","","","","","","","","","","","","","",""
"","","","","","image-keyboard-response","244","297137","0.0-219.0","5d4254db5b2c430001418a3c","665500ab8938657b03fbdba8","665793422dab1baf738a777c","738","stimuli/0000010.jpg","0","","prediction_trial","0","","true","","0","true","true","true","true","true","true","[0]","000","010","1","","","","","","",""
"","","","","","image-keyboard-response","245","297312","0.0-220.0","5d4254db5b2c430001418a3c","665500ab8938657b03fbdba8","665793422dab1baf738a777c","173","stimuli/00000100.jpg"," ","","feedback_trial","0","","","","","","","","","","","","","","","","","","","","",""
"","","","","","image-keyboard-response","246","297992","0.0-221.0","5d4254db5b2c430001418a3c","665500ab8938657b03fbdba8","665793422dab1baf738a777c","679","stimuli/0110100.jpg","1","","prediction_trial","1","","true","","0","false","true","false","false","false","false","[1,0]","110","100","1","","","","","","",""
"","","","","","image-keyboard-response","247","298276","0.0-222.0","5d4254db5b2c430001418a3c","665500ab8938657b03fbdba8","665793422dab1baf738a777c","282","stimuli/01101001.jpg"," ","","feedback_trial","1","","","","","","","","","","","","","","","","","","","","",""
"","","","","","image-keyboard-response","248","299426","0.0-223.0","5d4254db5b2c430001418a3c","665500ab8938657b03fbdba8","665793422dab1baf738a777c","1149","stimuli/0011100.jpg","2","","prediction_trial","0","","false","","0","false","true","true","true","false","true","[0]","011","100","0","","","","","","",""
"","","","","","image-keyboard-response","249","299658","0.0-224.0","5d4254db5b2c430001418a3c","665500ab8938657b03fbdba8","665793422dab1baf738a777c","231","stimuli/00111000.jpg"," ","","feedback_trial","0","","","","","","","","","","","","","","","","","","","","",""
"","","","","","image-keyboard-response","250","301039","0.0-225.0","5d4254db5b2c430001418a3c","665500ab8938657b03fbdba8","665793422dab1baf738a777c","1379","stimuli/1101011.jpg","2","","prediction_trial","1","","false","","1","false","false","true","true","false","false","[1]","101","011","0","","","","","","",""
"","","","","","image-keyboard-response","251","304462","0.0-226.0","5d4254db5b2c430001418a3c","665500ab8938657b03fbdba8","665793422dab1baf738a777c","3422","stimuli/11010111.jpg"," ","","feedback_trial","1","","","","","","","","","","","","","","","","","","","","",""
"","","","","","image-keyboard-response","252","305883","0.0-227.0","5d4254db5b2c430001418a3c","665500ab8938657b03fbdba8","665793422dab1baf738a777c","1419","stimuli/2010011.jpg","1","","prediction_trial","2","","false","","2","false","false","true","true","false","false","[2]","010","011","0","","","","","","",""
"","","","","","image-keyboard-response","253","306514","0.0-228.0","5d4254db5b2c430001418a3c","665500ab8938657b03fbdba8","665793422dab1baf738a777c","629","stimuli/20100112.jpg"," ","","feedback_trial","2","","","","","","","","","","","","","","","","","","","","",""
"","","","","","image-keyboard-response","254","310668","0.0-229.0","5d4254db5b2c430001418a3c","665500ab8938657b03fbdba8","665793422dab1baf738a777c","4152","stimuli/2101110.jpg","0","","prediction_trial","2","","false","","2","true","true","false","false","false","false","[2,0]","101","110","0","","","","","","",""
"","","","","","image-keyboard-response","255","311636","0.0-230.0","5d4254db5b2c430001418a3c","665500ab8938657b03fbdba8","665793422dab1baf738a777c","967","stimuli/21011102.jpg"," ","","feedback_trial","2","","","","","","","","","","","","","","","","","","","","",""
"","","","","","image-keyboard-response","256","312667","0.0-231.0","5d4254db5b2c430001418a3c","665500ab8938657b03fbdba8","665793422dab1baf738a777c","1030","stimuli/2011010.jpg","1","","prediction_trial","2","","false","","2","true","true","false","false","false","false","[2,1]","011","010","0","","","","","","",""
"","","","","","image-keyboard-response","257","312957","0.0-232.0","5d4254db5b2c430001418a3c","665500ab8938657b03fbdba8","665793422dab1baf738a777c","289","stimuli/20110102.jpg"," ","","feedback_trial","2","","","","","","","","","","","","","","","","","","","","",""
"","","","","","image-keyboard-response","258","314281","0.0-233.0","5d4254db5b2c430001418a3c","665500ab8938657b03fbdba8","665793422dab1baf738a777c","1322","stimuli/0101001.jpg","0","","prediction_trial","0","","true","","0","true","true","false","false","false","false","[2,0]","101","001","1","","","","","","",""
"","","","","","image-keyboard-response","259","314674","0.0-234.0","5d4254db5b2c430001418a3c","665500ab8938657b03fbdba8","665793422dab1baf738a777c","393","stimuli/01010010.jpg"," ","","feedback_trial","2","","","","","","","","","","","","","","","","","","","","",""
"","","","","","image-keyboard-response","260","317457","0.0-235.0","5d4254db5b2c430001418a3c","665500ab8938657b03fbdba8","665793422dab1baf738a777c","2778","stimuli/1110011.jpg","2","","prediction_trial","1","","false","","1","false","false","false","false","false","false","[1,0]","110","011","0","","","","","","",""
"","","","","","image-keyboard-response","261","317956","0.0-236.0","5d4254db5b2c430001418a3c","665500ab8938657b03fbdba8","665793422dab1baf738a777c","497","stimuli/11100111.jpg"," ","","feedback_trial","1","","","","","","","","","","","","","","","","","","","","",""
"","","","","","image-keyboard-response","262","318707","0.0-237.0","5d4254db5b2c430001418a3c","665500ab8938657b03fbdba8","665793422dab1baf738a777c","750","stimuli/0101011.jpg","0","","prediction_trial","2","","false","","0","true","true","false","false","false","false","[2,0]","101","011","0","","","","","","",""
"","","","","","image-keyboard-response","263","319076","0.0-238.0","5d4254db5b2c430001418a3c","665500ab8938657b03fbdba8","665793422dab1baf738a777c","368","stimuli/01010112.jpg"," ","","feedback_trial","2","","","","","","","","","","","","","","","","","","","","",""
"","","","","","image-keyboard-response","264","319594","0.0-239.0","5d4254db5b2c430001418a3c","665500ab8938657b03fbdba8","665793422dab1baf738a777c","517","stimuli/0111001.jpg","1","","prediction_trial","1","","true","","0","true","true","false","false","false","false","[1,0,2]","111","001","1","","","","","","",""
"","","","","","image-keyboard-response","265","319948","0.0-240.0","5d4254db5b2c430001418a3c","665500ab8938657b03fbdba8","665793422dab1baf738a777c","353","stimuli/01110011.jpg"," ","","feedback_trial","1","","","","","","","","","","","","","","","","","","","","",""
"","","","","","image-keyboard-response","266","320608","0.0-241.0","5d4254db5b2c430001418a3c","665500ab8938657b03fbdba8","665793422dab1baf738a777c","659","stimuli/0000100.jpg","1","","prediction_trial","0","","false","","0","false","true","true","true","false","true","[0]","000","100","0","","","","","","",""
"","","","","","image-keyboard-response","267","320873","0.0-242.0","5d4254db5b2c430001418a3c","665500ab8938657b03fbdba8","665793422dab1baf738a777c","263","stimuli/00001000.jpg"," ","","feedback_trial","0","","","","","","","","","","","","","","","","","","","","",""
"","","","","","image-keyboard-response","268","321617","0.0-243.0","5d4254db5b2c430001418a3c","665500ab8938657b03fbdba8","665793422dab1baf738a777c","743","stimuli/0110001.jpg","0","","prediction_trial","0","","true","","0","true","true","false","false","false","false","[0,1]","110","001","1","","","","","","",""
"","","","","","image-keyboard-response","269","321912","0.0-244.0","5d4254db5b2c430001418a3c","665500ab8938657b03fbdba8","665793422dab1baf738a777c","293","stimuli/01100010.jpg"," ","","feedback_trial","0","","","","","","","","","","","","","","","","","","","","",""
"","","","","","image-keyboard-response","270","322454","0.0-245.0","5d4254db5b2c430001418a3c","665500ab8938657b03fbdba8","665793422dab1baf738a777c","542","stimuli/0010100.jpg","1","","prediction_trial","0","","false","","0","false","true","true","true","false","true","[0]","010","100","0","","","","","","",""
"","","","","","image-keyboard-response","271","322728","0.0-246.0","5d4254db5b2c430001418a3c","665500ab8938657b03fbdba8","665793422dab1baf738a777c","272","stimuli/00101000.jpg"," ","","feedback_trial","0","","","","","","","","","","","","","","","","","","","","",""
"","","","","","image-keyboard-response","272","323262","0.0-247.0","5d4254db5b2c430001418a3c","665500ab8938657b03fbdba8","665793422dab1baf738a777c","533","stimuli/2001100.jpg","2","","prediction_trial","2","","true","","2","true","true","false","true","false","true","[2]","001","100","1","","","","","","",""
"","","","","","image-keyboard-response","273","323530","0.0-248.0","5d4254db5b2c430001418a3c","665500ab8938657b03fbdba8","665793422dab1baf738a777c","267","stimuli/20011002.jpg"," ","","feedback_trial","2","","","","","","","","","","","","","","","","","","","","",""
"","","","","","image-keyboard-response","274","324206","0.0-249.0","5d4254db5b2c430001418a3c","665500ab8938657b03fbdba8","665793422dab1baf738a777c","674","stimuli/2000100.jpg","2","","prediction_trial","2","","true","","2","true","true","true","true","true","true","[2]","000","100","1","","","","","","",""
"","","","","","image-keyboard-response","275","324423","0.0-250.0","5d4254db5b2c430001418a3c","665500ab8938657b03fbdba8","665793422dab1baf738a777c","216","stimuli/20001002.jpg"," ","","feedback_trial","2","","","","","","","","","","","","","","","","","","","","",""
"","","","","","image-keyboard-response","276","325149","0.0-251.0","5d4254db5b2c430001418a3c","665500ab8938657b03fbdba8","665793422dab1baf738a777c","725","stimuli/1101101.jpg","1","","prediction_trial","1","","true","","1","true","true","true","true","true","true","[1]","101","101","1","","","","","","",""
"","","","","","image-keyboard-response","277","325401","0.0-252.0","5d4254db5b2c430001418a3c","665500ab8938657b03fbdba8","665793422dab1baf738a777c","251","stimuli/11011011.jpg"," ","","feedback_trial","1","","","","","","","","","","","","","","","","","","","","",""
"","","","","","image-keyboard-response","278","325999","0.0-253.0","5d4254db5b2c430001418a3c","665500ab8938657b03fbdba8","665793422dab1baf738a777c","597","stimuli/0001010.jpg","0","","prediction_trial","0","","true","","0","true","true","true","true","true","true","[0]","001","010","1","","","","","","",""
"","","","","","image-keyboard-response","279","326202","0.0-254.0","5d4254db5b2c430001418a3c","665500ab8938657b03fbdba8","665793422dab1baf738a777c","202","stimuli/00010100.jpg"," ","","feedback_trial","0","","","","","","","","","","","","","","","","","","","","",""
"","","","","","image-keyboard-response","280","327102","0.0-255.0","5d4254db5b2c430001418a3c","665500ab8938657b03fbdba8","665793422dab1baf738a777c","899","stimuli/0101101.jpg","0","","prediction_trial","2","","false","","0","false","false","false","false","false","false","[2,0]","101","101","0","","","","","","",""
"","","","","","image-keyboard-response","281","327369","0.0-256.0","5d4254db5b2c430001418a3c","665500ab8938657b03fbdba8","665793422dab1baf738a777c","265","stimuli/01011012.jpg"," ","","feedback_trial","2","","","","","","","","","","","","","","","","","","","","",""
"","","","","","image-keyboard-response","282","327992","0.0-257.0","5d4254db5b2c430001418a3c","665500ab8938657b03fbdba8","665793422dab1baf738a777c","616","stimuli/2100010.jpg","2","","prediction_trial","2","","true","","2","true","true","true","true","true","true","[2]","100","010","1","","","","","","",""
"","","","","","image-keyboard-response","283","328292","0.0-258.0","5d4254db5b2c430001418a3c","665500ab8938657b03fbdba8","665793422dab1baf738a777c","299","stimuli/21000102.jpg"," ","","feedback_trial","2","","","","","","","","","","","","","","","","","","","","",""
"","","","","","image-keyboard-response","284","328951","0.0-259.0","5d4254db5b2c430001418a3c","665500ab8938657b03fbdba8","665793422dab1baf738a777c","658","stimuli/0001001.jpg","0","","prediction_trial","0","","true","","0","true","true","true","true","true","true","[0]","001","001","1","","","","","","",""
"","","","","","image-keyboard-response","285","329232","0.0-260.0","5d4254db5b2c430001418a3c","665500ab8938657b03fbdba8","665793422dab1baf738a777c","280","stimuli/00010010.jpg"," ","","feedback_trial","0","","","","","","","","","","","","","","","","","","","","",""
"","","","","","image-keyboard-response","286","330065","0.0-261.0","5d4254db5b2c430001418a3c","665500ab8938657b03fbdba8","665793422dab1baf738a777c","831","stimuli/2111011.jpg","2","","prediction_trial","0","","false","","2","false","false","false","false","false","false","[1,2,0]","111","011","0","","","","","","",""
"","","","","","image-keyboard-response","287","330390","0.0-262.0","5d4254db5b2c430001418a3c","665500ab8938657b03fbdba8","665793422dab1baf738a777c","323","stimuli/21110110.jpg"," ","","feedback_trial","1","","","","","","","","","","","","","","","","","","","","",""
"","","","","","image-keyboard-response","288","331030","0.0-263.0","5d4254db5b2c430001418a3c","665500ab8938657b03fbdba8","665793422dab1baf738a777c","639","stimuli/2100100.jpg","2","","prediction_trial","2","","true","","2","true","true","true","true","true","true","[2]","100","100","1","","","","","","",""
"","","","","","image-keyboard-response","289","331280","0.0-264.0","5d4254db5b2c430001418a3c","665500ab8938657b03fbdba8","665793422dab1baf738a777c","249","stimuli/21001002.jpg"," ","","feedback_trial","2","","","","","","","","","","","","","","","","","","","","",""
"","","","","","image-keyboard-response","290","332328","0.0-265.0","5d4254db5b2c430001418a3c","665500ab8938657b03fbdba8","665793422dab1baf738a777c","1046","stimuli/1110110.jpg","1","","prediction_trial","0","","false","","1","false","false","false","false","false","false","[1,0]","110","110","0","","","","","","",""
"","","","","","image-keyboard-response","291","332615","0.0-266.0","5d4254db5b2c430001418a3c","665500ab8938657b03fbdba8","665793422dab1baf738a777c","286","stimuli/11101100.jpg"," ","","feedback_trial","1","","","","","","","","","","","","","","","","","","","","",""
"","","","","","image-keyboard-response","292","333251","0.0-267.0","5d4254db5b2c430001418a3c","665500ab8938657b03fbdba8","665793422dab1baf738a777c","635","stimuli/2001010.jpg","2","","prediction_trial","2","","true","","2","true","true","false","true","false","true","[2]","001","010","1","","","","","","",""
"","","","","","image-keyboard-response","293","333567","0.0-268.0","5d4254db5b2c430001418a3c","665500ab8938657b03fbdba8","665793422dab1baf738a777c","314","stimuli/20010102.jpg"," ","","feedback_trial","2","","","","","","","","","","","","","","","","","","","","",""
"","","","","","image-keyboard-response","294","334422","0.0-269.0","5d4254db5b2c430001418a3c","665500ab8938657b03fbdba8","665793422dab1baf738a777c","854","stimuli/0100111.jpg","1","","prediction_trial","0","","false","","0","false","false","false","true","false","false","[0]","100","111","0","","","","","","",""
"","","","","","image-keyboard-response","295","334714","0.0-270.0","5d4254db5b2c430001418a3c","665500ab8938657b03fbdba8","665793422dab1baf738a777c","291","stimuli/01001110.jpg"," ","","feedback_trial","0","","","","","","","","","","","","","","","","","","","","",""
"","","","","","image-keyboard-response","296","335409","0.0-271.0","5d4254db5b2c430001418a3c","665500ab8938657b03fbdba8","665793422dab1baf738a777c","694","stimuli/2000101.jpg","2","","prediction_trial","2","","true","","2","false","false","true","true","false","false","[2]","000","101","1","","","","","","",""
"","","","","","image-keyboard-response","297","335702","0.0-272.0","5d4254db5b2c430001418a3c","665500ab8938657b03fbdba8","665793422dab1baf738a777c","292","stimuli/20001012.jpg"," ","","feedback_trial","2","","","","","","","","","","","","","","","","","","","","",""
"","","","","","image-keyboard-response","298","336877","0.0-273.0","5d4254db5b2c430001418a3c","665500ab8938657b03fbdba8","665793422dab1baf738a777c","1174","stimuli/1010100.jpg","1","","prediction_trial","1","","true","","1","true","true","false","true","false","true","[1]","010","100","1","","","","","","",""
"","","","","","image-keyboard-response","299","337203","0.0-274.0","5d4254db5b2c430001418a3c","665500ab8938657b03fbdba8","665793422dab1baf738a777c","325","stimuli/10101001.jpg"," ","","feedback_trial","1","","","","","","","","","","","","","","","","","","","","",""
"","","","","","image-keyboard-response","300","337997","0.0-275.0","5d4254db5b2c430001418a3c","665500ab8938657b03fbdba8","665793422dab1baf738a777c","793","stimuli/0101110.jpg","0","","prediction_trial","0","","true","","0","false","false","false","false","false","false","[0,2]","101","110","1","","","","","","",""
"","","","","","image-keyboard-response","301","338324","0.0-276.0","5d4254db5b2c430001418a3c","665500ab8938657b03fbdba8","665793422dab1baf738a777c","327","stimuli/01011100.jpg"," ","","feedback_trial","0","","","","","","","","","","","","","","","","","","","","",""
"","","","","","image-keyboard-response","302","339032","0.0-277.0","5d4254db5b2c430001418a3c","665500ab8938657b03fbdba8","665793422dab1baf738a777c","707","stimuli/2111111.jpg","1","","prediction_trial","1","","true","","2","false","false","false","false","false","false","[2,0,1]","111","111","1","","","","","","",""
"","","","","","image-keyboard-response","303","339297","0.0-278.0","5d4254db5b2c430001418a3c","665500ab8938657b03fbdba8","665793422dab1baf738a777c","264","stimuli/21111111.jpg"," ","","feedback_trial","2","","","","","","","","","","","","","","","","","","","","",""
"","","","","","image-keyboard-response","304","340555","0.0-279.0","5d4254db5b2c430001418a3c","665500ab8938657b03fbdba8","665793422dab1baf738a777c","1249","stimuli/2011111.jpg","1","","prediction_trial","2","","false","","2","false","false","false","false","false","false","[2,1]","011","111","0","","","","","","",""
"","","","","","image-keyboard-response","305","340877","0.0-280.0","5d4254db5b2c430001418a3c","665500ab8938657b03fbdba8","665793422dab1baf738a777c","320","stimuli/20111112.jpg"," ","","feedback_trial","2","","","","","","","","","","","","","","","","","","","","",""
"","","","","","image-keyboard-response","306","341586","0.0-281.0","5d4254db5b2c430001418a3c","665500ab8938657b03fbdba8","665793422dab1baf738a777c","708","stimuli/0100100.jpg","0","","prediction_trial","0","","true","","0","false","true","false","true","false","true","[0]","100","100","1","","","","","","",""
"","","","","","image-keyboard-response","307","341862","0.0-282.0","5d4254db5b2c430001418a3c","665500ab8938657b03fbdba8","665793422dab1baf738a777c","274","stimuli/01001000.jpg"," ","","feedback_trial","0","","","","","","","","","","","","","","","","","","","","",""
"","","","","","image-keyboard-response","308","342611","0.0-283.0","5d4254db5b2c430001418a3c","665500ab8938657b03fbdba8","665793422dab1baf738a777c","748","stimuli/1100110.jpg","0","","prediction_trial","1","","false","","1","false","false","true","true","false","false","[1]","100","110","0","","","","","","",""
"","","","","","image-keyboard-response","309","343149","0.0-284.0","5d4254db5b2c430001418a3c","665500ab8938657b03fbdba8","665793422dab1baf738a777c","537","stimuli/11001101.jpg"," ","","feedback_trial","1","","","","","","","","","","","","","","","","","","","","",""
"","","","","","image-keyboard-response","310","343779","0.0-285.0","5d4254db5b2c430001418a3c","665500ab8938657b03fbdba8","665793422dab1baf738a777c","628","stimuli/1111100.jpg","1","","prediction_trial","0","","false","","1","true","true","false","false","false","false","[1,0,2]","111","100","0","","","","","","",""
"","","","","","image-keyboard-response","311","345141","0.0-286.0","5d4254db5b2c430001418a3c","665500ab8938657b03fbdba8","665793422dab1baf738a777c","1361","stimuli/11111000.jpg"," ","","feedback_trial","1","","","","","","","","","","","","","","","","","","","","",""
"","","","","","image-keyboard-response","312","345698","0.0-287.0","5d4254db5b2c430001418a3c","665500ab8938657b03fbdba8","665793422dab1baf738a777c","556","stimuli/0111111.jpg","1","","prediction_trial","1","","true","","0","false","false","false","false","false","false","[1,2,0]","111","111","1","","","","","","",""
"","","","","","image-keyboard-response","313","346065","0.0-288.0","5d4254db5b2c430001418a3c","665500ab8938657b03fbdba8","665793422dab1baf738a777c","367","stimuli/01111111.jpg"," ","","feedback_trial","1","","","","","","","","","","","","","","","","","","","","",""
"","","","","","image-keyboard-response","314","346630","0.0-289.0","5d4254db5b2c430001418a3c","665500ab8938657b03fbdba8","665793422dab1baf738a777c","563","stimuli/0111011.jpg","0","","prediction_trial","0","","true","","0","true","true","false","false","false","false","[1,0,2]","111","011","1","","","","","","",""
"","","","","","image-keyboard-response","315","346974","0.0-290.0","5d4254db5b2c430001418a3c","665500ab8938657b03fbdba8","665793422dab1baf738a777c","342","stimuli/01110110.jpg"," ","","feedback_trial","1","","","","","","","","","","","","","","","","","","","","",""
"","","","","","image-keyboard-response","316","347776","0.0-291.0","5d4254db5b2c430001418a3c","665500ab8938657b03fbdba8","665793422dab1baf738a777c","801","stimuli/1101001.jpg","1","","prediction_trial","1","","true","","1","true","true","true","true","true","true","[1]","101","001","1","","","","","","",""
"","","","","","image-keyboard-response","317","348192","0.0-292.0","5d4254db5b2c430001418a3c","665500ab8938657b03fbdba8","665793422dab1baf738a777c","415","stimuli/11010011.jpg"," ","","feedback_trial","1","","","","","","","","","","","","","","","","","","","","",""
"","","","","","survey-html-form","318","369492","0.0-293.0","5d4254db5b2c430001418a3c","665500ab8938657b03fbdba8","665793422dab1baf738a777c","21297","","{""feedback"":""If same could see the ball or not."",""age"":""41"",""gender"":""Female"",""other_gender"":"""",""race"":""White"",""other_race"":"""",""ethnicity"":""Non-Hispanic""}","","exit_survey","","","","","","","","","","","","","","","","If same could see the ball or not.","41","Non-Hispanic","Female","White","0.5763888888888888","0.5763888888888888"
