"success","timeout","failed_images","failed_audio","failed_video","trial_type","trial_index","time_elapsed","internal_node_id","prolific_id","prolific_study_id","prolific_session_id","rt","stimulus","response","view_history","trial","character_choice","stimulus_dict","accuracy","correct_response","ball_pos","ego_ball_visible","ego_can_infer","alter_ball_visible","alter_can_infer","collective_ball_visible","collective_can_infer","search_locations","alter_occluders","ego_occluders","accuracy_bool","feedback","age","ethnicity","gender","race","overall_accuracy","bonus"
"true","false","[]","[]","[]","preload","0","3424","0.0-0.0","60ff6ef6dc8f29d5774ef2fc","665500ab8938657b03fbdba8","66577fabfcc730c6d46e1400","","","","","","","","","","","","","","","","","","","","","","","","","","",""
"true","","","","","fullscreen","1","6006","0.0-1.0","60ff6ef6dc8f29d5774ef2fc","665500ab8938657b03fbdba8","66577fabfcc730c6d46e1400","","","","","","","","","","","","","","","","","","","","","","","","","","",""
"","","","","","html-button-response","2","8866","0.0-2.0","60ff6ef6dc8f29d5774ef2fc","665500ab8938657b03fbdba8","66577fabfcc730c6d46e1400","2859","<p><b>Consent Form</b></p> <div style=""text-align:left;background-color:lightgrey; padding:20px; max-width:900px;""><p>Please consider this information carefully before deciding whether to participate in this research.</p> <p>The purpose of this research is to examine which factors influence social judgment and decision-making. You will be asked to make judgements about individuals and actions in social scenarios. We are simply interested in your judgement. The study will take less than 1 hour to complete, and you will receive less than $20 on Prolific. Your compensation and time commitment are specified in the study description. There are no anticipated risks associated with participating in this study. The effects of participating should be comparable to those you would ordinarily experience from viewing a computer monitor and using a mouse or keyboard for a similar amount of time. At the end of the study, we will provide an explanation of the questions that motivate this line of research and will describe the potential implications. </p><p> Your participation in this study is completely voluntary and you may refuse to participate or you may choose to withdraw at any time without penalty or loss of benefits to you which are otherwise entitled. Your participation in this study will remain confidential. No personally identifiable information will be associated with your data. Also, all analyses of the data will be averaged across all the participants, so your individual responses will never be specifically analyzed. </p><p> If you have questions or concerns about your participation or payment, or want to request a summary of research findings, please contact Dr. Jonathan Phillips at Jonathan.S.Phillips@dartmouth.edu. </p><p> Please save a copy of this form for your records. </p><p><b>Agreement: </b>The nature and purpose of this research have been sufficiently explained and I agree to participate in this study. I understand that I am free to withdraw at any time without incurring any penalty. Please consent by clicking the button below to continue. Otherwise, please exit the study at any time. </p>","0","","","","","","","","","","","","","","","","","","","","","","","",""
"","","","","","instructions","3","55750","0.0-3.0-0.0","60ff6ef6dc8f29d5774ef2fc","665500ab8938657b03fbdba8","66577fabfcc730c6d46e1400","46884","","","[{""page_index"":0,""viewing_time"":1730},{""page_index"":1,""viewing_time"":2379},{""page_index"":2,""viewing_time"":1941},{""page_index"":3,""viewing_time"":4655},{""page_index"":4,""viewing_time"":2420},{""page_index"":5,""viewing_time"":1786},{""page_index"":6,""viewing_time"":4254},{""page_index"":7,""viewing_time"":2316},{""page_index"":8,""viewing_time"":2204},{""page_index"":9,""viewing_time"":2269},{""page_index"":10,""viewing_time"":9421},{""page_index"":11,""viewing_time"":6365},{""page_index"":12,""viewing_time"":4036},{""page_index"":13,""viewing_time"":1106}]","intro","","","","","","","","","","","","","","","","","","","","","",""
"","","","","","image-keyboard-response","4","58082","0.0-3.0-1.0","60ff6ef6dc8f29d5774ef2fc","665500ab8938657b03fbdba8","66577fabfcc730c6d46e1400","2329","stimuli/2111001.jpg","2","","prediction_practice","1","{""filepath"":""stimuli/2111001.jpg"",""ball_pos"":2,""ego_ball_visible"":false,""ego_can_infer"":true,""alter_ball_visible"":false,""alter_can_infer"":false,""collective_ball_visible"":false,""collective_can_infer"":false,""search_locations"":[1,2,0],""alter_occluders"":""111"",""ego_occluders"":""001""}","false","","","","","","","","","","","","","","","","","","",""
"","","","","","image-keyboard-response","5","61329","0.0-3.0-2.0","60ff6ef6dc8f29d5774ef2fc","665500ab8938657b03fbdba8","66577fabfcc730c6d46e1400","3245","stimuli/21110011.jpg"," ","","practrice_feedback","1","","","","","","","","","","","","","","","","","","","","",""
"","","","","","image-keyboard-response","6","64697","0.0-3.0-3.0","60ff6ef6dc8f29d5774ef2fc","665500ab8938657b03fbdba8","66577fabfcc730c6d46e1400","3367","stimuli/0000001.jpg","0","","prediction_practice","0","{""filepath"":""stimuli/0000001.jpg"",""ball_pos"":0,""ego_ball_visible"":true,""ego_can_infer"":true,""alter_ball_visible"":true,""alter_can_infer"":true,""collective_ball_visible"":true,""collective_can_infer"":true,""search_locations"":[0],""alter_occluders"":""000"",""ego_occluders"":""001""}","true","","","","","","","","","","","","","","","","","","",""
"","","","","","image-keyboard-response","7","66541","0.0-3.0-4.0","60ff6ef6dc8f29d5774ef2fc","665500ab8938657b03fbdba8","66577fabfcc730c6d46e1400","1841","stimuli/00000010.jpg"," ","","practrice_feedback","0","","","","","","","","","","","","","","","","","","","","",""
"","","","","","image-keyboard-response","8","67593","0.0-3.0-5.0","60ff6ef6dc8f29d5774ef2fc","665500ab8938657b03fbdba8","66577fabfcc730c6d46e1400","1050","stimuli/1100000.jpg","1","","prediction_practice","1","{""filepath"":""stimuli/1100000.jpg"",""ball_pos"":1,""ego_ball_visible"":true,""ego_can_infer"":true,""alter_ball_visible"":true,""alter_can_infer"":true,""collective_ball_visible"":true,""collective_can_infer"":true,""search_locations"":[1],""alter_occluders"":""100"",""ego_occluders"":""000""}","true","","","","","","","","","","","","","","","","","","",""
"","","","","","image-keyboard-response","9","68569","0.0-3.0-6.0","60ff6ef6dc8f29d5774ef2fc","665500ab8938657b03fbdba8","66577fabfcc730c6d46e1400","974","stimuli/11000001.jpg"," ","","practrice_feedback","1","","","","","","","","","","","","","","","","","","","","",""
"","","","","","image-keyboard-response","10","69465","0.0-3.0-7.0","60ff6ef6dc8f29d5774ef2fc","665500ab8938657b03fbdba8","66577fabfcc730c6d46e1400","895","stimuli/0001010.jpg","0","","prediction_practice","0","{""filepath"":""stimuli/0001010.jpg"",""ball_pos"":0,""ego_ball_visible"":true,""ego_can_infer"":true,""alter_ball_visible"":true,""alter_can_infer"":true,""collective_ball_visible"":true,""collective_can_infer"":true,""search_locations"":[0],""alter_occluders"":""001"",""ego_occluders"":""010""}","true","","","","","","","","","","","","","","","","","","",""
"","","","","","image-keyboard-response","11","70529","0.0-3.0-8.0","60ff6ef6dc8f29d5774ef2fc","665500ab8938657b03fbdba8","66577fabfcc730c6d46e1400","1062","stimuli/00010100.jpg"," ","","practrice_feedback","0","","","","","","","","","","","","","","","","","","","","",""
"","","","","","image-keyboard-response","12","73522","0.0-3.0-9.0","60ff6ef6dc8f29d5774ef2fc","665500ab8938657b03fbdba8","66577fabfcc730c6d46e1400","2992","stimuli/0000101.jpg","2","","prediction_practice","0","{""filepath"":""stimuli/0000101.jpg"",""ball_pos"":0,""ego_ball_visible"":false,""ego_can_infer"":false,""alter_ball_visible"":true,""alter_can_infer"":true,""collective_ball_visible"":false,""collective_can_infer"":false,""search_locations"":[0],""alter_occluders"":""000"",""ego_occluders"":""101""}","false","","","","","","","","","","","","","","","","","","",""
"","","","","","image-keyboard-response","13","76750","0.0-3.0-10.0","60ff6ef6dc8f29d5774ef2fc","665500ab8938657b03fbdba8","66577fabfcc730c6d46e1400","3226","stimuli/00001010.jpg"," ","","practrice_feedback","0","","","","","","","","","","","","","","","","","","","","",""
"","","","","","image-keyboard-response","14","80495","0.0-3.0-11.0","60ff6ef6dc8f29d5774ef2fc","665500ab8938657b03fbdba8","66577fabfcc730c6d46e1400","3744","stimuli/2101100.jpg","2","","prediction_practice","0","{""filepath"":""stimuli/2101100.jpg"",""ball_pos"":2,""ego_ball_visible"":true,""ego_can_infer"":true,""alter_ball_visible"":false,""alter_can_infer"":false,""collective_ball_visible"":false,""collective_can_infer"":false,""search_locations"":[2,0],""alter_occluders"":""101"",""ego_occluders"":""100""}","false","","","","","","","","","","","","","","","","","","",""
"","","","","","image-keyboard-response","15","81596","0.0-3.0-12.0","60ff6ef6dc8f29d5774ef2fc","665500ab8938657b03fbdba8","66577fabfcc730c6d46e1400","1099","stimuli/21011000.jpg"," ","","practrice_feedback","2","","","","","","","","","","","","","","","","","","","","",""
"","","","","","image-keyboard-response","16","82746","0.0-3.0-13.0","60ff6ef6dc8f29d5774ef2fc","665500ab8938657b03fbdba8","66577fabfcc730c6d46e1400","1148","stimuli/2110010.jpg","2","","prediction_practice","2","{""filepath"":""stimuli/2110010.jpg"",""ball_pos"":2,""ego_ball_visible"":true,""ego_can_infer"":true,""alter_ball_visible"":true,""alter_can_infer"":true,""collective_ball_visible"":true,""collective_can_infer"":true,""search_locations"":[2],""alter_occluders"":""110"",""ego_occluders"":""010""}","true","","","","","","","","","","","","","","","","","","",""
"","","","","","image-keyboard-response","17","83563","0.0-3.0-14.0","60ff6ef6dc8f29d5774ef2fc","665500ab8938657b03fbdba8","66577fabfcc730c6d46e1400","815","stimuli/21100102.jpg"," ","","practrice_feedback","2","","","","","","","","","","","","","","","","","","","","",""
"","","","","","image-keyboard-response","18","84281","0.0-3.0-15.0","60ff6ef6dc8f29d5774ef2fc","665500ab8938657b03fbdba8","66577fabfcc730c6d46e1400","717","stimuli/2000000.jpg","2","","prediction_practice","2","{""filepath"":""stimuli/2000000.jpg"",""ball_pos"":2,""ego_ball_visible"":true,""ego_can_infer"":true,""alter_ball_visible"":true,""alter_can_infer"":true,""collective_ball_visible"":true,""collective_can_infer"":true,""search_locations"":[2],""alter_occluders"":""000"",""ego_occluders"":""000""}","true","","","","","","","","","","","","","","","","","","",""
"","","","","","image-keyboard-response","19","84994","0.0-3.0-16.0","60ff6ef6dc8f29d5774ef2fc","665500ab8938657b03fbdba8","66577fabfcc730c6d46e1400","712","stimuli/20000002.jpg"," ","","practrice_feedback","2","","","","","","","","","","","","","","","","","","","","",""
"","","","","","image-keyboard-response","20","86472","0.0-3.0-17.0","60ff6ef6dc8f29d5774ef2fc","665500ab8938657b03fbdba8","66577fabfcc730c6d46e1400","1475","stimuli/1101000.jpg","1","","prediction_practice","1","{""filepath"":""stimuli/1101000.jpg"",""ball_pos"":1,""ego_ball_visible"":true,""ego_can_infer"":true,""alter_ball_visible"":true,""alter_can_infer"":true,""collective_ball_visible"":true,""collective_can_infer"":true,""search_locations"":[1],""alter_occluders"":""101"",""ego_occluders"":""000""}","true","","","","","","","","","","","","","","","","","","",""
"","","","","","image-keyboard-response","21","87053","0.0-3.0-18.0","60ff6ef6dc8f29d5774ef2fc","665500ab8938657b03fbdba8","66577fabfcc730c6d46e1400","580","stimuli/11010001.jpg"," ","","practrice_feedback","1","","","","","","","","","","","","","","","","","","","","",""
"","","","","","image-keyboard-response","22","88711","0.0-3.0-19.0","60ff6ef6dc8f29d5774ef2fc","665500ab8938657b03fbdba8","66577fabfcc730c6d46e1400","1656","stimuli/1010110.jpg","0","","prediction_practice","1","{""filepath"":""stimuli/1010110.jpg"",""ball_pos"":1,""ego_ball_visible"":false,""ego_can_infer"":false,""alter_ball_visible"":false,""alter_can_infer"":true,""collective_ball_visible"":false,""collective_can_infer"":false,""search_locations"":[1],""alter_occluders"":""010"",""ego_occluders"":""110""}","false","","","","","","","","","","","","","","","","","","",""
"","","","","","image-keyboard-response","23","89533","0.0-3.0-20.0","60ff6ef6dc8f29d5774ef2fc","665500ab8938657b03fbdba8","66577fabfcc730c6d46e1400","819","stimuli/10101101.jpg"," ","","practrice_feedback","1","","","","","","","","","","","","","","","","","","","","",""
"","","","","","html-button-response","24","93484","0.0-3.0-21.0","60ff6ef6dc8f29d5774ef2fc","665500ab8938657b03fbdba8","66577fabfcc730c6d46e1400","3950","Now that you've had some practice, you'll be tested with a couple of easy trials. If you correctly predict Sam's choice, you'll move on to complete the experiment!","0","","","","","","","","","","","","","","","","","","","","","","","",""
"","","","","","image-keyboard-response","25","94682","0.0-3.0-22.0-0.0","60ff6ef6dc8f29d5774ef2fc","665500ab8938657b03fbdba8","66577fabfcc730c6d46e1400","1197","stimuli/0000011.jpg","arrowleft","","comprehension_quiz","","","true","arrowleft","","","","","","","","","","","","","","","","","",""
"","","","","","image-keyboard-response","26","95357","0.0-3.0-22.0-1.0","60ff6ef6dc8f29d5774ef2fc","665500ab8938657b03fbdba8","66577fabfcc730c6d46e1400","672","stimuli/00000110.jpg"," ","","comprehension_quiz","","","true"," ","","","","","","","","","","","","","","","","","",""
"","","","","","image-keyboard-response","27","97325","0.0-3.0-22.0-2.0","60ff6ef6dc8f29d5774ef2fc","665500ab8938657b03fbdba8","66577fabfcc730c6d46e1400","1966","stimuli/1010010.jpg","arrowdown","","comprehension_quiz","","","true","arrowdown","","","","","","","","","","","","","","","","","",""
"","","","","","image-keyboard-response","28","98089","0.0-3.0-22.0-3.0","60ff6ef6dc8f29d5774ef2fc","665500ab8938657b03fbdba8","66577fabfcc730c6d46e1400","761","stimuli/10100101.jpg"," ","","comprehension_quiz","","","true"," ","","","","","","","","","","","","","","","","","",""
"","","","","","html-button-response","29","100315","0.0-4.0","60ff6ef6dc8f29d5774ef2fc","665500ab8938657b03fbdba8","66577fabfcc730c6d46e1400","2223","The experiment will now begin.","0","","","","","","","","","","","","","","","","","","","","","","","",""
"","","","","","image-keyboard-response","30","104603","0.0-5.0","60ff6ef6dc8f29d5774ef2fc","665500ab8938657b03fbdba8","66577fabfcc730c6d46e1400","4286","stimuli/2111010.jpg","2","","prediction_trial","0","","false","","2","true","true","false","false","false","false","[2,1,0]","111","010","0","","","","","","",""
"","","","","","image-keyboard-response","31","105546","0.0-6.0","60ff6ef6dc8f29d5774ef2fc","665500ab8938657b03fbdba8","66577fabfcc730c6d46e1400","940","stimuli/21110100.jpg"," ","","feedback_trial","2","","","","","","","","","","","","","","","","","","","","",""
"","","","","","image-keyboard-response","32","106473","0.0-7.0","60ff6ef6dc8f29d5774ef2fc","665500ab8938657b03fbdba8","66577fabfcc730c6d46e1400","925","stimuli/0001011.jpg","0","","prediction_trial","0","","true","","0","true","true","true","true","true","true","[0]","001","011","1","","","","","","",""
"","","","","","image-keyboard-response","33","107034","0.0-8.0","60ff6ef6dc8f29d5774ef2fc","665500ab8938657b03fbdba8","66577fabfcc730c6d46e1400","559","stimuli/00010110.jpg"," ","","feedback_trial","0","","","","","","","","","","","","","","","","","","","","",""
"","","","","","image-keyboard-response","34","107847","0.0-9.0","60ff6ef6dc8f29d5774ef2fc","665500ab8938657b03fbdba8","66577fabfcc730c6d46e1400","812","stimuli/1100001.jpg","1","","prediction_trial","1","","true","","1","true","true","true","true","true","true","[1]","100","001","1","","","","","","",""
"","","","","","image-keyboard-response","35","108260","0.0-10.0","60ff6ef6dc8f29d5774ef2fc","665500ab8938657b03fbdba8","66577fabfcc730c6d46e1400","412","stimuli/11000011.jpg"," ","","feedback_trial","1","","","","","","","","","","","","","","","","","","","","",""
"","","","","","image-keyboard-response","36","110435","0.0-11.0","60ff6ef6dc8f29d5774ef2fc","665500ab8938657b03fbdba8","66577fabfcc730c6d46e1400","2174","stimuli/0100001.jpg","0","","prediction_trial","0","","true","","0","true","true","false","true","false","true","[0]","100","001","1","","","","","","",""
"","","","","","image-keyboard-response","37","111136","0.0-12.0","60ff6ef6dc8f29d5774ef2fc","665500ab8938657b03fbdba8","66577fabfcc730c6d46e1400","701","stimuli/01000010.jpg"," ","","feedback_trial","0","","","","","","","","","","","","","","","","","","","","",""
"","","","","","image-keyboard-response","38","113873","0.0-13.0","60ff6ef6dc8f29d5774ef2fc","665500ab8938657b03fbdba8","66577fabfcc730c6d46e1400","2734","stimuli/1001010.jpg","1","","prediction_trial","1","","true","","1","false","true","true","true","false","true","[1]","001","010","1","","","","","","",""
"","","","","","image-keyboard-response","39","114430","0.0-14.0","60ff6ef6dc8f29d5774ef2fc","665500ab8938657b03fbdba8","66577fabfcc730c6d46e1400","555","stimuli/10010101.jpg"," ","","feedback_trial","1","","","","","","","","","","","","","","","","","","","","",""
"","","","","","image-keyboard-response","40","116135","0.0-15.0","60ff6ef6dc8f29d5774ef2fc","665500ab8938657b03fbdba8","66577fabfcc730c6d46e1400","1703","stimuli/0100100.jpg","0","","prediction_trial","0","","true","","0","false","true","false","true","false","true","[0]","100","100","1","","","","","","",""
"","","","","","image-keyboard-response","41","116557","0.0-16.0","60ff6ef6dc8f29d5774ef2fc","665500ab8938657b03fbdba8","66577fabfcc730c6d46e1400","422","stimuli/01001000.jpg"," ","","feedback_trial","0","","","","","","","","","","","","","","","","","","","","",""
"","","","","","image-keyboard-response","42","117138","0.0-17.0","60ff6ef6dc8f29d5774ef2fc","665500ab8938657b03fbdba8","66577fabfcc730c6d46e1400","579","stimuli/0000000.jpg","0","","prediction_trial","0","","true","","0","true","true","true","true","true","true","[0]","000","000","1","","","","","","",""
"","","","","","image-keyboard-response","43","117533","0.0-18.0","60ff6ef6dc8f29d5774ef2fc","665500ab8938657b03fbdba8","66577fabfcc730c6d46e1400","395","stimuli/00000000.jpg"," ","","feedback_trial","0","","","","","","","","","","","","","","","","","","","","",""
"","","","","","image-keyboard-response","44","119177","0.0-19.0","60ff6ef6dc8f29d5774ef2fc","665500ab8938657b03fbdba8","66577fabfcc730c6d46e1400","1642","stimuli/1000011.jpg","2","","prediction_trial","1","","false","","1","false","false","true","true","false","false","[1]","000","011","0","","","","","","",""
"","","","","","image-keyboard-response","45","119855","0.0-20.0","60ff6ef6dc8f29d5774ef2fc","665500ab8938657b03fbdba8","66577fabfcc730c6d46e1400","676","stimuli/10000111.jpg"," ","","feedback_trial","1","","","","","","","","","","","","","","","","","","","","",""
"","","","","","image-keyboard-response","46","121604","0.0-21.0","60ff6ef6dc8f29d5774ef2fc","665500ab8938657b03fbdba8","66577fabfcc730c6d46e1400","1747","stimuli/0101101.jpg","0","","prediction_trial","2","","false","","0","false","false","false","false","false","false","[2,0]","101","101","0","","","","","","",""
"","","","","","image-keyboard-response","47","122324","0.0-22.0","60ff6ef6dc8f29d5774ef2fc","665500ab8938657b03fbdba8","66577fabfcc730c6d46e1400","719","stimuli/01011012.jpg"," ","","feedback_trial","2","","","","","","","","","","","","","","","","","","","","",""
"","","","","","image-keyboard-response","48","124557","0.0-23.0","60ff6ef6dc8f29d5774ef2fc","665500ab8938657b03fbdba8","66577fabfcc730c6d46e1400","2232","stimuli/0110010.jpg","1","","prediction_trial","1","","true","","0","true","true","false","false","false","false","[1,0]","110","010","1","","","","","","",""
"","","","","","image-keyboard-response","49","125327","0.0-24.0","60ff6ef6dc8f29d5774ef2fc","665500ab8938657b03fbdba8","66577fabfcc730c6d46e1400","769","stimuli/01100101.jpg"," ","","feedback_trial","1","","","","","","","","","","","","","","","","","","","","",""
"","","","","","image-keyboard-response","50","127069","0.0-25.0","60ff6ef6dc8f29d5774ef2fc","665500ab8938657b03fbdba8","66577fabfcc730c6d46e1400","1740","stimuli/2111000.jpg","1","","prediction_trial","1","","true","","2","true","true","false","false","false","false","[1,0,2]","111","000","1","","","","","","",""
"","","","","","image-keyboard-response","51","127851","0.0-26.0","60ff6ef6dc8f29d5774ef2fc","665500ab8938657b03fbdba8","66577fabfcc730c6d46e1400","780","stimuli/21110001.jpg"," ","","feedback_trial","1","","","","","","","","","","","","","","","","","","","","",""
"","","","","","image-keyboard-response","52","130439","0.0-27.0","60ff6ef6dc8f29d5774ef2fc","665500ab8938657b03fbdba8","66577fabfcc730c6d46e1400","2586","stimuli/0011001.jpg","0","","prediction_trial","0","","true","","0","true","true","true","true","true","true","[0]","011","001","1","","","","","","",""
"","","","","","image-keyboard-response","53","130905","0.0-28.0","60ff6ef6dc8f29d5774ef2fc","665500ab8938657b03fbdba8","66577fabfcc730c6d46e1400","464","stimuli/00110010.jpg"," ","","feedback_trial","0","","","","","","","","","","","","","","","","","","","","",""
"","","","","","image-keyboard-response","54","131884","0.0-29.0","60ff6ef6dc8f29d5774ef2fc","665500ab8938657b03fbdba8","66577fabfcc730c6d46e1400","978","stimuli/0100000.jpg","1","","prediction_trial","0","","false","","0","true","true","false","true","false","true","[0]","100","000","0","","","","","","",""
"","","","","","image-keyboard-response","55","133124","0.0-30.0","60ff6ef6dc8f29d5774ef2fc","665500ab8938657b03fbdba8","66577fabfcc730c6d46e1400","1238","stimuli/01000000.jpg"," ","","feedback_trial","0","","","","","","","","","","","","","","","","","","","","",""
"","","","","","image-keyboard-response","56","134598","0.0-31.0","60ff6ef6dc8f29d5774ef2fc","665500ab8938657b03fbdba8","66577fabfcc730c6d46e1400","1473","stimuli/0111011.jpg","1","","prediction_trial","2","","false","","0","true","true","false","false","false","false","[1,2,0]","111","011","0","","","","","","",""
"","","","","","image-keyboard-response","57","135260","0.0-32.0","60ff6ef6dc8f29d5774ef2fc","665500ab8938657b03fbdba8","66577fabfcc730c6d46e1400","660","stimuli/01110112.jpg"," ","","feedback_trial","1","","","","","","","","","","","","","","","","","","","","",""
"","","","","","image-keyboard-response","58","137495","0.0-33.0","60ff6ef6dc8f29d5774ef2fc","665500ab8938657b03fbdba8","66577fabfcc730c6d46e1400","2233","stimuli/1101110.jpg","0","","prediction_trial","1","","false","","1","false","false","true","true","false","false","[1]","101","110","0","","","","","","",""
"","","","","","image-keyboard-response","59","138315","0.0-34.0","60ff6ef6dc8f29d5774ef2fc","665500ab8938657b03fbdba8","66577fabfcc730c6d46e1400","819","stimuli/11011101.jpg"," ","","feedback_trial","1","","","","","","","","","","","","","","","","","","","","",""
"","","","","","image-keyboard-response","60","140519","0.0-35.0","60ff6ef6dc8f29d5774ef2fc","665500ab8938657b03fbdba8","66577fabfcc730c6d46e1400","2202","stimuli/0001100.jpg","0","","prediction_trial","0","","true","","0","false","true","true","true","false","true","[0]","001","100","1","","","","","","",""
"","","","","","image-keyboard-response","61","140959","0.0-36.0","60ff6ef6dc8f29d5774ef2fc","665500ab8938657b03fbdba8","66577fabfcc730c6d46e1400","438","stimuli/00011000.jpg"," ","","feedback_trial","0","","","","","","","","","","","","","","","","","","","","",""
"","","","","","image-keyboard-response","62","141835","0.0-37.0","60ff6ef6dc8f29d5774ef2fc","665500ab8938657b03fbdba8","66577fabfcc730c6d46e1400","874","stimuli/0000101.jpg","2","","prediction_trial","0","","false","","0","false","false","true","true","false","false","[0]","000","101","0","","","","","","",""
"","","","","","image-keyboard-response","63","142357","0.0-38.0","60ff6ef6dc8f29d5774ef2fc","665500ab8938657b03fbdba8","66577fabfcc730c6d46e1400","520","stimuli/00001010.jpg"," ","","feedback_trial","0","","","","","","","","","","","","","","","","","","","","",""
"","","","","","image-keyboard-response","64","142938","0.0-39.0","60ff6ef6dc8f29d5774ef2fc","665500ab8938657b03fbdba8","66577fabfcc730c6d46e1400","580","stimuli/0010000.jpg","0","","prediction_trial","0","","true","","0","true","true","true","true","true","true","[0]","010","000","1","","","","","","",""
"","","","","","image-keyboard-response","65","143308","0.0-40.0","60ff6ef6dc8f29d5774ef2fc","665500ab8938657b03fbdba8","66577fabfcc730c6d46e1400","368","stimuli/00100000.jpg"," ","","feedback_trial","0","","","","","","","","","","","","","","","","","","","","",""
"","","","","","image-keyboard-response","66","144057","0.0-41.0","60ff6ef6dc8f29d5774ef2fc","665500ab8938657b03fbdba8","66577fabfcc730c6d46e1400","748","stimuli/1101101.jpg","1","","prediction_trial","1","","true","","1","true","true","true","true","true","true","[1]","101","101","1","","","","","","",""
"","","","","","image-keyboard-response","67","144440","0.0-42.0","60ff6ef6dc8f29d5774ef2fc","665500ab8938657b03fbdba8","66577fabfcc730c6d46e1400","382","stimuli/11011011.jpg"," ","","feedback_trial","1","","","","","","","","","","","","","","","","","","","","",""
"","","","","","image-keyboard-response","68","145017","0.0-43.0","60ff6ef6dc8f29d5774ef2fc","665500ab8938657b03fbdba8","66577fabfcc730c6d46e1400","576","stimuli/2010100.jpg","2","","prediction_trial","2","","true","","2","true","true","true","true","true","true","[2]","010","100","1","","","","","","",""
"","","","","","image-keyboard-response","69","145409","0.0-44.0","60ff6ef6dc8f29d5774ef2fc","665500ab8938657b03fbdba8","66577fabfcc730c6d46e1400","391","stimuli/20101002.jpg"," ","","feedback_trial","2","","","","","","","","","","","","","","","","","","","","",""
"","","","","","image-keyboard-response","70","147113","0.0-45.0","60ff6ef6dc8f29d5774ef2fc","665500ab8938657b03fbdba8","66577fabfcc730c6d46e1400","1703","stimuli/1111000.jpg","2","","prediction_trial","2","","true","","1","true","true","false","false","false","false","[1,2,0]","111","000","1","","","","","","",""
"","","","","","image-keyboard-response","71","147886","0.0-46.0","60ff6ef6dc8f29d5774ef2fc","665500ab8938657b03fbdba8","66577fabfcc730c6d46e1400","771","stimuli/11110002.jpg"," ","","feedback_trial","1","","","","","","","","","","","","","","","","","","","","",""
"","","","","","image-keyboard-response","72","149876","0.0-47.0","60ff6ef6dc8f29d5774ef2fc","665500ab8938657b03fbdba8","66577fabfcc730c6d46e1400","1989","stimuli/0001101.jpg","0","","prediction_trial","0","","true","","0","false","false","true","true","false","false","[0]","001","101","1","","","","","","",""
"","","","","","image-keyboard-response","73","150790","0.0-48.0","60ff6ef6dc8f29d5774ef2fc","665500ab8938657b03fbdba8","66577fabfcc730c6d46e1400","912","stimuli/00011010.jpg"," ","","feedback_trial","0","","","","","","","","","","","","","","","","","","","","",""
"","","","","","image-keyboard-response","74","152242","0.0-49.0","60ff6ef6dc8f29d5774ef2fc","665500ab8938657b03fbdba8","66577fabfcc730c6d46e1400","1451","stimuli/1011110.jpg","0","","prediction_trial","2","","false","","1","false","false","false","false","false","false","[2,1]","011","110","0","","","","","","",""
"","","","","","image-keyboard-response","75","152814","0.0-50.0","60ff6ef6dc8f29d5774ef2fc","665500ab8938657b03fbdba8","66577fabfcc730c6d46e1400","569","stimuli/10111102.jpg"," ","","feedback_trial","2","","","","","","","","","","","","","","","","","","","","",""
"","","","","","image-keyboard-response","76","154704","0.0-51.0","60ff6ef6dc8f29d5774ef2fc","665500ab8938657b03fbdba8","66577fabfcc730c6d46e1400","1889","stimuli/0110101.jpg","2","","prediction_trial","0","","false","","0","false","false","false","false","false","false","[0,1]","110","101","0","","","","","","",""
"","","","","","image-keyboard-response","77","155449","0.0-52.0","60ff6ef6dc8f29d5774ef2fc","665500ab8938657b03fbdba8","66577fabfcc730c6d46e1400","743","stimuli/01101010.jpg"," ","","feedback_trial","0","","","","","","","","","","","","","","","","","","","","",""
"","","","","","image-keyboard-response","78","156056","0.0-53.0","60ff6ef6dc8f29d5774ef2fc","665500ab8938657b03fbdba8","66577fabfcc730c6d46e1400","606","stimuli/1001100.jpg","1","","prediction_trial","1","","true","","1","true","true","true","true","true","true","[1]","001","100","1","","","","","","",""
"","","","","","image-keyboard-response","79","156524","0.0-54.0","60ff6ef6dc8f29d5774ef2fc","665500ab8938657b03fbdba8","66577fabfcc730c6d46e1400","465","stimuli/10011001.jpg"," ","","feedback_trial","1","","","","","","","","","","","","","","","","","","","","",""
"","","","","","image-keyboard-response","80","158041","0.0-55.0","60ff6ef6dc8f29d5774ef2fc","665500ab8938657b03fbdba8","66577fabfcc730c6d46e1400","1516","stimuli/2110001.jpg","2","","prediction_trial","2","","true","","2","false","true","true","true","false","true","[2]","110","001","1","","","","","","",""
"","","","","","image-keyboard-response","81","158470","0.0-56.0","60ff6ef6dc8f29d5774ef2fc","665500ab8938657b03fbdba8","66577fabfcc730c6d46e1400","427","stimuli/21100012.jpg"," ","","feedback_trial","2","","","","","","","","","","","","","","","","","","","","",""
"","","","","","image-keyboard-response","82","159043","0.0-57.0","60ff6ef6dc8f29d5774ef2fc","665500ab8938657b03fbdba8","66577fabfcc730c6d46e1400","572","stimuli/2010010.jpg","2","","prediction_trial","2","","true","","2","true","true","true","true","true","true","[2]","010","010","1","","","","","","",""
"","","","","","image-keyboard-response","83","159416","0.0-58.0","60ff6ef6dc8f29d5774ef2fc","665500ab8938657b03fbdba8","66577fabfcc730c6d46e1400","371","stimuli/20100102.jpg"," ","","feedback_trial","2","","","","","","","","","","","","","","","","","","","","",""
"","","","","","image-keyboard-response","84","161032","0.0-59.0","60ff6ef6dc8f29d5774ef2fc","665500ab8938657b03fbdba8","66577fabfcc730c6d46e1400","1615","stimuli/1111110.jpg","1","","prediction_trial","0","","false","","1","false","false","false","false","false","false","[1,2,0]","111","110","0","","","","","","",""
"","","","","","image-keyboard-response","85","161566","0.0-60.0","60ff6ef6dc8f29d5774ef2fc","665500ab8938657b03fbdba8","66577fabfcc730c6d46e1400","533","stimuli/11111100.jpg"," ","","feedback_trial","1","","","","","","","","","","","","","","","","","","","","",""
"","","","","","image-keyboard-response","86","162770","0.0-61.0","60ff6ef6dc8f29d5774ef2fc","665500ab8938657b03fbdba8","66577fabfcc730c6d46e1400","1202","stimuli/1100010.jpg","1","","prediction_trial","1","","true","","1","false","true","true","true","false","true","[1]","100","010","1","","","","","","",""
"","","","","","image-keyboard-response","87","163173","0.0-62.0","60ff6ef6dc8f29d5774ef2fc","665500ab8938657b03fbdba8","66577fabfcc730c6d46e1400","401","stimuli/11000101.jpg"," ","","feedback_trial","1","","","","","","","","","","","","","","","","","","","","",""
"","","","","","image-keyboard-response","88","164342","0.0-63.0","60ff6ef6dc8f29d5774ef2fc","665500ab8938657b03fbdba8","66577fabfcc730c6d46e1400","1168","stimuli/0111110.jpg","1","","prediction_trial","0","","false","","0","false","false","false","false","false","false","[0,2,1]","111","110","0","","","","","","",""
"","","","","","image-keyboard-response","89","164832","0.0-64.0","60ff6ef6dc8f29d5774ef2fc","665500ab8938657b03fbdba8","66577fabfcc730c6d46e1400","488","stimuli/01111100.jpg"," ","","feedback_trial","0","","","","","","","","","","","","","","","","","","","","",""
"","","","","","image-keyboard-response","90","165418","0.0-65.0","60ff6ef6dc8f29d5774ef2fc","665500ab8938657b03fbdba8","66577fabfcc730c6d46e1400","585","stimuli/1000100.jpg","1","","prediction_trial","1","","true","","1","true","true","true","true","true","true","[1]","000","100","1","","","","","","",""
"","","","","","image-keyboard-response","91","165786","0.0-66.0","60ff6ef6dc8f29d5774ef2fc","665500ab8938657b03fbdba8","66577fabfcc730c6d46e1400","367","stimuli/10001001.jpg"," ","","feedback_trial","1","","","","","","","","","","","","","","","","","","","","",""
"","","","","","image-keyboard-response","92","166705","0.0-67.0","60ff6ef6dc8f29d5774ef2fc","665500ab8938657b03fbdba8","66577fabfcc730c6d46e1400","917","stimuli/2100011.jpg","2","","prediction_trial","2","","true","","2","false","false","true","true","false","false","[2]","100","011","1","","","","","","",""
"","","","","","image-keyboard-response","93","167293","0.0-68.0","60ff6ef6dc8f29d5774ef2fc","665500ab8938657b03fbdba8","66577fabfcc730c6d46e1400","587","stimuli/21000112.jpg"," ","","feedback_trial","2","","","","","","","","","","","","","","","","","","","","",""
"","","","","","image-keyboard-response","94","169266","0.0-69.0","60ff6ef6dc8f29d5774ef2fc","665500ab8938657b03fbdba8","66577fabfcc730c6d46e1400","1971","stimuli/0110001.jpg","1","","prediction_trial","0","","false","","0","true","true","false","false","false","false","[0,1]","110","001","0","","","","","","",""
"","","","","","image-keyboard-response","95","169764","0.0-70.0","60ff6ef6dc8f29d5774ef2fc","665500ab8938657b03fbdba8","66577fabfcc730c6d46e1400","496","stimuli/01100010.jpg"," ","","feedback_trial","0","","","","","","","","","","","","","","","","","","","","",""
"","","","","","image-keyboard-response","96","171587","0.0-71.0","60ff6ef6dc8f29d5774ef2fc","665500ab8938657b03fbdba8","66577fabfcc730c6d46e1400","1821","stimuli/0010111.jpg","2","","prediction_trial","0","","false","","0","false","false","true","true","false","false","[0]","010","111","0","","","","","","",""
"","","","","","image-keyboard-response","97","172143","0.0-72.0","60ff6ef6dc8f29d5774ef2fc","665500ab8938657b03fbdba8","66577fabfcc730c6d46e1400","555","stimuli/00101110.jpg"," ","","feedback_trial","0","","","","","","","","","","","","","","","","","","","","",""
"","","","","","image-keyboard-response","98","173550","0.0-73.0","60ff6ef6dc8f29d5774ef2fc","665500ab8938657b03fbdba8","66577fabfcc730c6d46e1400","1406","stimuli/1010010.jpg","1","","prediction_trial","1","","true","","1","false","true","false","true","false","true","[1]","010","010","1","","","","","","",""
"","","","","","image-keyboard-response","99","173963","0.0-74.0","60ff6ef6dc8f29d5774ef2fc","665500ab8938657b03fbdba8","66577fabfcc730c6d46e1400","411","stimuli/10100101.jpg"," ","","feedback_trial","1","","","","","","","","","","","","","","","","","","","","",""
"","","","","","image-keyboard-response","100","175414","0.0-75.0","60ff6ef6dc8f29d5774ef2fc","665500ab8938657b03fbdba8","66577fabfcc730c6d46e1400","1450","stimuli/1110111.jpg","2","","prediction_trial","0","","false","","1","false","false","false","false","false","false","[0,1]","110","111","0","","","","","","",""
"","","","","","image-keyboard-response","101","175862","0.0-76.0","60ff6ef6dc8f29d5774ef2fc","665500ab8938657b03fbdba8","66577fabfcc730c6d46e1400","446","stimuli/11101110.jpg"," ","","feedback_trial","0","","","","","","","","","","","","","","","","","","","","",""
"","","","","","image-keyboard-response","102","176757","0.0-77.0","60ff6ef6dc8f29d5774ef2fc","665500ab8938657b03fbdba8","66577fabfcc730c6d46e1400","895","stimuli/0111010.jpg","0","","prediction_trial","0","","true","","0","true","true","false","false","false","false","[1,0,2]","111","010","1","","","","","","",""
"","","","","","image-keyboard-response","103","177200","0.0-78.0","60ff6ef6dc8f29d5774ef2fc","665500ab8938657b03fbdba8","66577fabfcc730c6d46e1400","442","stimuli/01110100.jpg"," ","","feedback_trial","1","","","","","","","","","","","","","","","","","","","","",""
"","","","","","image-keyboard-response","104","178158","0.0-79.0","60ff6ef6dc8f29d5774ef2fc","665500ab8938657b03fbdba8","66577fabfcc730c6d46e1400","957","stimuli/0101110.jpg","1","","prediction_trial","0","","false","","0","false","false","false","false","false","false","[2,0]","101","110","0","","","","","","",""
"","","","","","image-keyboard-response","105","178634","0.0-80.0","60ff6ef6dc8f29d5774ef2fc","665500ab8938657b03fbdba8","66577fabfcc730c6d46e1400","474","stimuli/01011100.jpg"," ","","feedback_trial","2","","","","","","","","","","","","","","","","","","","","",""
"","","","","","image-keyboard-response","106","180255","0.0-81.0","60ff6ef6dc8f29d5774ef2fc","665500ab8938657b03fbdba8","66577fabfcc730c6d46e1400","1619","stimuli/0111100.jpg","0","","prediction_trial","1","","false","","0","false","true","false","false","false","false","[1,0,2]","111","100","0","","","","","","",""
"","","","","","image-keyboard-response","107","180905","0.0-82.0","60ff6ef6dc8f29d5774ef2fc","665500ab8938657b03fbdba8","66577fabfcc730c6d46e1400","648","stimuli/01111001.jpg"," ","","feedback_trial","1","","","","","","","","","","","","","","","","","","","","",""
"","","","","","image-keyboard-response","108","182837","0.0-83.0","60ff6ef6dc8f29d5774ef2fc","665500ab8938657b03fbdba8","66577fabfcc730c6d46e1400","1931","stimuli/0101011.jpg","2","","prediction_trial","0","","false","","0","true","true","false","false","false","false","[2,0]","101","011","0","","","","","","",""
"","","","","","image-keyboard-response","109","183360","0.0-84.0","60ff6ef6dc8f29d5774ef2fc","665500ab8938657b03fbdba8","66577fabfcc730c6d46e1400","522","stimuli/01010110.jpg"," ","","feedback_trial","2","","","","","","","","","","","","","","","","","","","","",""
"","","","","","image-keyboard-response","110","185081","0.0-85.0","60ff6ef6dc8f29d5774ef2fc","665500ab8938657b03fbdba8","66577fabfcc730c6d46e1400","1719","stimuli/1000110.jpg","1","","prediction_trial","1","","true","","1","false","false","true","true","false","false","[1]","000","110","1","","","","","","",""
"","","","","","image-keyboard-response","111","185714","0.0-86.0","60ff6ef6dc8f29d5774ef2fc","665500ab8938657b03fbdba8","66577fabfcc730c6d46e1400","630","stimuli/10001101.jpg"," ","","feedback_trial","1","","","","","","","","","","","","","","","","","","","","",""
"","","","","","image-keyboard-response","112","186312","0.0-87.0","60ff6ef6dc8f29d5774ef2fc","665500ab8938657b03fbdba8","66577fabfcc730c6d46e1400","596","stimuli/0001010.jpg","0","","prediction_trial","0","","true","","0","true","true","true","true","true","true","[0]","001","010","1","","","","","","",""
"","","","","","image-keyboard-response","113","186662","0.0-88.0","60ff6ef6dc8f29d5774ef2fc","665500ab8938657b03fbdba8","66577fabfcc730c6d46e1400","350","stimuli/00010100.jpg"," ","","feedback_trial","0","","","","","","","","","","","","","","","","","","","","",""
"","","","","","image-keyboard-response","114","187434","0.0-89.0","60ff6ef6dc8f29d5774ef2fc","665500ab8938657b03fbdba8","66577fabfcc730c6d46e1400","771","stimuli/0100101.jpg","2","","prediction_trial","0","","false","","0","false","false","false","true","false","false","[0]","100","101","0","","","","","","",""
"","","","","","image-keyboard-response","115","188363","0.0-90.0","60ff6ef6dc8f29d5774ef2fc","665500ab8938657b03fbdba8","66577fabfcc730c6d46e1400","926","stimuli/01001010.jpg"," ","","feedback_trial","0","","","","","","","","","","","","","","","","","","","","",""
"","","","","","image-keyboard-response","116","189768","0.0-91.0","60ff6ef6dc8f29d5774ef2fc","665500ab8938657b03fbdba8","66577fabfcc730c6d46e1400","1403","stimuli/2010101.jpg","0","","prediction_trial","2","","false","","2","false","false","true","true","false","false","[2]","010","101","0","","","","","","",""
"","","","","","image-keyboard-response","117","190516","0.0-92.0","60ff6ef6dc8f29d5774ef2fc","665500ab8938657b03fbdba8","66577fabfcc730c6d46e1400","746","stimuli/20101012.jpg"," ","","feedback_trial","2","","","","","","","","","","","","","","","","","","","","",""
"","","","","","image-keyboard-response","118","191500","0.0-93.0","60ff6ef6dc8f29d5774ef2fc","665500ab8938657b03fbdba8","66577fabfcc730c6d46e1400","984","stimuli/2110011.jpg","2","","prediction_trial","2","","true","","2","false","false","true","true","false","false","[2]","110","011","1","","","","","","",""
"","","","","","image-keyboard-response","119","192271","0.0-94.0","60ff6ef6dc8f29d5774ef2fc","665500ab8938657b03fbdba8","66577fabfcc730c6d46e1400","770","stimuli/21100112.jpg"," ","","feedback_trial","2","","","","","","","","","","","","","","","","","","","","",""
"","","","","","image-keyboard-response","120","192884","0.0-95.0","60ff6ef6dc8f29d5774ef2fc","665500ab8938657b03fbdba8","66577fabfcc730c6d46e1400","611","stimuli/2011111.jpg","0","","prediction_trial","1","","false","","2","false","false","false","false","false","false","[2,1]","011","111","0","","","","","","",""
"","","","","","image-keyboard-response","121","193404","0.0-96.0","60ff6ef6dc8f29d5774ef2fc","665500ab8938657b03fbdba8","66577fabfcc730c6d46e1400","518","stimuli/20111111.jpg"," ","","feedback_trial","2","","","","","","","","","","","","","","","","","","","","",""
"","","","","","image-keyboard-response","122","194331","0.0-97.0","60ff6ef6dc8f29d5774ef2fc","665500ab8938657b03fbdba8","66577fabfcc730c6d46e1400","926","stimuli/0001111.jpg","1","","prediction_trial","0","","false","","0","false","false","true","true","false","false","[0]","001","111","0","","","","","","",""
"","","","","","image-keyboard-response","123","194856","0.0-98.0","60ff6ef6dc8f29d5774ef2fc","665500ab8938657b03fbdba8","66577fabfcc730c6d46e1400","524","stimuli/00011110.jpg"," ","","feedback_trial","0","","","","","","","","","","","","","","","","","","","","",""
"","","","","","image-keyboard-response","124","196679","0.0-99.0","60ff6ef6dc8f29d5774ef2fc","665500ab8938657b03fbdba8","66577fabfcc730c6d46e1400","1821","stimuli/2010011.jpg","2","","prediction_trial","2","","true","","2","false","false","true","true","false","false","[2]","010","011","1","","","","","","",""
"","","","","","image-keyboard-response","125","197342","0.0-100.0","60ff6ef6dc8f29d5774ef2fc","665500ab8938657b03fbdba8","66577fabfcc730c6d46e1400","661","stimuli/20100112.jpg"," ","","feedback_trial","2","","","","","","","","","","","","","","","","","","","","",""
"","","","","","image-keyboard-response","126","198003","0.0-101.0","60ff6ef6dc8f29d5774ef2fc","665500ab8938657b03fbdba8","66577fabfcc730c6d46e1400","659","stimuli/0010001.jpg","0","","prediction_trial","0","","true","","0","true","true","true","true","true","true","[0]","010","001","1","","","","","","",""
"","","","","","image-keyboard-response","127","198461","0.0-102.0","60ff6ef6dc8f29d5774ef2fc","665500ab8938657b03fbdba8","66577fabfcc730c6d46e1400","455","stimuli/00100010.jpg"," ","","feedback_trial","0","","","","","","","","","","","","","","","","","","","","",""
"","","","","","image-keyboard-response","128","199039","0.0-103.0","60ff6ef6dc8f29d5774ef2fc","665500ab8938657b03fbdba8","66577fabfcc730c6d46e1400","577","stimuli/1100000.jpg","1","","prediction_trial","1","","true","","1","true","true","true","true","true","true","[1]","100","000","1","","","","","","",""
"","","","","","image-keyboard-response","129","199425","0.0-104.0","60ff6ef6dc8f29d5774ef2fc","665500ab8938657b03fbdba8","66577fabfcc730c6d46e1400","384","stimuli/11000001.jpg"," ","","feedback_trial","1","","","","","","","","","","","","","","","","","","","","",""
"","","","","","image-keyboard-response","130","201270","0.0-105.0","60ff6ef6dc8f29d5774ef2fc","665500ab8938657b03fbdba8","66577fabfcc730c6d46e1400","1843","stimuli/1000010.jpg","1","","prediction_trial","1","","true","","1","false","true","true","true","false","true","[1]","000","010","1","","","","","","",""
"","","","","","image-keyboard-response","131","201777","0.0-106.0","60ff6ef6dc8f29d5774ef2fc","665500ab8938657b03fbdba8","66577fabfcc730c6d46e1400","506","stimuli/10000101.jpg"," ","","feedback_trial","1","","","","","","","","","","","","","","","","","","","","",""
"","","","","","image-keyboard-response","132","203148","0.0-107.0","60ff6ef6dc8f29d5774ef2fc","665500ab8938657b03fbdba8","66577fabfcc730c6d46e1400","1370","stimuli/0000111.jpg","2","","prediction_trial","0","","false","","0","false","false","true","true","false","false","[0]","000","111","0","","","","","","",""
"","","","","","image-keyboard-response","133","203690","0.0-108.0","60ff6ef6dc8f29d5774ef2fc","665500ab8938657b03fbdba8","66577fabfcc730c6d46e1400","541","stimuli/00001110.jpg"," ","","feedback_trial","0","","","","","","","","","","","","","","","","","","","","",""
"","","","","","image-keyboard-response","134","204889","0.0-109.0","60ff6ef6dc8f29d5774ef2fc","665500ab8938657b03fbdba8","66577fabfcc730c6d46e1400","1198","stimuli/2100001.jpg","2","","prediction_trial","2","","true","","2","false","true","true","true","false","true","[2]","100","001","1","","","","","","",""
"","","","","","image-keyboard-response","135","205338","0.0-110.0","60ff6ef6dc8f29d5774ef2fc","665500ab8938657b03fbdba8","66577fabfcc730c6d46e1400","447","stimuli/21000012.jpg"," ","","feedback_trial","2","","","","","","","","","","","","","","","","","","","","",""
"","","","","","image-keyboard-response","136","206713","0.0-111.0","60ff6ef6dc8f29d5774ef2fc","665500ab8938657b03fbdba8","66577fabfcc730c6d46e1400","1375","stimuli/0101100.jpg","0","","prediction_trial","0","","true","","0","false","true","false","false","false","false","[2,0]","101","100","1","","","","","","",""
"","","","","","image-keyboard-response","137","207147","0.0-112.0","60ff6ef6dc8f29d5774ef2fc","665500ab8938657b03fbdba8","66577fabfcc730c6d46e1400","432","stimuli/01011000.jpg"," ","","feedback_trial","2","","","","","","","","","","","","","","","","","","","","",""
"","","","","","image-keyboard-response","138","209190","0.0-113.0","60ff6ef6dc8f29d5774ef2fc","665500ab8938657b03fbdba8","66577fabfcc730c6d46e1400","2041","stimuli/1011100.jpg","1","","prediction_trial","1","","true","","1","true","true","false","false","false","false","[1,2]","011","100","1","","","","","","",""
"","","","","","image-keyboard-response","139","209677","0.0-114.0","60ff6ef6dc8f29d5774ef2fc","665500ab8938657b03fbdba8","66577fabfcc730c6d46e1400","486","stimuli/10111001.jpg"," ","","feedback_trial","1","","","","","","","","","","","","","","","","","","","","",""
"","","","","","image-keyboard-response","140","211230","0.0-115.0","60ff6ef6dc8f29d5774ef2fc","665500ab8938657b03fbdba8","66577fabfcc730c6d46e1400","1551","stimuli/1011001.jpg","1","","prediction_trial","1","","true","","1","true","true","false","false","false","false","[2,1]","011","001","1","","","","","","",""
"","","","","","image-keyboard-response","141","211777","0.0-116.0","60ff6ef6dc8f29d5774ef2fc","665500ab8938657b03fbdba8","66577fabfcc730c6d46e1400","545","stimuli/10110011.jpg"," ","","feedback_trial","2","","","","","","","","","","","","","","","","","","","","",""
"","","","","","image-keyboard-response","142","212908","0.0-117.0","60ff6ef6dc8f29d5774ef2fc","665500ab8938657b03fbdba8","66577fabfcc730c6d46e1400","1130","stimuli/0011000.jpg","0","","prediction_trial","0","","true","","0","true","true","true","true","true","true","[0]","011","000","1","","","","","","",""
"","","","","","image-keyboard-response","143","213221","0.0-118.0","60ff6ef6dc8f29d5774ef2fc","665500ab8938657b03fbdba8","66577fabfcc730c6d46e1400","313","stimuli/00110000.jpg"," ","","feedback_trial","0","","","","","","","","","","","","","","","","","","","","",""
"","","","","","image-keyboard-response","144","213761","0.0-119.0","60ff6ef6dc8f29d5774ef2fc","665500ab8938657b03fbdba8","66577fabfcc730c6d46e1400","539","stimuli/2110010.jpg","2","","prediction_trial","2","","true","","2","true","true","true","true","true","true","[2]","110","010","1","","","","","","",""
"","","","","","image-keyboard-response","145","214088","0.0-120.0","60ff6ef6dc8f29d5774ef2fc","665500ab8938657b03fbdba8","66577fabfcc730c6d46e1400","326","stimuli/21100102.jpg"," ","","feedback_trial","2","","","","","","","","","","","","","","","","","","","","",""
"","","","","","image-keyboard-response","146","214682","0.0-121.0","60ff6ef6dc8f29d5774ef2fc","665500ab8938657b03fbdba8","66577fabfcc730c6d46e1400","592","stimuli/2010110.jpg","2","","prediction_trial","2","","true","","2","true","true","true","true","true","true","[2]","010","110","1","","","","","","",""
"","","","","","image-keyboard-response","147","215024","0.0-122.0","60ff6ef6dc8f29d5774ef2fc","665500ab8938657b03fbdba8","66577fabfcc730c6d46e1400","340","stimuli/20101102.jpg"," ","","feedback_trial","2","","","","","","","","","","","","","","","","","","","","",""
"","","","","","image-keyboard-response","148","216577","0.0-123.0","60ff6ef6dc8f29d5774ef2fc","665500ab8938657b03fbdba8","66577fabfcc730c6d46e1400","1549","stimuli/1010111.jpg","0","","prediction_trial","1","","false","","1","false","false","false","true","false","false","[1]","010","111","0","","","","","","",""
"","","","","","image-keyboard-response","149","217019","0.0-124.0","60ff6ef6dc8f29d5774ef2fc","665500ab8938657b03fbdba8","66577fabfcc730c6d46e1400","439","stimuli/10101111.jpg"," ","","feedback_trial","1","","","","","","","","","","","","","","","","","","","","",""
"","","","","","image-keyboard-response","150","218238","0.0-125.0","60ff6ef6dc8f29d5774ef2fc","665500ab8938657b03fbdba8","66577fabfcc730c6d46e1400","1218","stimuli/2001001.jpg","2","","prediction_trial","2","","true","","2","false","true","false","true","false","true","[2]","001","001","1","","","","","","",""
"","","","","","image-keyboard-response","151","218558","0.0-126.0","60ff6ef6dc8f29d5774ef2fc","665500ab8938657b03fbdba8","66577fabfcc730c6d46e1400","318","stimuli/20010012.jpg"," ","","feedback_trial","2","","","","","","","","","","","","","","","","","","","","",""
"","","","","","image-keyboard-response","152","219593","0.0-127.0","60ff6ef6dc8f29d5774ef2fc","665500ab8938657b03fbdba8","66577fabfcc730c6d46e1400","1034","stimuli/0011100.jpg","1","","prediction_trial","0","","false","","0","false","true","true","true","false","true","[0]","011","100","0","","","","","","",""
"","","","","","image-keyboard-response","153","220281","0.0-128.0","60ff6ef6dc8f29d5774ef2fc","665500ab8938657b03fbdba8","66577fabfcc730c6d46e1400","687","stimuli/00111000.jpg"," ","","feedback_trial","0","","","","","","","","","","","","","","","","","","","","",""
"","","","","","image-keyboard-response","154","221030","0.0-129.0","60ff6ef6dc8f29d5774ef2fc","665500ab8938657b03fbdba8","66577fabfcc730c6d46e1400","747","stimuli/2110110.jpg","2","","prediction_trial","2","","true","","2","true","true","true","true","true","true","[2]","110","110","1","","","","","","",""
"","","","","","image-keyboard-response","155","221334","0.0-130.0","60ff6ef6dc8f29d5774ef2fc","665500ab8938657b03fbdba8","66577fabfcc730c6d46e1400","303","stimuli/21101102.jpg"," ","","feedback_trial","2","","","","","","","","","","","","","","","","","","","","",""
"","","","","","image-keyboard-response","156","222355","0.0-131.0","60ff6ef6dc8f29d5774ef2fc","665500ab8938657b03fbdba8","66577fabfcc730c6d46e1400","1020","stimuli/2111011.jpg","2","","prediction_trial","1","","false","","2","false","false","false","false","false","false","[2,1,0]","111","011","0","","","","","","",""
"","","","","","image-keyboard-response","157","222801","0.0-132.0","60ff6ef6dc8f29d5774ef2fc","665500ab8938657b03fbdba8","66577fabfcc730c6d46e1400","445","stimuli/21110111.jpg"," ","","feedback_trial","2","","","","","","","","","","","","","","","","","","","","",""
"","","","","","image-keyboard-response","158","224133","0.0-133.0","60ff6ef6dc8f29d5774ef2fc","665500ab8938657b03fbdba8","66577fabfcc730c6d46e1400","1329","stimuli/1101010.jpg","1","","prediction_trial","1","","true","","1","false","true","true","true","false","true","[1]","101","010","1","","","","","","",""
"","","","","","image-keyboard-response","159","224476","0.0-134.0","60ff6ef6dc8f29d5774ef2fc","665500ab8938657b03fbdba8","66577fabfcc730c6d46e1400","341","stimuli/11010101.jpg"," ","","feedback_trial","1","","","","","","","","","","","","","","","","","","","","",""
"","","","","","image-keyboard-response","160","226962","0.0-135.0","60ff6ef6dc8f29d5774ef2fc","665500ab8938657b03fbdba8","66577fabfcc730c6d46e1400","2485","stimuli/1101111.jpg","1","","prediction_trial","1","","true","","1","false","false","true","true","false","false","[1]","101","111","1","","","","","","",""
"","","","","","image-keyboard-response","161","227642","0.0-136.0","60ff6ef6dc8f29d5774ef2fc","665500ab8938657b03fbdba8","66577fabfcc730c6d46e1400","678","stimuli/11011111.jpg"," ","","feedback_trial","1","","","","","","","","","","","","","","","","","","","","",""
"","","","","","image-keyboard-response","162","229510","0.0-137.0","60ff6ef6dc8f29d5774ef2fc","665500ab8938657b03fbdba8","66577fabfcc730c6d46e1400","1868","stimuli/1110000.jpg","0","","prediction_trial","0","","true","","1","true","true","false","false","false","false","[1,0]","110","000","1","","","","","","",""
"","","","","","image-keyboard-response","163","230020","0.0-138.0","60ff6ef6dc8f29d5774ef2fc","665500ab8938657b03fbdba8","66577fabfcc730c6d46e1400","508","stimuli/11100000.jpg"," ","","feedback_trial","1","","","","","","","","","","","","","","","","","","","","",""
"","","","","","image-keyboard-response","164","231915","0.0-139.0","60ff6ef6dc8f29d5774ef2fc","665500ab8938657b03fbdba8","66577fabfcc730c6d46e1400","1893","stimuli/2110101.jpg","2","","prediction_trial","2","","true","","2","false","false","true","true","false","false","[2]","110","101","1","","","","","","",""
"","","","","","image-keyboard-response","165","232538","0.0-140.0","60ff6ef6dc8f29d5774ef2fc","665500ab8938657b03fbdba8","66577fabfcc730c6d46e1400","621","stimuli/21101012.jpg"," ","","feedback_trial","2","","","","","","","","","","","","","","","","","","","","",""
"","","","","","image-keyboard-response","166","233052","0.0-141.0","60ff6ef6dc8f29d5774ef2fc","665500ab8938657b03fbdba8","66577fabfcc730c6d46e1400","513","stimuli/2000110.jpg","2","","prediction_trial","2","","true","","2","true","true","true","true","true","true","[2]","000","110","1","","","","","","",""
"","","","","","image-keyboard-response","167","233475","0.0-142.0","60ff6ef6dc8f29d5774ef2fc","665500ab8938657b03fbdba8","66577fabfcc730c6d46e1400","421","stimuli/20001102.jpg"," ","","feedback_trial","2","","","","","","","","","","","","","","","","","","","","",""
"","","","","","image-keyboard-response","168","235781","0.0-143.0","60ff6ef6dc8f29d5774ef2fc","665500ab8938657b03fbdba8","66577fabfcc730c6d46e1400","2304","stimuli/1110101.jpg","0","","prediction_trial","1","","false","","1","true","true","false","false","false","false","[1,0]","110","101","0","","","","","","",""
"","","","","","image-keyboard-response","169","236355","0.0-144.0","60ff6ef6dc8f29d5774ef2fc","665500ab8938657b03fbdba8","66577fabfcc730c6d46e1400","574","stimuli/11101011.jpg"," ","","feedback_trial","1","","","","","","","","","","","","","","","","","","","","",""
"","","","","","image-keyboard-response","170","237966","0.0-145.0","60ff6ef6dc8f29d5774ef2fc","665500ab8938657b03fbdba8","66577fabfcc730c6d46e1400","1609","stimuli/0010110.jpg","1","","prediction_trial","0","","false","","0","false","false","true","true","false","false","[0]","010","110","0","","","","","","",""
"","","","","","image-keyboard-response","171","239280","0.0-146.0","60ff6ef6dc8f29d5774ef2fc","665500ab8938657b03fbdba8","66577fabfcc730c6d46e1400","1313","stimuli/00101100.jpg"," ","","feedback_trial","0","","","","","","","","","","","","","","","","","","","","",""
"","","","","","image-keyboard-response","172","240145","0.0-147.0","60ff6ef6dc8f29d5774ef2fc","665500ab8938657b03fbdba8","66577fabfcc730c6d46e1400","863","stimuli/2100111.jpg","0","","prediction_trial","2","","false","","2","false","false","true","true","false","false","[2]","100","111","0","","","","","","",""
"","","","","","image-keyboard-response","173","240631","0.0-148.0","60ff6ef6dc8f29d5774ef2fc","665500ab8938657b03fbdba8","66577fabfcc730c6d46e1400","484","stimuli/21001112.jpg"," ","","feedback_trial","2","","","","","","","","","","","","","","","","","","","","",""
"","","","","","image-keyboard-response","174","242700","0.0-149.0","60ff6ef6dc8f29d5774ef2fc","665500ab8938657b03fbdba8","66577fabfcc730c6d46e1400","2068","stimuli/0110100.jpg","1","","prediction_trial","1","","true","","0","false","true","false","false","false","false","[1,0]","110","100","1","","","","","","",""
"","","","","","image-keyboard-response","175","243268","0.0-150.0","60ff6ef6dc8f29d5774ef2fc","665500ab8938657b03fbdba8","66577fabfcc730c6d46e1400","566","stimuli/01101001.jpg"," ","","feedback_trial","1","","","","","","","","","","","","","","","","","","","","",""
"","","","","","image-keyboard-response","176","244905","0.0-151.0","60ff6ef6dc8f29d5774ef2fc","665500ab8938657b03fbdba8","66577fabfcc730c6d46e1400","1636","stimuli/1110100.jpg","1","","prediction_trial","0","","false","","1","true","true","false","false","false","false","[1,0]","110","100","0","","","","","","",""
"","","","","","image-keyboard-response","177","245357","0.0-152.0","60ff6ef6dc8f29d5774ef2fc","665500ab8938657b03fbdba8","66577fabfcc730c6d46e1400","451","stimuli/11101000.jpg"," ","","feedback_trial","1","","","","","","","","","","","","","","","","","","","","",""
"","","","","","image-keyboard-response","178","246622","0.0-153.0","60ff6ef6dc8f29d5774ef2fc","665500ab8938657b03fbdba8","66577fabfcc730c6d46e1400","1263","stimuli/0010100.jpg","0","","prediction_trial","0","","true","","0","false","true","true","true","false","true","[0]","010","100","1","","","","","","",""
"","","","","","image-keyboard-response","179","246987","0.0-154.0","60ff6ef6dc8f29d5774ef2fc","665500ab8938657b03fbdba8","66577fabfcc730c6d46e1400","363","stimuli/00101000.jpg"," ","","feedback_trial","0","","","","","","","","","","","","","","","","","","","","",""
"","","","","","image-keyboard-response","180","247682","0.0-155.0","60ff6ef6dc8f29d5774ef2fc","665500ab8938657b03fbdba8","66577fabfcc730c6d46e1400","693","stimuli/1000101.jpg","1","","prediction_trial","1","","true","","1","true","true","true","true","true","true","[1]","000","101","1","","","","","","",""
"","","","","","image-keyboard-response","181","248094","0.0-156.0","60ff6ef6dc8f29d5774ef2fc","665500ab8938657b03fbdba8","66577fabfcc730c6d46e1400","411","stimuli/10001011.jpg"," ","","feedback_trial","1","","","","","","","","","","","","","","","","","","","","",""
"","","","","","image-keyboard-response","182","250305","0.0-157.0","60ff6ef6dc8f29d5774ef2fc","665500ab8938657b03fbdba8","66577fabfcc730c6d46e1400","2209","stimuli/2001010.jpg","2","","prediction_trial","2","","true","","2","true","true","false","true","false","true","[2]","001","010","1","","","","","","",""
"","","","","","image-keyboard-response","183","250648","0.0-158.0","60ff6ef6dc8f29d5774ef2fc","665500ab8938657b03fbdba8","66577fabfcc730c6d46e1400","341","stimuli/20010102.jpg"," ","","feedback_trial","2","","","","","","","","","","","","","","","","","","","","",""
"","","","","","image-keyboard-response","184","251840","0.0-159.0","60ff6ef6dc8f29d5774ef2fc","665500ab8938657b03fbdba8","66577fabfcc730c6d46e1400","1191","stimuli/2100100.jpg","2","","prediction_trial","2","","true","","2","true","true","true","true","true","true","[2]","100","100","1","","","","","","",""
"","","","","","image-keyboard-response","185","252143","0.0-160.0","60ff6ef6dc8f29d5774ef2fc","665500ab8938657b03fbdba8","66577fabfcc730c6d46e1400","301","stimuli/21001002.jpg"," ","","feedback_trial","2","","","","","","","","","","","","","","","","","","","","",""
"","","","","","image-keyboard-response","186","253487","0.0-161.0","60ff6ef6dc8f29d5774ef2fc","665500ab8938657b03fbdba8","66577fabfcc730c6d46e1400","1344","stimuli/2000001.jpg","2","","prediction_trial","2","","true","","2","false","true","true","true","false","true","[2]","000","001","1","","","","","","",""
"","","","","","image-keyboard-response","187","253836","0.0-162.0","60ff6ef6dc8f29d5774ef2fc","665500ab8938657b03fbdba8","66577fabfcc730c6d46e1400","347","stimuli/20000012.jpg"," ","","feedback_trial","2","","","","","","","","","","","","","","","","","","","","",""
"","","","","","image-keyboard-response","188","255300","0.0-163.0","60ff6ef6dc8f29d5774ef2fc","665500ab8938657b03fbdba8","66577fabfcc730c6d46e1400","1462","stimuli/1010110.jpg","1","","prediction_trial","1","","true","","1","false","false","false","true","false","false","[1]","010","110","1","","","","","","",""
"","","","","","image-keyboard-response","189","255712","0.0-164.0","60ff6ef6dc8f29d5774ef2fc","665500ab8938657b03fbdba8","66577fabfcc730c6d46e1400","410","stimuli/10101101.jpg"," ","","feedback_trial","1","","","","","","","","","","","","","","","","","","","","",""
"","","","","","image-keyboard-response","190","257678","0.0-165.0","60ff6ef6dc8f29d5774ef2fc","665500ab8938657b03fbdba8","66577fabfcc730c6d46e1400","1965","stimuli/2001101.jpg","0","","prediction_trial","2","","false","","2","false","false","false","true","false","false","[2]","001","101","0","","","","","","",""
"","","","","","image-keyboard-response","191","258134","0.0-166.0","60ff6ef6dc8f29d5774ef2fc","665500ab8938657b03fbdba8","66577fabfcc730c6d46e1400","454","stimuli/20011012.jpg"," ","","feedback_trial","2","","","","","","","","","","","","","","","","","","","","",""
"","","","","","image-keyboard-response","192","259809","0.0-167.0","60ff6ef6dc8f29d5774ef2fc","665500ab8938657b03fbdba8","66577fabfcc730c6d46e1400","1673","stimuli/2001100.jpg","2","","prediction_trial","2","","true","","2","true","true","false","true","false","true","[2]","001","100","1","","","","","","",""
"","","","","","image-keyboard-response","193","260179","0.0-168.0","60ff6ef6dc8f29d5774ef2fc","665500ab8938657b03fbdba8","66577fabfcc730c6d46e1400","369","stimuli/20011002.jpg"," ","","feedback_trial","2","","","","","","","","","","","","","","","","","","","","",""
"","","","","","image-keyboard-response","194","262839","0.0-169.0","60ff6ef6dc8f29d5774ef2fc","665500ab8938657b03fbdba8","66577fabfcc730c6d46e1400","2659","stimuli/1011011.jpg","1","","prediction_trial","1","","true","","1","false","false","false","false","false","false","[2,1]","011","011","1","","","","","","",""
"","","","","","image-keyboard-response","195","263297","0.0-170.0","60ff6ef6dc8f29d5774ef2fc","665500ab8938657b03fbdba8","66577fabfcc730c6d46e1400","457","stimuli/10110111.jpg"," ","","feedback_trial","2","","","","","","","","","","","","","","","","","","","","",""
"","","","","","image-keyboard-response","196","263997","0.0-171.0","60ff6ef6dc8f29d5774ef2fc","665500ab8938657b03fbdba8","66577fabfcc730c6d46e1400","699","stimuli/2010000.jpg","2","","prediction_trial","2","","true","","2","true","true","true","true","true","true","[2]","010","000","1","","","","","","",""
"","","","","","image-keyboard-response","197","264288","0.0-172.0","60ff6ef6dc8f29d5774ef2fc","665500ab8938657b03fbdba8","66577fabfcc730c6d46e1400","289","stimuli/20100002.jpg"," ","","feedback_trial","2","","","","","","","","","","","","","","","","","","","","",""
"","","","","","image-keyboard-response","198","265677","0.0-173.0","60ff6ef6dc8f29d5774ef2fc","665500ab8938657b03fbdba8","66577fabfcc730c6d46e1400","1388","stimuli/1010001.jpg","1","","prediction_trial","1","","true","","1","true","true","false","true","false","true","[1]","010","001","1","","","","","","",""
"","","","","","image-keyboard-response","199","266005","0.0-174.0","60ff6ef6dc8f29d5774ef2fc","665500ab8938657b03fbdba8","66577fabfcc730c6d46e1400","326","stimuli/10100011.jpg"," ","","feedback_trial","1","","","","","","","","","","","","","","","","","","","","",""
"","","","","","image-keyboard-response","200","266887","0.0-175.0","60ff6ef6dc8f29d5774ef2fc","665500ab8938657b03fbdba8","66577fabfcc730c6d46e1400","880","stimuli/1111111.jpg","2","","prediction_trial","0","","false","","1","false","false","false","false","false","false","[2,0,1]","111","111","0","","","","","","",""
"","","","","","image-keyboard-response","201","267350","0.0-176.0","60ff6ef6dc8f29d5774ef2fc","665500ab8938657b03fbdba8","66577fabfcc730c6d46e1400","461","stimuli/11111110.jpg"," ","","feedback_trial","2","","","","","","","","","","","","","","","","","","","","",""
"","","","","","image-keyboard-response","202","268472","0.0-177.0","60ff6ef6dc8f29d5774ef2fc","665500ab8938657b03fbdba8","66577fabfcc730c6d46e1400","1121","stimuli/1100011.jpg","1","","prediction_trial","1","","true","","1","false","false","true","true","false","false","[1]","100","011","1","","","","","","",""
"","","","","","image-keyboard-response","203","268823","0.0-178.0","60ff6ef6dc8f29d5774ef2fc","665500ab8938657b03fbdba8","66577fabfcc730c6d46e1400","349","stimuli/11000111.jpg"," ","","feedback_trial","1","","","","","","","","","","","","","","","","","","","","",""
"","","","","","image-keyboard-response","204","269797","0.0-179.0","60ff6ef6dc8f29d5774ef2fc","665500ab8938657b03fbdba8","66577fabfcc730c6d46e1400","973","stimuli/1001011.jpg","1","","prediction_trial","1","","true","","1","false","false","true","true","false","false","[1]","001","011","1","","","","","","",""
"","","","","","image-keyboard-response","205","270296","0.0-180.0","60ff6ef6dc8f29d5774ef2fc","665500ab8938657b03fbdba8","66577fabfcc730c6d46e1400","498","stimuli/10010111.jpg"," ","","feedback_trial","1","","","","","","","","","","","","","","","","","","","","",""
"","","","","","image-keyboard-response","206","272548","0.0-181.0","60ff6ef6dc8f29d5774ef2fc","665500ab8938657b03fbdba8","66577fabfcc730c6d46e1400","2250","stimuli/0101001.jpg","0","","prediction_trial","2","","false","","0","true","true","false","false","false","false","[2,0]","101","001","0","","","","","","",""
"","","","","","image-keyboard-response","207","273045","0.0-182.0","60ff6ef6dc8f29d5774ef2fc","665500ab8938657b03fbdba8","66577fabfcc730c6d46e1400","495","stimuli/01010012.jpg"," ","","feedback_trial","2","","","","","","","","","","","","","","","","","","","","",""
"","","","","","image-keyboard-response","208","273879","0.0-183.0","60ff6ef6dc8f29d5774ef2fc","665500ab8938657b03fbdba8","66577fabfcc730c6d46e1400","834","stimuli/2101100.jpg","2","","prediction_trial","2","","true","","2","true","true","false","false","false","false","[2,0]","101","100","1","","","","","","",""
"","","","","","image-keyboard-response","209","274380","0.0-184.0","60ff6ef6dc8f29d5774ef2fc","665500ab8938657b03fbdba8","66577fabfcc730c6d46e1400","500","stimuli/21011002.jpg"," ","","feedback_trial","2","","","","","","","","","","","","","","","","","","","","",""
"","","","","","image-keyboard-response","210","275237","0.0-185.0","60ff6ef6dc8f29d5774ef2fc","665500ab8938657b03fbdba8","66577fabfcc730c6d46e1400","857","stimuli/0110111.jpg","2","","prediction_trial","0","","false","","0","false","false","false","false","false","false","[1,0]","110","111","0","","","","","","",""
"","","","","","image-keyboard-response","211","276030","0.0-186.0","60ff6ef6dc8f29d5774ef2fc","665500ab8938657b03fbdba8","66577fabfcc730c6d46e1400","792","stimuli/01101110.jpg"," ","","feedback_trial","1","","","","","","","","","","","","","","","","","","","","",""
"","","","","","image-keyboard-response","212","276830","0.0-187.0","60ff6ef6dc8f29d5774ef2fc","665500ab8938657b03fbdba8","66577fabfcc730c6d46e1400","797","stimuli/2000010.jpg","2","","prediction_trial","2","","true","","2","true","true","true","true","true","true","[2]","000","010","1","","","","","","",""
"","","","","","image-keyboard-response","213","277168","0.0-188.0","60ff6ef6dc8f29d5774ef2fc","665500ab8938657b03fbdba8","66577fabfcc730c6d46e1400","337","stimuli/20000102.jpg"," ","","feedback_trial","2","","","","","","","","","","","","","","","","","","","","",""
"","","","","","image-keyboard-response","214","278147","0.0-189.0","60ff6ef6dc8f29d5774ef2fc","665500ab8938657b03fbdba8","66577fabfcc730c6d46e1400","978","stimuli/1111011.jpg","1","","prediction_trial","0","","false","","1","false","false","false","false","false","false","[0,1,2]","111","011","0","","","","","","",""
"","","","","","image-keyboard-response","215","278581","0.0-190.0","60ff6ef6dc8f29d5774ef2fc","665500ab8938657b03fbdba8","66577fabfcc730c6d46e1400","432","stimuli/11110110.jpg"," ","","feedback_trial","0","","","","","","","","","","","","","","","","","","","","",""
"","","","","","image-keyboard-response","216","280042","0.0-191.0","60ff6ef6dc8f29d5774ef2fc","665500ab8938657b03fbdba8","66577fabfcc730c6d46e1400","1459","stimuli/1110010.jpg","1","","prediction_trial","1","","true","","1","false","true","false","false","false","false","[1,0]","110","010","1","","","","","","",""
"","","","","","image-keyboard-response","217","280944","0.0-192.0","60ff6ef6dc8f29d5774ef2fc","665500ab8938657b03fbdba8","66577fabfcc730c6d46e1400","900","stimuli/11100101.jpg"," ","","feedback_trial","1","","","","","","","","","","","","","","","","","","","","",""
"","","","","","image-keyboard-response","218","281701","0.0-193.0","60ff6ef6dc8f29d5774ef2fc","665500ab8938657b03fbdba8","66577fabfcc730c6d46e1400","755","stimuli/1010011.jpg","1","","prediction_trial","1","","true","","1","false","false","false","true","false","false","[1]","010","011","1","","","","","","",""
"","","","","","image-keyboard-response","219","282139","0.0-194.0","60ff6ef6dc8f29d5774ef2fc","665500ab8938657b03fbdba8","66577fabfcc730c6d46e1400","436","stimuli/10100111.jpg"," ","","feedback_trial","1","","","","","","","","","","","","","","","","","","","","",""
"","","","","","image-keyboard-response","220","283470","0.0-195.0","60ff6ef6dc8f29d5774ef2fc","665500ab8938657b03fbdba8","66577fabfcc730c6d46e1400","1328","stimuli/0110000.jpg","0","","prediction_trial","0","","true","","0","true","true","false","false","false","false","[1,0]","110","000","1","","","","","","",""
"","","","","","image-keyboard-response","221","283827","0.0-196.0","60ff6ef6dc8f29d5774ef2fc","665500ab8938657b03fbdba8","66577fabfcc730c6d46e1400","355","stimuli/01100000.jpg"," ","","feedback_trial","1","","","","","","","","","","","","","","","","","","","","",""
"","","","","","image-keyboard-response","222","285677","0.0-197.0","60ff6ef6dc8f29d5774ef2fc","665500ab8938657b03fbdba8","66577fabfcc730c6d46e1400","1849","stimuli/2000101.jpg","2","","prediction_trial","2","","true","","2","false","false","true","true","false","false","[2]","000","101","1","","","","","","",""
"","","","","","image-keyboard-response","223","286281","0.0-198.0","60ff6ef6dc8f29d5774ef2fc","665500ab8938657b03fbdba8","66577fabfcc730c6d46e1400","603","stimuli/20001012.jpg"," ","","feedback_trial","2","","","","","","","","","","","","","","","","","","","","",""
"","","","","","image-keyboard-response","224","287091","0.0-199.0","60ff6ef6dc8f29d5774ef2fc","665500ab8938657b03fbdba8","66577fabfcc730c6d46e1400","810","stimuli/1011000.jpg","1","","prediction_trial","1","","true","","1","true","true","false","false","false","false","[1,2]","011","000","1","","","","","","",""
"","","","","","image-keyboard-response","225","288074","0.0-200.0","60ff6ef6dc8f29d5774ef2fc","665500ab8938657b03fbdba8","66577fabfcc730c6d46e1400","981","stimuli/10110001.jpg"," ","","feedback_trial","1","","","","","","","","","","","","","","","","","","","","",""
"","","","","","image-keyboard-response","226","288775","0.0-201.0","60ff6ef6dc8f29d5774ef2fc","665500ab8938657b03fbdba8","66577fabfcc730c6d46e1400","700","stimuli/1010101.jpg","1","","prediction_trial","1","","true","","1","true","true","false","true","false","true","[1]","010","101","1","","","","","","",""
"","","","","","image-keyboard-response","227","289851","0.0-202.0","60ff6ef6dc8f29d5774ef2fc","665500ab8938657b03fbdba8","66577fabfcc730c6d46e1400","1075","stimuli/10101011.jpg"," ","","feedback_trial","1","","","","","","","","","","","","","","","","","","","","",""
"","","","","","image-keyboard-response","228","291796","0.0-203.0","60ff6ef6dc8f29d5774ef2fc","665500ab8938657b03fbdba8","66577fabfcc730c6d46e1400","1944","stimuli/1011010.jpg","1","","prediction_trial","1","","true","","1","false","true","false","false","false","false","[2,1]","011","010","1","","","","","","",""
"","","","","","image-keyboard-response","229","292412","0.0-204.0","60ff6ef6dc8f29d5774ef2fc","665500ab8938657b03fbdba8","66577fabfcc730c6d46e1400","615","stimuli/10110101.jpg"," ","","feedback_trial","2","","","","","","","","","","","","","","","","","","","","",""
"","","","","","image-keyboard-response","230","293236","0.0-205.0","60ff6ef6dc8f29d5774ef2fc","665500ab8938657b03fbdba8","66577fabfcc730c6d46e1400","823","stimuli/0101111.jpg","2","","prediction_trial","2","","true","","0","false","false","false","false","false","false","[2,0]","101","111","1","","","","","","",""
"","","","","","image-keyboard-response","231","293883","0.0-206.0","60ff6ef6dc8f29d5774ef2fc","665500ab8938657b03fbdba8","66577fabfcc730c6d46e1400","646","stimuli/01011112.jpg"," ","","feedback_trial","2","","","","","","","","","","","","","","","","","","","","",""
"","","","","","image-keyboard-response","232","294596","0.0-207.0","60ff6ef6dc8f29d5774ef2fc","665500ab8938657b03fbdba8","66577fabfcc730c6d46e1400","712","stimuli/0101010.jpg","0","","prediction_trial","2","","false","","0","true","true","false","false","false","false","[2,0]","101","010","0","","","","","","",""
"","","","","","image-keyboard-response","233","295987","0.0-208.0","60ff6ef6dc8f29d5774ef2fc","665500ab8938657b03fbdba8","66577fabfcc730c6d46e1400","1391","stimuli/01010102.jpg"," ","","feedback_trial","2","","","","","","","","","","","","","","","","","","","","",""
"","","","","","image-keyboard-response","234","297747","0.0-209.0","60ff6ef6dc8f29d5774ef2fc","665500ab8938657b03fbdba8","66577fabfcc730c6d46e1400","1758","stimuli/2100101.jpg","0","","prediction_trial","2","","false","","2","false","false","true","true","false","false","[2]","100","101","0","","","","","","",""
"","","","","","image-keyboard-response","235","298209","0.0-210.0","60ff6ef6dc8f29d5774ef2fc","665500ab8938657b03fbdba8","66577fabfcc730c6d46e1400","460","stimuli/21001012.jpg"," ","","feedback_trial","2","","","","","","","","","","","","","","","","","","","","",""
"","","","","","image-keyboard-response","236","298833","0.0-211.0","60ff6ef6dc8f29d5774ef2fc","665500ab8938657b03fbdba8","66577fabfcc730c6d46e1400","623","stimuli/0100011.jpg","0","","prediction_trial","0","","true","","0","true","true","false","true","false","true","[0]","100","011","1","","","","","","",""
"","","","","","image-keyboard-response","237","299246","0.0-212.0","60ff6ef6dc8f29d5774ef2fc","665500ab8938657b03fbdba8","66577fabfcc730c6d46e1400","412","stimuli/01000110.jpg"," ","","feedback_trial","0","","","","","","","","","","","","","","","","","","","","",""
"","","","","","image-keyboard-response","238","300514","0.0-213.0","60ff6ef6dc8f29d5774ef2fc","665500ab8938657b03fbdba8","66577fabfcc730c6d46e1400","1267","stimuli/2101101.jpg","2","","prediction_trial","0","","false","","2","false","false","false","false","false","false","[0,2]","101","101","0","","","","","","",""
"","","","","","image-keyboard-response","239","300969","0.0-214.0","60ff6ef6dc8f29d5774ef2fc","665500ab8938657b03fbdba8","66577fabfcc730c6d46e1400","454","stimuli/21011010.jpg"," ","","feedback_trial","0","","","","","","","","","","","","","","","","","","","","",""
"","","","","","image-keyboard-response","240","301500","0.0-215.0","60ff6ef6dc8f29d5774ef2fc","665500ab8938657b03fbdba8","66577fabfcc730c6d46e1400","530","stimuli/2011110.jpg","2","","prediction_trial","1","","false","","2","true","true","false","false","false","false","[2,1]","011","110","0","","","","","","",""
"","","","","","image-keyboard-response","241","301968","0.0-216.0","60ff6ef6dc8f29d5774ef2fc","665500ab8938657b03fbdba8","66577fabfcc730c6d46e1400","465","stimuli/20111101.jpg"," ","","feedback_trial","2","","","","","","","","","","","","","","","","","","","","",""
"","","","","","image-keyboard-response","242","303760","0.0-217.0","60ff6ef6dc8f29d5774ef2fc","665500ab8938657b03fbdba8","66577fabfcc730c6d46e1400","1791","stimuli/1011101.jpg","1","","prediction_trial","2","","false","","1","true","true","false","false","false","false","[1,2]","011","101","0","","","","","","",""
"","","","","","image-keyboard-response","243","304198","0.0-218.0","60ff6ef6dc8f29d5774ef2fc","665500ab8938657b03fbdba8","66577fabfcc730c6d46e1400","435","stimuli/10111012.jpg"," ","","feedback_trial","1","","","","","","","","","","","","","","","","","","","","",""
"","","","","","image-keyboard-response","244","305646","0.0-219.0","60ff6ef6dc8f29d5774ef2fc","665500ab8938657b03fbdba8","66577fabfcc730c6d46e1400","1447","stimuli/0001110.jpg","0","","prediction_trial","0","","true","","0","false","false","true","true","false","false","[0]","001","110","1","","","","","","",""
"","","","","","image-keyboard-response","245","306066","0.0-220.0","60ff6ef6dc8f29d5774ef2fc","665500ab8938657b03fbdba8","66577fabfcc730c6d46e1400","419","stimuli/00011100.jpg"," ","","feedback_trial","0","","","","","","","","","","","","","","","","","","","","",""
"","","","","","image-keyboard-response","246","306849","0.0-221.0","60ff6ef6dc8f29d5774ef2fc","665500ab8938657b03fbdba8","66577fabfcc730c6d46e1400","781","stimuli/0010011.jpg","0","","prediction_trial","0","","true","","0","true","true","true","true","true","true","[0]","010","011","1","","","","","","",""
"","","","","","image-keyboard-response","247","307153","0.0-222.0","60ff6ef6dc8f29d5774ef2fc","665500ab8938657b03fbdba8","66577fabfcc730c6d46e1400","303","stimuli/00100110.jpg"," ","","feedback_trial","0","","","","","","","","","","","","","","","","","","","","",""
"","","","","","image-keyboard-response","248","308634","0.0-223.0","60ff6ef6dc8f29d5774ef2fc","665500ab8938657b03fbdba8","66577fabfcc730c6d46e1400","1479","stimuli/0110110.jpg","1","","prediction_trial","1","","true","","0","false","false","false","false","false","false","[1,0]","110","110","1","","","","","","",""
"","","","","","image-keyboard-response","249","309188","0.0-224.0","60ff6ef6dc8f29d5774ef2fc","665500ab8938657b03fbdba8","66577fabfcc730c6d46e1400","552","stimuli/01101101.jpg"," ","","feedback_trial","1","","","","","","","","","","","","","","","","","","","","",""
"","","","","","image-keyboard-response","250","309838","0.0-225.0","60ff6ef6dc8f29d5774ef2fc","665500ab8938657b03fbdba8","66577fabfcc730c6d46e1400","649","stimuli/0001000.jpg","0","","prediction_trial","0","","true","","0","true","true","true","true","true","true","[0]","001","000","1","","","","","","",""
"","","","","","image-keyboard-response","251","310127","0.0-226.0","60ff6ef6dc8f29d5774ef2fc","665500ab8938657b03fbdba8","66577fabfcc730c6d46e1400","288","stimuli/00010000.jpg"," ","","feedback_trial","0","","","","","","","","","","","","","","","","","","","","",""
"","","","","","image-keyboard-response","252","311516","0.0-227.0","60ff6ef6dc8f29d5774ef2fc","665500ab8938657b03fbdba8","66577fabfcc730c6d46e1400","1386","stimuli/2001011.jpg","1","","prediction_trial","2","","false","","2","false","false","false","true","false","false","[2]","001","011","0","","","","","","",""
"","","","","","image-keyboard-response","253","311988","0.0-228.0","60ff6ef6dc8f29d5774ef2fc","665500ab8938657b03fbdba8","66577fabfcc730c6d46e1400","470","stimuli/20010112.jpg"," ","","feedback_trial","2","","","","","","","","","","","","","","","","","","","","",""
"","","","","","image-keyboard-response","254","312900","0.0-229.0","60ff6ef6dc8f29d5774ef2fc","665500ab8938657b03fbdba8","66577fabfcc730c6d46e1400","910","stimuli/0010101.jpg","2","","prediction_trial","0","","false","","0","false","false","true","true","false","false","[0]","010","101","0","","","","","","",""
"","","","","","image-keyboard-response","255","313434","0.0-230.0","60ff6ef6dc8f29d5774ef2fc","665500ab8938657b03fbdba8","66577fabfcc730c6d46e1400","533","stimuli/00101010.jpg"," ","","feedback_trial","0","","","","","","","","","","","","","","","","","","","","",""
"","","","","","image-keyboard-response","256","314570","0.0-231.0","60ff6ef6dc8f29d5774ef2fc","665500ab8938657b03fbdba8","66577fabfcc730c6d46e1400","1134","stimuli/1101000.jpg","1","","prediction_trial","1","","true","","1","true","true","true","true","true","true","[1]","101","000","1","","","","","","",""
"","","","","","image-keyboard-response","257","314955","0.0-232.0","60ff6ef6dc8f29d5774ef2fc","665500ab8938657b03fbdba8","66577fabfcc730c6d46e1400","383","stimuli/11010001.jpg"," ","","feedback_trial","1","","","","","","","","","","","","","","","","","","","","",""
"","","","","","image-keyboard-response","258","315525","0.0-233.0","60ff6ef6dc8f29d5774ef2fc","665500ab8938657b03fbdba8","66577fabfcc730c6d46e1400","568","stimuli/1100101.jpg","1","","prediction_trial","1","","true","","1","true","true","true","true","true","true","[1]","100","101","1","","","","","","",""
"","","","","","image-keyboard-response","259","315850","0.0-234.0","60ff6ef6dc8f29d5774ef2fc","665500ab8938657b03fbdba8","66577fabfcc730c6d46e1400","324","stimuli/11001011.jpg"," ","","feedback_trial","1","","","","","","","","","","","","","","","","","","","","",""
"","","","","","image-keyboard-response","260","316935","0.0-235.0","60ff6ef6dc8f29d5774ef2fc","665500ab8938657b03fbdba8","66577fabfcc730c6d46e1400","1083","stimuli/1001111.jpg","0","","prediction_trial","1","","false","","1","false","false","true","true","false","false","[1]","001","111","0","","","","","","",""
"","","","","","image-keyboard-response","261","317334","0.0-236.0","60ff6ef6dc8f29d5774ef2fc","665500ab8938657b03fbdba8","66577fabfcc730c6d46e1400","397","stimuli/10011111.jpg"," ","","feedback_trial","1","","","","","","","","","","","","","","","","","","","","",""
"","","","","","image-keyboard-response","262","317950","0.0-237.0","60ff6ef6dc8f29d5774ef2fc","665500ab8938657b03fbdba8","66577fabfcc730c6d46e1400","615","stimuli/2110000.jpg","2","","prediction_trial","2","","true","","2","true","true","true","true","true","true","[2]","110","000","1","","","","","","",""
"","","","","","image-keyboard-response","263","318288","0.0-238.0","60ff6ef6dc8f29d5774ef2fc","665500ab8938657b03fbdba8","66577fabfcc730c6d46e1400","336","stimuli/21100002.jpg"," ","","feedback_trial","2","","","","","","","","","","","","","","","","","","","","",""
"","","","","","image-keyboard-response","264","319385","0.0-239.0","60ff6ef6dc8f29d5774ef2fc","665500ab8938657b03fbdba8","66577fabfcc730c6d46e1400","1095","stimuli/2000011.jpg","2","","prediction_trial","2","","true","","2","false","false","true","true","false","false","[2]","000","011","1","","","","","","",""
"","","","","","image-keyboard-response","265","319730","0.0-240.0","60ff6ef6dc8f29d5774ef2fc","665500ab8938657b03fbdba8","66577fabfcc730c6d46e1400","344","stimuli/20000112.jpg"," ","","feedback_trial","2","","","","","","","","","","","","","","","","","","","","",""
"","","","","","image-keyboard-response","266","320559","0.0-241.0","60ff6ef6dc8f29d5774ef2fc","665500ab8938657b03fbdba8","66577fabfcc730c6d46e1400","827","stimuli/2011011.jpg","0","","prediction_trial","1","","false","","2","false","false","false","false","false","false","[2,1]","011","011","0","","","","","","",""
"","","","","","image-keyboard-response","267","321619","0.0-242.0","60ff6ef6dc8f29d5774ef2fc","665500ab8938657b03fbdba8","66577fabfcc730c6d46e1400","1059","stimuli/20110111.jpg"," ","","feedback_trial","2","","","","","","","","","","","","","","","","","","","","",""
"","","","","","image-keyboard-response","268","322487","0.0-243.0","60ff6ef6dc8f29d5774ef2fc","665500ab8938657b03fbdba8","66577fabfcc730c6d46e1400","865","stimuli/2000100.jpg","2","","prediction_trial","2","","true","","2","true","true","true","true","true","true","[2]","000","100","1","","","","","","",""
"","","","","","image-keyboard-response","269","323032","0.0-244.0","60ff6ef6dc8f29d5774ef2fc","665500ab8938657b03fbdba8","66577fabfcc730c6d46e1400","543","stimuli/20001002.jpg"," ","","feedback_trial","2","","","","","","","","","","","","","","","","","","","","",""
"","","","","","image-keyboard-response","270","325241","0.0-245.0","60ff6ef6dc8f29d5774ef2fc","665500ab8938657b03fbdba8","66577fabfcc730c6d46e1400","2208","stimuli/2101110.jpg","2","","prediction_trial","0","","false","","2","true","true","false","false","false","false","[0,2]","101","110","0","","","","","","",""
"","","","","","image-keyboard-response","271","325702","0.0-246.0","60ff6ef6dc8f29d5774ef2fc","665500ab8938657b03fbdba8","66577fabfcc730c6d46e1400","459","stimuli/21011100.jpg"," ","","feedback_trial","0","","","","","","","","","","","","","","","","","","","","",""
"","","","","","image-keyboard-response","272","326519","0.0-247.0","60ff6ef6dc8f29d5774ef2fc","665500ab8938657b03fbdba8","66577fabfcc730c6d46e1400","815","stimuli/2101111.jpg","2","","prediction_trial","2","","true","","2","false","false","false","false","false","false","[0,2]","101","111","1","","","","","","",""
"","","","","","image-keyboard-response","273","326921","0.0-248.0","60ff6ef6dc8f29d5774ef2fc","665500ab8938657b03fbdba8","66577fabfcc730c6d46e1400","399","stimuli/21011112.jpg"," ","","feedback_trial","0","","","","","","","","","","","","","","","","","","","","",""
"","","","","","image-keyboard-response","274","328121","0.0-249.0","60ff6ef6dc8f29d5774ef2fc","665500ab8938657b03fbdba8","66577fabfcc730c6d46e1400","1199","stimuli/0000110.jpg","1","","prediction_trial","0","","false","","0","false","false","true","true","false","false","[0]","000","110","0","","","","","","",""
"","","","","","image-keyboard-response","275","328527","0.0-250.0","60ff6ef6dc8f29d5774ef2fc","665500ab8938657b03fbdba8","66577fabfcc730c6d46e1400","404","stimuli/00001100.jpg"," ","","feedback_trial","0","","","","","","","","","","","","","","","","","","","","",""
"","","","","","image-keyboard-response","276","329226","0.0-251.0","60ff6ef6dc8f29d5774ef2fc","665500ab8938657b03fbdba8","66577fabfcc730c6d46e1400","698","stimuli/2110100.jpg","2","","prediction_trial","2","","true","","2","true","true","true","true","true","true","[2]","110","100","1","","","","","","",""
"","","","","","image-keyboard-response","277","329563","0.0-252.0","60ff6ef6dc8f29d5774ef2fc","665500ab8938657b03fbdba8","66577fabfcc730c6d46e1400","336","stimuli/21101002.jpg"," ","","feedback_trial","2","","","","","","","","","","","","","","","","","","","","",""
"","","","","","image-keyboard-response","278","330793","0.0-253.0","60ff6ef6dc8f29d5774ef2fc","665500ab8938657b03fbdba8","66577fabfcc730c6d46e1400","1228","stimuli/0111000.jpg","1","","prediction_trial","1","","true","","0","true","true","false","false","false","false","[0,1,2]","111","000","1","","","","","","",""
"","","","","","image-keyboard-response","279","331166","0.0-254.0","60ff6ef6dc8f29d5774ef2fc","665500ab8938657b03fbdba8","66577fabfcc730c6d46e1400","373","stimuli/01110001.jpg"," ","","feedback_trial","0","","","","","","","","","","","","","","","","","","","","",""
"","","","","","image-keyboard-response","280","333036","0.0-255.0","60ff6ef6dc8f29d5774ef2fc","665500ab8938657b03fbdba8","66577fabfcc730c6d46e1400","1868","stimuli/1010100.jpg","1","","prediction_trial","1","","true","","1","true","true","false","true","false","true","[1]","010","100","1","","","","","","",""
"","","","","","image-keyboard-response","281","333303","0.0-256.0","60ff6ef6dc8f29d5774ef2fc","665500ab8938657b03fbdba8","66577fabfcc730c6d46e1400","266","stimuli/10101001.jpg"," ","","feedback_trial","1","","","","","","","","","","","","","","","","","","","","",""
"","","","","","image-keyboard-response","282","334973","0.0-257.0","60ff6ef6dc8f29d5774ef2fc","665500ab8938657b03fbdba8","66577fabfcc730c6d46e1400","1669","stimuli/2011010.jpg","2","","prediction_trial","1","","false","","2","true","true","false","false","false","false","[1,2]","011","010","0","","","","","","",""
"","","","","","image-keyboard-response","283","335465","0.0-258.0","60ff6ef6dc8f29d5774ef2fc","665500ab8938657b03fbdba8","66577fabfcc730c6d46e1400","491","stimuli/20110101.jpg"," ","","feedback_trial","1","","","","","","","","","","","","","","","","","","","","",""
"","","","","","image-keyboard-response","284","336543","0.0-259.0","60ff6ef6dc8f29d5774ef2fc","665500ab8938657b03fbdba8","66577fabfcc730c6d46e1400","1076","stimuli/2010001.jpg","2","","prediction_trial","2","","true","","2","false","true","true","true","false","true","[2]","010","001","1","","","","","","",""
"","","","","","image-keyboard-response","285","336859","0.0-260.0","60ff6ef6dc8f29d5774ef2fc","665500ab8938657b03fbdba8","66577fabfcc730c6d46e1400","313","stimuli/20100012.jpg"," ","","feedback_trial","2","","","","","","","","","","","","","","","","","","","","",""
"","","","","","image-keyboard-response","286","337513","0.0-261.0","60ff6ef6dc8f29d5774ef2fc","665500ab8938657b03fbdba8","66577fabfcc730c6d46e1400","652","stimuli/0011011.jpg","0","","prediction_trial","0","","true","","0","true","true","true","true","true","true","[0]","011","011","1","","","","","","",""
"","","","","","image-keyboard-response","287","337784","0.0-262.0","60ff6ef6dc8f29d5774ef2fc","665500ab8938657b03fbdba8","66577fabfcc730c6d46e1400","269","stimuli/00110110.jpg"," ","","feedback_trial","0","","","","","","","","","","","","","","","","","","","","",""
"","","","","","image-keyboard-response","288","338397","0.0-263.0","60ff6ef6dc8f29d5774ef2fc","665500ab8938657b03fbdba8","66577fabfcc730c6d46e1400","612","stimuli/1110011.jpg","2","","prediction_trial","0","","false","","1","false","false","false","false","false","false","[0,1]","110","011","0","","","","","","",""
"","","","","","image-keyboard-response","289","338680","0.0-264.0","60ff6ef6dc8f29d5774ef2fc","665500ab8938657b03fbdba8","66577fabfcc730c6d46e1400","281","stimuli/11100110.jpg"," ","","feedback_trial","0","","","","","","","","","","","","","","","","","","","","",""
"","","","","","image-keyboard-response","290","339865","0.0-265.0","60ff6ef6dc8f29d5774ef2fc","665500ab8938657b03fbdba8","66577fabfcc730c6d46e1400","1183","stimuli/1010000.jpg","1","","prediction_trial","1","","true","","1","true","true","false","true","false","true","[1]","010","000","1","","","","","","",""
"","","","","","image-keyboard-response","291","340156","0.0-266.0","60ff6ef6dc8f29d5774ef2fc","665500ab8938657b03fbdba8","66577fabfcc730c6d46e1400","289","stimuli/10100001.jpg"," ","","feedback_trial","1","","","","","","","","","","","","","","","","","","","","",""
"","","","","","image-keyboard-response","292","340903","0.0-267.0","60ff6ef6dc8f29d5774ef2fc","665500ab8938657b03fbdba8","66577fabfcc730c6d46e1400","746","stimuli/2011000.jpg","2","","prediction_trial","2","","true","","2","true","true","false","false","false","false","[1,2]","011","000","1","","","","","","",""
"","","","","","image-keyboard-response","293","341205","0.0-268.0","60ff6ef6dc8f29d5774ef2fc","665500ab8938657b03fbdba8","66577fabfcc730c6d46e1400","300","stimuli/20110002.jpg"," ","","feedback_trial","1","","","","","","","","","","","","","","","","","","","","",""
"","","","","","image-keyboard-response","294","343000","0.0-269.0","60ff6ef6dc8f29d5774ef2fc","665500ab8938657b03fbdba8","66577fabfcc730c6d46e1400","1793","stimuli/2001111.jpg","2","","prediction_trial","2","","true","","2","false","false","false","true","false","false","[2]","001","111","1","","","","","","",""
"","","","","","image-keyboard-response","295","343427","0.0-270.0","60ff6ef6dc8f29d5774ef2fc","665500ab8938657b03fbdba8","66577fabfcc730c6d46e1400","425","stimuli/20011112.jpg"," ","","feedback_trial","2","","","","","","","","","","","","","","","","","","","","",""
"","","","","","image-keyboard-response","296","344318","0.0-271.0","60ff6ef6dc8f29d5774ef2fc","665500ab8938657b03fbdba8","66577fabfcc730c6d46e1400","889","stimuli/2011100.jpg","2","","prediction_trial","1","","false","","2","true","true","false","false","false","false","[1,2]","011","100","0","","","","","","",""
"","","","","","image-keyboard-response","297","344771","0.0-272.0","60ff6ef6dc8f29d5774ef2fc","665500ab8938657b03fbdba8","66577fabfcc730c6d46e1400","451","stimuli/20111001.jpg"," ","","feedback_trial","1","","","","","","","","","","","","","","","","","","","","",""
"","","","","","image-keyboard-response","298","346053","0.0-273.0","60ff6ef6dc8f29d5774ef2fc","665500ab8938657b03fbdba8","66577fabfcc730c6d46e1400","1280","stimuli/2000111.jpg","0","","prediction_trial","2","","false","","2","false","false","true","true","false","false","[2]","000","111","0","","","","","","",""
"","","","","","image-keyboard-response","299","346621","0.0-274.0","60ff6ef6dc8f29d5774ef2fc","665500ab8938657b03fbdba8","66577fabfcc730c6d46e1400","567","stimuli/20001112.jpg"," ","","feedback_trial","2","","","","","","","","","","","","","","","","","","","","",""
"","","","","","image-keyboard-response","300","347278","0.0-275.0","60ff6ef6dc8f29d5774ef2fc","665500ab8938657b03fbdba8","66577fabfcc730c6d46e1400","655","stimuli/1001001.jpg","1","","prediction_trial","1","","true","","1","true","true","true","true","true","true","[1]","001","001","1","","","","","","",""
"","","","","","image-keyboard-response","301","347568","0.0-276.0","60ff6ef6dc8f29d5774ef2fc","665500ab8938657b03fbdba8","66577fabfcc730c6d46e1400","289","stimuli/10010011.jpg"," ","","feedback_trial","1","","","","","","","","","","","","","","","","","","","","",""
"","","","","","image-keyboard-response","302","348381","0.0-277.0","60ff6ef6dc8f29d5774ef2fc","665500ab8938657b03fbdba8","66577fabfcc730c6d46e1400","811","stimuli/1000111.jpg","1","","prediction_trial","1","","true","","1","false","false","true","true","false","false","[1]","000","111","1","","","","","","",""
"","","","","","image-keyboard-response","303","348825","0.0-278.0","60ff6ef6dc8f29d5774ef2fc","665500ab8938657b03fbdba8","66577fabfcc730c6d46e1400","444","stimuli/10001111.jpg"," ","","feedback_trial","1","","","","","","","","","","","","","","","","","","","","",""
"","","","","","image-keyboard-response","304","350319","0.0-279.0","60ff6ef6dc8f29d5774ef2fc","665500ab8938657b03fbdba8","66577fabfcc730c6d46e1400","1491","stimuli/2111101.jpg","2","","prediction_trial","0","","false","","2","false","false","false","false","false","false","[0,2,1]","111","101","0","","","","","","",""
"","","","","","image-keyboard-response","305","350773","0.0-280.0","60ff6ef6dc8f29d5774ef2fc","665500ab8938657b03fbdba8","66577fabfcc730c6d46e1400","452","stimuli/21111010.jpg"," ","","feedback_trial","0","","","","","","","","","","","","","","","","","","","","",""
"","","","","","image-keyboard-response","306","352570","0.0-281.0","60ff6ef6dc8f29d5774ef2fc","665500ab8938657b03fbdba8","66577fabfcc730c6d46e1400","1797","stimuli/1100110.jpg","1","","prediction_trial","1","","true","","1","false","false","true","true","false","false","[1]","100","110","1","","","","","","",""
"","","","","","image-keyboard-response","307","352847","0.0-282.0","60ff6ef6dc8f29d5774ef2fc","665500ab8938657b03fbdba8","66577fabfcc730c6d46e1400","274","stimuli/11001101.jpg"," ","","feedback_trial","1","","","","","","","","","","","","","","","","","","","","",""
"","","","","","image-keyboard-response","308","353872","0.0-283.0","60ff6ef6dc8f29d5774ef2fc","665500ab8938657b03fbdba8","66577fabfcc730c6d46e1400","1023","stimuli/2101001.jpg","2","","prediction_trial","2","","true","","2","false","true","false","false","false","false","[0,2]","101","001","1","","","","","","",""
"","","","","","image-keyboard-response","309","354172","0.0-284.0","60ff6ef6dc8f29d5774ef2fc","665500ab8938657b03fbdba8","66577fabfcc730c6d46e1400","298","stimuli/21010012.jpg"," ","","feedback_trial","0","","","","","","","","","","","","","","","","","","","","",""
"","","","","","image-keyboard-response","310","355912","0.0-285.0","60ff6ef6dc8f29d5774ef2fc","665500ab8938657b03fbdba8","66577fabfcc730c6d46e1400","1738","stimuli/1101100.jpg","1","","prediction_trial","1","","true","","1","true","true","true","true","true","true","[1]","101","100","1","","","","","","",""
"","","","","","image-keyboard-response","311","356180","0.0-286.0","60ff6ef6dc8f29d5774ef2fc","665500ab8938657b03fbdba8","66577fabfcc730c6d46e1400","267","stimuli/11011001.jpg"," ","","feedback_trial","1","","","","","","","","","","","","","","","","","","","","",""
"","","","","","image-keyboard-response","312","356706","0.0-287.0","60ff6ef6dc8f29d5774ef2fc","665500ab8938657b03fbdba8","66577fabfcc730c6d46e1400","525","stimuli/0000001.jpg","0","","prediction_trial","0","","true","","0","true","true","true","true","true","true","[0]","000","001","1","","","","","","",""
"","","","","","image-keyboard-response","313","356974","0.0-288.0","60ff6ef6dc8f29d5774ef2fc","665500ab8938657b03fbdba8","66577fabfcc730c6d46e1400","266","stimuli/00000010.jpg"," ","","feedback_trial","0","","","","","","","","","","","","","","","","","","","","",""
"","","","","","image-keyboard-response","314","358467","0.0-289.0","60ff6ef6dc8f29d5774ef2fc","665500ab8938657b03fbdba8","66577fabfcc730c6d46e1400","1492","stimuli/1110001.jpg","1","","prediction_trial","0","","false","","1","true","true","false","false","false","false","[0,1]","110","001","0","","","","","","",""
"","","","","","image-keyboard-response","315","358959","0.0-290.0","60ff6ef6dc8f29d5774ef2fc","665500ab8938657b03fbdba8","66577fabfcc730c6d46e1400","490","stimuli/11100010.jpg"," ","","feedback_trial","0","","","","","","","","","","","","","","","","","","","","",""
"","","","","","image-keyboard-response","316","359841","0.0-291.0","60ff6ef6dc8f29d5774ef2fc","665500ab8938657b03fbdba8","66577fabfcc730c6d46e1400","880","stimuli/2111110.jpg","2","","prediction_trial","1","","false","","2","true","true","false","false","false","false","[2,0,1]","111","110","0","","","","","","",""
"","","","","","image-keyboard-response","317","360343","0.0-292.0","60ff6ef6dc8f29d5774ef2fc","665500ab8938657b03fbdba8","66577fabfcc730c6d46e1400","500","stimuli/21111101.jpg"," ","","feedback_trial","2","","","","","","","","","","","","","","","","","","","","",""
"","","","","","survey-html-form","318","368102","0.0-293.0","60ff6ef6dc8f29d5774ef2fc","665500ab8938657b03fbdba8","66577fabfcc730c6d46e1400","7756","","{""feedback"":"""",""age"":""37"",""gender"":""Female"",""other_gender"":"""",""race"":""White"",""other_race"":"""",""ethnicity"":""Non-Hispanic""}","","exit_survey","","","","","","","","","","","","","","","","","37","Non-Hispanic","Female","White","0.6388888888888888","0.6388888888888888"
