"success","timeout","failed_images","failed_audio","failed_video","trial_type","trial_index","time_elapsed","internal_node_id","prolific_id","prolific_study_id","prolific_session_id","rt","stimulus","response","view_history","trial","character_choice","stimulus_dict","accuracy","correct_response","ball_pos","ego_ball_visible","ego_can_infer","alter_ball_visible","alter_can_infer","collective_ball_visible","collective_can_infer","search_locations","alter_occluders","ego_occluders","accuracy_bool","feedback","age","ethnicity","gender","race","overall_accuracy","bonus"
"true","false","[]","[]","[]","preload","0","2683","0.0-0.0","63d1675c8eef7f9792f55d42","665500ab8938657b03fbdba8","665792dd5e1494d277aaf587","","","","","","","","","","","","","","","","","","","","","","","","","","",""
"true","","","","","fullscreen","1","7790","0.0-1.0","63d1675c8eef7f9792f55d42","665500ab8938657b03fbdba8","665792dd5e1494d277aaf587","","","","","","","","","","","","","","","","","","","","","","","","","","",""
"","","","","","html-button-response","2","14013","0.0-2.0","63d1675c8eef7f9792f55d42","665500ab8938657b03fbdba8","665792dd5e1494d277aaf587","6220","<p><b>Consent Form</b></p> <div style=""text-align:left;background-color:lightgrey; padding:20px; max-width:900px;""><p>Please consider this information carefully before deciding whether to participate in this research.</p> <p>The purpose of this research is to examine which factors influence social judgment and decision-making. You will be asked to make judgements about individuals and actions in social scenarios. We are simply interested in your judgement. The study will take less than 1 hour to complete, and you will receive less than $20 on Prolific. Your compensation and time commitment are specified in the study description. There are no anticipated risks associated with participating in this study. The effects of participating should be comparable to those you would ordinarily experience from viewing a computer monitor and using a mouse or keyboard for a similar amount of time. At the end of the study, we will provide an explanation of the questions that motivate this line of research and will describe the potential implications. </p><p> Your participation in this study is completely voluntary and you may refuse to participate or you may choose to withdraw at any time without penalty or loss of benefits to you which are otherwise entitled. Your participation in this study will remain confidential. No personally identifiable information will be associated with your data. Also, all analyses of the data will be averaged across all the participants, so your individual responses will never be specifically analyzed. </p><p> If you have questions or concerns about your participation or payment, or want to request a summary of research findings, please contact Dr. Jonathan Phillips at Jonathan.S.Phillips@dartmouth.edu. </p><p> Please save a copy of this form for your records. </p><p><b>Agreement: </b>The nature and purpose of this research have been sufficiently explained and I agree to participate in this study. I understand that I am free to withdraw at any time without incurring any penalty. Please consent by clicking the button below to continue. Otherwise, please exit the study at any time. </p>","0","","","","","","","","","","","","","","","","","","","","","","","",""
"","","","","","instructions","3","219941","0.0-3.0-0.0","63d1675c8eef7f9792f55d42","665500ab8938657b03fbdba8","665792dd5e1494d277aaf587","205923","","","[{""page_index"":0,""viewing_time"":6689},{""page_index"":1,""viewing_time"":27150},{""page_index"":2,""viewing_time"":2579},{""page_index"":3,""viewing_time"":2528},{""page_index"":4,""viewing_time"":2712},{""page_index"":5,""viewing_time"":8533},{""page_index"":6,""viewing_time"":17238},{""page_index"":7,""viewing_time"":5425},{""page_index"":8,""viewing_time"":5243},{""page_index"":9,""viewing_time"":5016},{""page_index"":10,""viewing_time"":102795},{""page_index"":11,""viewing_time"":5893},{""page_index"":12,""viewing_time"":11591},{""page_index"":13,""viewing_time"":2531}]","intro","","","","","","","","","","","","","","","","","","","","","",""
"","","","","","image-keyboard-response","4","222012","0.0-3.0-1.0","63d1675c8eef7f9792f55d42","665500ab8938657b03fbdba8","665792dd5e1494d277aaf587","2069","stimuli/0000011.jpg","0","","prediction_practice","0","{""filepath"":""stimuli/0000011.jpg"",""ball_pos"":0,""ego_ball_visible"":true,""ego_can_infer"":true,""alter_ball_visible"":true,""alter_can_infer"":true,""collective_ball_visible"":true,""collective_can_infer"":true,""search_locations"":[0],""alter_occluders"":""000"",""ego_occluders"":""011""}","true","","","","","","","","","","","","","","","","","","",""
"","","","","","image-keyboard-response","5","226916","0.0-3.0-2.0","63d1675c8eef7f9792f55d42","665500ab8938657b03fbdba8","665792dd5e1494d277aaf587","4902","stimuli/00000110.jpg"," ","","practrice_feedback","0","","","","","","","","","","","","","","","","","","","","",""
"","","","","","image-keyboard-response","6","228956","0.0-3.0-3.0","63d1675c8eef7f9792f55d42","665500ab8938657b03fbdba8","665792dd5e1494d277aaf587","2039","stimuli/1001001.jpg","1","","prediction_practice","1","{""filepath"":""stimuli/1001001.jpg"",""ball_pos"":1,""ego_ball_visible"":true,""ego_can_infer"":true,""alter_ball_visible"":true,""alter_can_infer"":true,""collective_ball_visible"":true,""collective_can_infer"":true,""search_locations"":[1],""alter_occluders"":""001"",""ego_occluders"":""001""}","true","","","","","","","","","","","","","","","","","","",""
"","","","","","image-keyboard-response","7","230215","0.0-3.0-4.0","63d1675c8eef7f9792f55d42","665500ab8938657b03fbdba8","665792dd5e1494d277aaf587","1258","stimuli/10010011.jpg"," ","","practrice_feedback","1","","","","","","","","","","","","","","","","","","","","",""
"","","","","","image-keyboard-response","8","231482","0.0-3.0-5.0","63d1675c8eef7f9792f55d42","665500ab8938657b03fbdba8","665792dd5e1494d277aaf587","1266","stimuli/2011110.jpg","2","","prediction_practice","1","{""filepath"":""stimuli/2011110.jpg"",""ball_pos"":2,""ego_ball_visible"":true,""ego_can_infer"":true,""alter_ball_visible"":false,""alter_can_infer"":false,""collective_ball_visible"":false,""collective_can_infer"":false,""search_locations"":[1,2],""alter_occluders"":""011"",""ego_occluders"":""110""}","false","","","","","","","","","","","","","","","","","","",""
"","","","","","image-keyboard-response","9","236619","0.0-3.0-6.0","63d1675c8eef7f9792f55d42","665500ab8938657b03fbdba8","665792dd5e1494d277aaf587","5136","stimuli/20111101.jpg"," ","","practrice_feedback","1","","","","","","","","","","","","","","","","","","","","",""
"","","","","","image-keyboard-response","10","238560","0.0-3.0-7.0","63d1675c8eef7f9792f55d42","665500ab8938657b03fbdba8","665792dd5e1494d277aaf587","1940","stimuli/1111110.jpg","1","","prediction_practice","1","{""filepath"":""stimuli/1111110.jpg"",""ball_pos"":1,""ego_ball_visible"":false,""ego_can_infer"":false,""alter_ball_visible"":false,""alter_can_infer"":false,""collective_ball_visible"":false,""collective_can_infer"":false,""search_locations"":[1,0,2],""alter_occluders"":""111"",""ego_occluders"":""110""}","true","","","","","","","","","","","","","","","","","","",""
"","","","","","image-keyboard-response","11","241221","0.0-3.0-8.0","63d1675c8eef7f9792f55d42","665500ab8938657b03fbdba8","665792dd5e1494d277aaf587","2660","stimuli/11111101.jpg"," ","","practrice_feedback","1","","","","","","","","","","","","","","","","","","","","",""
"","","","","","image-keyboard-response","12","244002","0.0-3.0-9.0","63d1675c8eef7f9792f55d42","665500ab8938657b03fbdba8","665792dd5e1494d277aaf587","2780","stimuli/0111101.jpg","0","","prediction_practice","1","{""filepath"":""stimuli/0111101.jpg"",""ball_pos"":0,""ego_ball_visible"":false,""ego_can_infer"":false,""alter_ball_visible"":false,""alter_can_infer"":false,""collective_ball_visible"":false,""collective_can_infer"":false,""search_locations"":[2,0,1],""alter_occluders"":""111"",""ego_occluders"":""101""}","false","","","","","","","","","","","","","","","","","","",""
"","","","","","image-keyboard-response","13","245407","0.0-3.0-10.0","63d1675c8eef7f9792f55d42","665500ab8938657b03fbdba8","665792dd5e1494d277aaf587","1403","stimuli/01111011.jpg"," ","","practrice_feedback","2","","","","","","","","","","","","","","","","","","","","",""
"","","","","","image-keyboard-response","14","247794","0.0-3.0-11.0","63d1675c8eef7f9792f55d42","665500ab8938657b03fbdba8","665792dd5e1494d277aaf587","2387","stimuli/0000101.jpg","0","","prediction_practice","0","{""filepath"":""stimuli/0000101.jpg"",""ball_pos"":0,""ego_ball_visible"":false,""ego_can_infer"":false,""alter_ball_visible"":true,""alter_can_infer"":true,""collective_ball_visible"":false,""collective_can_infer"":false,""search_locations"":[0],""alter_occluders"":""000"",""ego_occluders"":""101""}","true","","","","","","","","","","","","","","","","","","",""
"","","","","","image-keyboard-response","15","249414","0.0-3.0-12.0","63d1675c8eef7f9792f55d42","665500ab8938657b03fbdba8","665792dd5e1494d277aaf587","1618","stimuli/00001010.jpg"," ","","practrice_feedback","0","","","","","","","","","","","","","","","","","","","","",""
"","","","","","image-keyboard-response","16","251283","0.0-3.0-13.0","63d1675c8eef7f9792f55d42","665500ab8938657b03fbdba8","665792dd5e1494d277aaf587","1869","stimuli/0010001.jpg","0","","prediction_practice","0","{""filepath"":""stimuli/0010001.jpg"",""ball_pos"":0,""ego_ball_visible"":true,""ego_can_infer"":true,""alter_ball_visible"":true,""alter_can_infer"":true,""collective_ball_visible"":true,""collective_can_infer"":true,""search_locations"":[0],""alter_occluders"":""010"",""ego_occluders"":""001""}","true","","","","","","","","","","","","","","","","","","",""
"","","","","","image-keyboard-response","17","252488","0.0-3.0-14.0","63d1675c8eef7f9792f55d42","665500ab8938657b03fbdba8","665792dd5e1494d277aaf587","1204","stimuli/00100010.jpg"," ","","practrice_feedback","0","","","","","","","","","","","","","","","","","","","","",""
"","","","","","image-keyboard-response","18","253985","0.0-3.0-15.0","63d1675c8eef7f9792f55d42","665500ab8938657b03fbdba8","665792dd5e1494d277aaf587","1496","stimuli/0000001.jpg","0","","prediction_practice","0","{""filepath"":""stimuli/0000001.jpg"",""ball_pos"":0,""ego_ball_visible"":true,""ego_can_infer"":true,""alter_ball_visible"":true,""alter_can_infer"":true,""collective_ball_visible"":true,""collective_can_infer"":true,""search_locations"":[0],""alter_occluders"":""000"",""ego_occluders"":""001""}","true","","","","","","","","","","","","","","","","","","",""
"","","","","","image-keyboard-response","19","254946","0.0-3.0-16.0","63d1675c8eef7f9792f55d42","665500ab8938657b03fbdba8","665792dd5e1494d277aaf587","960","stimuli/00000010.jpg"," ","","practrice_feedback","0","","","","","","","","","","","","","","","","","","","","",""
"","","","","","image-keyboard-response","20","256323","0.0-3.0-17.0","63d1675c8eef7f9792f55d42","665500ab8938657b03fbdba8","665792dd5e1494d277aaf587","1376","stimuli/2101010.jpg","2","","prediction_practice","2","{""filepath"":""stimuli/2101010.jpg"",""ball_pos"":2,""ego_ball_visible"":true,""ego_can_infer"":true,""alter_ball_visible"":false,""alter_can_infer"":false,""collective_ball_visible"":false,""collective_can_infer"":false,""search_locations"":[0,2],""alter_occluders"":""101"",""ego_occluders"":""010""}","true","","","","","","","","","","","","","","","","","","",""
"","","","","","image-keyboard-response","21","257276","0.0-3.0-18.0","63d1675c8eef7f9792f55d42","665500ab8938657b03fbdba8","665792dd5e1494d277aaf587","951","stimuli/21010102.jpg"," ","","practrice_feedback","0","","","","","","","","","","","","","","","","","","","","",""
"","","","","","image-keyboard-response","22","258310","0.0-3.0-19.0","63d1675c8eef7f9792f55d42","665500ab8938657b03fbdba8","665792dd5e1494d277aaf587","1033","stimuli/2000110.jpg","2","","prediction_practice","2","{""filepath"":""stimuli/2000110.jpg"",""ball_pos"":2,""ego_ball_visible"":true,""ego_can_infer"":true,""alter_ball_visible"":true,""alter_can_infer"":true,""collective_ball_visible"":true,""collective_can_infer"":true,""search_locations"":[2],""alter_occluders"":""000"",""ego_occluders"":""110""}","true","","","","","","","","","","","","","","","","","","",""
"","","","","","image-keyboard-response","23","259261","0.0-3.0-20.0","63d1675c8eef7f9792f55d42","665500ab8938657b03fbdba8","665792dd5e1494d277aaf587","950","stimuli/20001102.jpg"," ","","practrice_feedback","2","","","","","","","","","","","","","","","","","","","","",""
"","","","","","html-button-response","24","273168","0.0-3.0-21.0","63d1675c8eef7f9792f55d42","665500ab8938657b03fbdba8","665792dd5e1494d277aaf587","13906","Now that you've had some practice, you'll be tested with a couple of easy trials. If you correctly predict Sam's choice, you'll move on to complete the experiment!","0","","","","","","","","","","","","","","","","","","","","","","","",""
"","","","","","image-keyboard-response","25","274634","0.0-3.0-22.0-0.0","63d1675c8eef7f9792f55d42","665500ab8938657b03fbdba8","665792dd5e1494d277aaf587","1465","stimuli/0000011.jpg","arrowleft","","comprehension_quiz","","","true","arrowleft","","","","","","","","","","","","","","","","","",""
"","","","","","image-keyboard-response","26","276365","0.0-3.0-22.0-1.0","63d1675c8eef7f9792f55d42","665500ab8938657b03fbdba8","665792dd5e1494d277aaf587","1730","stimuli/00000110.jpg"," ","","comprehension_quiz","","","true"," ","","","","","","","","","","","","","","","","","",""
"","","","","","image-keyboard-response","27","277847","0.0-3.0-22.0-2.0","63d1675c8eef7f9792f55d42","665500ab8938657b03fbdba8","665792dd5e1494d277aaf587","1481","stimuli/1010010.jpg","arrowdown","","comprehension_quiz","","","true","arrowdown","","","","","","","","","","","","","","","","","",""
"","","","","","image-keyboard-response","28","279035","0.0-3.0-22.0-3.0","63d1675c8eef7f9792f55d42","665500ab8938657b03fbdba8","665792dd5e1494d277aaf587","1188","stimuli/10100101.jpg"," ","","comprehension_quiz","","","true"," ","","","","","","","","","","","","","","","","","",""
"","","","","","html-button-response","29","281968","0.0-4.0","63d1675c8eef7f9792f55d42","665500ab8938657b03fbdba8","665792dd5e1494d277aaf587","2931","The experiment will now begin.","0","","","","","","","","","","","","","","","","","","","","","","","",""
"","","","","","image-keyboard-response","30","283485","0.0-5.0","63d1675c8eef7f9792f55d42","665500ab8938657b03fbdba8","665792dd5e1494d277aaf587","1515","stimuli/1000111.jpg","1","","prediction_trial","1","","true","","1","false","false","true","true","false","false","[1]","000","111","1","","","","","","",""
"","","","","","image-keyboard-response","31","285178","0.0-6.0","63d1675c8eef7f9792f55d42","665500ab8938657b03fbdba8","665792dd5e1494d277aaf587","1691","stimuli/10001111.jpg"," ","","feedback_trial","1","","","","","","","","","","","","","","","","","","","","",""
"","","","","","image-keyboard-response","32","286394","0.0-7.0","63d1675c8eef7f9792f55d42","665500ab8938657b03fbdba8","665792dd5e1494d277aaf587","1216","stimuli/0001001.jpg","0","","prediction_trial","0","","true","","0","true","true","true","true","true","true","[0]","001","001","1","","","","","","",""
"","","","","","image-keyboard-response","33","287485","0.0-8.0","63d1675c8eef7f9792f55d42","665500ab8938657b03fbdba8","665792dd5e1494d277aaf587","1078","stimuli/00010010.jpg"," ","","feedback_trial","0","","","","","","","","","","","","","","","","","","","","",""
"","","","","","image-keyboard-response","34","288702","0.0-9.0","63d1675c8eef7f9792f55d42","665500ab8938657b03fbdba8","665792dd5e1494d277aaf587","1216","stimuli/0000111.jpg","2","","prediction_trial","0","","false","","0","false","false","true","true","false","false","[0]","000","111","0","","","","","","",""
"","","","","","image-keyboard-response","35","289779","0.0-10.0","63d1675c8eef7f9792f55d42","665500ab8938657b03fbdba8","665792dd5e1494d277aaf587","1076","stimuli/00001110.jpg"," ","","feedback_trial","0","","","","","","","","","","","","","","","","","","","","",""
"","","","","","image-keyboard-response","36","290839","0.0-11.0","63d1675c8eef7f9792f55d42","665500ab8938657b03fbdba8","665792dd5e1494d277aaf587","1059","stimuli/1110101.jpg","1","","prediction_trial","0","","false","","1","true","true","false","false","false","false","[0,1]","110","101","0","","","","","","",""
"","","","","","image-keyboard-response","37","292741","0.0-12.0","63d1675c8eef7f9792f55d42","665500ab8938657b03fbdba8","665792dd5e1494d277aaf587","1902","stimuli/11101010.jpg"," ","","feedback_trial","0","","","","","","","","","","","","","","","","","","","","",""
"","","","","","image-keyboard-response","38","295467","0.0-13.0","63d1675c8eef7f9792f55d42","665500ab8938657b03fbdba8","665792dd5e1494d277aaf587","2725","stimuli/1100011.jpg","1","","prediction_trial","1","","true","","1","false","false","true","true","false","false","[1]","100","011","1","","","","","","",""
"","","","","","image-keyboard-response","39","296561","0.0-14.0","63d1675c8eef7f9792f55d42","665500ab8938657b03fbdba8","665792dd5e1494d277aaf587","1094","stimuli/11000111.jpg"," ","","feedback_trial","1","","","","","","","","","","","","","","","","","","","","",""
"","","","","","image-keyboard-response","40","298294","0.0-15.0","63d1675c8eef7f9792f55d42","665500ab8938657b03fbdba8","665792dd5e1494d277aaf587","1732","stimuli/0000110.jpg","0","","prediction_trial","0","","true","","0","false","false","true","true","false","false","[0]","000","110","1","","","","","","",""
"","","","","","image-keyboard-response","41","299384","0.0-16.0","63d1675c8eef7f9792f55d42","665500ab8938657b03fbdba8","665792dd5e1494d277aaf587","1089","stimuli/00001100.jpg"," ","","feedback_trial","0","","","","","","","","","","","","","","","","","","","","",""
"","","","","","image-keyboard-response","42","301435","0.0-17.0","63d1675c8eef7f9792f55d42","665500ab8938657b03fbdba8","665792dd5e1494d277aaf587","2050","stimuli/1101011.jpg","1","","prediction_trial","1","","true","","1","false","false","true","true","false","false","[1]","101","011","1","","","","","","",""
"","","","","","image-keyboard-response","43","302301","0.0-18.0","63d1675c8eef7f9792f55d42","665500ab8938657b03fbdba8","665792dd5e1494d277aaf587","865","stimuli/11010111.jpg"," ","","feedback_trial","1","","","","","","","","","","","","","","","","","","","","",""
"","","","","","image-keyboard-response","44","303958","0.0-19.0","63d1675c8eef7f9792f55d42","665500ab8938657b03fbdba8","665792dd5e1494d277aaf587","1656","stimuli/0100100.jpg","0","","prediction_trial","0","","true","","0","false","true","false","true","false","true","[0]","100","100","1","","","","","","",""
"","","","","","image-keyboard-response","45","304781","0.0-20.0","63d1675c8eef7f9792f55d42","665500ab8938657b03fbdba8","665792dd5e1494d277aaf587","822","stimuli/01001000.jpg"," ","","feedback_trial","0","","","","","","","","","","","","","","","","","","","","",""
"","","","","","image-keyboard-response","46","307025","0.0-21.0","63d1675c8eef7f9792f55d42","665500ab8938657b03fbdba8","665792dd5e1494d277aaf587","2243","stimuli/2110111.jpg","0","","prediction_trial","2","","false","","2","false","false","true","true","false","false","[2]","110","111","0","","","","","","",""
"","","","","","image-keyboard-response","47","307888","0.0-22.0","63d1675c8eef7f9792f55d42","665500ab8938657b03fbdba8","665792dd5e1494d277aaf587","862","stimuli/21101112.jpg"," ","","feedback_trial","2","","","","","","","","","","","","","","","","","","","","",""
"","","","","","image-keyboard-response","48","310166","0.0-23.0","63d1675c8eef7f9792f55d42","665500ab8938657b03fbdba8","665792dd5e1494d277aaf587","2277","stimuli/2111010.jpg","2","","prediction_trial","2","","true","","2","true","true","false","false","false","false","[1,0,2]","111","010","1","","","","","","",""
"","","","","","image-keyboard-response","49","311052","0.0-24.0","63d1675c8eef7f9792f55d42","665500ab8938657b03fbdba8","665792dd5e1494d277aaf587","886","stimuli/21110102.jpg"," ","","feedback_trial","1","","","","","","","","","","","","","","","","","","","","",""
"","","","","","image-keyboard-response","50","313728","0.0-25.0","63d1675c8eef7f9792f55d42","665500ab8938657b03fbdba8","665792dd5e1494d277aaf587","2675","stimuli/0101000.jpg","2","","prediction_trial","0","","false","","0","true","true","false","false","false","false","[0,2]","101","000","0","","","","","","",""
"","","","","","image-keyboard-response","51","314617","0.0-26.0","63d1675c8eef7f9792f55d42","665500ab8938657b03fbdba8","665792dd5e1494d277aaf587","889","stimuli/01010000.jpg"," ","","feedback_trial","0","","","","","","","","","","","","","","","","","","","","",""
"","","","","","image-keyboard-response","52","316243","0.0-27.0","63d1675c8eef7f9792f55d42","665500ab8938657b03fbdba8","665792dd5e1494d277aaf587","1625","stimuli/0000101.jpg","0","","prediction_trial","0","","true","","0","false","false","true","true","false","false","[0]","000","101","1","","","","","","",""
"","","","","","image-keyboard-response","53","317256","0.0-28.0","63d1675c8eef7f9792f55d42","665500ab8938657b03fbdba8","665792dd5e1494d277aaf587","1012","stimuli/00001010.jpg"," ","","feedback_trial","0","","","","","","","","","","","","","","","","","","","","",""
"","","","","","image-keyboard-response","54","318730","0.0-29.0","63d1675c8eef7f9792f55d42","665500ab8938657b03fbdba8","665792dd5e1494d277aaf587","1473","stimuli/0010010.jpg","0","","prediction_trial","0","","true","","0","true","true","true","true","true","true","[0]","010","010","1","","","","","","",""
"","","","","","image-keyboard-response","55","319564","0.0-30.0","63d1675c8eef7f9792f55d42","665500ab8938657b03fbdba8","665792dd5e1494d277aaf587","832","stimuli/00100100.jpg"," ","","feedback_trial","0","","","","","","","","","","","","","","","","","","","","",""
"","","","","","image-keyboard-response","56","321341","0.0-31.0","63d1675c8eef7f9792f55d42","665500ab8938657b03fbdba8","665792dd5e1494d277aaf587","1776","stimuli/1111000.jpg","1","","prediction_trial","2","","false","","1","true","true","false","false","false","false","[1,2,0]","111","000","0","","","","","","",""
"","","","","","image-keyboard-response","57","322191","0.0-32.0","63d1675c8eef7f9792f55d42","665500ab8938657b03fbdba8","665792dd5e1494d277aaf587","849","stimuli/11110002.jpg"," ","","feedback_trial","1","","","","","","","","","","","","","","","","","","","","",""
"","","","","","image-keyboard-response","58","323749","0.0-33.0","63d1675c8eef7f9792f55d42","665500ab8938657b03fbdba8","665792dd5e1494d277aaf587","1558","stimuli/0111110.jpg","1","","prediction_trial","2","","false","","0","false","false","false","false","false","false","[2,0,1]","111","110","0","","","","","","",""
"","","","","","image-keyboard-response","59","324636","0.0-34.0","63d1675c8eef7f9792f55d42","665500ab8938657b03fbdba8","665792dd5e1494d277aaf587","886","stimuli/01111102.jpg"," ","","feedback_trial","2","","","","","","","","","","","","","","","","","","","","",""
"","","","","","image-keyboard-response","60","326398","0.0-35.0","63d1675c8eef7f9792f55d42","665500ab8938657b03fbdba8","665792dd5e1494d277aaf587","1762","stimuli/2001011.jpg","1","","prediction_trial","2","","false","","2","false","false","false","true","false","false","[2]","001","011","0","","","","","","",""
"","","","","","image-keyboard-response","61","327273","0.0-36.0","63d1675c8eef7f9792f55d42","665500ab8938657b03fbdba8","665792dd5e1494d277aaf587","875","stimuli/20010112.jpg"," ","","feedback_trial","2","","","","","","","","","","","","","","","","","","","","",""
"","","","","","image-keyboard-response","62","328543","0.0-37.0","63d1675c8eef7f9792f55d42","665500ab8938657b03fbdba8","665792dd5e1494d277aaf587","1269","stimuli/0010011.jpg","0","","prediction_trial","0","","true","","0","true","true","true","true","true","true","[0]","010","011","1","","","","","","",""
"","","","","","image-keyboard-response","63","329339","0.0-38.0","63d1675c8eef7f9792f55d42","665500ab8938657b03fbdba8","665792dd5e1494d277aaf587","795","stimuli/00100110.jpg"," ","","feedback_trial","0","","","","","","","","","","","","","","","","","","","","",""
"","","","","","image-keyboard-response","64","330448","0.0-39.0","63d1675c8eef7f9792f55d42","665500ab8938657b03fbdba8","665792dd5e1494d277aaf587","1109","stimuli/2110110.jpg","2","","prediction_trial","2","","true","","2","true","true","true","true","true","true","[2]","110","110","1","","","","","","",""
"","","","","","image-keyboard-response","65","331253","0.0-40.0","63d1675c8eef7f9792f55d42","665500ab8938657b03fbdba8","665792dd5e1494d277aaf587","804","stimuli/21101102.jpg"," ","","feedback_trial","2","","","","","","","","","","","","","","","","","","","","",""
"","","","","","image-keyboard-response","66","332821","0.0-41.0","63d1675c8eef7f9792f55d42","665500ab8938657b03fbdba8","665792dd5e1494d277aaf587","1567","stimuli/1111001.jpg","1","","prediction_trial","1","","true","","1","true","true","false","false","false","false","[1,2,0]","111","001","1","","","","","","",""
"","","","","","image-keyboard-response","67","333580","0.0-42.0","63d1675c8eef7f9792f55d42","665500ab8938657b03fbdba8","665792dd5e1494d277aaf587","758","stimuli/11110011.jpg"," ","","feedback_trial","1","","","","","","","","","","","","","","","","","","","","",""
"","","","","","image-keyboard-response","68","334610","0.0-43.0","63d1675c8eef7f9792f55d42","665500ab8938657b03fbdba8","665792dd5e1494d277aaf587","1029","stimuli/1010001.jpg","1","","prediction_trial","1","","true","","1","true","true","false","true","false","true","[1]","010","001","1","","","","","","",""
"","","","","","image-keyboard-response","69","335579","0.0-44.0","63d1675c8eef7f9792f55d42","665500ab8938657b03fbdba8","665792dd5e1494d277aaf587","967","stimuli/10100011.jpg"," ","","feedback_trial","1","","","","","","","","","","","","","","","","","","","","",""
"","","","","","image-keyboard-response","70","336734","0.0-45.0","63d1675c8eef7f9792f55d42","665500ab8938657b03fbdba8","665792dd5e1494d277aaf587","1154","stimuli/2100000.jpg","2","","prediction_trial","2","","true","","2","true","true","true","true","true","true","[2]","100","000","1","","","","","","",""
"","","","","","image-keyboard-response","71","337428","0.0-46.0","63d1675c8eef7f9792f55d42","665500ab8938657b03fbdba8","665792dd5e1494d277aaf587","693","stimuli/21000002.jpg"," ","","feedback_trial","2","","","","","","","","","","","","","","","","","","","","",""
"","","","","","image-keyboard-response","72","338737","0.0-47.0","63d1675c8eef7f9792f55d42","665500ab8938657b03fbdba8","665792dd5e1494d277aaf587","1308","stimuli/2000100.jpg","2","","prediction_trial","2","","true","","2","true","true","true","true","true","true","[2]","000","100","1","","","","","","",""
"","","","","","image-keyboard-response","73","339417","0.0-48.0","63d1675c8eef7f9792f55d42","665500ab8938657b03fbdba8","665792dd5e1494d277aaf587","667","stimuli/20001002.jpg"," ","","feedback_trial","2","","","","","","","","","","","","","","","","","","","","",""
"","","","","","image-keyboard-response","74","340427","0.0-49.0","63d1675c8eef7f9792f55d42","665500ab8938657b03fbdba8","665792dd5e1494d277aaf587","1009","stimuli/2010110.jpg","2","","prediction_trial","2","","true","","2","true","true","true","true","true","true","[2]","010","110","1","","","","","","",""
"","","","","","image-keyboard-response","75","341197","0.0-50.0","63d1675c8eef7f9792f55d42","665500ab8938657b03fbdba8","665792dd5e1494d277aaf587","769","stimuli/20101102.jpg"," ","","feedback_trial","2","","","","","","","","","","","","","","","","","","","","",""
"","","","","","image-keyboard-response","76","343462","0.0-51.0","63d1675c8eef7f9792f55d42","665500ab8938657b03fbdba8","665792dd5e1494d277aaf587","2265","stimuli/2001101.jpg","0","","prediction_trial","2","","false","","2","false","false","false","true","false","false","[2]","001","101","0","","","","","","",""
"","","","","","image-keyboard-response","77","344329","0.0-52.0","63d1675c8eef7f9792f55d42","665500ab8938657b03fbdba8","665792dd5e1494d277aaf587","867","stimuli/20011012.jpg"," ","","feedback_trial","2","","","","","","","","","","","","","","","","","","","","",""
"","","","","","image-keyboard-response","78","346158","0.0-53.0","63d1675c8eef7f9792f55d42","665500ab8938657b03fbdba8","665792dd5e1494d277aaf587","1827","stimuli/2101111.jpg","2","","prediction_trial","0","","false","","2","false","false","false","false","false","false","[2,0]","101","111","0","","","","","","",""
"","","","","","image-keyboard-response","79","347005","0.0-54.0","63d1675c8eef7f9792f55d42","665500ab8938657b03fbdba8","665792dd5e1494d277aaf587","847","stimuli/21011110.jpg"," ","","feedback_trial","2","","","","","","","","","","","","","","","","","","","","",""
"","","","","","image-keyboard-response","80","348292","0.0-55.0","63d1675c8eef7f9792f55d42","665500ab8938657b03fbdba8","665792dd5e1494d277aaf587","1285","stimuli/1110000.jpg","1","","prediction_trial","1","","true","","1","true","true","false","false","false","false","[1,0]","110","000","1","","","","","","",""
"","","","","","image-keyboard-response","81","349156","0.0-56.0","63d1675c8eef7f9792f55d42","665500ab8938657b03fbdba8","665792dd5e1494d277aaf587","864","stimuli/11100001.jpg"," ","","feedback_trial","1","","","","","","","","","","","","","","","","","","","","",""
"","","","","","image-keyboard-response","82","350699","0.0-57.0","63d1675c8eef7f9792f55d42","665500ab8938657b03fbdba8","665792dd5e1494d277aaf587","1542","stimuli/2011000.jpg","2","","prediction_trial","2","","true","","2","true","true","false","false","false","false","[2,1]","011","000","1","","","","","","",""
"","","","","","image-keyboard-response","83","351675","0.0-58.0","63d1675c8eef7f9792f55d42","665500ab8938657b03fbdba8","665792dd5e1494d277aaf587","976","stimuli/20110002.jpg"," ","","feedback_trial","2","","","","","","","","","","","","","","","","","","","","",""
"","","","","","image-keyboard-response","84","352903","0.0-59.0","63d1675c8eef7f9792f55d42","665500ab8938657b03fbdba8","665792dd5e1494d277aaf587","1227","stimuli/1010100.jpg","1","","prediction_trial","1","","true","","1","true","true","false","true","false","true","[1]","010","100","1","","","","","","",""
"","","","","","image-keyboard-response","85","353826","0.0-60.0","63d1675c8eef7f9792f55d42","665500ab8938657b03fbdba8","665792dd5e1494d277aaf587","922","stimuli/10101001.jpg"," ","","feedback_trial","1","","","","","","","","","","","","","","","","","","","","",""
"","","","","","image-keyboard-response","86","356016","0.0-61.0","63d1675c8eef7f9792f55d42","665500ab8938657b03fbdba8","665792dd5e1494d277aaf587","2190","stimuli/0101110.jpg","1","","prediction_trial","2","","false","","0","false","false","false","false","false","false","[0,2]","101","110","0","","","","","","",""
"","","","","","image-keyboard-response","87","356772","0.0-62.0","63d1675c8eef7f9792f55d42","665500ab8938657b03fbdba8","665792dd5e1494d277aaf587","755","stimuli/01011102.jpg"," ","","feedback_trial","0","","","","","","","","","","","","","","","","","","","","",""
"","","","","","image-keyboard-response","88","357937","0.0-63.0","63d1675c8eef7f9792f55d42","665500ab8938657b03fbdba8","665792dd5e1494d277aaf587","1165","stimuli/0011011.jpg","0","","prediction_trial","0","","true","","0","true","true","true","true","true","true","[0]","011","011","1","","","","","","",""
"","","","","","image-keyboard-response","89","358963","0.0-64.0","63d1675c8eef7f9792f55d42","665500ab8938657b03fbdba8","665792dd5e1494d277aaf587","1025","stimuli/00110110.jpg"," ","","feedback_trial","0","","","","","","","","","","","","","","","","","","","","",""
"","","","","","image-keyboard-response","90","361562","0.0-65.0","63d1675c8eef7f9792f55d42","665500ab8938657b03fbdba8","665792dd5e1494d277aaf587","2598","stimuli/0001101.jpg","0","","prediction_trial","0","","true","","0","false","false","true","true","false","false","[0]","001","101","1","","","","","","",""
"","","","","","image-keyboard-response","91","362452","0.0-66.0","63d1675c8eef7f9792f55d42","665500ab8938657b03fbdba8","665792dd5e1494d277aaf587","889","stimuli/00011010.jpg"," ","","feedback_trial","0","","","","","","","","","","","","","","","","","","","","",""
"","","","","","image-keyboard-response","92","364192","0.0-67.0","63d1675c8eef7f9792f55d42","665500ab8938657b03fbdba8","665792dd5e1494d277aaf587","1739","stimuli/1111011.jpg","1","","prediction_trial","0","","false","","1","false","false","false","false","false","false","[0,2,1]","111","011","0","","","","","","",""
"","","","","","image-keyboard-response","93","364993","0.0-68.0","63d1675c8eef7f9792f55d42","665500ab8938657b03fbdba8","665792dd5e1494d277aaf587","800","stimuli/11110110.jpg"," ","","feedback_trial","0","","","","","","","","","","","","","","","","","","","","",""
"","","","","","image-keyboard-response","94","367888","0.0-69.0","63d1675c8eef7f9792f55d42","665500ab8938657b03fbdba8","665792dd5e1494d277aaf587","2894","stimuli/1011000.jpg","1","","prediction_trial","1","","true","","1","true","true","false","false","false","false","[2,1]","011","000","1","","","","","","",""
"","","","","","image-keyboard-response","95","368771","0.0-70.0","63d1675c8eef7f9792f55d42","665500ab8938657b03fbdba8","665792dd5e1494d277aaf587","882","stimuli/10110001.jpg"," ","","feedback_trial","2","","","","","","","","","","","","","","","","","","","","",""
"","","","","","image-keyboard-response","96","369960","0.0-71.0","63d1675c8eef7f9792f55d42","665500ab8938657b03fbdba8","665792dd5e1494d277aaf587","1187","stimuli/2100101.jpg","0","","prediction_trial","2","","false","","2","false","false","true","true","false","false","[2]","100","101","0","","","","","","",""
"","","","","","image-keyboard-response","97","370791","0.0-72.0","63d1675c8eef7f9792f55d42","665500ab8938657b03fbdba8","665792dd5e1494d277aaf587","831","stimuli/21001012.jpg"," ","","feedback_trial","2","","","","","","","","","","","","","","","","","","","","",""
"","","","","","image-keyboard-response","98","371854","0.0-73.0","63d1675c8eef7f9792f55d42","665500ab8938657b03fbdba8","665792dd5e1494d277aaf587","1062","stimuli/2010010.jpg","2","","prediction_trial","2","","true","","2","true","true","true","true","true","true","[2]","010","010","1","","","","","","",""
"","","","","","image-keyboard-response","99","372480","0.0-74.0","63d1675c8eef7f9792f55d42","665500ab8938657b03fbdba8","665792dd5e1494d277aaf587","625","stimuli/20100102.jpg"," ","","feedback_trial","2","","","","","","","","","","","","","","","","","","","","",""
"","","","","","image-keyboard-response","100","373583","0.0-75.0","63d1675c8eef7f9792f55d42","665500ab8938657b03fbdba8","665792dd5e1494d277aaf587","1102","stimuli/0011111.jpg","1","","prediction_trial","0","","false","","0","false","false","true","true","false","false","[0]","011","111","0","","","","","","",""
"","","","","","image-keyboard-response","101","374251","0.0-76.0","63d1675c8eef7f9792f55d42","665500ab8938657b03fbdba8","665792dd5e1494d277aaf587","667","stimuli/00111110.jpg"," ","","feedback_trial","0","","","","","","","","","","","","","","","","","","","","",""
"","","","","","image-keyboard-response","102","375081","0.0-77.0","63d1675c8eef7f9792f55d42","665500ab8938657b03fbdba8","665792dd5e1494d277aaf587","829","stimuli/0001011.jpg","0","","prediction_trial","0","","true","","0","true","true","true","true","true","true","[0]","001","011","1","","","","","","",""
"","","","","","image-keyboard-response","103","375755","0.0-78.0","63d1675c8eef7f9792f55d42","665500ab8938657b03fbdba8","665792dd5e1494d277aaf587","674","stimuli/00010110.jpg"," ","","feedback_trial","0","","","","","","","","","","","","","","","","","","","","",""
"","","","","","image-keyboard-response","104","376612","0.0-79.0","63d1675c8eef7f9792f55d42","665500ab8938657b03fbdba8","665792dd5e1494d277aaf587","856","stimuli/2100001.jpg","2","","prediction_trial","2","","true","","2","false","true","true","true","false","true","[2]","100","001","1","","","","","","",""
"","","","","","image-keyboard-response","105","377428","0.0-80.0","63d1675c8eef7f9792f55d42","665500ab8938657b03fbdba8","665792dd5e1494d277aaf587","815","stimuli/21000012.jpg"," ","","feedback_trial","2","","","","","","","","","","","","","","","","","","","","",""
"","","","","","image-keyboard-response","106","378791","0.0-81.0","63d1675c8eef7f9792f55d42","665500ab8938657b03fbdba8","665792dd5e1494d277aaf587","1361","stimuli/0111111.jpg","2","","prediction_trial","0","","false","","0","false","false","false","false","false","false","[2,1,0]","111","111","0","","","","","","",""
"","","","","","image-keyboard-response","107","379523","0.0-82.0","63d1675c8eef7f9792f55d42","665500ab8938657b03fbdba8","665792dd5e1494d277aaf587","731","stimuli/01111110.jpg"," ","","feedback_trial","2","","","","","","","","","","","","","","","","","","","","",""
"","","","","","image-keyboard-response","108","380437","0.0-83.0","63d1675c8eef7f9792f55d42","665500ab8938657b03fbdba8","665792dd5e1494d277aaf587","914","stimuli/2001100.jpg","2","","prediction_trial","2","","true","","2","true","true","false","true","false","true","[2]","001","100","1","","","","","","",""
"","","","","","image-keyboard-response","109","381444","0.0-84.0","63d1675c8eef7f9792f55d42","665500ab8938657b03fbdba8","665792dd5e1494d277aaf587","1007","stimuli/20011002.jpg"," ","","feedback_trial","2","","","","","","","","","","","","","","","","","","","","",""
"","","","","","image-keyboard-response","110","384618","0.0-85.0","63d1675c8eef7f9792f55d42","665500ab8938657b03fbdba8","665792dd5e1494d277aaf587","3173","stimuli/1011110.jpg","0","","prediction_trial","2","","false","","1","false","false","false","false","false","false","[2,1]","011","110","0","","","","","","",""
"","","","","","image-keyboard-response","111","385399","0.0-86.0","63d1675c8eef7f9792f55d42","665500ab8938657b03fbdba8","665792dd5e1494d277aaf587","780","stimuli/10111102.jpg"," ","","feedback_trial","2","","","","","","","","","","","","","","","","","","","","",""
"","","","","","image-keyboard-response","112","386704","0.0-87.0","63d1675c8eef7f9792f55d42","665500ab8938657b03fbdba8","665792dd5e1494d277aaf587","1304","stimuli/1001011.jpg","1","","prediction_trial","1","","true","","1","false","false","true","true","false","false","[1]","001","011","1","","","","","","",""
"","","","","","image-keyboard-response","113","387719","0.0-88.0","63d1675c8eef7f9792f55d42","665500ab8938657b03fbdba8","665792dd5e1494d277aaf587","1001","stimuli/10010111.jpg"," ","","feedback_trial","1","","","","","","","","","","","","","","","","","","","","",""
"","","","","","image-keyboard-response","114","388799","0.0-89.0","63d1675c8eef7f9792f55d42","665500ab8938657b03fbdba8","665792dd5e1494d277aaf587","1078","stimuli/0000010.jpg","0","","prediction_trial","0","","true","","0","true","true","true","true","true","true","[0]","000","010","1","","","","","","",""
"","","","","","image-keyboard-response","115","389727","0.0-90.0","63d1675c8eef7f9792f55d42","665500ab8938657b03fbdba8","665792dd5e1494d277aaf587","928","stimuli/00000100.jpg"," ","","feedback_trial","0","","","","","","","","","","","","","","","","","","","","",""
"","","","","","image-keyboard-response","116","390840","0.0-91.0","63d1675c8eef7f9792f55d42","665500ab8938657b03fbdba8","665792dd5e1494d277aaf587","1112","stimuli/2110100.jpg","2","","prediction_trial","2","","true","","2","true","true","true","true","true","true","[2]","110","100","1","","","","","","",""
"","","","","","image-keyboard-response","117","391534","0.0-92.0","63d1675c8eef7f9792f55d42","665500ab8938657b03fbdba8","665792dd5e1494d277aaf587","694","stimuli/21101002.jpg"," ","","feedback_trial","2","","","","","","","","","","","","","","","","","","","","",""
"","","","","","image-keyboard-response","118","393604","0.0-93.0","63d1675c8eef7f9792f55d42","665500ab8938657b03fbdba8","665792dd5e1494d277aaf587","2069","stimuli/2011010.jpg","1","","prediction_trial","1","","true","","2","true","true","false","false","false","false","[2,1]","011","010","1","","","","","","",""
"","","","","","image-keyboard-response","119","394337","0.0-94.0","63d1675c8eef7f9792f55d42","665500ab8938657b03fbdba8","665792dd5e1494d277aaf587","732","stimuli/20110101.jpg"," ","","feedback_trial","2","","","","","","","","","","","","","","","","","","","","",""
"","","","","","image-keyboard-response","120","397284","0.0-95.0","63d1675c8eef7f9792f55d42","665500ab8938657b03fbdba8","665792dd5e1494d277aaf587","2947","stimuli/1100110.jpg","0","","prediction_trial","1","","false","","1","false","false","true","true","false","false","[1]","100","110","0","","","","","","",""
"","","","","","image-keyboard-response","121","398328","0.0-96.0","63d1675c8eef7f9792f55d42","665500ab8938657b03fbdba8","665792dd5e1494d277aaf587","1029","stimuli/11001101.jpg"," ","","feedback_trial","1","","","","","","","","","","","","","","","","","","","","",""
"","","","","","image-keyboard-response","122","399590","0.0-97.0","63d1675c8eef7f9792f55d42","665500ab8938657b03fbdba8","665792dd5e1494d277aaf587","1262","stimuli/2110001.jpg","2","","prediction_trial","2","","true","","2","false","true","true","true","false","true","[2]","110","001","1","","","","","","",""
"","","","","","image-keyboard-response","123","400587","0.0-98.0","63d1675c8eef7f9792f55d42","665500ab8938657b03fbdba8","665792dd5e1494d277aaf587","996","stimuli/21100012.jpg"," ","","feedback_trial","2","","","","","","","","","","","","","","","","","","","","",""
"","","","","","image-keyboard-response","124","402126","0.0-99.0","63d1675c8eef7f9792f55d42","665500ab8938657b03fbdba8","665792dd5e1494d277aaf587","1538","stimuli/2010001.jpg","2","","prediction_trial","2","","true","","2","false","true","true","true","false","true","[2]","010","001","1","","","","","","",""
"","","","","","image-keyboard-response","125","402968","0.0-100.0","63d1675c8eef7f9792f55d42","665500ab8938657b03fbdba8","665792dd5e1494d277aaf587","841","stimuli/20100012.jpg"," ","","feedback_trial","2","","","","","","","","","","","","","","","","","","","","",""
"","","","","","image-keyboard-response","126","404854","0.0-101.0","63d1675c8eef7f9792f55d42","665500ab8938657b03fbdba8","665792dd5e1494d277aaf587","1886","stimuli/2111101.jpg","0","","prediction_trial","2","","false","","2","false","false","false","false","false","false","[1,0,2]","111","101","0","","","","","","",""
"","","","","","image-keyboard-response","127","405613","0.0-102.0","63d1675c8eef7f9792f55d42","665500ab8938657b03fbdba8","665792dd5e1494d277aaf587","757","stimuli/21111012.jpg"," ","","feedback_trial","1","","","","","","","","","","","","","","","","","","","","",""
"","","","","","image-keyboard-response","128","407455","0.0-103.0","63d1675c8eef7f9792f55d42","665500ab8938657b03fbdba8","665792dd5e1494d277aaf587","1842","stimuli/0100011.jpg","0","","prediction_trial","0","","true","","0","true","true","false","true","false","true","[0]","100","011","1","","","","","","",""
"","","","","","image-keyboard-response","129","408118","0.0-104.0","63d1675c8eef7f9792f55d42","665500ab8938657b03fbdba8","665792dd5e1494d277aaf587","662","stimuli/01000110.jpg"," ","","feedback_trial","0","","","","","","","","","","","","","","","","","","","","",""
"","","","","","image-keyboard-response","130","409997","0.0-105.0","63d1675c8eef7f9792f55d42","665500ab8938657b03fbdba8","665792dd5e1494d277aaf587","1878","stimuli/2001110.jpg","2","","prediction_trial","2","","true","","2","true","true","false","true","false","true","[2]","001","110","1","","","","","","",""
"","","","","","image-keyboard-response","131","410797","0.0-106.0","63d1675c8eef7f9792f55d42","665500ab8938657b03fbdba8","665792dd5e1494d277aaf587","799","stimuli/20011102.jpg"," ","","feedback_trial","2","","","","","","","","","","","","","","","","","","","","",""
"","","","","","image-keyboard-response","132","413786","0.0-107.0","63d1675c8eef7f9792f55d42","665500ab8938657b03fbdba8","665792dd5e1494d277aaf587","2989","stimuli/2110011.jpg","1","","prediction_trial","2","","false","","2","false","false","true","true","false","false","[2]","110","011","0","","","","","","",""
"","","","","","image-keyboard-response","133","414768","0.0-108.0","63d1675c8eef7f9792f55d42","665500ab8938657b03fbdba8","665792dd5e1494d277aaf587","981","stimuli/21100112.jpg"," ","","feedback_trial","2","","","","","","","","","","","","","","","","","","","","",""
"","","","","","image-keyboard-response","134","415857","0.0-109.0","63d1675c8eef7f9792f55d42","665500ab8938657b03fbdba8","665792dd5e1494d277aaf587","1088","stimuli/0011010.jpg","0","","prediction_trial","0","","true","","0","true","true","true","true","true","true","[0]","011","010","1","","","","","","",""
"","","","","","image-keyboard-response","135","416503","0.0-110.0","63d1675c8eef7f9792f55d42","665500ab8938657b03fbdba8","665792dd5e1494d277aaf587","645","stimuli/00110100.jpg"," ","","feedback_trial","0","","","","","","","","","","","","","","","","","","","","",""
"","","","","","image-keyboard-response","136","417469","0.0-111.0","63d1675c8eef7f9792f55d42","665500ab8938657b03fbdba8","665792dd5e1494d277aaf587","965","stimuli/0000000.jpg","0","","prediction_trial","0","","true","","0","true","true","true","true","true","true","[0]","000","000","1","","","","","","",""
"","","","","","image-keyboard-response","137","418088","0.0-112.0","63d1675c8eef7f9792f55d42","665500ab8938657b03fbdba8","665792dd5e1494d277aaf587","618","stimuli/00000000.jpg"," ","","feedback_trial","0","","","","","","","","","","","","","","","","","","","","",""
"","","","","","image-keyboard-response","138","419137","0.0-113.0","63d1675c8eef7f9792f55d42","665500ab8938657b03fbdba8","665792dd5e1494d277aaf587","1049","stimuli/2010100.jpg","2","","prediction_trial","2","","true","","2","true","true","true","true","true","true","[2]","010","100","1","","","","","","",""
"","","","","","image-keyboard-response","139","419960","0.0-114.0","63d1675c8eef7f9792f55d42","665500ab8938657b03fbdba8","665792dd5e1494d277aaf587","822","stimuli/20101002.jpg"," ","","feedback_trial","2","","","","","","","","","","","","","","","","","","","","",""
"","","","","","image-keyboard-response","140","420962","0.0-115.0","63d1675c8eef7f9792f55d42","665500ab8938657b03fbdba8","665792dd5e1494d277aaf587","1002","stimuli/0101011.jpg","0","","prediction_trial","0","","true","","0","true","true","false","false","false","false","[2,0]","101","011","1","","","","","","",""
"","","","","","image-keyboard-response","141","421611","0.0-116.0","63d1675c8eef7f9792f55d42","665500ab8938657b03fbdba8","665792dd5e1494d277aaf587","649","stimuli/01010110.jpg"," ","","feedback_trial","2","","","","","","","","","","","","","","","","","","","","",""
"","","","","","image-keyboard-response","142","424912","0.0-117.0","63d1675c8eef7f9792f55d42","665500ab8938657b03fbdba8","665792dd5e1494d277aaf587","3300","stimuli/0011110.jpg","0","","prediction_trial","0","","true","","0","false","false","true","true","false","false","[0]","011","110","1","","","","","","",""
"","","","","","image-keyboard-response","143","425657","0.0-118.0","63d1675c8eef7f9792f55d42","665500ab8938657b03fbdba8","665792dd5e1494d277aaf587","744","stimuli/00111100.jpg"," ","","feedback_trial","0","","","","","","","","","","","","","","","","","","","","",""
"","","","","","image-keyboard-response","144","426569","0.0-119.0","63d1675c8eef7f9792f55d42","665500ab8938657b03fbdba8","665792dd5e1494d277aaf587","911","stimuli/0000011.jpg","0","","prediction_trial","0","","true","","0","true","true","true","true","true","true","[0]","000","011","1","","","","","","",""
"","","","","","image-keyboard-response","145","427132","0.0-120.0","63d1675c8eef7f9792f55d42","665500ab8938657b03fbdba8","665792dd5e1494d277aaf587","562","stimuli/00000110.jpg"," ","","feedback_trial","0","","","","","","","","","","","","","","","","","","","","",""
"","","","","","image-keyboard-response","146","428411","0.0-121.0","63d1675c8eef7f9792f55d42","665500ab8938657b03fbdba8","665792dd5e1494d277aaf587","1278","stimuli/1001111.jpg","1","","prediction_trial","1","","true","","1","false","false","true","true","false","false","[1]","001","111","1","","","","","","",""
"","","","","","image-keyboard-response","147","429178","0.0-122.0","63d1675c8eef7f9792f55d42","665500ab8938657b03fbdba8","665792dd5e1494d277aaf587","767","stimuli/10011111.jpg"," ","","feedback_trial","1","","","","","","","","","","","","","","","","","","","","",""
"","","","","","image-keyboard-response","148","430172","0.0-123.0","63d1675c8eef7f9792f55d42","665500ab8938657b03fbdba8","665792dd5e1494d277aaf587","992","stimuli/1100100.jpg","1","","prediction_trial","1","","true","","1","true","true","true","true","true","true","[1]","100","100","1","","","","","","",""
"","","","","","image-keyboard-response","149","430832","0.0-124.0","63d1675c8eef7f9792f55d42","665500ab8938657b03fbdba8","665792dd5e1494d277aaf587","660","stimuli/11001001.jpg"," ","","feedback_trial","1","","","","","","","","","","","","","","","","","","","","",""
"","","","","","image-keyboard-response","150","432267","0.0-125.0","63d1675c8eef7f9792f55d42","665500ab8938657b03fbdba8","665792dd5e1494d277aaf587","1434","stimuli/1001110.jpg","1","","prediction_trial","1","","true","","1","false","false","true","true","false","false","[1]","001","110","1","","","","","","",""
"","","","","","image-keyboard-response","151","432999","0.0-126.0","63d1675c8eef7f9792f55d42","665500ab8938657b03fbdba8","665792dd5e1494d277aaf587","732","stimuli/10011101.jpg"," ","","feedback_trial","1","","","","","","","","","","","","","","","","","","","","",""
"","","","","","image-keyboard-response","152","433999","0.0-127.0","63d1675c8eef7f9792f55d42","665500ab8938657b03fbdba8","665792dd5e1494d277aaf587","998","stimuli/0100010.jpg","0","","prediction_trial","0","","true","","0","true","true","false","true","false","true","[0]","100","010","1","","","","","","",""
"","","","","","image-keyboard-response","153","434904","0.0-128.0","63d1675c8eef7f9792f55d42","665500ab8938657b03fbdba8","665792dd5e1494d277aaf587","904","stimuli/01000100.jpg"," ","","feedback_trial","0","","","","","","","","","","","","","","","","","","","","",""
"","","","","","image-keyboard-response","154","436446","0.0-129.0","63d1675c8eef7f9792f55d42","665500ab8938657b03fbdba8","665792dd5e1494d277aaf587","1542","stimuli/2111001.jpg","2","","prediction_trial","0","","false","","2","false","true","false","false","false","false","[0,2,1]","111","001","0","","","","","","",""
"","","","","","image-keyboard-response","155","437262","0.0-130.0","63d1675c8eef7f9792f55d42","665500ab8938657b03fbdba8","665792dd5e1494d277aaf587","815","stimuli/21110010.jpg"," ","","feedback_trial","0","","","","","","","","","","","","","","","","","","","","",""
"","","","","","image-keyboard-response","156","438222","0.0-131.0","63d1675c8eef7f9792f55d42","665500ab8938657b03fbdba8","665792dd5e1494d277aaf587","959","stimuli/1000000.jpg","1","","prediction_trial","1","","true","","1","true","true","true","true","true","true","[1]","000","000","1","","","","","","",""
"","","","","","image-keyboard-response","157","439264","0.0-132.0","63d1675c8eef7f9792f55d42","665500ab8938657b03fbdba8","665792dd5e1494d277aaf587","1041","stimuli/10000001.jpg"," ","","feedback_trial","1","","","","","","","","","","","","","","","","","","","","",""
"","","","","","image-keyboard-response","158","440255","0.0-133.0","63d1675c8eef7f9792f55d42","665500ab8938657b03fbdba8","665792dd5e1494d277aaf587","990","stimuli/2000010.jpg","2","","prediction_trial","2","","true","","2","true","true","true","true","true","true","[2]","000","010","1","","","","","","",""
"","","","","","image-keyboard-response","159","440877","0.0-134.0","63d1675c8eef7f9792f55d42","665500ab8938657b03fbdba8","665792dd5e1494d277aaf587","621","stimuli/20000102.jpg"," ","","feedback_trial","2","","","","","","","","","","","","","","","","","","","","",""
"","","","","","image-keyboard-response","160","442896","0.0-135.0","63d1675c8eef7f9792f55d42","665500ab8938657b03fbdba8","665792dd5e1494d277aaf587","2018","stimuli/1000011.jpg","1","","prediction_trial","1","","true","","1","false","false","true","true","false","false","[1]","000","011","1","","","","","","",""
"","","","","","image-keyboard-response","161","443568","0.0-136.0","63d1675c8eef7f9792f55d42","665500ab8938657b03fbdba8","665792dd5e1494d277aaf587","659","stimuli/10000111.jpg"," ","","feedback_trial","1","","","","","","","","","","","","","","","","","","","","",""
"","","","","","image-keyboard-response","162","445060","0.0-137.0","63d1675c8eef7f9792f55d42","665500ab8938657b03fbdba8","665792dd5e1494d277aaf587","1491","stimuli/2010011.jpg","2","","prediction_trial","2","","true","","2","false","false","true","true","false","false","[2]","010","011","1","","","","","","",""
"","","","","","image-keyboard-response","163","445714","0.0-138.0","63d1675c8eef7f9792f55d42","665500ab8938657b03fbdba8","665792dd5e1494d277aaf587","654","stimuli/20100112.jpg"," ","","feedback_trial","2","","","","","","","","","","","","","","","","","","","","",""
"","","","","","image-keyboard-response","164","447697","0.0-139.0","63d1675c8eef7f9792f55d42","665500ab8938657b03fbdba8","665792dd5e1494d277aaf587","1981","stimuli/0101101.jpg","2","","prediction_trial","2","","true","","0","false","false","false","false","false","false","[0,2]","101","101","1","","","","","","",""
"","","","","","image-keyboard-response","165","449322","0.0-140.0","63d1675c8eef7f9792f55d42","665500ab8938657b03fbdba8","665792dd5e1494d277aaf587","1624","stimuli/01011012.jpg"," ","","feedback_trial","0","","","","","","","","","","","","","","","","","","","","",""
"","","","","","image-keyboard-response","166","450394","0.0-141.0","63d1675c8eef7f9792f55d42","665500ab8938657b03fbdba8","665792dd5e1494d277aaf587","1072","stimuli/1001100.jpg","1","","prediction_trial","1","","true","","1","true","true","true","true","true","true","[1]","001","100","1","","","","","","",""
"","","","","","image-keyboard-response","167","451359","0.0-142.0","63d1675c8eef7f9792f55d42","665500ab8938657b03fbdba8","665792dd5e1494d277aaf587","964","stimuli/10011001.jpg"," ","","feedback_trial","1","","","","","","","","","","","","","","","","","","","","",""
"","","","","","image-keyboard-response","168","453118","0.0-143.0","63d1675c8eef7f9792f55d42","665500ab8938657b03fbdba8","665792dd5e1494d277aaf587","1759","stimuli/2101000.jpg","2","","prediction_trial","0","","false","","2","true","true","false","false","false","false","[0,2]","101","000","0","","","","","","",""
"","","","","","image-keyboard-response","169","454041","0.0-144.0","63d1675c8eef7f9792f55d42","665500ab8938657b03fbdba8","665792dd5e1494d277aaf587","922","stimuli/21010000.jpg"," ","","feedback_trial","0","","","","","","","","","","","","","","","","","","","","",""
"","","","","","image-keyboard-response","170","455094","0.0-145.0","63d1675c8eef7f9792f55d42","665500ab8938657b03fbdba8","665792dd5e1494d277aaf587","1052","stimuli/2000101.jpg","0","","prediction_trial","2","","false","","2","false","false","true","true","false","false","[2]","000","101","0","","","","","","",""
"","","","","","image-keyboard-response","171","455983","0.0-146.0","63d1675c8eef7f9792f55d42","665500ab8938657b03fbdba8","665792dd5e1494d277aaf587","888","stimuli/20001012.jpg"," ","","feedback_trial","2","","","","","","","","","","","","","","","","","","","","",""
"","","","","","image-keyboard-response","172","456968","0.0-147.0","63d1675c8eef7f9792f55d42","665500ab8938657b03fbdba8","665792dd5e1494d277aaf587","985","stimuli/1000100.jpg","1","","prediction_trial","1","","true","","1","true","true","true","true","true","true","[1]","000","100","1","","","","","","",""
"","","","","","image-keyboard-response","173","457820","0.0-148.0","63d1675c8eef7f9792f55d42","665500ab8938657b03fbdba8","665792dd5e1494d277aaf587","851","stimuli/10001001.jpg"," ","","feedback_trial","1","","","","","","","","","","","","","","","","","","","","",""
"","","","","","image-keyboard-response","174","458828","0.0-149.0","63d1675c8eef7f9792f55d42","665500ab8938657b03fbdba8","665792dd5e1494d277aaf587","1007","stimuli/2100111.jpg","1","","prediction_trial","2","","false","","2","false","false","true","true","false","false","[2]","100","111","0","","","","","","",""
"","","","","","image-keyboard-response","175","459536","0.0-150.0","63d1675c8eef7f9792f55d42","665500ab8938657b03fbdba8","665792dd5e1494d277aaf587","707","stimuli/21001112.jpg"," ","","feedback_trial","2","","","","","","","","","","","","","","","","","","","","",""
"","","","","","image-keyboard-response","176","460427","0.0-151.0","63d1675c8eef7f9792f55d42","665500ab8938657b03fbdba8","665792dd5e1494d277aaf587","890","stimuli/2000000.jpg","2","","prediction_trial","2","","true","","2","true","true","true","true","true","true","[2]","000","000","1","","","","","","",""
"","","","","","image-keyboard-response","177","461071","0.0-152.0","63d1675c8eef7f9792f55d42","665500ab8938657b03fbdba8","665792dd5e1494d277aaf587","643","stimuli/20000002.jpg"," ","","feedback_trial","2","","","","","","","","","","","","","","","","","","","","",""
"","","","","","image-keyboard-response","178","462845","0.0-153.0","63d1675c8eef7f9792f55d42","665500ab8938657b03fbdba8","665792dd5e1494d277aaf587","1773","stimuli/1010011.jpg","2","","prediction_trial","1","","false","","1","false","false","false","true","false","false","[1]","010","011","0","","","","","","",""
"","","","","","image-keyboard-response","179","463464","0.0-154.0","63d1675c8eef7f9792f55d42","665500ab8938657b03fbdba8","665792dd5e1494d277aaf587","619","stimuli/10100111.jpg"," ","","feedback_trial","1","","","","","","","","","","","","","","","","","","","","",""
"","","","","","image-keyboard-response","180","465935","0.0-155.0","63d1675c8eef7f9792f55d42","665500ab8938657b03fbdba8","665792dd5e1494d277aaf587","2471","stimuli/1100111.jpg","1","","prediction_trial","1","","true","","1","false","false","true","true","false","false","[1]","100","111","1","","","","","","",""
"","","","","","image-keyboard-response","181","466566","0.0-156.0","63d1675c8eef7f9792f55d42","665500ab8938657b03fbdba8","665792dd5e1494d277aaf587","630","stimuli/11001111.jpg"," ","","feedback_trial","1","","","","","","","","","","","","","","","","","","","","",""
"","","","","","image-keyboard-response","182","467678","0.0-157.0","63d1675c8eef7f9792f55d42","665500ab8938657b03fbdba8","665792dd5e1494d277aaf587","1111","stimuli/1111100.jpg","1","","prediction_trial","0","","false","","1","true","true","false","false","false","false","[0,1,2]","111","100","0","","","","","","",""
"","","","","","image-keyboard-response","183","468430","0.0-158.0","63d1675c8eef7f9792f55d42","665500ab8938657b03fbdba8","665792dd5e1494d277aaf587","752","stimuli/11111000.jpg"," ","","feedback_trial","0","","","","","","","","","","","","","","","","","","","","",""
"","","","","","image-keyboard-response","184","469593","0.0-159.0","63d1675c8eef7f9792f55d42","665500ab8938657b03fbdba8","665792dd5e1494d277aaf587","1162","stimuli/0011101.jpg","2","","prediction_trial","0","","false","","0","false","false","true","true","false","false","[0]","011","101","0","","","","","","",""
"","","","","","image-keyboard-response","185","470290","0.0-160.0","63d1675c8eef7f9792f55d42","665500ab8938657b03fbdba8","665792dd5e1494d277aaf587","696","stimuli/00111010.jpg"," ","","feedback_trial","0","","","","","","","","","","","","","","","","","","","","",""
"","","","","","image-keyboard-response","186","471317","0.0-161.0","63d1675c8eef7f9792f55d42","665500ab8938657b03fbdba8","665792dd5e1494d277aaf587","1027","stimuli/0101001.jpg","0","","prediction_trial","2","","false","","0","true","true","false","false","false","false","[2,0]","101","001","0","","","","","","",""
"","","","","","image-keyboard-response","187","472088","0.0-162.0","63d1675c8eef7f9792f55d42","665500ab8938657b03fbdba8","665792dd5e1494d277aaf587","770","stimuli/01010012.jpg"," ","","feedback_trial","2","","","","","","","","","","","","","","","","","","","","",""
"","","","","","image-keyboard-response","188","473275","0.0-163.0","63d1675c8eef7f9792f55d42","665500ab8938657b03fbdba8","665792dd5e1494d277aaf587","1186","stimuli/2000110.jpg","2","","prediction_trial","2","","true","","2","true","true","true","true","true","true","[2]","000","110","1","","","","","","",""
"","","","","","image-keyboard-response","189","473974","0.0-164.0","63d1675c8eef7f9792f55d42","665500ab8938657b03fbdba8","665792dd5e1494d277aaf587","699","stimuli/20001102.jpg"," ","","feedback_trial","2","","","","","","","","","","","","","","","","","","","","",""
"","","","","","image-keyboard-response","190","475590","0.0-165.0","63d1675c8eef7f9792f55d42","665500ab8938657b03fbdba8","665792dd5e1494d277aaf587","1615","stimuli/2110101.jpg","0","","prediction_trial","2","","false","","2","false","false","true","true","false","false","[2]","110","101","0","","","","","","",""
"","","","","","image-keyboard-response","191","476441","0.0-166.0","63d1675c8eef7f9792f55d42","665500ab8938657b03fbdba8","665792dd5e1494d277aaf587","850","stimuli/21101012.jpg"," ","","feedback_trial","2","","","","","","","","","","","","","","","","","","","","",""
"","","","","","image-keyboard-response","192","478355","0.0-167.0","63d1675c8eef7f9792f55d42","665500ab8938657b03fbdba8","665792dd5e1494d277aaf587","1913","stimuli/2011011.jpg","2","","prediction_trial","2","","true","","2","false","false","false","false","false","false","[1,2]","011","011","1","","","","","","",""
"","","","","","image-keyboard-response","193","479132","0.0-168.0","63d1675c8eef7f9792f55d42","665500ab8938657b03fbdba8","665792dd5e1494d277aaf587","777","stimuli/20110112.jpg"," ","","feedback_trial","1","","","","","","","","","","","","","","","","","","","","",""
"","","","","","image-keyboard-response","194","480337","0.0-169.0","63d1675c8eef7f9792f55d42","665500ab8938657b03fbdba8","665792dd5e1494d277aaf587","1204","stimuli/1100010.jpg","1","","prediction_trial","1","","true","","1","false","true","true","true","false","true","[1]","100","010","1","","","","","","",""
"","","","","","image-keyboard-response","195","481083","0.0-170.0","63d1675c8eef7f9792f55d42","665500ab8938657b03fbdba8","665792dd5e1494d277aaf587","745","stimuli/11000101.jpg"," ","","feedback_trial","1","","","","","","","","","","","","","","","","","","","","",""
"","","","","","image-keyboard-response","196","482176","0.0-171.0","63d1675c8eef7f9792f55d42","665500ab8938657b03fbdba8","665792dd5e1494d277aaf587","1092","stimuli/1001001.jpg","1","","prediction_trial","1","","true","","1","true","true","true","true","true","true","[1]","001","001","1","","","","","","",""
"","","","","","image-keyboard-response","197","482749","0.0-172.0","63d1675c8eef7f9792f55d42","665500ab8938657b03fbdba8","665792dd5e1494d277aaf587","573","stimuli/10010011.jpg"," ","","feedback_trial","1","","","","","","","","","","","","","","","","","","","","",""
"","","","","","image-keyboard-response","198","483723","0.0-173.0","63d1675c8eef7f9792f55d42","665500ab8938657b03fbdba8","665792dd5e1494d277aaf587","973","stimuli/1000001.jpg","1","","prediction_trial","1","","true","","1","true","true","true","true","true","true","[1]","000","001","1","","","","","","",""
"","","","","","image-keyboard-response","199","484279","0.0-174.0","63d1675c8eef7f9792f55d42","665500ab8938657b03fbdba8","665792dd5e1494d277aaf587","556","stimuli/10000011.jpg"," ","","feedback_trial","1","","","","","","","","","","","","","","","","","","","","",""
"","","","","","image-keyboard-response","200","486837","0.0-175.0","63d1675c8eef7f9792f55d42","665500ab8938657b03fbdba8","665792dd5e1494d277aaf587","2556","stimuli/0110101.jpg","2","","prediction_trial","0","","false","","0","false","false","false","false","false","false","[0,1]","110","101","0","","","","","","",""
"","","","","","image-keyboard-response","201","487683","0.0-176.0","63d1675c8eef7f9792f55d42","665500ab8938657b03fbdba8","665792dd5e1494d277aaf587","833","stimuli/01101010.jpg"," ","","feedback_trial","0","","","","","","","","","","","","","","","","","","","","",""
"","","","","","image-keyboard-response","202","489405","0.0-177.0","63d1675c8eef7f9792f55d42","665500ab8938657b03fbdba8","665792dd5e1494d277aaf587","1721","stimuli/1110111.jpg","0","","prediction_trial","1","","false","","1","false","false","false","false","false","false","[1,0]","110","111","0","","","","","","",""
"","","","","","image-keyboard-response","203","490142","0.0-178.0","63d1675c8eef7f9792f55d42","665500ab8938657b03fbdba8","665792dd5e1494d277aaf587","736","stimuli/11101111.jpg"," ","","feedback_trial","1","","","","","","","","","","","","","","","","","","","","",""
"","","","","","image-keyboard-response","204","491227","0.0-179.0","63d1675c8eef7f9792f55d42","665500ab8938657b03fbdba8","665792dd5e1494d277aaf587","1084","stimuli/0101010.jpg","0","","prediction_trial","0","","true","","0","true","true","false","false","false","false","[2,0]","101","010","1","","","","","","",""
"","","","","","image-keyboard-response","205","492152","0.0-180.0","63d1675c8eef7f9792f55d42","665500ab8938657b03fbdba8","665792dd5e1494d277aaf587","924","stimuli/01010100.jpg"," ","","feedback_trial","2","","","","","","","","","","","","","","","","","","","","",""
"","","","","","image-keyboard-response","206","493663","0.0-181.0","63d1675c8eef7f9792f55d42","665500ab8938657b03fbdba8","665792dd5e1494d277aaf587","1510","stimuli/0100101.jpg","2","","prediction_trial","0","","false","","0","false","false","false","true","false","false","[0]","100","101","0","","","","","","",""
"","","","","","image-keyboard-response","207","494438","0.0-182.0","63d1675c8eef7f9792f55d42","665500ab8938657b03fbdba8","665792dd5e1494d277aaf587","774","stimuli/01001010.jpg"," ","","feedback_trial","0","","","","","","","","","","","","","","","","","","","","",""
"","","","","","image-keyboard-response","208","495628","0.0-183.0","63d1675c8eef7f9792f55d42","665500ab8938657b03fbdba8","665792dd5e1494d277aaf587","1190","stimuli/0111101.jpg","2","","prediction_trial","0","","false","","0","false","false","false","false","false","false","[2,0,1]","111","101","0","","","","","","",""
"","","","","","image-keyboard-response","209","496508","0.0-184.0","63d1675c8eef7f9792f55d42","665500ab8938657b03fbdba8","665792dd5e1494d277aaf587","878","stimuli/01111010.jpg"," ","","feedback_trial","2","","","","","","","","","","","","","","","","","","","","",""
"","","","","","image-keyboard-response","210","497602","0.0-185.0","63d1675c8eef7f9792f55d42","665500ab8938657b03fbdba8","665792dd5e1494d277aaf587","1094","stimuli/1100001.jpg","1","","prediction_trial","1","","true","","1","true","true","true","true","true","true","[1]","100","001","1","","","","","","",""
"","","","","","image-keyboard-response","211","498337","0.0-186.0","63d1675c8eef7f9792f55d42","665500ab8938657b03fbdba8","665792dd5e1494d277aaf587","733","stimuli/11000011.jpg"," ","","feedback_trial","1","","","","","","","","","","","","","","","","","","","","",""
"","","","","","image-keyboard-response","212","499877","0.0-187.0","63d1675c8eef7f9792f55d42","665500ab8938657b03fbdba8","665792dd5e1494d277aaf587","1538","stimuli/2101011.jpg","2","","prediction_trial","0","","false","","2","false","false","false","false","false","false","[0,2]","101","011","0","","","","","","",""
"","","","","","image-keyboard-response","213","500582","0.0-188.0","63d1675c8eef7f9792f55d42","665500ab8938657b03fbdba8","665792dd5e1494d277aaf587","705","stimuli/21010110.jpg"," ","","feedback_trial","0","","","","","","","","","","","","","","","","","","","","",""
"","","","","","image-keyboard-response","214","501630","0.0-189.0","63d1675c8eef7f9792f55d42","665500ab8938657b03fbdba8","665792dd5e1494d277aaf587","1047","stimuli/1110011.jpg","1","","prediction_trial","1","","true","","1","false","false","false","false","false","false","[1,0]","110","011","1","","","","","","",""
"","","","","","image-keyboard-response","215","502647","0.0-190.0","63d1675c8eef7f9792f55d42","665500ab8938657b03fbdba8","665792dd5e1494d277aaf587","1016","stimuli/11100111.jpg"," ","","feedback_trial","1","","","","","","","","","","","","","","","","","","","","",""
"","","","","","image-keyboard-response","216","504173","0.0-191.0","63d1675c8eef7f9792f55d42","665500ab8938657b03fbdba8","665792dd5e1494d277aaf587","1526","stimuli/0100110.jpg","0","","prediction_trial","0","","true","","0","false","false","false","true","false","false","[0]","100","110","1","","","","","","",""
"","","","","","image-keyboard-response","217","505118","0.0-192.0","63d1675c8eef7f9792f55d42","665500ab8938657b03fbdba8","665792dd5e1494d277aaf587","944","stimuli/01001100.jpg"," ","","feedback_trial","0","","","","","","","","","","","","","","","","","","","","",""
"","","","","","image-keyboard-response","218","506482","0.0-193.0","63d1675c8eef7f9792f55d42","665500ab8938657b03fbdba8","665792dd5e1494d277aaf587","1364","stimuli/1011111.jpg","0","","prediction_trial","1","","false","","1","false","false","false","false","false","false","[1,2]","011","111","0","","","","","","",""
"","","","","","image-keyboard-response","219","507630","0.0-194.0","63d1675c8eef7f9792f55d42","665500ab8938657b03fbdba8","665792dd5e1494d277aaf587","1147","stimuli/10111111.jpg"," ","","feedback_trial","1","","","","","","","","","","","","","","","","","","","","",""
"","","","","","image-keyboard-response","220","508778","0.0-195.0","63d1675c8eef7f9792f55d42","665500ab8938657b03fbdba8","665792dd5e1494d277aaf587","1148","stimuli/1110100.jpg","1","","prediction_trial","1","","true","","1","true","true","false","false","false","false","[0,1]","110","100","1","","","","","","",""
"","","","","","image-keyboard-response","221","509854","0.0-196.0","63d1675c8eef7f9792f55d42","665500ab8938657b03fbdba8","665792dd5e1494d277aaf587","1062","stimuli/11101001.jpg"," ","","feedback_trial","0","","","","","","","","","","","","","","","","","","","","",""
"","","","","","image-keyboard-response","222","511179","0.0-197.0","63d1675c8eef7f9792f55d42","665500ab8938657b03fbdba8","665792dd5e1494d277aaf587","1325","stimuli/1010111.jpg","2","","prediction_trial","1","","false","","1","false","false","false","true","false","false","[1]","010","111","0","","","","","","",""
"","","","","","image-keyboard-response","223","511949","0.0-198.0","63d1675c8eef7f9792f55d42","665500ab8938657b03fbdba8","665792dd5e1494d277aaf587","769","stimuli/10101111.jpg"," ","","feedback_trial","1","","","","","","","","","","","","","","","","","","","","",""
"","","","","","image-keyboard-response","224","513112","0.0-199.0","63d1675c8eef7f9792f55d42","665500ab8938657b03fbdba8","665792dd5e1494d277aaf587","1163","stimuli/1001010.jpg","1","","prediction_trial","1","","true","","1","false","true","true","true","false","true","[1]","001","010","1","","","","","","",""
"","","","","","image-keyboard-response","225","513915","0.0-200.0","63d1675c8eef7f9792f55d42","665500ab8938657b03fbdba8","665792dd5e1494d277aaf587","802","stimuli/10010101.jpg"," ","","feedback_trial","1","","","","","","","","","","","","","","","","","","","","",""
"","","","","","image-keyboard-response","226","515588","0.0-201.0","63d1675c8eef7f9792f55d42","665500ab8938657b03fbdba8","665792dd5e1494d277aaf587","1672","stimuli/2001111.jpg","2","","prediction_trial","2","","true","","2","false","false","false","true","false","false","[2]","001","111","1","","","","","","",""
"","","","","","image-keyboard-response","227","516342","0.0-202.0","63d1675c8eef7f9792f55d42","665500ab8938657b03fbdba8","665792dd5e1494d277aaf587","753","stimuli/20011112.jpg"," ","","feedback_trial","2","","","","","","","","","","","","","","","","","","","","",""
"","","","","","image-keyboard-response","228","518312","0.0-203.0","63d1675c8eef7f9792f55d42","665500ab8938657b03fbdba8","665792dd5e1494d277aaf587","1969","stimuli/2010101.jpg","0","","prediction_trial","2","","false","","2","false","false","true","true","false","false","[2]","010","101","0","","","","","","",""
"","","","","","image-keyboard-response","229","519258","0.0-204.0","63d1675c8eef7f9792f55d42","665500ab8938657b03fbdba8","665792dd5e1494d277aaf587","945","stimuli/20101012.jpg"," ","","feedback_trial","2","","","","","","","","","","","","","","","","","","","","",""
"","","","","","image-keyboard-response","230","520275","0.0-205.0","63d1675c8eef7f9792f55d42","665500ab8938657b03fbdba8","665792dd5e1494d277aaf587","1016","stimuli/2111000.jpg","2","","prediction_trial","1","","false","","2","true","true","false","false","false","false","[2,0,1]","111","000","0","","","","","","",""
"","","","","","image-keyboard-response","231","520896","0.0-206.0","63d1675c8eef7f9792f55d42","665500ab8938657b03fbdba8","665792dd5e1494d277aaf587","620","stimuli/21110001.jpg"," ","","feedback_trial","2","","","","","","","","","","","","","","","","","","","","",""
"","","","","","image-keyboard-response","232","522019","0.0-207.0","63d1675c8eef7f9792f55d42","665500ab8938657b03fbdba8","665792dd5e1494d277aaf587","1122","stimuli/1001000.jpg","1","","prediction_trial","1","","true","","1","true","true","true","true","true","true","[1]","001","000","1","","","","","","",""
"","","","","","image-keyboard-response","233","522653","0.0-208.0","63d1675c8eef7f9792f55d42","665500ab8938657b03fbdba8","665792dd5e1494d277aaf587","633","stimuli/10010001.jpg"," ","","feedback_trial","1","","","","","","","","","","","","","","","","","","","","",""
"","","","","","image-keyboard-response","234","524334","0.0-209.0","63d1675c8eef7f9792f55d42","665500ab8938657b03fbdba8","665792dd5e1494d277aaf587","1680","stimuli/2000001.jpg","2","","prediction_trial","2","","true","","2","false","true","true","true","false","true","[2]","000","001","1","","","","","","",""
"","","","","","image-keyboard-response","235","524929","0.0-210.0","63d1675c8eef7f9792f55d42","665500ab8938657b03fbdba8","665792dd5e1494d277aaf587","595","stimuli/20000012.jpg"," ","","feedback_trial","2","","","","","","","","","","","","","","","","","","","","",""
"","","","","","image-keyboard-response","236","526810","0.0-211.0","63d1675c8eef7f9792f55d42","665500ab8938657b03fbdba8","665792dd5e1494d277aaf587","1881","stimuli/0110110.jpg","1","","prediction_trial","1","","true","","0","false","false","false","false","false","false","[1,0]","110","110","1","","","","","","",""
"","","","","","image-keyboard-response","237","527494","0.0-212.0","63d1675c8eef7f9792f55d42","665500ab8938657b03fbdba8","665792dd5e1494d277aaf587","683","stimuli/01101101.jpg"," ","","feedback_trial","1","","","","","","","","","","","","","","","","","","","","",""
"","","","","","image-keyboard-response","238","528560","0.0-213.0","63d1675c8eef7f9792f55d42","665500ab8938657b03fbdba8","665792dd5e1494d277aaf587","1066","stimuli/1100101.jpg","1","","prediction_trial","1","","true","","1","true","true","true","true","true","true","[1]","100","101","1","","","","","","",""
"","","","","","image-keyboard-response","239","529196","0.0-214.0","63d1675c8eef7f9792f55d42","665500ab8938657b03fbdba8","665792dd5e1494d277aaf587","635","stimuli/11001011.jpg"," ","","feedback_trial","1","","","","","","","","","","","","","","","","","","","","",""
"","","","","","image-keyboard-response","240","530863","0.0-215.0","63d1675c8eef7f9792f55d42","665500ab8938657b03fbdba8","665792dd5e1494d277aaf587","1666","stimuli/1101010.jpg","1","","prediction_trial","1","","true","","1","false","true","true","true","false","true","[1]","101","010","1","","","","","","",""
"","","","","","image-keyboard-response","241","531538","0.0-216.0","63d1675c8eef7f9792f55d42","665500ab8938657b03fbdba8","665792dd5e1494d277aaf587","674","stimuli/11010101.jpg"," ","","feedback_trial","1","","","","","","","","","","","","","","","","","","","","",""
"","","","","","image-keyboard-response","242","532536","0.0-217.0","63d1675c8eef7f9792f55d42","665500ab8938657b03fbdba8","665792dd5e1494d277aaf587","997","stimuli/1100000.jpg","1","","prediction_trial","1","","true","","1","true","true","true","true","true","true","[1]","100","000","1","","","","","","",""
"","","","","","image-keyboard-response","243","533275","0.0-218.0","63d1675c8eef7f9792f55d42","665500ab8938657b03fbdba8","665792dd5e1494d277aaf587","738","stimuli/11000001.jpg"," ","","feedback_trial","1","","","","","","","","","","","","","","","","","","","","",""
"","","","","","image-keyboard-response","244","534233","0.0-219.0","63d1675c8eef7f9792f55d42","665500ab8938657b03fbdba8","665792dd5e1494d277aaf587","957","stimuli/1000101.jpg","1","","prediction_trial","1","","true","","1","true","true","true","true","true","true","[1]","000","101","1","","","","","","",""
"","","","","","image-keyboard-response","245","534971","0.0-220.0","63d1675c8eef7f9792f55d42","665500ab8938657b03fbdba8","665792dd5e1494d277aaf587","737","stimuli/10001011.jpg"," ","","feedback_trial","1","","","","","","","","","","","","","","","","","","","","",""
"","","","","","image-keyboard-response","246","535944","0.0-221.0","63d1675c8eef7f9792f55d42","665500ab8938657b03fbdba8","665792dd5e1494d277aaf587","973","stimuli/2101010.jpg","2","","prediction_trial","2","","true","","2","true","true","false","false","false","false","[0,2]","101","010","1","","","","","","",""
"","","","","","image-keyboard-response","247","536598","0.0-222.0","63d1675c8eef7f9792f55d42","665500ab8938657b03fbdba8","665792dd5e1494d277aaf587","653","stimuli/21010102.jpg"," ","","feedback_trial","0","","","","","","","","","","","","","","","","","","","","",""
"","","","","","image-keyboard-response","248","537970","0.0-223.0","63d1675c8eef7f9792f55d42","665500ab8938657b03fbdba8","665792dd5e1494d277aaf587","1371","stimuli/0100111.jpg","2","","prediction_trial","0","","false","","0","false","false","false","true","false","false","[0]","100","111","0","","","","","","",""
"","","","","","image-keyboard-response","249","538604","0.0-224.0","63d1675c8eef7f9792f55d42","665500ab8938657b03fbdba8","665792dd5e1494d277aaf587","633","stimuli/01001110.jpg"," ","","feedback_trial","0","","","","","","","","","","","","","","","","","","","","",""
"","","","","","image-keyboard-response","250","539793","0.0-225.0","63d1675c8eef7f9792f55d42","665500ab8938657b03fbdba8","665792dd5e1494d277aaf587","1188","stimuli/0001110.jpg","1","","prediction_trial","0","","false","","0","false","false","true","true","false","false","[0]","001","110","0","","","","","","",""
"","","","","","image-keyboard-response","251","540454","0.0-226.0","63d1675c8eef7f9792f55d42","665500ab8938657b03fbdba8","665792dd5e1494d277aaf587","660","stimuli/00011100.jpg"," ","","feedback_trial","0","","","","","","","","","","","","","","","","","","","","",""
"","","","","","image-keyboard-response","252","542787","0.0-227.0","63d1675c8eef7f9792f55d42","665500ab8938657b03fbdba8","665792dd5e1494d277aaf587","2333","stimuli/1011011.jpg","2","","prediction_trial","1","","false","","1","false","false","false","false","false","false","[2,1]","011","011","0","","","","","","",""
"","","","","","image-keyboard-response","253","543545","0.0-228.0","63d1675c8eef7f9792f55d42","665500ab8938657b03fbdba8","665792dd5e1494d277aaf587","756","stimuli/10110111.jpg"," ","","feedback_trial","2","","","","","","","","","","","","","","","","","","","","",""
"","","","","","image-keyboard-response","254","545505","0.0-229.0","63d1675c8eef7f9792f55d42","665500ab8938657b03fbdba8","665792dd5e1494d277aaf587","1959","stimuli/1110110.jpg","0","","prediction_trial","1","","false","","1","false","false","false","false","false","false","[0,1]","110","110","0","","","","","","",""
"","","","","","image-keyboard-response","255","546399","0.0-230.0","63d1675c8eef7f9792f55d42","665500ab8938657b03fbdba8","665792dd5e1494d277aaf587","893","stimuli/11101101.jpg"," ","","feedback_trial","0","","","","","","","","","","","","","","","","","","","","",""
"","","","","","image-keyboard-response","256","547389","0.0-231.0","63d1675c8eef7f9792f55d42","665500ab8938657b03fbdba8","665792dd5e1494d277aaf587","989","stimuli/2110010.jpg","2","","prediction_trial","2","","true","","2","true","true","true","true","true","true","[2]","110","010","1","","","","","","",""
"","","","","","image-keyboard-response","257","548009","0.0-232.0","63d1675c8eef7f9792f55d42","665500ab8938657b03fbdba8","665792dd5e1494d277aaf587","620","stimuli/21100102.jpg"," ","","feedback_trial","2","","","","","","","","","","","","","","","","","","","","",""
"","","","","","image-keyboard-response","258","549212","0.0-233.0","63d1675c8eef7f9792f55d42","665500ab8938657b03fbdba8","665792dd5e1494d277aaf587","1202","stimuli/0011100.jpg","0","","prediction_trial","0","","true","","0","false","true","true","true","false","true","[0]","011","100","1","","","","","","",""
"","","","","","image-keyboard-response","259","549846","0.0-234.0","63d1675c8eef7f9792f55d42","665500ab8938657b03fbdba8","665792dd5e1494d277aaf587","633","stimuli/00111000.jpg"," ","","feedback_trial","0","","","","","","","","","","","","","","","","","","","","",""
"","","","","","image-keyboard-response","260","551653","0.0-235.0","63d1675c8eef7f9792f55d42","665500ab8938657b03fbdba8","665792dd5e1494d277aaf587","1807","stimuli/1010110.jpg","0","","prediction_trial","1","","false","","1","false","false","false","true","false","false","[1]","010","110","0","","","","","","",""
"","","","","","image-keyboard-response","261","552528","0.0-236.0","63d1675c8eef7f9792f55d42","665500ab8938657b03fbdba8","665792dd5e1494d277aaf587","873","stimuli/10101101.jpg"," ","","feedback_trial","1","","","","","","","","","","","","","","","","","","","","",""
"","","","","","image-keyboard-response","262","553423","0.0-237.0","63d1675c8eef7f9792f55d42","665500ab8938657b03fbdba8","665792dd5e1494d277aaf587","894","stimuli/1101100.jpg","1","","prediction_trial","1","","true","","1","true","true","true","true","true","true","[1]","101","100","1","","","","","","",""
"","","","","","image-keyboard-response","263","554065","0.0-238.0","63d1675c8eef7f9792f55d42","665500ab8938657b03fbdba8","665792dd5e1494d277aaf587","641","stimuli/11011001.jpg"," ","","feedback_trial","1","","","","","","","","","","","","","","","","","","","","",""
"","","","","","image-keyboard-response","264","555398","0.0-239.0","63d1675c8eef7f9792f55d42","665500ab8938657b03fbdba8","665792dd5e1494d277aaf587","1333","stimuli/2010111.jpg","2","","prediction_trial","2","","true","","2","false","false","true","true","false","false","[2]","010","111","1","","","","","","",""
"","","","","","image-keyboard-response","265","555978","0.0-240.0","63d1675c8eef7f9792f55d42","665500ab8938657b03fbdba8","665792dd5e1494d277aaf587","580","stimuli/20101112.jpg"," ","","feedback_trial","2","","","","","","","","","","","","","","","","","","","","",""
"","","","","","image-keyboard-response","266","557255","0.0-241.0","63d1675c8eef7f9792f55d42","665500ab8938657b03fbdba8","665792dd5e1494d277aaf587","1276","stimuli/0110100.jpg","0","","prediction_trial","0","","true","","0","false","true","false","false","false","false","[0,1]","110","100","1","","","","","","",""
"","","","","","image-keyboard-response","267","557958","0.0-242.0","63d1675c8eef7f9792f55d42","665500ab8938657b03fbdba8","665792dd5e1494d277aaf587","702","stimuli/01101000.jpg"," ","","feedback_trial","0","","","","","","","","","","","","","","","","","","","","",""
"","","","","","image-keyboard-response","268","560609","0.0-243.0","63d1675c8eef7f9792f55d42","665500ab8938657b03fbdba8","665792dd5e1494d277aaf587","2649","stimuli/1011010.jpg","1","","prediction_trial","2","","false","","1","false","true","false","false","false","false","[1,2]","011","010","0","","","","","","",""
"","","","","","image-keyboard-response","269","562081","0.0-244.0","63d1675c8eef7f9792f55d42","665500ab8938657b03fbdba8","665792dd5e1494d277aaf587","1471","stimuli/10110102.jpg"," ","","feedback_trial","1","","","","","","","","","","","","","","","","","","","","",""
"","","","","","image-keyboard-response","270","563180","0.0-245.0","63d1675c8eef7f9792f55d42","665500ab8938657b03fbdba8","665792dd5e1494d277aaf587","1098","stimuli/0110011.jpg","0","","prediction_trial","0","","true","","0","true","true","false","false","false","false","[0,1]","110","011","1","","","","","","",""
"","","","","","image-keyboard-response","271","564830","0.0-246.0","63d1675c8eef7f9792f55d42","665500ab8938657b03fbdba8","665792dd5e1494d277aaf587","1649","stimuli/01100110.jpg"," ","","feedback_trial","0","","","","","","","","","","","","","","","","","","","","",""
"","","","","","image-keyboard-response","272","567162","0.0-247.0","63d1675c8eef7f9792f55d42","665500ab8938657b03fbdba8","665792dd5e1494d277aaf587","2331","stimuli/0001000.jpg","0","","prediction_trial","0","","true","","0","true","true","true","true","true","true","[0]","001","000","1","","","","","","",""
"","","","","","image-keyboard-response","273","567873","0.0-248.0","63d1675c8eef7f9792f55d42","665500ab8938657b03fbdba8","665792dd5e1494d277aaf587","709","stimuli/00010000.jpg"," ","","feedback_trial","0","","","","","","","","","","","","","","","","","","","","",""
"","","","","","image-keyboard-response","274","569174","0.0-249.0","63d1675c8eef7f9792f55d42","665500ab8938657b03fbdba8","665792dd5e1494d277aaf587","1300","stimuli/1111010.jpg","2","","prediction_trial","2","","true","","1","false","true","false","false","false","false","[0,1,2]","111","010","1","","","","","","",""
"","","","","","image-keyboard-response","275","569870","0.0-250.0","63d1675c8eef7f9792f55d42","665500ab8938657b03fbdba8","665792dd5e1494d277aaf587","696","stimuli/11110102.jpg"," ","","feedback_trial","0","","","","","","","","","","","","","","","","","","","","",""
"","","","","","image-keyboard-response","276","570931","0.0-251.0","63d1675c8eef7f9792f55d42","665500ab8938657b03fbdba8","665792dd5e1494d277aaf587","1060","stimuli/0100001.jpg","0","","prediction_trial","0","","true","","0","true","true","false","true","false","true","[0]","100","001","1","","","","","","",""
"","","","","","image-keyboard-response","277","571551","0.0-252.0","63d1675c8eef7f9792f55d42","665500ab8938657b03fbdba8","665792dd5e1494d277aaf587","619","stimuli/01000010.jpg"," ","","feedback_trial","0","","","","","","","","","","","","","","","","","","","","",""
"","","","","","image-keyboard-response","278","572580","0.0-253.0","63d1675c8eef7f9792f55d42","665500ab8938657b03fbdba8","665792dd5e1494d277aaf587","1029","stimuli/0000001.jpg","0","","prediction_trial","0","","true","","0","true","true","true","true","true","true","[0]","000","001","1","","","","","","",""
"","","","","","image-keyboard-response","279","573656","0.0-254.0","63d1675c8eef7f9792f55d42","665500ab8938657b03fbdba8","665792dd5e1494d277aaf587","1075","stimuli/00000010.jpg"," ","","feedback_trial","0","","","","","","","","","","","","","","","","","","","","",""
"","","","","","image-keyboard-response","280","574820","0.0-255.0","63d1675c8eef7f9792f55d42","665500ab8938657b03fbdba8","665792dd5e1494d277aaf587","1163","stimuli/2000111.jpg","1","","prediction_trial","2","","false","","2","false","false","true","true","false","false","[2]","000","111","0","","","","","","",""
"","","","","","image-keyboard-response","281","575687","0.0-256.0","63d1675c8eef7f9792f55d42","665500ab8938657b03fbdba8","665792dd5e1494d277aaf587","866","stimuli/20001112.jpg"," ","","feedback_trial","2","","","","","","","","","","","","","","","","","","","","",""
"","","","","","image-keyboard-response","282","576667","0.0-257.0","63d1675c8eef7f9792f55d42","665500ab8938657b03fbdba8","665792dd5e1494d277aaf587","979","stimuli/0111010.jpg","0","","prediction_trial","1","","false","","0","true","true","false","false","false","false","[0,1,2]","111","010","0","","","","","","",""
"","","","","","image-keyboard-response","283","577306","0.0-258.0","63d1675c8eef7f9792f55d42","665500ab8938657b03fbdba8","665792dd5e1494d277aaf587","639","stimuli/01110101.jpg"," ","","feedback_trial","0","","","","","","","","","","","","","","","","","","","","",""
"","","","","","image-keyboard-response","284","578475","0.0-259.0","63d1675c8eef7f9792f55d42","665500ab8938657b03fbdba8","665792dd5e1494d277aaf587","1168","stimuli/1111110.jpg","1","","prediction_trial","2","","false","","1","false","false","false","false","false","false","[1,0,2]","111","110","0","","","","","","",""
"","","","","","image-keyboard-response","285","578955","0.0-260.0","63d1675c8eef7f9792f55d42","665500ab8938657b03fbdba8","665792dd5e1494d277aaf587","478","stimuli/11111102.jpg"," ","","feedback_trial","1","","","","","","","","","","","","","","","","","","","","",""
"","","","","","image-keyboard-response","286","579890","0.0-261.0","63d1675c8eef7f9792f55d42","665500ab8938657b03fbdba8","665792dd5e1494d277aaf587","935","stimuli/0011001.jpg","0","","prediction_trial","0","","true","","0","true","true","true","true","true","true","[0]","011","001","1","","","","","","",""
"","","","","","image-keyboard-response","287","580465","0.0-262.0","63d1675c8eef7f9792f55d42","665500ab8938657b03fbdba8","665792dd5e1494d277aaf587","574","stimuli/00110010.jpg"," ","","feedback_trial","0","","","","","","","","","","","","","","","","","","","","",""
"","","","","","image-keyboard-response","288","583295","0.0-263.0","63d1675c8eef7f9792f55d42","665500ab8938657b03fbdba8","665792dd5e1494d277aaf587","2829","stimuli/2101100.jpg","0","","prediction_trial","2","","false","","2","true","true","false","false","false","false","[2,0]","101","100","0","","","","","","",""
"","","","","","image-keyboard-response","289","584087","0.0-264.0","63d1675c8eef7f9792f55d42","665500ab8938657b03fbdba8","665792dd5e1494d277aaf587","792","stimuli/21011002.jpg"," ","","feedback_trial","2","","","","","","","","","","","","","","","","","","","","",""
"","","","","","image-keyboard-response","290","586928","0.0-265.0","63d1675c8eef7f9792f55d42","665500ab8938657b03fbdba8","665792dd5e1494d277aaf587","2840","stimuli/0110010.jpg","1","","prediction_trial","0","","false","","0","true","true","false","false","false","false","[1,0]","110","010","0","","","","","","",""
"","","","","","image-keyboard-response","291","587708","0.0-266.0","63d1675c8eef7f9792f55d42","665500ab8938657b03fbdba8","665792dd5e1494d277aaf587","779","stimuli/01100100.jpg"," ","","feedback_trial","1","","","","","","","","","","","","","","","","","","","","",""
"","","","","","image-keyboard-response","292","588893","0.0-267.0","63d1675c8eef7f9792f55d42","665500ab8938657b03fbdba8","665792dd5e1494d277aaf587","1184","stimuli/2011001.jpg","2","","prediction_trial","2","","true","","2","false","true","false","false","false","false","[1,2]","011","001","1","","","","","","",""
"","","","","","image-keyboard-response","293","589797","0.0-268.0","63d1675c8eef7f9792f55d42","665500ab8938657b03fbdba8","665792dd5e1494d277aaf587","903","stimuli/20110012.jpg"," ","","feedback_trial","1","","","","","","","","","","","","","","","","","","","","",""
"","","","","","image-keyboard-response","294","591771","0.0-269.0","63d1675c8eef7f9792f55d42","665500ab8938657b03fbdba8","665792dd5e1494d277aaf587","1973","stimuli/2101101.jpg","2","","prediction_trial","0","","false","","2","false","false","false","false","false","false","[0,2]","101","101","0","","","","","","",""
"","","","","","image-keyboard-response","295","592511","0.0-270.0","63d1675c8eef7f9792f55d42","665500ab8938657b03fbdba8","665792dd5e1494d277aaf587","739","stimuli/21011010.jpg"," ","","feedback_trial","0","","","","","","","","","","","","","","","","","","","","",""
"","","","","","image-keyboard-response","296","593540","0.0-271.0","63d1675c8eef7f9792f55d42","665500ab8938657b03fbdba8","665792dd5e1494d277aaf587","1028","stimuli/0011000.jpg","0","","prediction_trial","0","","true","","0","true","true","true","true","true","true","[0]","011","000","1","","","","","","",""
"","","","","","image-keyboard-response","297","594164","0.0-272.0","63d1675c8eef7f9792f55d42","665500ab8938657b03fbdba8","665792dd5e1494d277aaf587","623","stimuli/00110000.jpg"," ","","feedback_trial","0","","","","","","","","","","","","","","","","","","","","",""
"","","","","","image-keyboard-response","298","596066","0.0-273.0","63d1675c8eef7f9792f55d42","665500ab8938657b03fbdba8","665792dd5e1494d277aaf587","1901","stimuli/2001001.jpg","2","","prediction_trial","2","","true","","2","false","true","false","true","false","true","[2]","001","001","1","","","","","","",""
"","","","","","image-keyboard-response","299","596822","0.0-274.0","63d1675c8eef7f9792f55d42","665500ab8938657b03fbdba8","665792dd5e1494d277aaf587","755","stimuli/20010012.jpg"," ","","feedback_trial","2","","","","","","","","","","","","","","","","","","","","",""
"","","","","","image-keyboard-response","300","599673","0.0-275.0","63d1675c8eef7f9792f55d42","665500ab8938657b03fbdba8","665792dd5e1494d277aaf587","2850","stimuli/2100011.jpg","1","","prediction_trial","2","","false","","2","false","false","true","true","false","false","[2]","100","011","0","","","","","","",""
"","","","","","image-keyboard-response","301","600367","0.0-276.0","63d1675c8eef7f9792f55d42","665500ab8938657b03fbdba8","665792dd5e1494d277aaf587","693","stimuli/21000112.jpg"," ","","feedback_trial","2","","","","","","","","","","","","","","","","","","","","",""
"","","","","","image-keyboard-response","302","602291","0.0-277.0","63d1675c8eef7f9792f55d42","665500ab8938657b03fbdba8","665792dd5e1494d277aaf587","1923","stimuli/2001000.jpg","2","","prediction_trial","2","","true","","2","true","true","false","true","false","true","[2]","001","000","1","","","","","","",""
"","","","","","image-keyboard-response","303","603438","0.0-278.0","63d1675c8eef7f9792f55d42","665500ab8938657b03fbdba8","665792dd5e1494d277aaf587","1146","stimuli/20010002.jpg"," ","","feedback_trial","2","","","","","","","","","","","","","","","","","","","","",""
"","","","","","image-keyboard-response","304","605332","0.0-279.0","63d1675c8eef7f9792f55d42","665500ab8938657b03fbdba8","665792dd5e1494d277aaf587","1893","stimuli/1110001.jpg","1","","prediction_trial","1","","true","","1","true","true","false","false","false","false","[1,0]","110","001","1","","","","","","",""
"","","","","","image-keyboard-response","305","606105","0.0-280.0","63d1675c8eef7f9792f55d42","665500ab8938657b03fbdba8","665792dd5e1494d277aaf587","772","stimuli/11100011.jpg"," ","","feedback_trial","1","","","","","","","","","","","","","","","","","","","","",""
"","","","","","image-keyboard-response","306","607173","0.0-281.0","63d1675c8eef7f9792f55d42","665500ab8938657b03fbdba8","665792dd5e1494d277aaf587","1067","stimuli/2001010.jpg","2","","prediction_trial","2","","true","","2","true","true","false","true","false","true","[2]","001","010","1","","","","","","",""
"","","","","","image-keyboard-response","307","607939","0.0-282.0","63d1675c8eef7f9792f55d42","665500ab8938657b03fbdba8","665792dd5e1494d277aaf587","765","stimuli/20010102.jpg"," ","","feedback_trial","2","","","","","","","","","","","","","","","","","","","","",""
"","","","","","image-keyboard-response","308","608959","0.0-283.0","63d1675c8eef7f9792f55d42","665500ab8938657b03fbdba8","665792dd5e1494d277aaf587","1019","stimuli/0010001.jpg","0","","prediction_trial","0","","true","","0","true","true","true","true","true","true","[0]","010","001","1","","","","","","",""
"","","","","","image-keyboard-response","309","609978","0.0-284.0","63d1675c8eef7f9792f55d42","665500ab8938657b03fbdba8","665792dd5e1494d277aaf587","1018","stimuli/00100010.jpg"," ","","feedback_trial","0","","","","","","","","","","","","","","","","","","","","",""
"","","","","","image-keyboard-response","310","612639","0.0-285.0","63d1675c8eef7f9792f55d42","665500ab8938657b03fbdba8","665792dd5e1494d277aaf587","2660","stimuli/1111111.jpg","1","","prediction_trial","2","","false","","1","false","false","false","false","false","false","[0,2,1]","111","111","0","","","","","","",""
"","","","","","image-keyboard-response","311","614921","0.0-286.0","63d1675c8eef7f9792f55d42","665500ab8938657b03fbdba8","665792dd5e1494d277aaf587","2282","stimuli/11111112.jpg"," ","","feedback_trial","0","","","","","","","","","","","","","","","","","","","","",""
"","","","","","image-keyboard-response","312","615978","0.0-287.0","63d1675c8eef7f9792f55d42","665500ab8938657b03fbdba8","665792dd5e1494d277aaf587","1055","stimuli/1011001.jpg","1","","prediction_trial","1","","true","","1","true","true","false","false","false","false","[1,2]","011","001","1","","","","","","",""
"","","","","","image-keyboard-response","313","616518","0.0-288.0","63d1675c8eef7f9792f55d42","665500ab8938657b03fbdba8","665792dd5e1494d277aaf587","539","stimuli/10110011.jpg"," ","","feedback_trial","1","","","","","","","","","","","","","","","","","","","","",""
"","","","","","image-keyboard-response","314","617484","0.0-289.0","63d1675c8eef7f9792f55d42","665500ab8938657b03fbdba8","665792dd5e1494d277aaf587","965","stimuli/2100010.jpg","2","","prediction_trial","2","","true","","2","true","true","true","true","true","true","[2]","100","010","1","","","","","","",""
"","","","","","image-keyboard-response","315","618123","0.0-290.0","63d1675c8eef7f9792f55d42","665500ab8938657b03fbdba8","665792dd5e1494d277aaf587","638","stimuli/21000102.jpg"," ","","feedback_trial","2","","","","","","","","","","","","","","","","","","","","",""
"","","","","","image-keyboard-response","316","619686","0.0-291.0","63d1675c8eef7f9792f55d42","665500ab8938657b03fbdba8","665792dd5e1494d277aaf587","1562","stimuli/2101001.jpg","1","","prediction_trial","0","","false","","2","false","true","false","false","false","false","[0,2]","101","001","0","","","","","","",""
"","","","","","image-keyboard-response","317","621093","0.0-292.0","63d1675c8eef7f9792f55d42","665500ab8938657b03fbdba8","665792dd5e1494d277aaf587","1406","stimuli/21010010.jpg"," ","","feedback_trial","0","","","","","","","","","","","","","","","","","","","","",""
"","","","","","survey-html-form","318","671740","0.0-293.0","63d1675c8eef7f9792f55d42","665500ab8938657b03fbdba8","665792dd5e1494d277aaf587","50645","","{""feedback"":""I tried to stick with where I saw the ball going and give my best guess as to where Sam would pick when he was unable to see."",""age"":""34"",""gender"":""Female"",""other_gender"":"""",""race"":""Black/African American"",""other_race"":"""",""ethnicity"":""Non-Hispanic""}","","exit_survey","","","","","","","","","","","","","","","","I tried to stick with where I saw the ball going and give my best guess as to where Sam would pick when he was unable to see.","34","Non-Hispanic","Female","Black/African American","0.6458333333333334","0.6458333333333334"
