"success","timeout","failed_images","failed_audio","failed_video","trial_type","trial_index","time_elapsed","internal_node_id","prolific_id","prolific_study_id","prolific_session_id","rt","stimulus","response","view_history","trial","character_choice","stimulus_dict","accuracy","correct_response","ball_pos","ego_ball_visible","ego_can_infer","alter_ball_visible","alter_can_infer","collective_ball_visible","collective_can_infer","search_locations","alter_occluders","ego_occluders","accuracy_bool","feedback","age","ethnicity","gender","race","overall_accuracy","bonus"
"true","false","[]","[]","[]","preload","0","10421","0.0-0.0","55c2910dfdf99b5e72c6efcf","665500ab8938657b03fbdba8","6657936f3fa9bac66ec693ce","","","","","","","","","","","","","","","","","","","","","","","","","","",""
"true","","","","","fullscreen","1","13629","0.0-1.0","55c2910dfdf99b5e72c6efcf","665500ab8938657b03fbdba8","6657936f3fa9bac66ec693ce","","","","","","","","","","","","","","","","","","","","","","","","","","",""
"","","","","","html-button-response","2","20295","0.0-2.0","55c2910dfdf99b5e72c6efcf","665500ab8938657b03fbdba8","6657936f3fa9bac66ec693ce","6659","<p><b>Consent Form</b></p> <div style=""text-align:left;background-color:lightgrey; padding:20px; max-width:900px;""><p>Please consider this information carefully before deciding whether to participate in this research.</p> <p>The purpose of this research is to examine which factors influence social judgment and decision-making. You will be asked to make judgements about individuals and actions in social scenarios. We are simply interested in your judgement. The study will take less than 1 hour to complete, and you will receive less than $20 on Prolific. Your compensation and time commitment are specified in the study description. There are no anticipated risks associated with participating in this study. The effects of participating should be comparable to those you would ordinarily experience from viewing a computer monitor and using a mouse or keyboard for a similar amount of time. At the end of the study, we will provide an explanation of the questions that motivate this line of research and will describe the potential implications. </p><p> Your participation in this study is completely voluntary and you may refuse to participate or you may choose to withdraw at any time without penalty or loss of benefits to you which are otherwise entitled. Your participation in this study will remain confidential. No personally identifiable information will be associated with your data. Also, all analyses of the data will be averaged across all the participants, so your individual responses will never be specifically analyzed. </p><p> If you have questions or concerns about your participation or payment, or want to request a summary of research findings, please contact Dr. Jonathan Phillips at Jonathan.S.Phillips@dartmouth.edu. </p><p> Please save a copy of this form for your records. </p><p><b>Agreement: </b>The nature and purpose of this research have been sufficiently explained and I agree to participate in this study. I understand that I am free to withdraw at any time without incurring any penalty. Please consent by clicking the button below to continue. Otherwise, please exit the study at any time. </p>","0","","","","","","","","","","","","","","","","","","","","","","","",""
"","","","","","instructions","3","73955","0.0-3.0-0.0","55c2910dfdf99b5e72c6efcf","665500ab8938657b03fbdba8","6657936f3fa9bac66ec693ce","53657","","","[{""page_index"":0,""viewing_time"":1861},{""page_index"":1,""viewing_time"":2096},{""page_index"":2,""viewing_time"":2886},{""page_index"":3,""viewing_time"":4048},{""page_index"":4,""viewing_time"":2582},{""page_index"":5,""viewing_time"":3518},{""page_index"":6,""viewing_time"":4468},{""page_index"":7,""viewing_time"":3133},{""page_index"":8,""viewing_time"":4214},{""page_index"":9,""viewing_time"":3134},{""page_index"":10,""viewing_time"":6288},{""page_index"":11,""viewing_time"":6780},{""page_index"":12,""viewing_time"":6813},{""page_index"":13,""viewing_time"":1834}]","intro","","","","","","","","","","","","","","","","","","","","","",""
"","","","","","image-keyboard-response","4","75063","0.0-3.0-1.0","55c2910dfdf99b5e72c6efcf","665500ab8938657b03fbdba8","6657936f3fa9bac66ec693ce","1094","stimuli/2101111.jpg","1","","prediction_practice","2","{""filepath"":""stimuli/2101111.jpg"",""ball_pos"":2,""ego_ball_visible"":false,""ego_can_infer"":false,""alter_ball_visible"":false,""alter_can_infer"":false,""collective_ball_visible"":false,""collective_can_infer"":false,""search_locations"":[2,0],""alter_occluders"":""101"",""ego_occluders"":""111""}","false","","","","","","","","","","","","","","","","","","",""
"","","","","","image-keyboard-response","5","76993","0.0-3.0-2.0","55c2910dfdf99b5e72c6efcf","665500ab8938657b03fbdba8","6657936f3fa9bac66ec693ce","1927","stimuli/21011112.jpg"," ","","practrice_feedback","2","","","","","","","","","","","","","","","","","","","","",""
"","","","","","image-keyboard-response","6","78115","0.0-3.0-3.0","55c2910dfdf99b5e72c6efcf","665500ab8938657b03fbdba8","6657936f3fa9bac66ec693ce","1120","stimuli/0101100.jpg","2","","prediction_practice","0","{""filepath"":""stimuli/0101100.jpg"",""ball_pos"":0,""ego_ball_visible"":false,""ego_can_infer"":true,""alter_ball_visible"":false,""alter_can_infer"":false,""collective_ball_visible"":false,""collective_can_infer"":false,""search_locations"":[2,0],""alter_occluders"":""101"",""ego_occluders"":""100""}","false","","","","","","","","","","","","","","","","","","",""
"","","","","","image-keyboard-response","7","80020","0.0-3.0-4.0","55c2910dfdf99b5e72c6efcf","665500ab8938657b03fbdba8","6657936f3fa9bac66ec693ce","1903","stimuli/01011000.jpg"," ","","practrice_feedback","2","","","","","","","","","","","","","","","","","","","","",""
"","","","","","image-keyboard-response","8","80921","0.0-3.0-5.0","55c2910dfdf99b5e72c6efcf","665500ab8938657b03fbdba8","6657936f3fa9bac66ec693ce","900","stimuli/2011100.jpg","2","","prediction_practice","1","{""filepath"":""stimuli/2011100.jpg"",""ball_pos"":2,""ego_ball_visible"":true,""ego_can_infer"":true,""alter_ball_visible"":false,""alter_can_infer"":false,""collective_ball_visible"":false,""collective_can_infer"":false,""search_locations"":[2,1],""alter_occluders"":""011"",""ego_occluders"":""100""}","false","","","","","","","","","","","","","","","","","","",""
"","","","","","image-keyboard-response","9","83564","0.0-3.0-6.0","55c2910dfdf99b5e72c6efcf","665500ab8938657b03fbdba8","6657936f3fa9bac66ec693ce","2641","stimuli/20111001.jpg"," ","","practrice_feedback","2","","","","","","","","","","","","","","","","","","","","",""
"","","","","","image-keyboard-response","10","86681","0.0-3.0-7.0","55c2910dfdf99b5e72c6efcf","665500ab8938657b03fbdba8","6657936f3fa9bac66ec693ce","3115","stimuli/2110011.jpg","2","","prediction_practice","2","{""filepath"":""stimuli/2110011.jpg"",""ball_pos"":2,""ego_ball_visible"":false,""ego_can_infer"":false,""alter_ball_visible"":true,""alter_can_infer"":true,""collective_ball_visible"":false,""collective_can_infer"":false,""search_locations"":[2],""alter_occluders"":""110"",""ego_occluders"":""011""}","true","","","","","","","","","","","","","","","","","","",""
"","","","","","image-keyboard-response","11","87844","0.0-3.0-8.0","55c2910dfdf99b5e72c6efcf","665500ab8938657b03fbdba8","6657936f3fa9bac66ec693ce","1162","stimuli/21100112.jpg"," ","","practrice_feedback","2","","","","","","","","","","","","","","","","","","","","",""
"","","","","","image-keyboard-response","12","88765","0.0-3.0-9.0","55c2910dfdf99b5e72c6efcf","665500ab8938657b03fbdba8","6657936f3fa9bac66ec693ce","919","stimuli/0010010.jpg","0","","prediction_practice","0","{""filepath"":""stimuli/0010010.jpg"",""ball_pos"":0,""ego_ball_visible"":true,""ego_can_infer"":true,""alter_ball_visible"":true,""alter_can_infer"":true,""collective_ball_visible"":true,""collective_can_infer"":true,""search_locations"":[0],""alter_occluders"":""010"",""ego_occluders"":""010""}","true","","","","","","","","","","","","","","","","","","",""
"","","","","","image-keyboard-response","13","89606","0.0-3.0-10.0","55c2910dfdf99b5e72c6efcf","665500ab8938657b03fbdba8","6657936f3fa9bac66ec693ce","839","stimuli/00100100.jpg"," ","","practrice_feedback","0","","","","","","","","","","","","","","","","","","","","",""
"","","","","","image-keyboard-response","14","90444","0.0-3.0-11.0","55c2910dfdf99b5e72c6efcf","665500ab8938657b03fbdba8","6657936f3fa9bac66ec693ce","824","stimuli/0001001.jpg","0","","prediction_practice","0","{""filepath"":""stimuli/0001001.jpg"",""ball_pos"":0,""ego_ball_visible"":true,""ego_can_infer"":true,""alter_ball_visible"":true,""alter_can_infer"":true,""collective_ball_visible"":true,""collective_can_infer"":true,""search_locations"":[0],""alter_occluders"":""001"",""ego_occluders"":""001""}","true","","","","","","","","","","","","","","","","","","",""
"","","","","","image-keyboard-response","15","90956","0.0-3.0-12.0","55c2910dfdf99b5e72c6efcf","665500ab8938657b03fbdba8","6657936f3fa9bac66ec693ce","511","stimuli/00010010.jpg"," ","","practrice_feedback","0","","","","","","","","","","","","","","","","","","","","",""
"","","","","","image-keyboard-response","16","91779","0.0-3.0-13.0","55c2910dfdf99b5e72c6efcf","665500ab8938657b03fbdba8","6657936f3fa9bac66ec693ce","821","stimuli/2111110.jpg","2","","prediction_practice","0","{""filepath"":""stimuli/2111110.jpg"",""ball_pos"":2,""ego_ball_visible"":true,""ego_can_infer"":true,""alter_ball_visible"":false,""alter_can_infer"":false,""collective_ball_visible"":false,""collective_can_infer"":false,""search_locations"":[0,2,1],""alter_occluders"":""111"",""ego_occluders"":""110""}","false","","","","","","","","","","","","","","","","","","",""
"","","","","","image-keyboard-response","17","92533","0.0-3.0-14.0","55c2910dfdf99b5e72c6efcf","665500ab8938657b03fbdba8","6657936f3fa9bac66ec693ce","753","stimuli/21111100.jpg"," ","","practrice_feedback","0","","","","","","","","","","","","","","","","","","","","",""
"","","","","","image-keyboard-response","18","93586","0.0-3.0-15.0","55c2910dfdf99b5e72c6efcf","665500ab8938657b03fbdba8","6657936f3fa9bac66ec693ce","1051","stimuli/1101101.jpg","1","","prediction_practice","1","{""filepath"":""stimuli/1101101.jpg"",""ball_pos"":1,""ego_ball_visible"":true,""ego_can_infer"":true,""alter_ball_visible"":true,""alter_can_infer"":true,""collective_ball_visible"":true,""collective_can_infer"":true,""search_locations"":[1],""alter_occluders"":""101"",""ego_occluders"":""101""}","true","","","","","","","","","","","","","","","","","","",""
"","","","","","image-keyboard-response","19","94363","0.0-3.0-16.0","55c2910dfdf99b5e72c6efcf","665500ab8938657b03fbdba8","6657936f3fa9bac66ec693ce","776","stimuli/11011011.jpg"," ","","practrice_feedback","1","","","","","","","","","","","","","","","","","","","","",""
"","","","","","image-keyboard-response","20","95144","0.0-3.0-17.0","55c2910dfdf99b5e72c6efcf","665500ab8938657b03fbdba8","6657936f3fa9bac66ec693ce","780","stimuli/1110101.jpg","1","","prediction_practice","0","{""filepath"":""stimuli/1110101.jpg"",""ball_pos"":1,""ego_ball_visible"":true,""ego_can_infer"":true,""alter_ball_visible"":false,""alter_can_infer"":false,""collective_ball_visible"":false,""collective_can_infer"":false,""search_locations"":[1,0],""alter_occluders"":""110"",""ego_occluders"":""101""}","false","","","","","","","","","","","","","","","","","","",""
"","","","","","image-keyboard-response","21","95910","0.0-3.0-18.0","55c2910dfdf99b5e72c6efcf","665500ab8938657b03fbdba8","6657936f3fa9bac66ec693ce","764","stimuli/11101010.jpg"," ","","practrice_feedback","1","","","","","","","","","","","","","","","","","","","","",""
"","","","","","image-keyboard-response","22","98152","0.0-3.0-19.0","55c2910dfdf99b5e72c6efcf","665500ab8938657b03fbdba8","6657936f3fa9bac66ec693ce","2240","stimuli/2001111.jpg","0","","prediction_practice","2","{""filepath"":""stimuli/2001111.jpg"",""ball_pos"":2,""ego_ball_visible"":false,""ego_can_infer"":false,""alter_ball_visible"":false,""alter_can_infer"":true,""collective_ball_visible"":false,""collective_can_infer"":false,""search_locations"":[2],""alter_occluders"":""001"",""ego_occluders"":""111""}","false","","","","","","","","","","","","","","","","","","",""
"","","","","","image-keyboard-response","23","99395","0.0-3.0-20.0","55c2910dfdf99b5e72c6efcf","665500ab8938657b03fbdba8","6657936f3fa9bac66ec693ce","1242","stimuli/20011112.jpg"," ","","practrice_feedback","2","","","","","","","","","","","","","","","","","","","","",""
"","","","","","html-button-response","24","106889","0.0-3.0-21.0","55c2910dfdf99b5e72c6efcf","665500ab8938657b03fbdba8","6657936f3fa9bac66ec693ce","7492","Now that you've had some practice, you'll be tested with a couple of easy trials. If you correctly predict Sam's choice, you'll move on to complete the experiment!","0","","","","","","","","","","","","","","","","","","","","","","","",""
"","","","","","image-keyboard-response","25","108240","0.0-3.0-22.0-0.0","55c2910dfdf99b5e72c6efcf","665500ab8938657b03fbdba8","6657936f3fa9bac66ec693ce","1349","stimuli/0000011.jpg","arrowleft","","comprehension_quiz","","","true","arrowleft","","","","","","","","","","","","","","","","","",""
"","","","","","image-keyboard-response","26","109158","0.0-3.0-22.0-1.0","55c2910dfdf99b5e72c6efcf","665500ab8938657b03fbdba8","6657936f3fa9bac66ec693ce","901","stimuli/00000110.jpg"," ","","comprehension_quiz","","","true"," ","","","","","","","","","","","","","","","","","",""
"","","","","","image-keyboard-response","27","110463","0.0-3.0-22.0-2.0","55c2910dfdf99b5e72c6efcf","665500ab8938657b03fbdba8","6657936f3fa9bac66ec693ce","1304","stimuli/1010010.jpg","arrowdown","","comprehension_quiz","","","true","arrowdown","","","","","","","","","","","","","","","","","",""
"","","","","","image-keyboard-response","28","111019","0.0-3.0-22.0-3.0","55c2910dfdf99b5e72c6efcf","665500ab8938657b03fbdba8","6657936f3fa9bac66ec693ce","555","stimuli/10100101.jpg"," ","","comprehension_quiz","","","true"," ","","","","","","","","","","","","","","","","","",""
"","","","","","html-button-response","29","147872","0.0-4.0","55c2910dfdf99b5e72c6efcf","665500ab8938657b03fbdba8","6657936f3fa9bac66ec693ce","36858","The experiment will now begin.","0","","","","","","","","","","","","","","","","","","","","","","","",""
"","","","","","image-keyboard-response","30","149744","0.0-5.0","55c2910dfdf99b5e72c6efcf","665500ab8938657b03fbdba8","6657936f3fa9bac66ec693ce","1870","stimuli/2110001.jpg","2","","prediction_trial","2","","true","","2","false","true","true","true","false","true","[2]","110","001","1","","","","","","",""
"","","","","","image-keyboard-response","31","150417","0.0-6.0","55c2910dfdf99b5e72c6efcf","665500ab8938657b03fbdba8","6657936f3fa9bac66ec693ce","670","stimuli/21100012.jpg"," ","","feedback_trial","2","","","","","","","","","","","","","","","","","","","","",""
"","","","","","image-keyboard-response","32","152327","0.0-7.0","55c2910dfdf99b5e72c6efcf","665500ab8938657b03fbdba8","6657936f3fa9bac66ec693ce","1909","stimuli/2001110.jpg","2","","prediction_trial","2","","true","","2","true","true","false","true","false","true","[2]","001","110","1","","","","","","",""
"","","","","","image-keyboard-response","33","152788","0.0-8.0","55c2910dfdf99b5e72c6efcf","665500ab8938657b03fbdba8","6657936f3fa9bac66ec693ce","460","stimuli/20011102.jpg"," ","","feedback_trial","2","","","","","","","","","","","","","","","","","","","","",""
"","","","","","image-keyboard-response","34","154770","0.0-9.0","55c2910dfdf99b5e72c6efcf","665500ab8938657b03fbdba8","6657936f3fa9bac66ec693ce","1980","stimuli/2101000.jpg","2","","prediction_trial","2","","true","","2","true","true","false","false","false","false","[2,0]","101","000","1","","","","","","",""
"","","","","","image-keyboard-response","35","155614","0.0-10.0","55c2910dfdf99b5e72c6efcf","665500ab8938657b03fbdba8","6657936f3fa9bac66ec693ce","843","stimuli/21010002.jpg"," ","","feedback_trial","2","","","","","","","","","","","","","","","","","","","","",""
"","","","","","image-keyboard-response","36","156518","0.0-11.0","55c2910dfdf99b5e72c6efcf","665500ab8938657b03fbdba8","6657936f3fa9bac66ec693ce","903","stimuli/2000000.jpg","2","","prediction_trial","2","","true","","2","true","true","true","true","true","true","[2]","000","000","1","","","","","","",""
"","","","","","image-keyboard-response","37","156958","0.0-12.0","55c2910dfdf99b5e72c6efcf","665500ab8938657b03fbdba8","6657936f3fa9bac66ec693ce","438","stimuli/20000002.jpg"," ","","feedback_trial","2","","","","","","","","","","","","","","","","","","","","",""
"","","","","","image-keyboard-response","38","159248","0.0-13.0","55c2910dfdf99b5e72c6efcf","665500ab8938657b03fbdba8","6657936f3fa9bac66ec693ce","2290","stimuli/0110111.jpg","1","","prediction_trial","0","","false","","0","false","false","false","false","false","false","[0,1]","110","111","0","","","","","","",""
"","","","","","image-keyboard-response","39","160184","0.0-14.0","55c2910dfdf99b5e72c6efcf","665500ab8938657b03fbdba8","6657936f3fa9bac66ec693ce","934","stimuli/01101110.jpg"," ","","feedback_trial","0","","","","","","","","","","","","","","","","","","","","",""
"","","","","","image-keyboard-response","40","162932","0.0-15.0","55c2910dfdf99b5e72c6efcf","665500ab8938657b03fbdba8","6657936f3fa9bac66ec693ce","2746","stimuli/0001101.jpg","2","","prediction_trial","0","","false","","0","false","false","true","true","false","false","[0]","001","101","0","","","","","","",""
"","","","","","image-keyboard-response","41","163504","0.0-16.0","55c2910dfdf99b5e72c6efcf","665500ab8938657b03fbdba8","6657936f3fa9bac66ec693ce","571","stimuli/00011010.jpg"," ","","feedback_trial","0","","","","","","","","","","","","","","","","","","","","",""
"","","","","","image-keyboard-response","42","165538","0.0-17.0","55c2910dfdf99b5e72c6efcf","665500ab8938657b03fbdba8","6657936f3fa9bac66ec693ce","2033","stimuli/1110000.jpg","0","","prediction_trial","1","","false","","1","true","true","false","false","false","false","[1,0]","110","000","0","","","","","","",""
"","","","","","image-keyboard-response","43","166073","0.0-18.0","55c2910dfdf99b5e72c6efcf","665500ab8938657b03fbdba8","6657936f3fa9bac66ec693ce","534","stimuli/11100001.jpg"," ","","feedback_trial","1","","","","","","","","","","","","","","","","","","","","",""
"","","","","","image-keyboard-response","44","167201","0.0-19.0","55c2910dfdf99b5e72c6efcf","665500ab8938657b03fbdba8","6657936f3fa9bac66ec693ce","1127","stimuli/0110000.jpg","0","","prediction_trial","0","","true","","0","true","true","false","false","false","false","[0,1]","110","000","1","","","","","","",""
"","","","","","image-keyboard-response","45","167714","0.0-20.0","55c2910dfdf99b5e72c6efcf","665500ab8938657b03fbdba8","6657936f3fa9bac66ec693ce","511","stimuli/01100000.jpg"," ","","feedback_trial","0","","","","","","","","","","","","","","","","","","","","",""
"","","","","","image-keyboard-response","46","169905","0.0-21.0","55c2910dfdf99b5e72c6efcf","665500ab8938657b03fbdba8","6657936f3fa9bac66ec693ce","2190","stimuli/2001101.jpg","2","","prediction_trial","2","","true","","2","false","false","false","true","false","false","[2]","001","101","1","","","","","","",""
"","","","","","image-keyboard-response","47","170499","0.0-22.0","55c2910dfdf99b5e72c6efcf","665500ab8938657b03fbdba8","6657936f3fa9bac66ec693ce","593","stimuli/20011012.jpg"," ","","feedback_trial","2","","","","","","","","","","","","","","","","","","","","",""
"","","","","","image-keyboard-response","48","171937","0.0-23.0","55c2910dfdf99b5e72c6efcf","665500ab8938657b03fbdba8","6657936f3fa9bac66ec693ce","1437","stimuli/0100101.jpg","0","","prediction_trial","0","","true","","0","false","false","false","true","false","false","[0]","100","101","1","","","","","","",""
"","","","","","image-keyboard-response","49","172632","0.0-24.0","55c2910dfdf99b5e72c6efcf","665500ab8938657b03fbdba8","6657936f3fa9bac66ec693ce","693","stimuli/01001010.jpg"," ","","feedback_trial","0","","","","","","","","","","","","","","","","","","","","",""
"","","","","","image-keyboard-response","50","173805","0.0-25.0","55c2910dfdf99b5e72c6efcf","665500ab8938657b03fbdba8","6657936f3fa9bac66ec693ce","1172","stimuli/2010111.jpg","1","","prediction_trial","2","","false","","2","false","false","true","true","false","false","[2]","010","111","0","","","","","","",""
"","","","","","image-keyboard-response","51","174418","0.0-26.0","55c2910dfdf99b5e72c6efcf","665500ab8938657b03fbdba8","6657936f3fa9bac66ec693ce","612","stimuli/20101112.jpg"," ","","feedback_trial","2","","","","","","","","","","","","","","","","","","","","",""
"","","","","","image-keyboard-response","52","177017","0.0-27.0","55c2910dfdf99b5e72c6efcf","665500ab8938657b03fbdba8","6657936f3fa9bac66ec693ce","2597","stimuli/1110011.jpg","1","","prediction_trial","1","","true","","1","false","false","false","false","false","false","[1,0]","110","011","1","","","","","","",""
"","","","","","image-keyboard-response","53","177696","0.0-28.0","55c2910dfdf99b5e72c6efcf","665500ab8938657b03fbdba8","6657936f3fa9bac66ec693ce","678","stimuli/11100111.jpg"," ","","feedback_trial","1","","","","","","","","","","","","","","","","","","","","",""
"","","","","","image-keyboard-response","54","178798","0.0-29.0","55c2910dfdf99b5e72c6efcf","665500ab8938657b03fbdba8","6657936f3fa9bac66ec693ce","1101","stimuli/1111000.jpg","2","","prediction_trial","2","","true","","1","true","true","false","false","false","false","[0,2,1]","111","000","1","","","","","","",""
"","","","","","image-keyboard-response","55","179321","0.0-30.0","55c2910dfdf99b5e72c6efcf","665500ab8938657b03fbdba8","6657936f3fa9bac66ec693ce","522","stimuli/11110002.jpg"," ","","feedback_trial","0","","","","","","","","","","","","","","","","","","","","",""
"","","","","","image-keyboard-response","56","180789","0.0-31.0","55c2910dfdf99b5e72c6efcf","665500ab8938657b03fbdba8","6657936f3fa9bac66ec693ce","1467","stimuli/1110010.jpg","0","","prediction_trial","0","","true","","1","false","true","false","false","false","false","[1,0]","110","010","1","","","","","","",""
"","","","","","image-keyboard-response","57","181478","0.0-32.0","55c2910dfdf99b5e72c6efcf","665500ab8938657b03fbdba8","6657936f3fa9bac66ec693ce","688","stimuli/11100100.jpg"," ","","feedback_trial","1","","","","","","","","","","","","","","","","","","","","",""
"","","","","","image-keyboard-response","58","183362","0.0-33.0","55c2910dfdf99b5e72c6efcf","665500ab8938657b03fbdba8","6657936f3fa9bac66ec693ce","1884","stimuli/0001111.jpg","2","","prediction_trial","0","","false","","0","false","false","true","true","false","false","[0]","001","111","0","","","","","","",""
"","","","","","image-keyboard-response","59","184204","0.0-34.0","55c2910dfdf99b5e72c6efcf","665500ab8938657b03fbdba8","6657936f3fa9bac66ec693ce","840","stimuli/00011110.jpg"," ","","feedback_trial","0","","","","","","","","","","","","","","","","","","","","",""
"","","","","","image-keyboard-response","60","185772","0.0-35.0","55c2910dfdf99b5e72c6efcf","665500ab8938657b03fbdba8","6657936f3fa9bac66ec693ce","1567","stimuli/1001111.jpg","2","","prediction_trial","1","","false","","1","false","false","true","true","false","false","[1]","001","111","0","","","","","","",""
"","","","","","image-keyboard-response","61","186351","0.0-36.0","55c2910dfdf99b5e72c6efcf","665500ab8938657b03fbdba8","6657936f3fa9bac66ec693ce","577","stimuli/10011111.jpg"," ","","feedback_trial","1","","","","","","","","","","","","","","","","","","","","",""
"","","","","","image-keyboard-response","62","187585","0.0-37.0","55c2910dfdf99b5e72c6efcf","665500ab8938657b03fbdba8","6657936f3fa9bac66ec693ce","1233","stimuli/0100010.jpg","0","","prediction_trial","0","","true","","0","true","true","false","true","false","true","[0]","100","010","1","","","","","","",""
"","","","","","image-keyboard-response","63","187926","0.0-38.0","55c2910dfdf99b5e72c6efcf","665500ab8938657b03fbdba8","6657936f3fa9bac66ec693ce","339","stimuli/01000100.jpg"," ","","feedback_trial","0","","","","","","","","","","","","","","","","","","","","",""
"","","","","","image-keyboard-response","64","189004","0.0-39.0","55c2910dfdf99b5e72c6efcf","665500ab8938657b03fbdba8","6657936f3fa9bac66ec693ce","1077","stimuli/0000111.jpg","1","","prediction_trial","0","","false","","0","false","false","true","true","false","false","[0]","000","111","0","","","","","","",""
"","","","","","image-keyboard-response","65","189434","0.0-40.0","55c2910dfdf99b5e72c6efcf","665500ab8938657b03fbdba8","6657936f3fa9bac66ec693ce","429","stimuli/00001110.jpg"," ","","feedback_trial","0","","","","","","","","","","","","","","","","","","","","",""
"","","","","","image-keyboard-response","66","190786","0.0-41.0","55c2910dfdf99b5e72c6efcf","665500ab8938657b03fbdba8","6657936f3fa9bac66ec693ce","1350","stimuli/2011110.jpg","1","","prediction_trial","1","","true","","2","true","true","false","false","false","false","[2,1]","011","110","1","","","","","","",""
"","","","","","image-keyboard-response","67","191386","0.0-42.0","55c2910dfdf99b5e72c6efcf","665500ab8938657b03fbdba8","6657936f3fa9bac66ec693ce","599","stimuli/20111101.jpg"," ","","feedback_trial","2","","","","","","","","","","","","","","","","","","","","",""
"","","","","","image-keyboard-response","68","193068","0.0-43.0","55c2910dfdf99b5e72c6efcf","665500ab8938657b03fbdba8","6657936f3fa9bac66ec693ce","1681","stimuli/2111110.jpg","2","","prediction_trial","2","","true","","2","true","true","false","false","false","false","[0,2,1]","111","110","1","","","","","","",""
"","","","","","image-keyboard-response","69","193657","0.0-44.0","55c2910dfdf99b5e72c6efcf","665500ab8938657b03fbdba8","6657936f3fa9bac66ec693ce","588","stimuli/21111102.jpg"," ","","feedback_trial","0","","","","","","","","","","","","","","","","","","","","",""
"","","","","","image-keyboard-response","70","194472","0.0-45.0","55c2910dfdf99b5e72c6efcf","665500ab8938657b03fbdba8","6657936f3fa9bac66ec693ce","814","stimuli/1011000.jpg","1","","prediction_trial","2","","false","","1","true","true","false","false","false","false","[2,1]","011","000","0","","","","","","",""
"","","","","","image-keyboard-response","71","194999","0.0-46.0","55c2910dfdf99b5e72c6efcf","665500ab8938657b03fbdba8","6657936f3fa9bac66ec693ce","525","stimuli/10110002.jpg"," ","","feedback_trial","2","","","","","","","","","","","","","","","","","","","","",""
"","","","","","image-keyboard-response","72","197085","0.0-47.0","55c2910dfdf99b5e72c6efcf","665500ab8938657b03fbdba8","6657936f3fa9bac66ec693ce","2085","stimuli/0011110.jpg","2","","prediction_trial","0","","false","","0","false","false","true","true","false","false","[0]","011","110","0","","","","","","",""
"","","","","","image-keyboard-response","73","197693","0.0-48.0","55c2910dfdf99b5e72c6efcf","665500ab8938657b03fbdba8","6657936f3fa9bac66ec693ce","607","stimuli/00111100.jpg"," ","","feedback_trial","0","","","","","","","","","","","","","","","","","","","","",""
"","","","","","image-keyboard-response","74","199144","0.0-49.0","55c2910dfdf99b5e72c6efcf","665500ab8938657b03fbdba8","6657936f3fa9bac66ec693ce","1450","stimuli/0011100.jpg","0","","prediction_trial","0","","true","","0","false","true","true","true","false","true","[0]","011","100","1","","","","","","",""
"","","","","","image-keyboard-response","75","199515","0.0-50.0","55c2910dfdf99b5e72c6efcf","665500ab8938657b03fbdba8","6657936f3fa9bac66ec693ce","369","stimuli/00111000.jpg"," ","","feedback_trial","0","","","","","","","","","","","","","","","","","","","","",""
"","","","","","image-keyboard-response","76","201680","0.0-51.0","55c2910dfdf99b5e72c6efcf","665500ab8938657b03fbdba8","6657936f3fa9bac66ec693ce","2164","stimuli/0010110.jpg","1","","prediction_trial","0","","false","","0","false","false","true","true","false","false","[0]","010","110","0","","","","","","",""
"","","","","","image-keyboard-response","77","202370","0.0-52.0","55c2910dfdf99b5e72c6efcf","665500ab8938657b03fbdba8","6657936f3fa9bac66ec693ce","690","stimuli/00101100.jpg"," ","","feedback_trial","0","","","","","","","","","","","","","","","","","","","","",""
"","","","","","image-keyboard-response","78","204305","0.0-53.0","55c2910dfdf99b5e72c6efcf","665500ab8938657b03fbdba8","6657936f3fa9bac66ec693ce","1933","stimuli/0010111.jpg","2","","prediction_trial","0","","false","","0","false","false","true","true","false","false","[0]","010","111","0","","","","","","",""
"","","","","","image-keyboard-response","79","204846","0.0-54.0","55c2910dfdf99b5e72c6efcf","665500ab8938657b03fbdba8","6657936f3fa9bac66ec693ce","540","stimuli/00101110.jpg"," ","","feedback_trial","0","","","","","","","","","","","","","","","","","","","","",""
"","","","","","image-keyboard-response","80","206236","0.0-55.0","55c2910dfdf99b5e72c6efcf","665500ab8938657b03fbdba8","6657936f3fa9bac66ec693ce","1389","stimuli/1000011.jpg","2","","prediction_trial","1","","false","","1","false","false","true","true","false","false","[1]","000","011","0","","","","","","",""
"","","","","","image-keyboard-response","81","206674","0.0-56.0","55c2910dfdf99b5e72c6efcf","665500ab8938657b03fbdba8","6657936f3fa9bac66ec693ce","437","stimuli/10000111.jpg"," ","","feedback_trial","1","","","","","","","","","","","","","","","","","","","","",""
"","","","","","image-keyboard-response","82","207893","0.0-57.0","55c2910dfdf99b5e72c6efcf","665500ab8938657b03fbdba8","6657936f3fa9bac66ec693ce","1216","stimuli/1110100.jpg","1","","prediction_trial","1","","true","","1","true","true","false","false","false","false","[1,0]","110","100","1","","","","","","",""
"","","","","","image-keyboard-response","83","208447","0.0-58.0","55c2910dfdf99b5e72c6efcf","665500ab8938657b03fbdba8","6657936f3fa9bac66ec693ce","553","stimuli/11101001.jpg"," ","","feedback_trial","1","","","","","","","","","","","","","","","","","","","","",""
"","","","","","image-keyboard-response","84","209549","0.0-59.0","55c2910dfdf99b5e72c6efcf","665500ab8938657b03fbdba8","6657936f3fa9bac66ec693ce","1101","stimuli/2011000.jpg","2","","prediction_trial","2","","true","","2","true","true","false","false","false","false","[1,2]","011","000","1","","","","","","",""
"","","","","","image-keyboard-response","85","210103","0.0-60.0","55c2910dfdf99b5e72c6efcf","665500ab8938657b03fbdba8","6657936f3fa9bac66ec693ce","553","stimuli/20110002.jpg"," ","","feedback_trial","1","","","","","","","","","","","","","","","","","","","","",""
"","","","","","image-keyboard-response","86","210793","0.0-61.0","55c2910dfdf99b5e72c6efcf","665500ab8938657b03fbdba8","6657936f3fa9bac66ec693ce","689","stimuli/0010000.jpg","0","","prediction_trial","0","","true","","0","true","true","true","true","true","true","[0]","010","000","1","","","","","","",""
"","","","","","image-keyboard-response","87","211114","0.0-62.0","55c2910dfdf99b5e72c6efcf","665500ab8938657b03fbdba8","6657936f3fa9bac66ec693ce","320","stimuli/00100000.jpg"," ","","feedback_trial","0","","","","","","","","","","","","","","","","","","","","",""
"","","","","","image-keyboard-response","88","212628","0.0-63.0","55c2910dfdf99b5e72c6efcf","665500ab8938657b03fbdba8","6657936f3fa9bac66ec693ce","1512","stimuli/2010001.jpg","2","","prediction_trial","2","","true","","2","false","true","true","true","false","true","[2]","010","001","1","","","","","","",""
"","","","","","image-keyboard-response","89","212950","0.0-64.0","55c2910dfdf99b5e72c6efcf","665500ab8938657b03fbdba8","6657936f3fa9bac66ec693ce","321","stimuli/20100012.jpg"," ","","feedback_trial","2","","","","","","","","","","","","","","","","","","","","",""
"","","","","","image-keyboard-response","90","214371","0.0-65.0","55c2910dfdf99b5e72c6efcf","665500ab8938657b03fbdba8","6657936f3fa9bac66ec693ce","1421","stimuli/0011111.jpg","1","","prediction_trial","0","","false","","0","false","false","true","true","false","false","[0]","011","111","0","","","","","","",""
"","","","","","image-keyboard-response","91","215278","0.0-66.0","55c2910dfdf99b5e72c6efcf","665500ab8938657b03fbdba8","6657936f3fa9bac66ec693ce","906","stimuli/00111110.jpg"," ","","feedback_trial","0","","","","","","","","","","","","","","","","","","","","",""
"","","","","","image-keyboard-response","92","216799","0.0-67.0","55c2910dfdf99b5e72c6efcf","665500ab8938657b03fbdba8","6657936f3fa9bac66ec693ce","1519","stimuli/1001001.jpg","1","","prediction_trial","1","","true","","1","true","true","true","true","true","true","[1]","001","001","1","","","","","","",""
"","","","","","image-keyboard-response","93","217192","0.0-68.0","55c2910dfdf99b5e72c6efcf","665500ab8938657b03fbdba8","6657936f3fa9bac66ec693ce","392","stimuli/10010011.jpg"," ","","feedback_trial","1","","","","","","","","","","","","","","","","","","","","",""
"","","","","","image-keyboard-response","94","218158","0.0-69.0","55c2910dfdf99b5e72c6efcf","665500ab8938657b03fbdba8","6657936f3fa9bac66ec693ce","965","stimuli/1010010.jpg","1","","prediction_trial","1","","true","","1","false","true","false","true","false","true","[1]","010","010","1","","","","","","",""
"","","","","","image-keyboard-response","95","218424","0.0-70.0","55c2910dfdf99b5e72c6efcf","665500ab8938657b03fbdba8","6657936f3fa9bac66ec693ce","265","stimuli/10100101.jpg"," ","","feedback_trial","1","","","","","","","","","","","","","","","","","","","","",""
"","","","","","image-keyboard-response","96","219831","0.0-71.0","55c2910dfdf99b5e72c6efcf","665500ab8938657b03fbdba8","6657936f3fa9bac66ec693ce","1405","stimuli/2100000.jpg","2","","prediction_trial","2","","true","","2","true","true","true","true","true","true","[2]","100","000","1","","","","","","",""
"","","","","","image-keyboard-response","97","220302","0.0-72.0","55c2910dfdf99b5e72c6efcf","665500ab8938657b03fbdba8","6657936f3fa9bac66ec693ce","469","stimuli/21000002.jpg"," ","","feedback_trial","2","","","","","","","","","","","","","","","","","","","","",""
"","","","","","image-keyboard-response","98","221389","0.0-73.0","55c2910dfdf99b5e72c6efcf","665500ab8938657b03fbdba8","6657936f3fa9bac66ec693ce","1086","stimuli/0110010.jpg","0","","prediction_trial","0","","true","","0","true","true","false","false","false","false","[0,1]","110","010","1","","","","","","",""
"","","","","","image-keyboard-response","99","221984","0.0-74.0","55c2910dfdf99b5e72c6efcf","665500ab8938657b03fbdba8","6657936f3fa9bac66ec693ce","594","stimuli/01100100.jpg"," ","","feedback_trial","0","","","","","","","","","","","","","","","","","","","","",""
"","","","","","image-keyboard-response","100","223543","0.0-75.0","55c2910dfdf99b5e72c6efcf","665500ab8938657b03fbdba8","6657936f3fa9bac66ec693ce","1558","stimuli/2100011.jpg","1","","prediction_trial","2","","false","","2","false","false","true","true","false","false","[2]","100","011","0","","","","","","",""
"","","","","","image-keyboard-response","101","224099","0.0-76.0","55c2910dfdf99b5e72c6efcf","665500ab8938657b03fbdba8","6657936f3fa9bac66ec693ce","554","stimuli/21000112.jpg"," ","","feedback_trial","2","","","","","","","","","","","","","","","","","","","","",""
"","","","","","image-keyboard-response","102","225118","0.0-77.0","55c2910dfdf99b5e72c6efcf","665500ab8938657b03fbdba8","6657936f3fa9bac66ec693ce","1018","stimuli/2000001.jpg","2","","prediction_trial","2","","true","","2","false","true","true","true","false","true","[2]","000","001","1","","","","","","",""
"","","","","","image-keyboard-response","103","225504","0.0-78.0","55c2910dfdf99b5e72c6efcf","665500ab8938657b03fbdba8","6657936f3fa9bac66ec693ce","383","stimuli/20000012.jpg"," ","","feedback_trial","2","","","","","","","","","","","","","","","","","","","","",""
"","","","","","image-keyboard-response","104","226895","0.0-79.0","55c2910dfdf99b5e72c6efcf","665500ab8938657b03fbdba8","6657936f3fa9bac66ec693ce","1391","stimuli/1011010.jpg","1","","prediction_trial","1","","true","","1","false","true","false","false","false","false","[2,1]","011","010","1","","","","","","",""
"","","","","","image-keyboard-response","105","227529","0.0-80.0","55c2910dfdf99b5e72c6efcf","665500ab8938657b03fbdba8","6657936f3fa9bac66ec693ce","632","stimuli/10110101.jpg"," ","","feedback_trial","2","","","","","","","","","","","","","","","","","","","","",""
"","","","","","image-keyboard-response","106","228525","0.0-81.0","55c2910dfdf99b5e72c6efcf","665500ab8938657b03fbdba8","6657936f3fa9bac66ec693ce","995","stimuli/0100000.jpg","0","","prediction_trial","0","","true","","0","true","true","false","true","false","true","[0]","100","000","1","","","","","","",""
"","","","","","image-keyboard-response","107","228944","0.0-82.0","55c2910dfdf99b5e72c6efcf","665500ab8938657b03fbdba8","6657936f3fa9bac66ec693ce","417","stimuli/01000000.jpg"," ","","feedback_trial","0","","","","","","","","","","","","","","","","","","","","",""
"","","","","","image-keyboard-response","108","230309","0.0-83.0","55c2910dfdf99b5e72c6efcf","665500ab8938657b03fbdba8","6657936f3fa9bac66ec693ce","1364","stimuli/2001011.jpg","2","","prediction_trial","2","","true","","2","false","false","false","true","false","false","[2]","001","011","1","","","","","","",""
"","","","","","image-keyboard-response","109","230632","0.0-84.0","55c2910dfdf99b5e72c6efcf","665500ab8938657b03fbdba8","6657936f3fa9bac66ec693ce","322","stimuli/20010112.jpg"," ","","feedback_trial","2","","","","","","","","","","","","","","","","","","","","",""
"","","","","","image-keyboard-response","110","231859","0.0-85.0","55c2910dfdf99b5e72c6efcf","665500ab8938657b03fbdba8","6657936f3fa9bac66ec693ce","1226","stimuli/1011110.jpg","1","","prediction_trial","2","","false","","1","false","false","false","false","false","false","[2,1]","011","110","0","","","","","","",""
"","","","","","image-keyboard-response","111","232589","0.0-86.0","55c2910dfdf99b5e72c6efcf","665500ab8938657b03fbdba8","6657936f3fa9bac66ec693ce","729","stimuli/10111102.jpg"," ","","feedback_trial","2","","","","","","","","","","","","","","","","","","","","",""
"","","","","","image-keyboard-response","112","233829","0.0-87.0","55c2910dfdf99b5e72c6efcf","665500ab8938657b03fbdba8","6657936f3fa9bac66ec693ce","1239","stimuli/1000010.jpg","1","","prediction_trial","1","","true","","1","false","true","true","true","false","true","[1]","000","010","1","","","","","","",""
"","","","","","image-keyboard-response","113","234183","0.0-88.0","55c2910dfdf99b5e72c6efcf","665500ab8938657b03fbdba8","6657936f3fa9bac66ec693ce","353","stimuli/10000101.jpg"," ","","feedback_trial","1","","","","","","","","","","","","","","","","","","","","",""
"","","","","","image-keyboard-response","114","234982","0.0-89.0","55c2910dfdf99b5e72c6efcf","665500ab8938657b03fbdba8","6657936f3fa9bac66ec693ce","799","stimuli/0000011.jpg","0","","prediction_trial","0","","true","","0","true","true","true","true","true","true","[0]","000","011","1","","","","","","",""
"","","","","","image-keyboard-response","115","235307","0.0-90.0","55c2910dfdf99b5e72c6efcf","665500ab8938657b03fbdba8","6657936f3fa9bac66ec693ce","311","stimuli/00000110.jpg"," ","","feedback_trial","0","","","","","","","","","","","","","","","","","","","","",""
"","","","","","image-keyboard-response","116","236099","0.0-91.0","55c2910dfdf99b5e72c6efcf","665500ab8938657b03fbdba8","6657936f3fa9bac66ec693ce","791","stimuli/1100010.jpg","1","","prediction_trial","1","","true","","1","false","true","true","true","false","true","[1]","100","010","1","","","","","","",""
"","","","","","image-keyboard-response","117","236514","0.0-92.0","55c2910dfdf99b5e72c6efcf","665500ab8938657b03fbdba8","6657936f3fa9bac66ec693ce","414","stimuli/11000101.jpg"," ","","feedback_trial","1","","","","","","","","","","","","","","","","","","","","",""
"","","","","","image-keyboard-response","118","237810","0.0-93.0","55c2910dfdf99b5e72c6efcf","665500ab8938657b03fbdba8","6657936f3fa9bac66ec693ce","1294","stimuli/0100111.jpg","2","","prediction_trial","0","","false","","0","false","false","false","true","false","false","[0]","100","111","0","","","","","","",""
"","","","","","image-keyboard-response","119","238432","0.0-94.0","55c2910dfdf99b5e72c6efcf","665500ab8938657b03fbdba8","6657936f3fa9bac66ec693ce","620","stimuli/01001110.jpg"," ","","feedback_trial","0","","","","","","","","","","","","","","","","","","","","",""
"","","","","","image-keyboard-response","120","239353","0.0-95.0","55c2910dfdf99b5e72c6efcf","665500ab8938657b03fbdba8","6657936f3fa9bac66ec693ce","920","stimuli/1011111.jpg","1","","prediction_trial","2","","false","","1","false","false","false","false","false","false","[1,2]","011","111","0","","","","","","",""
"","","","","","image-keyboard-response","121","239836","0.0-96.0","55c2910dfdf99b5e72c6efcf","665500ab8938657b03fbdba8","6657936f3fa9bac66ec693ce","482","stimuli/10111112.jpg"," ","","feedback_trial","1","","","","","","","","","","","","","","","","","","","","",""
"","","","","","image-keyboard-response","122","240843","0.0-97.0","55c2910dfdf99b5e72c6efcf","665500ab8938657b03fbdba8","6657936f3fa9bac66ec693ce","1006","stimuli/1010101.jpg","1","","prediction_trial","1","","true","","1","true","true","false","true","false","true","[1]","010","101","1","","","","","","",""
"","","","","","image-keyboard-response","123","241244","0.0-98.0","55c2910dfdf99b5e72c6efcf","665500ab8938657b03fbdba8","6657936f3fa9bac66ec693ce","400","stimuli/10101011.jpg"," ","","feedback_trial","1","","","","","","","","","","","","","","","","","","","","",""
"","","","","","image-keyboard-response","124","242093","0.0-99.0","55c2910dfdf99b5e72c6efcf","665500ab8938657b03fbdba8","6657936f3fa9bac66ec693ce","847","stimuli/2001000.jpg","2","","prediction_trial","2","","true","","2","true","true","false","true","false","true","[2]","001","000","1","","","","","","",""
"","","","","","image-keyboard-response","125","242732","0.0-100.0","55c2910dfdf99b5e72c6efcf","665500ab8938657b03fbdba8","6657936f3fa9bac66ec693ce","638","stimuli/20010002.jpg"," ","","feedback_trial","2","","","","","","","","","","","","","","","","","","","","",""
"","","","","","image-keyboard-response","126","243576","0.0-101.0","55c2910dfdf99b5e72c6efcf","665500ab8938657b03fbdba8","6657936f3fa9bac66ec693ce","843","stimuli/1011011.jpg","2","","prediction_trial","1","","false","","1","false","false","false","false","false","false","[2,1]","011","011","0","","","","","","",""
"","","","","","image-keyboard-response","127","244124","0.0-102.0","55c2910dfdf99b5e72c6efcf","665500ab8938657b03fbdba8","6657936f3fa9bac66ec693ce","546","stimuli/10110111.jpg"," ","","feedback_trial","2","","","","","","","","","","","","","","","","","","","","",""
"","","","","","image-keyboard-response","128","245134","0.0-103.0","55c2910dfdf99b5e72c6efcf","665500ab8938657b03fbdba8","6657936f3fa9bac66ec693ce","1010","stimuli/2011100.jpg","2","","prediction_trial","1","","false","","2","true","true","false","false","false","false","[2,1]","011","100","0","","","","","","",""
"","","","","","image-keyboard-response","129","246855","0.0-104.0","55c2910dfdf99b5e72c6efcf","665500ab8938657b03fbdba8","6657936f3fa9bac66ec693ce","1720","stimuli/20111001.jpg"," ","","feedback_trial","2","","","","","","","","","","","","","","","","","","","","",""
"","","","","","image-keyboard-response","130","248065","0.0-105.0","55c2910dfdf99b5e72c6efcf","665500ab8938657b03fbdba8","6657936f3fa9bac66ec693ce","1209","stimuli/2000101.jpg","0","","prediction_trial","2","","false","","2","false","false","true","true","false","false","[2]","000","101","0","","","","","","",""
"","","","","","image-keyboard-response","131","248756","0.0-106.0","55c2910dfdf99b5e72c6efcf","665500ab8938657b03fbdba8","6657936f3fa9bac66ec693ce","689","stimuli/20001012.jpg"," ","","feedback_trial","2","","","","","","","","","","","","","","","","","","","","",""
"","","","","","image-keyboard-response","132","249987","0.0-107.0","55c2910dfdf99b5e72c6efcf","665500ab8938657b03fbdba8","6657936f3fa9bac66ec693ce","1231","stimuli/0101100.jpg","0","","prediction_trial","0","","true","","0","false","true","false","false","false","false","[2,0]","101","100","1","","","","","","",""
"","","","","","image-keyboard-response","133","250662","0.0-108.0","55c2910dfdf99b5e72c6efcf","665500ab8938657b03fbdba8","6657936f3fa9bac66ec693ce","673","stimuli/01011000.jpg"," ","","feedback_trial","2","","","","","","","","","","","","","","","","","","","","",""
"","","","","","image-keyboard-response","134","251872","0.0-109.0","55c2910dfdf99b5e72c6efcf","665500ab8938657b03fbdba8","6657936f3fa9bac66ec693ce","1208","stimuli/1100001.jpg","1","","prediction_trial","1","","true","","1","true","true","true","true","true","true","[1]","100","001","1","","","","","","",""
"","","","","","image-keyboard-response","135","252328","0.0-110.0","55c2910dfdf99b5e72c6efcf","665500ab8938657b03fbdba8","6657936f3fa9bac66ec693ce","456","stimuli/11000011.jpg"," ","","feedback_trial","1","","","","","","","","","","","","","","","","","","","","",""
"","","","","","image-keyboard-response","136","253008","0.0-111.0","55c2910dfdf99b5e72c6efcf","665500ab8938657b03fbdba8","6657936f3fa9bac66ec693ce","679","stimuli/0011011.jpg","0","","prediction_trial","0","","true","","0","true","true","true","true","true","true","[0]","011","011","1","","","","","","",""
"","","","","","image-keyboard-response","137","253352","0.0-112.0","55c2910dfdf99b5e72c6efcf","665500ab8938657b03fbdba8","6657936f3fa9bac66ec693ce","342","stimuli/00110110.jpg"," ","","feedback_trial","0","","","","","","","","","","","","","","","","","","","","",""
"","","","","","image-keyboard-response","138","254327","0.0-113.0","55c2910dfdf99b5e72c6efcf","665500ab8938657b03fbdba8","6657936f3fa9bac66ec693ce","974","stimuli/0111110.jpg","1","","prediction_trial","1","","true","","0","false","false","false","false","false","false","[0,1,2]","111","110","1","","","","","","",""
"","","","","","image-keyboard-response","139","254798","0.0-114.0","55c2910dfdf99b5e72c6efcf","665500ab8938657b03fbdba8","6657936f3fa9bac66ec693ce","470","stimuli/01111101.jpg"," ","","feedback_trial","0","","","","","","","","","","","","","","","","","","","","",""
"","","","","","image-keyboard-response","140","255670","0.0-115.0","55c2910dfdf99b5e72c6efcf","665500ab8938657b03fbdba8","6657936f3fa9bac66ec693ce","870","stimuli/0111111.jpg","2","","prediction_trial","0","","false","","0","false","false","false","false","false","false","[1,0,2]","111","111","0","","","","","","",""
"","","","","","image-keyboard-response","141","256160","0.0-116.0","55c2910dfdf99b5e72c6efcf","665500ab8938657b03fbdba8","6657936f3fa9bac66ec693ce","489","stimuli/01111110.jpg"," ","","feedback_trial","1","","","","","","","","","","","","","","","","","","","","",""
"","","","","","image-keyboard-response","142","257596","0.0-117.0","55c2910dfdf99b5e72c6efcf","665500ab8938657b03fbdba8","6657936f3fa9bac66ec693ce","1434","stimuli/2110111.jpg","0","","prediction_trial","2","","false","","2","false","false","true","true","false","false","[2]","110","111","0","","","","","","",""
"","","","","","image-keyboard-response","143","258101","0.0-118.0","55c2910dfdf99b5e72c6efcf","665500ab8938657b03fbdba8","6657936f3fa9bac66ec693ce","503","stimuli/21101112.jpg"," ","","feedback_trial","2","","","","","","","","","","","","","","","","","","","","",""
"","","","","","image-keyboard-response","144","259216","0.0-119.0","55c2910dfdf99b5e72c6efcf","665500ab8938657b03fbdba8","6657936f3fa9bac66ec693ce","1114","stimuli/2101110.jpg","2","","prediction_trial","0","","false","","2","true","true","false","false","false","false","[0,2]","101","110","0","","","","","","",""
"","","","","","image-keyboard-response","145","259885","0.0-120.0","55c2910dfdf99b5e72c6efcf","665500ab8938657b03fbdba8","6657936f3fa9bac66ec693ce","668","stimuli/21011100.jpg"," ","","feedback_trial","0","","","","","","","","","","","","","","","","","","","","",""
"","","","","","image-keyboard-response","146","260923","0.0-121.0","55c2910dfdf99b5e72c6efcf","665500ab8938657b03fbdba8","6657936f3fa9bac66ec693ce","1037","stimuli/2101001.jpg","2","","prediction_trial","0","","false","","2","false","true","false","false","false","false","[2,0]","101","001","0","","","","","","",""
"","","","","","image-keyboard-response","147","261319","0.0-122.0","55c2910dfdf99b5e72c6efcf","665500ab8938657b03fbdba8","6657936f3fa9bac66ec693ce","395","stimuli/21010010.jpg"," ","","feedback_trial","2","","","","","","","","","","","","","","","","","","","","",""
"","","","","","image-keyboard-response","148","263689","0.0-123.0","55c2910dfdf99b5e72c6efcf","665500ab8938657b03fbdba8","6657936f3fa9bac66ec693ce","2369","stimuli/1100111.jpg","1","","prediction_trial","1","","true","","1","false","false","true","true","false","false","[1]","100","111","1","","","","","","",""
"","","","","","image-keyboard-response","149","264182","0.0-124.0","55c2910dfdf99b5e72c6efcf","665500ab8938657b03fbdba8","6657936f3fa9bac66ec693ce","492","stimuli/11001111.jpg"," ","","feedback_trial","1","","","","","","","","","","","","","","","","","","","","",""
"","","","","","image-keyboard-response","150","265095","0.0-125.0","55c2910dfdf99b5e72c6efcf","665500ab8938657b03fbdba8","6657936f3fa9bac66ec693ce","911","stimuli/0101101.jpg","2","","prediction_trial","2","","true","","0","false","false","false","false","false","false","[2,0]","101","101","1","","","","","","",""
"","","","","","image-keyboard-response","151","265580","0.0-126.0","55c2910dfdf99b5e72c6efcf","665500ab8938657b03fbdba8","6657936f3fa9bac66ec693ce","484","stimuli/01011012.jpg"," ","","feedback_trial","2","","","","","","","","","","","","","","","","","","","","",""
"","","","","","image-keyboard-response","152","266932","0.0-127.0","55c2910dfdf99b5e72c6efcf","665500ab8938657b03fbdba8","6657936f3fa9bac66ec693ce","1350","stimuli/1010011.jpg","1","","prediction_trial","1","","true","","1","false","false","false","true","false","false","[1]","010","011","1","","","","","","",""
"","","","","","image-keyboard-response","153","267378","0.0-128.0","55c2910dfdf99b5e72c6efcf","665500ab8938657b03fbdba8","6657936f3fa9bac66ec693ce","445","stimuli/10100111.jpg"," ","","feedback_trial","1","","","","","","","","","","","","","","","","","","","","",""
"","","","","","image-keyboard-response","154","268133","0.0-129.0","55c2910dfdf99b5e72c6efcf","665500ab8938657b03fbdba8","6657936f3fa9bac66ec693ce","751","stimuli/0001001.jpg","0","","prediction_trial","0","","true","","0","true","true","true","true","true","true","[0]","001","001","1","","","","","","",""
"","","","","","image-keyboard-response","155","268839","0.0-130.0","55c2910dfdf99b5e72c6efcf","665500ab8938657b03fbdba8","6657936f3fa9bac66ec693ce","705","stimuli/00010010.jpg"," ","","feedback_trial","0","","","","","","","","","","","","","","","","","","","","",""
"","","","","","image-keyboard-response","156","269945","0.0-131.0","55c2910dfdf99b5e72c6efcf","665500ab8938657b03fbdba8","6657936f3fa9bac66ec693ce","1104","stimuli/2111011.jpg","2","","prediction_trial","1","","false","","2","false","false","false","false","false","false","[2,0,1]","111","011","0","","","","","","",""
"","","","","","image-keyboard-response","157","270421","0.0-132.0","55c2910dfdf99b5e72c6efcf","665500ab8938657b03fbdba8","6657936f3fa9bac66ec693ce","475","stimuli/21110111.jpg"," ","","feedback_trial","2","","","","","","","","","","","","","","","","","","","","",""
"","","","","","image-keyboard-response","158","271136","0.0-133.0","55c2910dfdf99b5e72c6efcf","665500ab8938657b03fbdba8","6657936f3fa9bac66ec693ce","713","stimuli/0000000.jpg","0","","prediction_trial","0","","true","","0","true","true","true","true","true","true","[0]","000","000","1","","","","","","",""
"","","","","","image-keyboard-response","159","271531","0.0-134.0","55c2910dfdf99b5e72c6efcf","665500ab8938657b03fbdba8","6657936f3fa9bac66ec693ce","394","stimuli/00000000.jpg"," ","","feedback_trial","0","","","","","","","","","","","","","","","","","","","","",""
"","","","","","image-keyboard-response","160","272361","0.0-135.0","55c2910dfdf99b5e72c6efcf","665500ab8938657b03fbdba8","6657936f3fa9bac66ec693ce","829","stimuli/2100110.jpg","2","","prediction_trial","2","","true","","2","true","true","true","true","true","true","[2]","100","110","1","","","","","","",""
"","","","","","image-keyboard-response","161","273482","0.0-136.0","55c2910dfdf99b5e72c6efcf","665500ab8938657b03fbdba8","6657936f3fa9bac66ec693ce","1120","stimuli/21001102.jpg"," ","","feedback_trial","2","","","","","","","","","","","","","","","","","","","","",""
"","","","","","image-keyboard-response","162","274908","0.0-137.0","55c2910dfdf99b5e72c6efcf","665500ab8938657b03fbdba8","6657936f3fa9bac66ec693ce","1425","stimuli/2000010.jpg","2","","prediction_trial","2","","true","","2","true","true","true","true","true","true","[2]","000","010","1","","","","","","",""
"","","","","","image-keyboard-response","163","275413","0.0-138.0","55c2910dfdf99b5e72c6efcf","665500ab8938657b03fbdba8","6657936f3fa9bac66ec693ce","504","stimuli/20000102.jpg"," ","","feedback_trial","2","","","","","","","","","","","","","","","","","","","","",""
"","","","","","image-keyboard-response","164","276203","0.0-139.0","55c2910dfdf99b5e72c6efcf","665500ab8938657b03fbdba8","6657936f3fa9bac66ec693ce","789","stimuli/0010001.jpg","0","","prediction_trial","0","","true","","0","true","true","true","true","true","true","[0]","010","001","1","","","","","","",""
"","","","","","image-keyboard-response","165","276541","0.0-140.0","55c2910dfdf99b5e72c6efcf","665500ab8938657b03fbdba8","6657936f3fa9bac66ec693ce","336","stimuli/00100010.jpg"," ","","feedback_trial","0","","","","","","","","","","","","","","","","","","","","",""
"","","","","","image-keyboard-response","166","277597","0.0-141.0","55c2910dfdf99b5e72c6efcf","665500ab8938657b03fbdba8","6657936f3fa9bac66ec693ce","1055","stimuli/2101010.jpg","2","","prediction_trial","2","","true","","2","true","true","false","false","false","false","[2,0]","101","010","1","","","","","","",""
"","","","","","image-keyboard-response","167","278225","0.0-142.0","55c2910dfdf99b5e72c6efcf","665500ab8938657b03fbdba8","6657936f3fa9bac66ec693ce","626","stimuli/21010102.jpg"," ","","feedback_trial","2","","","","","","","","","","","","","","","","","","","","",""
"","","","","","image-keyboard-response","168","279664","0.0-143.0","55c2910dfdf99b5e72c6efcf","665500ab8938657b03fbdba8","6657936f3fa9bac66ec693ce","1438","stimuli/1010111.jpg","1","","prediction_trial","1","","true","","1","false","false","false","true","false","false","[1]","010","111","1","","","","","","",""
"","","","","","image-keyboard-response","169","280412","0.0-144.0","55c2910dfdf99b5e72c6efcf","665500ab8938657b03fbdba8","6657936f3fa9bac66ec693ce","746","stimuli/10101111.jpg"," ","","feedback_trial","1","","","","","","","","","","","","","","","","","","","","",""
"","","","","","image-keyboard-response","170","281326","0.0-145.0","55c2910dfdf99b5e72c6efcf","665500ab8938657b03fbdba8","6657936f3fa9bac66ec693ce","913","stimuli/2011010.jpg","2","","prediction_trial","1","","false","","2","true","true","false","false","false","false","[1,2]","011","010","0","","","","","","",""
"","","","","","image-keyboard-response","171","281987","0.0-146.0","55c2910dfdf99b5e72c6efcf","665500ab8938657b03fbdba8","6657936f3fa9bac66ec693ce","659","stimuli/20110101.jpg"," ","","feedback_trial","1","","","","","","","","","","","","","","","","","","","","",""
"","","","","","image-keyboard-response","172","283144","0.0-147.0","55c2910dfdf99b5e72c6efcf","665500ab8938657b03fbdba8","6657936f3fa9bac66ec693ce","1155","stimuli/1110101.jpg","1","","prediction_trial","1","","true","","1","true","true","false","false","false","false","[1,0]","110","101","1","","","","","","",""
"","","","","","image-keyboard-response","173","284366","0.0-148.0","55c2910dfdf99b5e72c6efcf","665500ab8938657b03fbdba8","6657936f3fa9bac66ec693ce","1220","stimuli/11101011.jpg"," ","","feedback_trial","1","","","","","","","","","","","","","","","","","","","","",""
"","","","","","image-keyboard-response","174","286474","0.0-149.0","55c2910dfdf99b5e72c6efcf","665500ab8938657b03fbdba8","6657936f3fa9bac66ec693ce","2107","stimuli/2001100.jpg","2","","prediction_trial","2","","true","","2","true","true","false","true","false","true","[2]","001","100","1","","","","","","",""
"","","","","","image-keyboard-response","175","287008","0.0-150.0","55c2910dfdf99b5e72c6efcf","665500ab8938657b03fbdba8","6657936f3fa9bac66ec693ce","533","stimuli/20011002.jpg"," ","","feedback_trial","2","","","","","","","","","","","","","","","","","","","","",""
"","","","","","image-keyboard-response","176","288413","0.0-151.0","55c2910dfdf99b5e72c6efcf","665500ab8938657b03fbdba8","6657936f3fa9bac66ec693ce","1404","stimuli/2111000.jpg","1","","prediction_trial","0","","false","","2","true","true","false","false","false","false","[0,1,2]","111","000","0","","","","","","",""
"","","","","","image-keyboard-response","177","289281","0.0-152.0","55c2910dfdf99b5e72c6efcf","665500ab8938657b03fbdba8","6657936f3fa9bac66ec693ce","867","stimuli/21110000.jpg"," ","","feedback_trial","0","","","","","","","","","","","","","","","","","","","","",""
"","","","","","image-keyboard-response","178","290693","0.0-153.0","55c2910dfdf99b5e72c6efcf","665500ab8938657b03fbdba8","6657936f3fa9bac66ec693ce","1410","stimuli/2000011.jpg","2","","prediction_trial","2","","true","","2","false","false","true","true","false","false","[2]","000","011","1","","","","","","",""
"","","","","","image-keyboard-response","179","291248","0.0-154.0","55c2910dfdf99b5e72c6efcf","665500ab8938657b03fbdba8","6657936f3fa9bac66ec693ce","554","stimuli/20000112.jpg"," ","","feedback_trial","2","","","","","","","","","","","","","","","","","","","","",""
"","","","","","image-keyboard-response","180","292117","0.0-155.0","55c2910dfdf99b5e72c6efcf","665500ab8938657b03fbdba8","6657936f3fa9bac66ec693ce","846","stimuli/0010010.jpg","0","","prediction_trial","0","","true","","0","true","true","true","true","true","true","[0]","010","010","1","","","","","","",""
"","","","","","image-keyboard-response","181","292342","0.0-156.0","55c2910dfdf99b5e72c6efcf","665500ab8938657b03fbdba8","6657936f3fa9bac66ec693ce","224","stimuli/00100100.jpg"," ","","feedback_trial","0","","","","","","","","","","","","","","","","","","","","",""
"","","","","","image-keyboard-response","182","293021","0.0-157.0","55c2910dfdf99b5e72c6efcf","665500ab8938657b03fbdba8","6657936f3fa9bac66ec693ce","677","stimuli/1001000.jpg","1","","prediction_trial","1","","true","","1","true","true","true","true","true","true","[1]","001","000","1","","","","","","",""
"","","","","","image-keyboard-response","183","293328","0.0-158.0","55c2910dfdf99b5e72c6efcf","665500ab8938657b03fbdba8","6657936f3fa9bac66ec693ce","306","stimuli/10010001.jpg"," ","","feedback_trial","1","","","","","","","","","","","","","","","","","","","","",""
"","","","","","image-keyboard-response","184","294579","0.0-159.0","55c2910dfdf99b5e72c6efcf","665500ab8938657b03fbdba8","6657936f3fa9bac66ec693ce","1250","stimuli/1001110.jpg","0","","prediction_trial","1","","false","","1","false","false","true","true","false","false","[1]","001","110","0","","","","","","",""
"","","","","","image-keyboard-response","185","295179","0.0-160.0","55c2910dfdf99b5e72c6efcf","665500ab8938657b03fbdba8","6657936f3fa9bac66ec693ce","598","stimuli/10011101.jpg"," ","","feedback_trial","1","","","","","","","","","","","","","","","","","","","","",""
"","","","","","image-keyboard-response","186","295946","0.0-161.0","55c2910dfdf99b5e72c6efcf","665500ab8938657b03fbdba8","6657936f3fa9bac66ec693ce","767","stimuli/1000100.jpg","1","","prediction_trial","1","","true","","1","true","true","true","true","true","true","[1]","000","100","1","","","","","","",""
"","","","","","image-keyboard-response","187","296235","0.0-162.0","55c2910dfdf99b5e72c6efcf","665500ab8938657b03fbdba8","6657936f3fa9bac66ec693ce","288","stimuli/10001001.jpg"," ","","feedback_trial","1","","","","","","","","","","","","","","","","","","","","",""
"","","","","","image-keyboard-response","188","297939","0.0-163.0","55c2910dfdf99b5e72c6efcf","665500ab8938657b03fbdba8","6657936f3fa9bac66ec693ce","1702","stimuli/0111001.jpg","0","","prediction_trial","1","","false","","0","true","true","false","false","false","false","[1,0,2]","111","001","0","","","","","","",""
"","","","","","image-keyboard-response","189","298717","0.0-164.0","55c2910dfdf99b5e72c6efcf","665500ab8938657b03fbdba8","6657936f3fa9bac66ec693ce","776","stimuli/01110011.jpg"," ","","feedback_trial","1","","","","","","","","","","","","","","","","","","","","",""
"","","","","","image-keyboard-response","190","299705","0.0-165.0","55c2910dfdf99b5e72c6efcf","665500ab8938657b03fbdba8","6657936f3fa9bac66ec693ce","988","stimuli/0111100.jpg","0","","prediction_trial","1","","false","","0","false","true","false","false","false","false","[1,0,2]","111","100","0","","","","","","",""
"","","","","","image-keyboard-response","191","300130","0.0-166.0","55c2910dfdf99b5e72c6efcf","665500ab8938657b03fbdba8","6657936f3fa9bac66ec693ce","422","stimuli/01111001.jpg"," ","","feedback_trial","1","","","","","","","","","","","","","","","","","","","","",""
"","","","","","image-keyboard-response","192","301181","0.0-167.0","55c2910dfdf99b5e72c6efcf","665500ab8938657b03fbdba8","6657936f3fa9bac66ec693ce","1050","stimuli/1111110.jpg","1","","prediction_trial","0","","false","","1","false","false","false","false","false","false","[2,0,1]","111","110","0","","","","","","",""
"","","","","","image-keyboard-response","193","302337","0.0-168.0","55c2910dfdf99b5e72c6efcf","665500ab8938657b03fbdba8","6657936f3fa9bac66ec693ce","1154","stimuli/11111100.jpg"," ","","feedback_trial","2","","","","","","","","","","","","","","","","","","","","",""
"","","","","","image-keyboard-response","194","303375","0.0-169.0","55c2910dfdf99b5e72c6efcf","665500ab8938657b03fbdba8","6657936f3fa9bac66ec693ce","1037","stimuli/2010101.jpg","0","","prediction_trial","2","","false","","2","false","false","true","true","false","false","[2]","010","101","0","","","","","","",""
"","","","","","image-keyboard-response","195","304143","0.0-170.0","55c2910dfdf99b5e72c6efcf","665500ab8938657b03fbdba8","6657936f3fa9bac66ec693ce","766","stimuli/20101012.jpg"," ","","feedback_trial","2","","","","","","","","","","","","","","","","","","","","",""
"","","","","","image-keyboard-response","196","305008","0.0-171.0","55c2910dfdf99b5e72c6efcf","665500ab8938657b03fbdba8","6657936f3fa9bac66ec693ce","864","stimuli/1000001.jpg","1","","prediction_trial","1","","true","","1","true","true","true","true","true","true","[1]","000","001","1","","","","","","",""
"","","","","","image-keyboard-response","197","305579","0.0-172.0","55c2910dfdf99b5e72c6efcf","665500ab8938657b03fbdba8","6657936f3fa9bac66ec693ce","569","stimuli/10000011.jpg"," ","","feedback_trial","1","","","","","","","","","","","","","","","","","","","","",""
"","","","","","image-keyboard-response","198","307021","0.0-173.0","55c2910dfdf99b5e72c6efcf","665500ab8938657b03fbdba8","6657936f3fa9bac66ec693ce","1441","stimuli/2010011.jpg","2","","prediction_trial","2","","true","","2","false","false","true","true","false","false","[2]","010","011","1","","","","","","",""
"","","","","","image-keyboard-response","199","307659","0.0-174.0","55c2910dfdf99b5e72c6efcf","665500ab8938657b03fbdba8","6657936f3fa9bac66ec693ce","636","stimuli/20100112.jpg"," ","","feedback_trial","2","","","","","","","","","","","","","","","","","","","","",""
"","","","","","image-keyboard-response","200","308543","0.0-175.0","55c2910dfdf99b5e72c6efcf","665500ab8938657b03fbdba8","6657936f3fa9bac66ec693ce","883","stimuli/0010100.jpg","0","","prediction_trial","0","","true","","0","false","true","true","true","false","true","[0]","010","100","1","","","","","","",""
"","","","","","image-keyboard-response","201","309116","0.0-176.0","55c2910dfdf99b5e72c6efcf","665500ab8938657b03fbdba8","6657936f3fa9bac66ec693ce","572","stimuli/00101000.jpg"," ","","feedback_trial","0","","","","","","","","","","","","","","","","","","","","",""
"","","","","","image-keyboard-response","202","310491","0.0-177.0","55c2910dfdf99b5e72c6efcf","665500ab8938657b03fbdba8","6657936f3fa9bac66ec693ce","1373","stimuli/1000111.jpg","0","","prediction_trial","1","","false","","1","false","false","true","true","false","false","[1]","000","111","0","","","","","","",""
"","","","","","image-keyboard-response","203","311539","0.0-178.0","55c2910dfdf99b5e72c6efcf","665500ab8938657b03fbdba8","6657936f3fa9bac66ec693ce","1047","stimuli/10001111.jpg"," ","","feedback_trial","1","","","","","","","","","","","","","","","","","","","","",""
"","","","","","image-keyboard-response","204","312037","0.0-179.0","55c2910dfdf99b5e72c6efcf","665500ab8938657b03fbdba8","6657936f3fa9bac66ec693ce","496","stimuli/0100011.jpg","1","","prediction_trial","0","","false","","0","true","true","false","true","false","true","[0]","100","011","0","","","","","","",""
"","","","","","image-keyboard-response","205","312761","0.0-180.0","55c2910dfdf99b5e72c6efcf","665500ab8938657b03fbdba8","6657936f3fa9bac66ec693ce","722","stimuli/01000110.jpg"," ","","feedback_trial","0","","","","","","","","","","","","","","","","","","","","",""
"","","","","","image-keyboard-response","206","313605","0.0-181.0","55c2910dfdf99b5e72c6efcf","665500ab8938657b03fbdba8","6657936f3fa9bac66ec693ce","844","stimuli/2000110.jpg","2","","prediction_trial","2","","true","","2","true","true","true","true","true","true","[2]","000","110","1","","","","","","",""
"","","","","","image-keyboard-response","207","314069","0.0-182.0","55c2910dfdf99b5e72c6efcf","665500ab8938657b03fbdba8","6657936f3fa9bac66ec693ce","462","stimuli/20001102.jpg"," ","","feedback_trial","2","","","","","","","","","","","","","","","","","","","","",""
"","","","","","image-keyboard-response","208","314909","0.0-183.0","55c2910dfdf99b5e72c6efcf","665500ab8938657b03fbdba8","6657936f3fa9bac66ec693ce","838","stimuli/0000010.jpg","0","","prediction_trial","0","","true","","0","true","true","true","true","true","true","[0]","000","010","1","","","","","","",""
"","","","","","image-keyboard-response","209","315294","0.0-184.0","55c2910dfdf99b5e72c6efcf","665500ab8938657b03fbdba8","6657936f3fa9bac66ec693ce","383","stimuli/00000100.jpg"," ","","feedback_trial","0","","","","","","","","","","","","","","","","","","","","",""
"","","","","","image-keyboard-response","210","316063","0.0-185.0","55c2910dfdf99b5e72c6efcf","665500ab8938657b03fbdba8","6657936f3fa9bac66ec693ce","768","stimuli/1011100.jpg","1","","prediction_trial","1","","true","","1","true","true","false","false","false","false","[2,1]","011","100","1","","","","","","",""
"","","","","","image-keyboard-response","211","316515","0.0-186.0","55c2910dfdf99b5e72c6efcf","665500ab8938657b03fbdba8","6657936f3fa9bac66ec693ce","450","stimuli/10111001.jpg"," ","","feedback_trial","2","","","","","","","","","","","","","","","","","","","","",""
"","","","","","image-keyboard-response","212","317589","0.0-187.0","55c2910dfdf99b5e72c6efcf","665500ab8938657b03fbdba8","6657936f3fa9bac66ec693ce","1072","stimuli/1010100.jpg","1","","prediction_trial","1","","true","","1","true","true","false","true","false","true","[1]","010","100","1","","","","","","",""
"","","","","","image-keyboard-response","213","318011","0.0-188.0","55c2910dfdf99b5e72c6efcf","665500ab8938657b03fbdba8","6657936f3fa9bac66ec693ce","420","stimuli/10101001.jpg"," ","","feedback_trial","1","","","","","","","","","","","","","","","","","","","","",""
"","","","","","image-keyboard-response","214","318965","0.0-189.0","55c2910dfdf99b5e72c6efcf","665500ab8938657b03fbdba8","6657936f3fa9bac66ec693ce","953","stimuli/0101000.jpg","0","","prediction_trial","0","","true","","0","true","true","false","false","false","false","[2,0]","101","000","1","","","","","","",""
"","","","","","image-keyboard-response","215","319471","0.0-190.0","55c2910dfdf99b5e72c6efcf","665500ab8938657b03fbdba8","6657936f3fa9bac66ec693ce","505","stimuli/01010000.jpg"," ","","feedback_trial","2","","","","","","","","","","","","","","","","","","","","",""
"","","","","","image-keyboard-response","216","320358","0.0-191.0","55c2910dfdf99b5e72c6efcf","665500ab8938657b03fbdba8","6657936f3fa9bac66ec693ce","886","stimuli/2000111.jpg","2","","prediction_trial","2","","true","","2","false","false","true","true","false","false","[2]","000","111","1","","","","","","",""
"","","","","","image-keyboard-response","217","320912","0.0-192.0","55c2910dfdf99b5e72c6efcf","665500ab8938657b03fbdba8","6657936f3fa9bac66ec693ce","552","stimuli/20001112.jpg"," ","","feedback_trial","2","","","","","","","","","","","","","","","","","","","","",""
"","","","","","image-keyboard-response","218","321738","0.0-193.0","55c2910dfdf99b5e72c6efcf","665500ab8938657b03fbdba8","6657936f3fa9bac66ec693ce","825","stimuli/2111001.jpg","2","","prediction_trial","1","","false","","2","false","true","false","false","false","false","[1,0,2]","111","001","0","","","","","","",""
"","","","","","image-keyboard-response","219","322340","0.0-194.0","55c2910dfdf99b5e72c6efcf","665500ab8938657b03fbdba8","6657936f3fa9bac66ec693ce","600","stimuli/21110011.jpg"," ","","feedback_trial","1","","","","","","","","","","","","","","","","","","","","",""
"","","","","","image-keyboard-response","220","323192","0.0-195.0","55c2910dfdf99b5e72c6efcf","665500ab8938657b03fbdba8","6657936f3fa9bac66ec693ce","852","stimuli/1001101.jpg","1","","prediction_trial","1","","true","","1","true","true","true","true","true","true","[1]","001","101","1","","","","","","",""
"","","","","","image-keyboard-response","221","323651","0.0-196.0","55c2910dfdf99b5e72c6efcf","665500ab8938657b03fbdba8","6657936f3fa9bac66ec693ce","457","stimuli/10011011.jpg"," ","","feedback_trial","1","","","","","","","","","","","","","","","","","","","","",""
"","","","","","image-keyboard-response","222","324540","0.0-197.0","55c2910dfdf99b5e72c6efcf","665500ab8938657b03fbdba8","6657936f3fa9bac66ec693ce","888","stimuli/2100001.jpg","2","","prediction_trial","2","","true","","2","false","true","true","true","false","true","[2]","100","001","1","","","","","","",""
"","","","","","image-keyboard-response","223","325238","0.0-198.0","55c2910dfdf99b5e72c6efcf","665500ab8938657b03fbdba8","6657936f3fa9bac66ec693ce","696","stimuli/21000012.jpg"," ","","feedback_trial","2","","","","","","","","","","","","","","","","","","","","",""
"","","","","","image-keyboard-response","224","326500","0.0-199.0","55c2910dfdf99b5e72c6efcf","665500ab8938657b03fbdba8","6657936f3fa9bac66ec693ce","1261","stimuli/1010110.jpg","0","","prediction_trial","1","","false","","1","false","false","false","true","false","false","[1]","010","110","0","","","","","","",""
"","","","","","image-keyboard-response","225","327151","0.0-200.0","55c2910dfdf99b5e72c6efcf","665500ab8938657b03fbdba8","6657936f3fa9bac66ec693ce","649","stimuli/10101101.jpg"," ","","feedback_trial","1","","","","","","","","","","","","","","","","","","","","",""
"","","","","","image-keyboard-response","226","328107","0.0-201.0","55c2910dfdf99b5e72c6efcf","665500ab8938657b03fbdba8","6657936f3fa9bac66ec693ce","955","stimuli/0111011.jpg","0","","prediction_trial","2","","false","","0","true","true","false","false","false","false","[1,2,0]","111","011","0","","","","","","",""
"","","","","","image-keyboard-response","227","329408","0.0-202.0","55c2910dfdf99b5e72c6efcf","665500ab8938657b03fbdba8","6657936f3fa9bac66ec693ce","1308","stimuli/01110112.jpg"," ","","feedback_trial","1","","","","","","","","","","","","","","","","","","","","",""
"","","","","","image-keyboard-response","228","331407","0.0-203.0","55c2910dfdf99b5e72c6efcf","665500ab8938657b03fbdba8","6657936f3fa9bac66ec693ce","1998","stimuli/1110110.jpg","0","","prediction_trial","1","","false","","1","false","false","false","false","false","false","[1,0]","110","110","0","","","","","","",""
"","","","","","image-keyboard-response","229","331879","0.0-204.0","55c2910dfdf99b5e72c6efcf","665500ab8938657b03fbdba8","6657936f3fa9bac66ec693ce","471","stimuli/11101101.jpg"," ","","feedback_trial","1","","","","","","","","","","","","","","","","","","","","",""
"","","","","","image-keyboard-response","230","332688","0.0-205.0","55c2910dfdf99b5e72c6efcf","665500ab8938657b03fbdba8","6657936f3fa9bac66ec693ce","807","stimuli/1001100.jpg","1","","prediction_trial","1","","true","","1","true","true","true","true","true","true","[1]","001","100","1","","","","","","",""
"","","","","","image-keyboard-response","231","333184","0.0-206.0","55c2910dfdf99b5e72c6efcf","665500ab8938657b03fbdba8","6657936f3fa9bac66ec693ce","494","stimuli/10011001.jpg"," ","","feedback_trial","1","","","","","","","","","","","","","","","","","","","","",""
"","","","","","image-keyboard-response","232","333967","0.0-207.0","55c2910dfdf99b5e72c6efcf","665500ab8938657b03fbdba8","6657936f3fa9bac66ec693ce","782","stimuli/0101111.jpg","1","","prediction_trial","2","","false","","0","false","false","false","false","false","false","[0,2]","101","111","0","","","","","","",""
"","","","","","image-keyboard-response","233","334489","0.0-208.0","55c2910dfdf99b5e72c6efcf","665500ab8938657b03fbdba8","6657936f3fa9bac66ec693ce","521","stimuli/01011112.jpg"," ","","feedback_trial","0","","","","","","","","","","","","","","","","","","","","",""
"","","","","","image-keyboard-response","234","335503","0.0-209.0","55c2910dfdf99b5e72c6efcf","665500ab8938657b03fbdba8","6657936f3fa9bac66ec693ce","1013","stimuli/0010101.jpg","2","","prediction_trial","0","","false","","0","false","false","true","true","false","false","[0]","010","101","0","","","","","","",""
"","","","","","image-keyboard-response","235","336365","0.0-210.0","55c2910dfdf99b5e72c6efcf","665500ab8938657b03fbdba8","6657936f3fa9bac66ec693ce","861","stimuli/00101010.jpg"," ","","feedback_trial","0","","","","","","","","","","","","","","","","","","","","",""
"","","","","","image-keyboard-response","236","337364","0.0-211.0","55c2910dfdf99b5e72c6efcf","665500ab8938657b03fbdba8","6657936f3fa9bac66ec693ce","998","stimuli/1101000.jpg","1","","prediction_trial","1","","true","","1","true","true","true","true","true","true","[1]","101","000","1","","","","","","",""
"","","","","","image-keyboard-response","237","337778","0.0-212.0","55c2910dfdf99b5e72c6efcf","665500ab8938657b03fbdba8","6657936f3fa9bac66ec693ce","413","stimuli/11010001.jpg"," ","","feedback_trial","1","","","","","","","","","","","","","","","","","","","","",""
"","","","","","image-keyboard-response","238","338657","0.0-213.0","55c2910dfdf99b5e72c6efcf","665500ab8938657b03fbdba8","6657936f3fa9bac66ec693ce","878","stimuli/0011101.jpg","2","","prediction_trial","0","","false","","0","false","false","true","true","false","false","[0]","011","101","0","","","","","","",""
"","","","","","image-keyboard-response","239","339230","0.0-214.0","55c2910dfdf99b5e72c6efcf","665500ab8938657b03fbdba8","6657936f3fa9bac66ec693ce","572","stimuli/00111010.jpg"," ","","feedback_trial","0","","","","","","","","","","","","","","","","","","","","",""
"","","","","","image-keyboard-response","240","340593","0.0-215.0","55c2910dfdf99b5e72c6efcf","665500ab8938657b03fbdba8","6657936f3fa9bac66ec693ce","1362","stimuli/2101100.jpg","2","","prediction_trial","0","","false","","2","true","true","false","false","false","false","[2,0]","101","100","0","","","","","","",""
"","","","","","image-keyboard-response","241","341079","0.0-216.0","55c2910dfdf99b5e72c6efcf","665500ab8938657b03fbdba8","6657936f3fa9bac66ec693ce","485","stimuli/21011000.jpg"," ","","feedback_trial","2","","","","","","","","","","","","","","","","","","","","",""
"","","","","","image-keyboard-response","242","342210","0.0-217.0","55c2910dfdf99b5e72c6efcf","665500ab8938657b03fbdba8","6657936f3fa9bac66ec693ce","1130","stimuli/1111100.jpg","1","","prediction_trial","1","","true","","1","true","true","false","false","false","false","[2,1,0]","111","100","1","","","","","","",""
"","","","","","image-keyboard-response","243","342678","0.0-218.0","55c2910dfdf99b5e72c6efcf","665500ab8938657b03fbdba8","6657936f3fa9bac66ec693ce","466","stimuli/11111001.jpg"," ","","feedback_trial","2","","","","","","","","","","","","","","","","","","","","",""
"","","","","","image-keyboard-response","244","343662","0.0-219.0","55c2910dfdf99b5e72c6efcf","665500ab8938657b03fbdba8","6657936f3fa9bac66ec693ce","983","stimuli/2110101.jpg","0","","prediction_trial","2","","false","","2","false","false","true","true","false","false","[2]","110","101","0","","","","","","",""
"","","","","","image-keyboard-response","245","344179","0.0-220.0","55c2910dfdf99b5e72c6efcf","665500ab8938657b03fbdba8","6657936f3fa9bac66ec693ce","516","stimuli/21101012.jpg"," ","","feedback_trial","2","","","","","","","","","","","","","","","","","","","","",""
"","","","","","image-keyboard-response","246","344929","0.0-221.0","55c2910dfdf99b5e72c6efcf","665500ab8938657b03fbdba8","6657936f3fa9bac66ec693ce","748","stimuli/1100000.jpg","1","","prediction_trial","1","","true","","1","true","true","true","true","true","true","[1]","100","000","1","","","","","","",""
"","","","","","image-keyboard-response","247","345389","0.0-222.0","55c2910dfdf99b5e72c6efcf","665500ab8938657b03fbdba8","6657936f3fa9bac66ec693ce","459","stimuli/11000001.jpg"," ","","feedback_trial","1","","","","","","","","","","","","","","","","","","","","",""
"","","","","","image-keyboard-response","248","347192","0.0-223.0","55c2910dfdf99b5e72c6efcf","665500ab8938657b03fbdba8","6657936f3fa9bac66ec693ce","1801","stimuli/2011001.jpg","2","","prediction_trial","2","","true","","2","false","true","false","false","false","false","[1,2]","011","001","1","","","","","","",""
"","","","","","image-keyboard-response","249","347658","0.0-224.0","55c2910dfdf99b5e72c6efcf","665500ab8938657b03fbdba8","6657936f3fa9bac66ec693ce","465","stimuli/20110012.jpg"," ","","feedback_trial","1","","","","","","","","","","","","","","","","","","","","",""
"","","","","","image-keyboard-response","250","348452","0.0-225.0","55c2910dfdf99b5e72c6efcf","665500ab8938657b03fbdba8","6657936f3fa9bac66ec693ce","793","stimuli/1101100.jpg","1","","prediction_trial","1","","true","","1","true","true","true","true","true","true","[1]","101","100","1","","","","","","",""
"","","","","","image-keyboard-response","251","348962","0.0-226.0","55c2910dfdf99b5e72c6efcf","665500ab8938657b03fbdba8","6657936f3fa9bac66ec693ce","509","stimuli/11011001.jpg"," ","","feedback_trial","1","","","","","","","","","","","","","","","","","","","","",""
"","","","","","image-keyboard-response","252","350609","0.0-227.0","55c2910dfdf99b5e72c6efcf","665500ab8938657b03fbdba8","6657936f3fa9bac66ec693ce","1646","stimuli/1101110.jpg","0","","prediction_trial","1","","false","","1","false","false","true","true","false","false","[1]","101","110","0","","","","","","",""
"","","","","","image-keyboard-response","253","351428","0.0-228.0","55c2910dfdf99b5e72c6efcf","665500ab8938657b03fbdba8","6657936f3fa9bac66ec693ce","818","stimuli/11011101.jpg"," ","","feedback_trial","1","","","","","","","","","","","","","","","","","","","","",""
"","","","","","image-keyboard-response","254","352581","0.0-229.0","55c2910dfdf99b5e72c6efcf","665500ab8938657b03fbdba8","6657936f3fa9bac66ec693ce","1151","stimuli/0100100.jpg","0","","prediction_trial","0","","true","","0","false","true","false","true","false","true","[0]","100","100","1","","","","","","",""
"","","","","","image-keyboard-response","255","353105","0.0-230.0","55c2910dfdf99b5e72c6efcf","665500ab8938657b03fbdba8","6657936f3fa9bac66ec693ce","524","stimuli/01001000.jpg"," ","","feedback_trial","0","","","","","","","","","","","","","","","","","","","","",""
"","","","","","image-keyboard-response","256","353974","0.0-231.0","55c2910dfdf99b5e72c6efcf","665500ab8938657b03fbdba8","6657936f3fa9bac66ec693ce","867","stimuli/1100110.jpg","1","","prediction_trial","1","","true","","1","false","false","true","true","false","false","[1]","100","110","1","","","","","","",""
"","","","","","image-keyboard-response","257","354414","0.0-232.0","55c2910dfdf99b5e72c6efcf","665500ab8938657b03fbdba8","6657936f3fa9bac66ec693ce","439","stimuli/11001101.jpg"," ","","feedback_trial","1","","","","","","","","","","","","","","","","","","","","",""
"","","","","","image-keyboard-response","258","355156","0.0-233.0","55c2910dfdf99b5e72c6efcf","665500ab8938657b03fbdba8","6657936f3fa9bac66ec693ce","741","stimuli/2110000.jpg","2","","prediction_trial","2","","true","","2","true","true","true","true","true","true","[2]","110","000","1","","","","","","",""
"","","","","","image-keyboard-response","259","355569","0.0-234.0","55c2910dfdf99b5e72c6efcf","665500ab8938657b03fbdba8","6657936f3fa9bac66ec693ce","411","stimuli/21100002.jpg"," ","","feedback_trial","2","","","","","","","","","","","","","","","","","","","","",""
"","","","","","image-keyboard-response","260","356417","0.0-235.0","55c2910dfdf99b5e72c6efcf","665500ab8938657b03fbdba8","6657936f3fa9bac66ec693ce","846","stimuli/1111001.jpg","1","","prediction_trial","2","","false","","1","true","true","false","false","false","false","[2,1,0]","111","001","0","","","","","","",""
"","","","","","image-keyboard-response","261","356772","0.0-236.0","55c2910dfdf99b5e72c6efcf","665500ab8938657b03fbdba8","6657936f3fa9bac66ec693ce","354","stimuli/11110012.jpg"," ","","feedback_trial","2","","","","","","","","","","","","","","","","","","","","",""
"","","","","","image-keyboard-response","262","357558","0.0-237.0","55c2910dfdf99b5e72c6efcf","665500ab8938657b03fbdba8","6657936f3fa9bac66ec693ce","785","stimuli/2010110.jpg","2","","prediction_trial","2","","true","","2","true","true","true","true","true","true","[2]","010","110","1","","","","","","",""
"","","","","","image-keyboard-response","263","358078","0.0-238.0","55c2910dfdf99b5e72c6efcf","665500ab8938657b03fbdba8","6657936f3fa9bac66ec693ce","518","stimuli/20101102.jpg"," ","","feedback_trial","2","","","","","","","","","","","","","","","","","","","","",""
"","","","","","image-keyboard-response","264","358723","0.0-239.0","55c2910dfdf99b5e72c6efcf","665500ab8938657b03fbdba8","6657936f3fa9bac66ec693ce","644","stimuli/2000100.jpg","2","","prediction_trial","2","","true","","2","true","true","true","true","true","true","[2]","000","100","1","","","","","","",""
"","","","","","image-keyboard-response","265","359287","0.0-240.0","55c2910dfdf99b5e72c6efcf","665500ab8938657b03fbdba8","6657936f3fa9bac66ec693ce","562","stimuli/20001002.jpg"," ","","feedback_trial","2","","","","","","","","","","","","","","","","","","","","",""
"","","","","","image-keyboard-response","266","360025","0.0-241.0","55c2910dfdf99b5e72c6efcf","665500ab8938657b03fbdba8","6657936f3fa9bac66ec693ce","737","stimuli/0001011.jpg","0","","prediction_trial","0","","true","","0","true","true","true","true","true","true","[0]","001","011","1","","","","","","",""
"","","","","","image-keyboard-response","267","360370","0.0-242.0","55c2910dfdf99b5e72c6efcf","665500ab8938657b03fbdba8","6657936f3fa9bac66ec693ce","343","stimuli/00010110.jpg"," ","","feedback_trial","0","","","","","","","","","","","","","","","","","","","","",""
"","","","","","image-keyboard-response","268","360938","0.0-243.0","55c2910dfdf99b5e72c6efcf","665500ab8938657b03fbdba8","6657936f3fa9bac66ec693ce","567","stimuli/2110010.jpg","2","","prediction_trial","2","","true","","2","true","true","true","true","true","true","[2]","110","010","1","","","","","","",""
"","","","","","image-keyboard-response","269","361301","0.0-244.0","55c2910dfdf99b5e72c6efcf","665500ab8938657b03fbdba8","6657936f3fa9bac66ec693ce","361","stimuli/21100102.jpg"," ","","feedback_trial","2","","","","","","","","","","","","","","","","","","","","",""
"","","","","","image-keyboard-response","270","361917","0.0-245.0","55c2910dfdf99b5e72c6efcf","665500ab8938657b03fbdba8","6657936f3fa9bac66ec693ce","615","stimuli/2010100.jpg","2","","prediction_trial","2","","true","","2","true","true","true","true","true","true","[2]","010","100","1","","","","","","",""
"","","","","","image-keyboard-response","271","362236","0.0-246.0","55c2910dfdf99b5e72c6efcf","665500ab8938657b03fbdba8","6657936f3fa9bac66ec693ce","317","stimuli/20101002.jpg"," ","","feedback_trial","2","","","","","","","","","","","","","","","","","","","","",""
"","","","","","image-keyboard-response","272","363169","0.0-247.0","55c2910dfdf99b5e72c6efcf","665500ab8938657b03fbdba8","6657936f3fa9bac66ec693ce","932","stimuli/0000101.jpg","2","","prediction_trial","0","","false","","0","false","false","true","true","false","false","[0]","000","101","0","","","","","","",""
"","","","","","image-keyboard-response","273","363611","0.0-248.0","55c2910dfdf99b5e72c6efcf","665500ab8938657b03fbdba8","6657936f3fa9bac66ec693ce","441","stimuli/00001010.jpg"," ","","feedback_trial","0","","","","","","","","","","","","","","","","","","","","",""
"","","","","","image-keyboard-response","274","365455","0.0-249.0","55c2910dfdf99b5e72c6efcf","665500ab8938657b03fbdba8","6657936f3fa9bac66ec693ce","1842","stimuli/2110011.jpg","1","","prediction_trial","2","","false","","2","false","false","true","true","false","false","[2]","110","011","0","","","","","","",""
"","","","","","image-keyboard-response","275","365929","0.0-250.0","55c2910dfdf99b5e72c6efcf","665500ab8938657b03fbdba8","6657936f3fa9bac66ec693ce","473","stimuli/21100112.jpg"," ","","feedback_trial","2","","","","","","","","","","","","","","","","","","","","",""
"","","","","","image-keyboard-response","276","366688","0.0-251.0","55c2910dfdf99b5e72c6efcf","665500ab8938657b03fbdba8","6657936f3fa9bac66ec693ce","758","stimuli/1000000.jpg","1","","prediction_trial","1","","true","","1","true","true","true","true","true","true","[1]","000","000","1","","","","","","",""
"","","","","","image-keyboard-response","277","367021","0.0-252.0","55c2910dfdf99b5e72c6efcf","665500ab8938657b03fbdba8","6657936f3fa9bac66ec693ce","331","stimuli/10000001.jpg"," ","","feedback_trial","1","","","","","","","","","","","","","","","","","","","","",""
"","","","","","image-keyboard-response","278","368190","0.0-253.0","55c2910dfdf99b5e72c6efcf","665500ab8938657b03fbdba8","6657936f3fa9bac66ec693ce","1168","stimuli/1001010.jpg","1","","prediction_trial","1","","true","","1","false","true","true","true","false","true","[1]","001","010","1","","","","","","",""
"","","","","","image-keyboard-response","279","368637","0.0-254.0","55c2910dfdf99b5e72c6efcf","665500ab8938657b03fbdba8","6657936f3fa9bac66ec693ce","446","stimuli/10010101.jpg"," ","","feedback_trial","1","","","","","","","","","","","","","","","","","","","","",""
"","","","","","image-keyboard-response","280","369939","0.0-255.0","55c2910dfdf99b5e72c6efcf","665500ab8938657b03fbdba8","6657936f3fa9bac66ec693ce","1301","stimuli/0110011.jpg","1","","prediction_trial","1","","true","","0","true","true","false","false","false","false","[1,0]","110","011","1","","","","","","",""
"","","","","","image-keyboard-response","281","370568","0.0-256.0","55c2910dfdf99b5e72c6efcf","665500ab8938657b03fbdba8","6657936f3fa9bac66ec693ce","628","stimuli/01100111.jpg"," ","","feedback_trial","1","","","","","","","","","","","","","","","","","","","","",""
"","","","","","image-keyboard-response","282","371284","0.0-257.0","55c2910dfdf99b5e72c6efcf","665500ab8938657b03fbdba8","6657936f3fa9bac66ec693ce","714","stimuli/0101001.jpg","0","","prediction_trial","0","","true","","0","true","true","false","false","false","false","[2,0]","101","001","1","","","","","","",""
"","","","","","image-keyboard-response","283","371678","0.0-258.0","55c2910dfdf99b5e72c6efcf","665500ab8938657b03fbdba8","6657936f3fa9bac66ec693ce","392","stimuli/01010010.jpg"," ","","feedback_trial","2","","","","","","","","","","","","","","","","","","","","",""
"","","","","","image-keyboard-response","284","372695","0.0-259.0","55c2910dfdf99b5e72c6efcf","665500ab8938657b03fbdba8","6657936f3fa9bac66ec693ce","1016","stimuli/1111011.jpg","2","","prediction_trial","0","","false","","1","false","false","false","false","false","false","[0,2,1]","111","011","0","","","","","","",""
"","","","","","image-keyboard-response","285","373120","0.0-260.0","55c2910dfdf99b5e72c6efcf","665500ab8938657b03fbdba8","6657936f3fa9bac66ec693ce","423","stimuli/11110110.jpg"," ","","feedback_trial","0","","","","","","","","","","","","","","","","","","","","",""
"","","","","","image-keyboard-response","286","373986","0.0-261.0","55c2910dfdf99b5e72c6efcf","665500ab8938657b03fbdba8","6657936f3fa9bac66ec693ce","865","stimuli/1011101.jpg","1","","prediction_trial","2","","false","","1","true","true","false","false","false","false","[2,1]","011","101","0","","","","","","",""
"","","","","","image-keyboard-response","287","374443","0.0-262.0","55c2910dfdf99b5e72c6efcf","665500ab8938657b03fbdba8","6657936f3fa9bac66ec693ce","456","stimuli/10111012.jpg"," ","","feedback_trial","2","","","","","","","","","","","","","","","","","","","","",""
"","","","","","image-keyboard-response","288","376004","0.0-263.0","55c2910dfdf99b5e72c6efcf","665500ab8938657b03fbdba8","6657936f3fa9bac66ec693ce","1559","stimuli/0110100.jpg","0","","prediction_trial","0","","true","","0","false","true","false","false","false","false","[1,0]","110","100","1","","","","","","",""
"","","","","","image-keyboard-response","289","376243","0.0-264.0","55c2910dfdf99b5e72c6efcf","665500ab8938657b03fbdba8","6657936f3fa9bac66ec693ce","237","stimuli/01101000.jpg"," ","","feedback_trial","1","","","","","","","","","","","","","","","","","","","","",""
"","","","","","image-keyboard-response","290","377056","0.0-265.0","55c2910dfdf99b5e72c6efcf","665500ab8938657b03fbdba8","6657936f3fa9bac66ec693ce","811","stimuli/0001000.jpg","0","","prediction_trial","0","","true","","0","true","true","true","true","true","true","[0]","001","000","1","","","","","","",""
"","","","","","image-keyboard-response","291","377315","0.0-266.0","55c2910dfdf99b5e72c6efcf","665500ab8938657b03fbdba8","6657936f3fa9bac66ec693ce","258","stimuli/00010000.jpg"," ","","feedback_trial","0","","","","","","","","","","","","","","","","","","","","",""
"","","","","","image-keyboard-response","292","378227","0.0-267.0","55c2910dfdf99b5e72c6efcf","665500ab8938657b03fbdba8","6657936f3fa9bac66ec693ce","911","stimuli/0000110.jpg","1","","prediction_trial","0","","false","","0","false","false","true","true","false","false","[0]","000","110","0","","","","","","",""
"","","","","","image-keyboard-response","293","378675","0.0-268.0","55c2910dfdf99b5e72c6efcf","665500ab8938657b03fbdba8","6657936f3fa9bac66ec693ce","446","stimuli/00001100.jpg"," ","","feedback_trial","0","","","","","","","","","","","","","","","","","","","","",""
"","","","","","image-keyboard-response","294","379591","0.0-269.0","55c2910dfdf99b5e72c6efcf","665500ab8938657b03fbdba8","6657936f3fa9bac66ec693ce","915","stimuli/1110111.jpg","1","","prediction_trial","1","","true","","1","false","false","false","false","false","false","[1,0]","110","111","1","","","","","","",""
"","","","","","image-keyboard-response","295","380005","0.0-270.0","55c2910dfdf99b5e72c6efcf","665500ab8938657b03fbdba8","6657936f3fa9bac66ec693ce","412","stimuli/11101111.jpg"," ","","feedback_trial","1","","","","","","","","","","","","","","","","","","","","",""
"","","","","","image-keyboard-response","296","380871","0.0-271.0","55c2910dfdf99b5e72c6efcf","665500ab8938657b03fbdba8","6657936f3fa9bac66ec693ce","864","stimuli/2101101.jpg","2","","prediction_trial","2","","true","","2","false","false","false","false","false","false","[2,0]","101","101","1","","","","","","",""
"","","","","","image-keyboard-response","297","381408","0.0-272.0","55c2910dfdf99b5e72c6efcf","665500ab8938657b03fbdba8","6657936f3fa9bac66ec693ce","535","stimuli/21011012.jpg"," ","","feedback_trial","2","","","","","","","","","","","","","","","","","","","","",""
"","","","","","image-keyboard-response","298","382173","0.0-273.0","55c2910dfdf99b5e72c6efcf","665500ab8938657b03fbdba8","6657936f3fa9bac66ec693ce","764","stimuli/1101101.jpg","1","","prediction_trial","1","","true","","1","true","true","true","true","true","true","[1]","101","101","1","","","","","","",""
"","","","","","image-keyboard-response","299","382579","0.0-274.0","55c2910dfdf99b5e72c6efcf","665500ab8938657b03fbdba8","6657936f3fa9bac66ec693ce","405","stimuli/11011011.jpg"," ","","feedback_trial","1","","","","","","","","","","","","","","","","","","","","",""
"","","","","","image-keyboard-response","300","383247","0.0-275.0","55c2910dfdf99b5e72c6efcf","665500ab8938657b03fbdba8","6657936f3fa9bac66ec693ce","666","stimuli/0000001.jpg","0","","prediction_trial","0","","true","","0","true","true","true","true","true","true","[0]","000","001","1","","","","","","",""
"","","","","","image-keyboard-response","301","383658","0.0-276.0","55c2910dfdf99b5e72c6efcf","665500ab8938657b03fbdba8","6657936f3fa9bac66ec693ce","410","stimuli/00000010.jpg"," ","","feedback_trial","0","","","","","","","","","","","","","","","","","","","","",""
"","","","","","image-keyboard-response","302","384420","0.0-277.0","55c2910dfdf99b5e72c6efcf","665500ab8938657b03fbdba8","6657936f3fa9bac66ec693ce","761","stimuli/2110100.jpg","2","","prediction_trial","2","","true","","2","true","true","true","true","true","true","[2]","110","100","1","","","","","","",""
"","","","","","image-keyboard-response","303","384822","0.0-278.0","55c2910dfdf99b5e72c6efcf","665500ab8938657b03fbdba8","6657936f3fa9bac66ec693ce","401","stimuli/21101002.jpg"," ","","feedback_trial","2","","","","","","","","","","","","","","","","","","","","",""
"","","","","","image-keyboard-response","304","385839","0.0-279.0","55c2910dfdf99b5e72c6efcf","665500ab8938657b03fbdba8","6657936f3fa9bac66ec693ce","1016","stimuli/0111000.jpg","1","","prediction_trial","0","","false","","0","true","true","false","false","false","false","[1,2,0]","111","000","0","","","","","","",""
"","","","","","image-keyboard-response","305","386251","0.0-280.0","55c2910dfdf99b5e72c6efcf","665500ab8938657b03fbdba8","6657936f3fa9bac66ec693ce","411","stimuli/01110000.jpg"," ","","feedback_trial","1","","","","","","","","","","","","","","","","","","","","",""
"","","","","","image-keyboard-response","306","387183","0.0-281.0","55c2910dfdf99b5e72c6efcf","665500ab8938657b03fbdba8","6657936f3fa9bac66ec693ce","930","stimuli/0111101.jpg","2","","prediction_trial","1","","false","","0","false","false","false","false","false","false","[1,2,0]","111","101","0","","","","","","",""
"","","","","","image-keyboard-response","307","387610","0.0-282.0","55c2910dfdf99b5e72c6efcf","665500ab8938657b03fbdba8","6657936f3fa9bac66ec693ce","424","stimuli/01111011.jpg"," ","","feedback_trial","1","","","","","","","","","","","","","","","","","","","","",""
"","","","","","image-keyboard-response","308","388587","0.0-283.0","55c2910dfdf99b5e72c6efcf","665500ab8938657b03fbdba8","6657936f3fa9bac66ec693ce","965","stimuli/0000100.jpg","0","","prediction_trial","0","","true","","0","false","true","true","true","false","true","[0]","000","100","1","","","","","","",""
"","","","","","image-keyboard-response","309","389027","0.0-284.0","55c2910dfdf99b5e72c6efcf","665500ab8938657b03fbdba8","6657936f3fa9bac66ec693ce","438","stimuli/00001000.jpg"," ","","feedback_trial","0","","","","","","","","","","","","","","","","","","","","",""
"","","","","","image-keyboard-response","310","390205","0.0-285.0","55c2910dfdf99b5e72c6efcf","665500ab8938657b03fbdba8","6657936f3fa9bac66ec693ce","1177","stimuli/0101010.jpg","0","","prediction_trial","0","","true","","0","true","true","false","false","false","false","[2,0]","101","010","1","","","","","","",""
"","","","","","image-keyboard-response","311","390619","0.0-286.0","55c2910dfdf99b5e72c6efcf","665500ab8938657b03fbdba8","6657936f3fa9bac66ec693ce","413","stimuli/01010100.jpg"," ","","feedback_trial","2","","","","","","","","","","","","","","","","","","","","",""
"","","","","","image-keyboard-response","312","392067","0.0-287.0","55c2910dfdf99b5e72c6efcf","665500ab8938657b03fbdba8","6657936f3fa9bac66ec693ce","1447","stimuli/1010001.jpg","1","","prediction_trial","1","","true","","1","true","true","false","true","false","true","[1]","010","001","1","","","","","","",""
"","","","","","image-keyboard-response","313","392425","0.0-288.0","55c2910dfdf99b5e72c6efcf","665500ab8938657b03fbdba8","6657936f3fa9bac66ec693ce","357","stimuli/10100011.jpg"," ","","feedback_trial","1","","","","","","","","","","","","","","","","","","","","",""
"","","","","","image-keyboard-response","314","393825","0.0-289.0","55c2910dfdf99b5e72c6efcf","665500ab8938657b03fbdba8","6657936f3fa9bac66ec693ce","1398","stimuli/1101011.jpg","1","","prediction_trial","1","","true","","1","false","false","true","true","false","false","[1]","101","011","1","","","","","","",""
"","","","","","image-keyboard-response","315","394446","0.0-290.0","55c2910dfdf99b5e72c6efcf","665500ab8938657b03fbdba8","6657936f3fa9bac66ec693ce","620","stimuli/11010111.jpg"," ","","feedback_trial","1","","","","","","","","","","","","","","","","","","","","",""
"","","","","","image-keyboard-response","316","395841","0.0-291.0","55c2910dfdf99b5e72c6efcf","665500ab8938657b03fbdba8","6657936f3fa9bac66ec693ce","1394","stimuli/0100110.jpg","0","","prediction_trial","0","","true","","0","false","false","false","true","false","false","[0]","100","110","1","","","","","","",""
"","","","","","image-keyboard-response","317","396458","0.0-292.0","55c2910dfdf99b5e72c6efcf","665500ab8938657b03fbdba8","6657936f3fa9bac66ec693ce","616","stimuli/01001100.jpg"," ","","feedback_trial","0","","","","","","","","","","","","","","","","","","","","",""
"","","","","","survey-html-form","318","444013","0.0-293.0","55c2910dfdf99b5e72c6efcf","665500ab8938657b03fbdba8","6657936f3fa9bac66ec693ce","47552","","{""feedback"":""If I could see the ball, if he could see the ball, how many were covered, like process of elimination, if you could see two and they were empty and he could also see those two, it could only be one, even if it was double blind."",""age"":""34"",""gender"":""Female"",""other_gender"":"""",""race"":""White"",""other_race"":"""",""ethnicity"":""Non-Hispanic""}","","exit_survey","","","","","","","","","","","","","","","","If I could see the ball, if he could see the ball, how many were covered, like process of elimination, if you could see two and they were empty and he could also see those two, it could only be one, even if it was double blind.","34","Non-Hispanic","Female","White","0.6388888888888888","0.6388888888888888"
