"success","timeout","failed_images","failed_audio","failed_video","trial_type","trial_index","time_elapsed","internal_node_id","prolific_id","prolific_study_id","prolific_session_id","rt","stimulus","response","view_history","trial","character_choice","stimulus_dict","accuracy","correct_response","ball_pos","ego_ball_visible","ego_can_infer","alter_ball_visible","alter_can_infer","collective_ball_visible","collective_can_infer","search_locations","alter_occluders","ego_occluders","accuracy_bool","feedback","age","ethnicity","gender","race","overall_accuracy","bonus"
"true","false","[]","[]","[]","preload","0","6969","0.0-0.0","5ec9cf3ed4642d4ebb802b42","665500ab8938657b03fbdba8","66577af73237019115442a50","","","","","","","","","","","","","","","","","","","","","","","","","","",""
"true","","","","","fullscreen","1","9622","0.0-1.0","5ec9cf3ed4642d4ebb802b42","665500ab8938657b03fbdba8","66577af73237019115442a50","","","","","","","","","","","","","","","","","","","","","","","","","","",""
"","","","","","html-button-response","2","34133","0.0-2.0","5ec9cf3ed4642d4ebb802b42","665500ab8938657b03fbdba8","66577af73237019115442a50","24509","<p><b>Consent Form</b></p> <div style=""text-align:left;background-color:lightgrey; padding:20px; max-width:900px;""><p>Please consider this information carefully before deciding whether to participate in this research.</p> <p>The purpose of this research is to examine which factors influence social judgment and decision-making. You will be asked to make judgements about individuals and actions in social scenarios. We are simply interested in your judgement. The study will take less than 1 hour to complete, and you will receive less than $20 on Prolific. Your compensation and time commitment are specified in the study description. There are no anticipated risks associated with participating in this study. The effects of participating should be comparable to those you would ordinarily experience from viewing a computer monitor and using a mouse or keyboard for a similar amount of time. At the end of the study, we will provide an explanation of the questions that motivate this line of research and will describe the potential implications. </p><p> Your participation in this study is completely voluntary and you may refuse to participate or you may choose to withdraw at any time without penalty or loss of benefits to you which are otherwise entitled. Your participation in this study will remain confidential. No personally identifiable information will be associated with your data. Also, all analyses of the data will be averaged across all the participants, so your individual responses will never be specifically analyzed. </p><p> If you have questions or concerns about your participation or payment, or want to request a summary of research findings, please contact Dr. Jonathan Phillips at Jonathan.S.Phillips@dartmouth.edu. </p><p> Please save a copy of this form for your records. </p><p><b>Agreement: </b>The nature and purpose of this research have been sufficiently explained and I agree to participate in this study. I understand that I am free to withdraw at any time without incurring any penalty. Please consent by clicking the button below to continue. Otherwise, please exit the study at any time. </p>","0","","","","","","","","","","","","","","","","","","","","","","","",""
"","","","","","instructions","3","104581","0.0-3.0-0.0","5ec9cf3ed4642d4ebb802b42","665500ab8938657b03fbdba8","66577af73237019115442a50","70448","","","[{""page_index"":0,""viewing_time"":2631},{""page_index"":1,""viewing_time"":2594},{""page_index"":2,""viewing_time"":2702},{""page_index"":3,""viewing_time"":4969},{""page_index"":4,""viewing_time"":2478},{""page_index"":5,""viewing_time"":2960},{""page_index"":6,""viewing_time"":5210},{""page_index"":7,""viewing_time"":3984},{""page_index"":8,""viewing_time"":4852},{""page_index"":9,""viewing_time"":3867},{""page_index"":10,""viewing_time"":16154},{""page_index"":11,""viewing_time"":9742},{""page_index"":12,""viewing_time"":6531},{""page_index"":13,""viewing_time"":1774}]","intro","","","","","","","","","","","","","","","","","","","","","",""
"","","","","","image-keyboard-response","4","116187","0.0-3.0-1.0","5ec9cf3ed4642d4ebb802b42","665500ab8938657b03fbdba8","66577af73237019115442a50","11598","stimuli/2101001.jpg","2","","prediction_practice","0","{""filepath"":""stimuli/2101001.jpg"",""ball_pos"":2,""ego_ball_visible"":false,""ego_can_infer"":true,""alter_ball_visible"":false,""alter_can_infer"":false,""collective_ball_visible"":false,""collective_can_infer"":false,""search_locations"":[2,0],""alter_occluders"":""101"",""ego_occluders"":""001""}","false","","","","","","","","","","","","","","","","","","",""
"","","","","","image-keyboard-response","5","118475","0.0-3.0-2.0","5ec9cf3ed4642d4ebb802b42","665500ab8938657b03fbdba8","66577af73237019115442a50","2286","stimuli/21010010.jpg"," ","","practrice_feedback","2","","","","","","","","","","","","","","","","","","","","",""
"","","","","","image-keyboard-response","6","120316","0.0-3.0-3.0","5ec9cf3ed4642d4ebb802b42","665500ab8938657b03fbdba8","66577af73237019115442a50","1839","stimuli/2111110.jpg","2","","prediction_practice","2","{""filepath"":""stimuli/2111110.jpg"",""ball_pos"":2,""ego_ball_visible"":true,""ego_can_infer"":true,""alter_ball_visible"":false,""alter_can_infer"":false,""collective_ball_visible"":false,""collective_can_infer"":false,""search_locations"":[2,0,1],""alter_occluders"":""111"",""ego_occluders"":""110""}","true","","","","","","","","","","","","","","","","","","",""
"","","","","","image-keyboard-response","7","121716","0.0-3.0-4.0","5ec9cf3ed4642d4ebb802b42","665500ab8938657b03fbdba8","66577af73237019115442a50","1399","stimuli/21111102.jpg"," ","","practrice_feedback","2","","","","","","","","","","","","","","","","","","","","",""
"","","","","","image-keyboard-response","8","122620","0.0-3.0-5.0","5ec9cf3ed4642d4ebb802b42","665500ab8938657b03fbdba8","66577af73237019115442a50","902","stimuli/0001000.jpg","0","","prediction_practice","0","{""filepath"":""stimuli/0001000.jpg"",""ball_pos"":0,""ego_ball_visible"":true,""ego_can_infer"":true,""alter_ball_visible"":true,""alter_can_infer"":true,""collective_ball_visible"":true,""collective_can_infer"":true,""search_locations"":[0],""alter_occluders"":""001"",""ego_occluders"":""000""}","true","","","","","","","","","","","","","","","","","","",""
"","","","","","image-keyboard-response","9","123723","0.0-3.0-6.0","5ec9cf3ed4642d4ebb802b42","665500ab8938657b03fbdba8","66577af73237019115442a50","1102","stimuli/00010000.jpg"," ","","practrice_feedback","0","","","","","","","","","","","","","","","","","","","","",""
"","","","","","image-keyboard-response","10","127033","0.0-3.0-7.0","5ec9cf3ed4642d4ebb802b42","665500ab8938657b03fbdba8","66577af73237019115442a50","3308","stimuli/0011101.jpg","0","","prediction_practice","0","{""filepath"":""stimuli/0011101.jpg"",""ball_pos"":0,""ego_ball_visible"":false,""ego_can_infer"":false,""alter_ball_visible"":true,""alter_can_infer"":true,""collective_ball_visible"":false,""collective_can_infer"":false,""search_locations"":[0],""alter_occluders"":""011"",""ego_occluders"":""101""}","true","","","","","","","","","","","","","","","","","","",""
"","","","","","image-keyboard-response","11","128412","0.0-3.0-8.0","5ec9cf3ed4642d4ebb802b42","665500ab8938657b03fbdba8","66577af73237019115442a50","1377","stimuli/00111010.jpg"," ","","practrice_feedback","0","","","","","","","","","","","","","","","","","","","","",""
"","","","","","image-keyboard-response","12","132884","0.0-3.0-9.0","5ec9cf3ed4642d4ebb802b42","665500ab8938657b03fbdba8","66577af73237019115442a50","4471","stimuli/1100010.jpg","1","","prediction_practice","1","{""filepath"":""stimuli/1100010.jpg"",""ball_pos"":1,""ego_ball_visible"":false,""ego_can_infer"":true,""alter_ball_visible"":true,""alter_can_infer"":true,""collective_ball_visible"":false,""collective_can_infer"":true,""search_locations"":[1],""alter_occluders"":""100"",""ego_occluders"":""010""}","true","","","","","","","","","","","","","","","","","","",""
"","","","","","image-keyboard-response","13","133724","0.0-3.0-10.0","5ec9cf3ed4642d4ebb802b42","665500ab8938657b03fbdba8","66577af73237019115442a50","838","stimuli/11000101.jpg"," ","","practrice_feedback","1","","","","","","","","","","","","","","","","","","","","",""
"","","","","","image-keyboard-response","14","137249","0.0-3.0-11.0","5ec9cf3ed4642d4ebb802b42","665500ab8938657b03fbdba8","66577af73237019115442a50","3524","stimuli/0100111.jpg","1","","prediction_practice","0","{""filepath"":""stimuli/0100111.jpg"",""ball_pos"":0,""ego_ball_visible"":false,""ego_can_infer"":false,""alter_ball_visible"":false,""alter_can_infer"":true,""collective_ball_visible"":false,""collective_can_infer"":false,""search_locations"":[0],""alter_occluders"":""100"",""ego_occluders"":""111""}","false","","","","","","","","","","","","","","","","","","",""
"","","","","","image-keyboard-response","15","138828","0.0-3.0-12.0","5ec9cf3ed4642d4ebb802b42","665500ab8938657b03fbdba8","66577af73237019115442a50","1578","stimuli/01001110.jpg"," ","","practrice_feedback","0","","","","","","","","","","","","","","","","","","","","",""
"","","","","","image-keyboard-response","16","140404","0.0-3.0-13.0","5ec9cf3ed4642d4ebb802b42","665500ab8938657b03fbdba8","66577af73237019115442a50","1574","stimuli/2101110.jpg","2","","prediction_practice","0","{""filepath"":""stimuli/2101110.jpg"",""ball_pos"":2,""ego_ball_visible"":true,""ego_can_infer"":true,""alter_ball_visible"":false,""alter_can_infer"":false,""collective_ball_visible"":false,""collective_can_infer"":false,""search_locations"":[0,2],""alter_occluders"":""101"",""ego_occluders"":""110""}","false","","","","","","","","","","","","","","","","","","",""
"","","","","","image-keyboard-response","17","141380","0.0-3.0-14.0","5ec9cf3ed4642d4ebb802b42","665500ab8938657b03fbdba8","66577af73237019115442a50","975","stimuli/21011100.jpg"," ","","practrice_feedback","0","","","","","","","","","","","","","","","","","","","","",""
"","","","","","image-keyboard-response","18","145316","0.0-3.0-15.0","5ec9cf3ed4642d4ebb802b42","665500ab8938657b03fbdba8","66577af73237019115442a50","3935","stimuli/2011101.jpg","2","","prediction_practice","1","{""filepath"":""stimuli/2011101.jpg"",""ball_pos"":2,""ego_ball_visible"":false,""ego_can_infer"":false,""alter_ball_visible"":false,""alter_can_infer"":false,""collective_ball_visible"":false,""collective_can_infer"":false,""search_locations"":[1,2],""alter_occluders"":""011"",""ego_occluders"":""101""}","false","","","","","","","","","","","","","","","","","","",""
"","","","","","image-keyboard-response","19","146260","0.0-3.0-16.0","5ec9cf3ed4642d4ebb802b42","665500ab8938657b03fbdba8","66577af73237019115442a50","943","stimuli/20111011.jpg"," ","","practrice_feedback","1","","","","","","","","","","","","","","","","","","","","",""
"","","","","","image-keyboard-response","20","147618","0.0-3.0-17.0","5ec9cf3ed4642d4ebb802b42","665500ab8938657b03fbdba8","66577af73237019115442a50","1356","stimuli/2111010.jpg","2","","prediction_practice","2","{""filepath"":""stimuli/2111010.jpg"",""ball_pos"":2,""ego_ball_visible"":true,""ego_can_infer"":true,""alter_ball_visible"":false,""alter_can_infer"":false,""collective_ball_visible"":false,""collective_can_infer"":false,""search_locations"":[0,1,2],""alter_occluders"":""111"",""ego_occluders"":""010""}","true","","","","","","","","","","","","","","","","","","",""
"","","","","","image-keyboard-response","21","148484","0.0-3.0-18.0","5ec9cf3ed4642d4ebb802b42","665500ab8938657b03fbdba8","66577af73237019115442a50","864","stimuli/21110102.jpg"," ","","practrice_feedback","0","","","","","","","","","","","","","","","","","","","","",""
"","","","","","image-keyboard-response","22","149756","0.0-3.0-19.0","5ec9cf3ed4642d4ebb802b42","665500ab8938657b03fbdba8","66577af73237019115442a50","1271","stimuli/1101101.jpg","1","","prediction_practice","1","{""filepath"":""stimuli/1101101.jpg"",""ball_pos"":1,""ego_ball_visible"":true,""ego_can_infer"":true,""alter_ball_visible"":true,""alter_can_infer"":true,""collective_ball_visible"":true,""collective_can_infer"":true,""search_locations"":[1],""alter_occluders"":""101"",""ego_occluders"":""101""}","true","","","","","","","","","","","","","","","","","","",""
"","","","","","image-keyboard-response","23","150412","0.0-3.0-20.0","5ec9cf3ed4642d4ebb802b42","665500ab8938657b03fbdba8","66577af73237019115442a50","655","stimuli/11011011.jpg"," ","","practrice_feedback","1","","","","","","","","","","","","","","","","","","","","",""
"","","","","","html-button-response","24","156864","0.0-3.0-21.0","5ec9cf3ed4642d4ebb802b42","665500ab8938657b03fbdba8","66577af73237019115442a50","6451","Now that you've had some practice, you'll be tested with a couple of easy trials. If you correctly predict Sam's choice, you'll move on to complete the experiment!","0","","","","","","","","","","","","","","","","","","","","","","","",""
"","","","","","image-keyboard-response","25","158850","0.0-3.0-22.0-0.0","5ec9cf3ed4642d4ebb802b42","665500ab8938657b03fbdba8","66577af73237019115442a50","1984","stimuli/0000011.jpg","arrowleft","","comprehension_quiz","","","true","arrowleft","","","","","","","","","","","","","","","","","",""
"","","","","","image-keyboard-response","26","159748","0.0-3.0-22.0-1.0","5ec9cf3ed4642d4ebb802b42","665500ab8938657b03fbdba8","66577af73237019115442a50","897","stimuli/00000110.jpg"," ","","comprehension_quiz","","","true"," ","","","","","","","","","","","","","","","","","",""
"","","","","","image-keyboard-response","27","162237","0.0-3.0-22.0-2.0","5ec9cf3ed4642d4ebb802b42","665500ab8938657b03fbdba8","66577af73237019115442a50","2487","stimuli/1010010.jpg","arrowdown","","comprehension_quiz","","","true","arrowdown","","","","","","","","","","","","","","","","","",""
"","","","","","image-keyboard-response","28","162877","0.0-3.0-22.0-3.0","5ec9cf3ed4642d4ebb802b42","665500ab8938657b03fbdba8","66577af73237019115442a50","638","stimuli/10100101.jpg"," ","","comprehension_quiz","","","true"," ","","","","","","","","","","","","","","","","","",""
"","","","","","html-button-response","29","166771","0.0-4.0","5ec9cf3ed4642d4ebb802b42","665500ab8938657b03fbdba8","66577af73237019115442a50","3891","The experiment will now begin.","0","","","","","","","","","","","","","","","","","","","","","","","",""
"","","","","","image-keyboard-response","30","168517","0.0-5.0","5ec9cf3ed4642d4ebb802b42","665500ab8938657b03fbdba8","66577af73237019115442a50","1745","stimuli/0010010.jpg","0","","prediction_trial","0","","true","","0","true","true","true","true","true","true","[0]","010","010","1","","","","","","",""
"","","","","","image-keyboard-response","31","169347","0.0-6.0","5ec9cf3ed4642d4ebb802b42","665500ab8938657b03fbdba8","66577af73237019115442a50","828","stimuli/00100100.jpg"," ","","feedback_trial","0","","","","","","","","","","","","","","","","","","","","",""
"","","","","","image-keyboard-response","32","171661","0.0-7.0","5ec9cf3ed4642d4ebb802b42","665500ab8938657b03fbdba8","66577af73237019115442a50","2312","stimuli/0110001.jpg","0","","prediction_trial","0","","true","","0","true","true","false","false","false","false","[1,0]","110","001","1","","","","","","",""
"","","","","","image-keyboard-response","33","172301","0.0-8.0","5ec9cf3ed4642d4ebb802b42","665500ab8938657b03fbdba8","66577af73237019115442a50","638","stimuli/01100010.jpg"," ","","feedback_trial","1","","","","","","","","","","","","","","","","","","","","",""
"","","","","","image-keyboard-response","34","173813","0.0-9.0","5ec9cf3ed4642d4ebb802b42","665500ab8938657b03fbdba8","66577af73237019115442a50","1511","stimuli/0111111.jpg","1","","prediction_trial","0","","false","","0","false","false","false","false","false","false","[2,0,1]","111","111","0","","","","","","",""
"","","","","","image-keyboard-response","35","174501","0.0-10.0","5ec9cf3ed4642d4ebb802b42","665500ab8938657b03fbdba8","66577af73237019115442a50","686","stimuli/01111110.jpg"," ","","feedback_trial","2","","","","","","","","","","","","","","","","","","","","",""
"","","","","","image-keyboard-response","36","178653","0.0-11.0","5ec9cf3ed4642d4ebb802b42","665500ab8938657b03fbdba8","66577af73237019115442a50","4150","stimuli/2010001.jpg","2","","prediction_trial","2","","true","","2","false","true","true","true","false","true","[2]","010","001","1","","","","","","",""
"","","","","","image-keyboard-response","37","179453","0.0-12.0","5ec9cf3ed4642d4ebb802b42","665500ab8938657b03fbdba8","66577af73237019115442a50","798","stimuli/20100012.jpg"," ","","feedback_trial","2","","","","","","","","","","","","","","","","","","","","",""
"","","","","","image-keyboard-response","38","180549","0.0-13.0","5ec9cf3ed4642d4ebb802b42","665500ab8938657b03fbdba8","66577af73237019115442a50","1094","stimuli/1000101.jpg","1","","prediction_trial","1","","true","","1","true","true","true","true","true","true","[1]","000","101","1","","","","","","",""
"","","","","","image-keyboard-response","39","181197","0.0-14.0","5ec9cf3ed4642d4ebb802b42","665500ab8938657b03fbdba8","66577af73237019115442a50","646","stimuli/10001011.jpg"," ","","feedback_trial","1","","","","","","","","","","","","","","","","","","","","",""
"","","","","","image-keyboard-response","40","185437","0.0-15.0","5ec9cf3ed4642d4ebb802b42","665500ab8938657b03fbdba8","66577af73237019115442a50","4239","stimuli/0100101.jpg","0","","prediction_trial","0","","true","","0","false","false","false","true","false","false","[0]","100","101","1","","","","","","",""
"","","","","","image-keyboard-response","41","186349","0.0-16.0","5ec9cf3ed4642d4ebb802b42","665500ab8938657b03fbdba8","66577af73237019115442a50","910","stimuli/01001010.jpg"," ","","feedback_trial","0","","","","","","","","","","","","","","","","","","","","",""
"","","","","","image-keyboard-response","42","189005","0.0-17.0","5ec9cf3ed4642d4ebb802b42","665500ab8938657b03fbdba8","66577af73237019115442a50","2655","stimuli/0101110.jpg","1","","prediction_trial","2","","false","","0","false","false","false","false","false","false","[2,0]","101","110","0","","","","","","",""
"","","","","","image-keyboard-response","43","189763","0.0-18.0","5ec9cf3ed4642d4ebb802b42","665500ab8938657b03fbdba8","66577af73237019115442a50","756","stimuli/01011102.jpg"," ","","feedback_trial","2","","","","","","","","","","","","","","","","","","","","",""
"","","","","","image-keyboard-response","44","194230","0.0-19.0","5ec9cf3ed4642d4ebb802b42","665500ab8938657b03fbdba8","66577af73237019115442a50","4465","stimuli/2101010.jpg","2","","prediction_trial","0","","false","","2","true","true","false","false","false","false","[2,0]","101","010","0","","","","","","",""
"","","","","","image-keyboard-response","45","194965","0.0-20.0","5ec9cf3ed4642d4ebb802b42","665500ab8938657b03fbdba8","66577af73237019115442a50","734","stimuli/21010100.jpg"," ","","feedback_trial","2","","","","","","","","","","","","","","","","","","","","",""
"","","","","","image-keyboard-response","46","196982","0.0-21.0","5ec9cf3ed4642d4ebb802b42","665500ab8938657b03fbdba8","66577af73237019115442a50","2014","stimuli/1010001.jpg","1","","prediction_trial","1","","true","","1","true","true","false","true","false","true","[1]","010","001","1","","","","","","",""
"","","","","","image-keyboard-response","47","197573","0.0-22.0","5ec9cf3ed4642d4ebb802b42","665500ab8938657b03fbdba8","66577af73237019115442a50","590","stimuli/10100011.jpg"," ","","feedback_trial","1","","","","","","","","","","","","","","","","","","","","",""
"","","","","","image-keyboard-response","48","200269","0.0-23.0","5ec9cf3ed4642d4ebb802b42","665500ab8938657b03fbdba8","66577af73237019115442a50","2694","stimuli/1110100.jpg","1","","prediction_trial","1","","true","","1","true","true","false","false","false","false","[0,1]","110","100","1","","","","","","",""
"","","","","","image-keyboard-response","49","200902","0.0-24.0","5ec9cf3ed4642d4ebb802b42","665500ab8938657b03fbdba8","66577af73237019115442a50","631","stimuli/11101001.jpg"," ","","feedback_trial","0","","","","","","","","","","","","","","","","","","","","",""
"","","","","","image-keyboard-response","50","204126","0.0-25.0","5ec9cf3ed4642d4ebb802b42","665500ab8938657b03fbdba8","66577af73237019115442a50","3222","stimuli/0010111.jpg","1","","prediction_trial","0","","false","","0","false","false","true","true","false","false","[0]","010","111","0","","","","","","",""
"","","","","","image-keyboard-response","51","204830","0.0-26.0","5ec9cf3ed4642d4ebb802b42","665500ab8938657b03fbdba8","66577af73237019115442a50","702","stimuli/00101110.jpg"," ","","feedback_trial","0","","","","","","","","","","","","","","","","","","","","",""
"","","","","","image-keyboard-response","52","208038","0.0-27.0","5ec9cf3ed4642d4ebb802b42","665500ab8938657b03fbdba8","66577af73237019115442a50","3207","stimuli/1010110.jpg","1","","prediction_trial","1","","true","","1","false","false","false","true","false","false","[1]","010","110","1","","","","","","",""
"","","","","","image-keyboard-response","53","208670","0.0-28.0","5ec9cf3ed4642d4ebb802b42","665500ab8938657b03fbdba8","66577af73237019115442a50","631","stimuli/10101101.jpg"," ","","feedback_trial","1","","","","","","","","","","","","","","","","","","","","",""
"","","","","","image-keyboard-response","54","210118","0.0-29.0","5ec9cf3ed4642d4ebb802b42","665500ab8938657b03fbdba8","66577af73237019115442a50","1447","stimuli/1010011.jpg","1","","prediction_trial","1","","true","","1","false","false","false","true","false","false","[1]","010","011","1","","","","","","",""
"","","","","","image-keyboard-response","55","210669","0.0-30.0","5ec9cf3ed4642d4ebb802b42","665500ab8938657b03fbdba8","66577af73237019115442a50","549","stimuli/10100111.jpg"," ","","feedback_trial","1","","","","","","","","","","","","","","","","","","","","",""
"","","","","","image-keyboard-response","56","211526","0.0-31.0","5ec9cf3ed4642d4ebb802b42","665500ab8938657b03fbdba8","66577af73237019115442a50","855","stimuli/1101000.jpg","1","","prediction_trial","1","","true","","1","true","true","true","true","true","true","[1]","101","000","1","","","","","","",""
"","","","","","image-keyboard-response","57","211966","0.0-32.0","5ec9cf3ed4642d4ebb802b42","665500ab8938657b03fbdba8","66577af73237019115442a50","438","stimuli/11010001.jpg"," ","","feedback_trial","1","","","","","","","","","","","","","","","","","","","","",""
"","","","","","image-keyboard-response","58","213854","0.0-33.0","5ec9cf3ed4642d4ebb802b42","665500ab8938657b03fbdba8","66577af73237019115442a50","1887","stimuli/2011100.jpg","2","","prediction_trial","2","","true","","2","true","true","false","false","false","false","[2,1]","011","100","1","","","","","","",""
"","","","","","image-keyboard-response","59","214438","0.0-34.0","5ec9cf3ed4642d4ebb802b42","665500ab8938657b03fbdba8","66577af73237019115442a50","582","stimuli/20111002.jpg"," ","","feedback_trial","2","","","","","","","","","","","","","","","","","","","","",""
"","","","","","image-keyboard-response","60","215502","0.0-35.0","5ec9cf3ed4642d4ebb802b42","665500ab8938657b03fbdba8","66577af73237019115442a50","1062","stimuli/0000001.jpg","0","","prediction_trial","0","","true","","0","true","true","true","true","true","true","[0]","000","001","1","","","","","","",""
"","","","","","image-keyboard-response","61","216062","0.0-36.0","5ec9cf3ed4642d4ebb802b42","665500ab8938657b03fbdba8","66577af73237019115442a50","558","stimuli/00000010.jpg"," ","","feedback_trial","0","","","","","","","","","","","","","","","","","","","","",""
"","","","","","image-keyboard-response","62","217110","0.0-37.0","5ec9cf3ed4642d4ebb802b42","665500ab8938657b03fbdba8","66577af73237019115442a50","1038","stimuli/0001011.jpg","0","","prediction_trial","0","","true","","0","true","true","true","true","true","true","[0]","001","011","1","","","","","","",""
"","","","","","image-keyboard-response","63","217654","0.0-38.0","5ec9cf3ed4642d4ebb802b42","665500ab8938657b03fbdba8","66577af73237019115442a50","542","stimuli/00010110.jpg"," ","","feedback_trial","0","","","","","","","","","","","","","","","","","","","","",""
"","","","","","image-keyboard-response","64","219494","0.0-39.0","5ec9cf3ed4642d4ebb802b42","665500ab8938657b03fbdba8","66577af73237019115442a50","1839","stimuli/0100001.jpg","0","","prediction_trial","0","","true","","0","true","true","false","true","false","true","[0]","100","001","1","","","","","","",""
"","","","","","image-keyboard-response","65","219982","0.0-40.0","5ec9cf3ed4642d4ebb802b42","665500ab8938657b03fbdba8","66577af73237019115442a50","486","stimuli/01000010.jpg"," ","","feedback_trial","0","","","","","","","","","","","","","","","","","","","","",""
"","","","","","image-keyboard-response","66","221804","0.0-41.0","5ec9cf3ed4642d4ebb802b42","665500ab8938657b03fbdba8","66577af73237019115442a50","1820","stimuli/0111001.jpg","2","","prediction_trial","2","","true","","0","true","true","false","false","false","false","[2,1,0]","111","001","1","","","","","","",""
"","","","","","image-keyboard-response","67","222526","0.0-42.0","5ec9cf3ed4642d4ebb802b42","665500ab8938657b03fbdba8","66577af73237019115442a50","721","stimuli/01110012.jpg"," ","","feedback_trial","2","","","","","","","","","","","","","","","","","","","","",""
"","","","","","image-keyboard-response","68","223415","0.0-43.0","5ec9cf3ed4642d4ebb802b42","665500ab8938657b03fbdba8","66577af73237019115442a50","887","stimuli/1000001.jpg","1","","prediction_trial","1","","true","","1","true","true","true","true","true","true","[1]","000","001","1","","","","","","",""
"","","","","","image-keyboard-response","69","223894","0.0-44.0","5ec9cf3ed4642d4ebb802b42","665500ab8938657b03fbdba8","66577af73237019115442a50","478","stimuli/10000011.jpg"," ","","feedback_trial","1","","","","","","","","","","","","","","","","","","","","",""
"","","","","","image-keyboard-response","70","226863","0.0-45.0","5ec9cf3ed4642d4ebb802b42","665500ab8938657b03fbdba8","66577af73237019115442a50","2967","stimuli/1100011.jpg","1","","prediction_trial","1","","true","","1","false","false","true","true","false","false","[1]","100","011","1","","","","","","",""
"","","","","","image-keyboard-response","71","227382","0.0-46.0","5ec9cf3ed4642d4ebb802b42","665500ab8938657b03fbdba8","66577af73237019115442a50","518","stimuli/11000111.jpg"," ","","feedback_trial","1","","","","","","","","","","","","","","","","","","","","",""
"","","","","","image-keyboard-response","72","229494","0.0-47.0","5ec9cf3ed4642d4ebb802b42","665500ab8938657b03fbdba8","66577af73237019115442a50","2111","stimuli/0000101.jpg","2","","prediction_trial","0","","false","","0","false","false","true","true","false","false","[0]","000","101","0","","","","","","",""
"","","","","","image-keyboard-response","73","230095","0.0-48.0","5ec9cf3ed4642d4ebb802b42","665500ab8938657b03fbdba8","66577af73237019115442a50","599","stimuli/00001010.jpg"," ","","feedback_trial","0","","","","","","","","","","","","","","","","","","","","",""
"","","","","","image-keyboard-response","74","230991","0.0-49.0","5ec9cf3ed4642d4ebb802b42","665500ab8938657b03fbdba8","66577af73237019115442a50","895","stimuli/0011011.jpg","0","","prediction_trial","0","","true","","0","true","true","true","true","true","true","[0]","011","011","1","","","","","","",""
"","","","","","image-keyboard-response","75","231495","0.0-50.0","5ec9cf3ed4642d4ebb802b42","665500ab8938657b03fbdba8","66577af73237019115442a50","502","stimuli/00110110.jpg"," ","","feedback_trial","0","","","","","","","","","","","","","","","","","","","","",""
"","","","","","image-keyboard-response","76","232893","0.0-51.0","5ec9cf3ed4642d4ebb802b42","665500ab8938657b03fbdba8","66577af73237019115442a50","1397","stimuli/0111010.jpg","0","","prediction_trial","1","","false","","0","true","true","false","false","false","false","[0,1,2]","111","010","0","","","","","","",""
"","","","","","image-keyboard-response","77","233519","0.0-52.0","5ec9cf3ed4642d4ebb802b42","665500ab8938657b03fbdba8","66577af73237019115442a50","624","stimuli/01110101.jpg"," ","","feedback_trial","0","","","","","","","","","","","","","","","","","","","","",""
"","","","","","image-keyboard-response","78","236519","0.0-53.0","5ec9cf3ed4642d4ebb802b42","665500ab8938657b03fbdba8","66577af73237019115442a50","2999","stimuli/2110011.jpg","2","","prediction_trial","2","","true","","2","false","false","true","true","false","false","[2]","110","011","1","","","","","","",""
"","","","","","image-keyboard-response","79","237119","0.0-54.0","5ec9cf3ed4642d4ebb802b42","665500ab8938657b03fbdba8","66577af73237019115442a50","599","stimuli/21100112.jpg"," ","","feedback_trial","2","","","","","","","","","","","","","","","","","","","","",""
"","","","","","image-keyboard-response","80","238519","0.0-55.0","5ec9cf3ed4642d4ebb802b42","665500ab8938657b03fbdba8","66577af73237019115442a50","1399","stimuli/0001111.jpg","0","","prediction_trial","0","","true","","0","false","false","true","true","false","false","[0]","001","111","1","","","","","","",""
"","","","","","image-keyboard-response","81","238943","0.0-56.0","5ec9cf3ed4642d4ebb802b42","665500ab8938657b03fbdba8","66577af73237019115442a50","422","stimuli/00011110.jpg"," ","","feedback_trial","0","","","","","","","","","","","","","","","","","","","","",""
"","","","","","image-keyboard-response","82","239807","0.0-57.0","5ec9cf3ed4642d4ebb802b42","665500ab8938657b03fbdba8","66577af73237019115442a50","863","stimuli/2110000.jpg","2","","prediction_trial","2","","true","","2","true","true","true","true","true","true","[2]","110","000","1","","","","","","",""
"","","","","","image-keyboard-response","83","240279","0.0-58.0","5ec9cf3ed4642d4ebb802b42","665500ab8938657b03fbdba8","66577af73237019115442a50","470","stimuli/21100002.jpg"," ","","feedback_trial","2","","","","","","","","","","","","","","","","","","","","",""
"","","","","","image-keyboard-response","84","242047","0.0-59.0","5ec9cf3ed4642d4ebb802b42","665500ab8938657b03fbdba8","66577af73237019115442a50","1767","stimuli/1100110.jpg","1","","prediction_trial","1","","true","","1","false","false","true","true","false","false","[1]","100","110","1","","","","","","",""
"","","","","","image-keyboard-response","85","242503","0.0-60.0","5ec9cf3ed4642d4ebb802b42","665500ab8938657b03fbdba8","66577af73237019115442a50","454","stimuli/11001101.jpg"," ","","feedback_trial","1","","","","","","","","","","","","","","","","","","","","",""
"","","","","","image-keyboard-response","86","243764","0.0-61.0","5ec9cf3ed4642d4ebb802b42","665500ab8938657b03fbdba8","66577af73237019115442a50","1260","stimuli/2111000.jpg","1","","prediction_trial","2","","false","","2","true","true","false","false","false","false","[0,2,1]","111","000","0","","","","","","",""
"","","","","","image-keyboard-response","87","244295","0.0-62.0","5ec9cf3ed4642d4ebb802b42","665500ab8938657b03fbdba8","66577af73237019115442a50","529","stimuli/21110002.jpg"," ","","feedback_trial","0","","","","","","","","","","","","","","","","","","","","",""
"","","","","","image-keyboard-response","88","245295","0.0-63.0","5ec9cf3ed4642d4ebb802b42","665500ab8938657b03fbdba8","66577af73237019115442a50","998","stimuli/0000010.jpg","0","","prediction_trial","0","","true","","0","true","true","true","true","true","true","[0]","000","010","1","","","","","","",""
"","","","","","image-keyboard-response","89","245751","0.0-64.0","5ec9cf3ed4642d4ebb802b42","665500ab8938657b03fbdba8","66577af73237019115442a50","454","stimuli/00000100.jpg"," ","","feedback_trial","0","","","","","","","","","","","","","","","","","","","","",""
"","","","","","image-keyboard-response","90","248271","0.0-65.0","5ec9cf3ed4642d4ebb802b42","665500ab8938657b03fbdba8","66577af73237019115442a50","2519","stimuli/0100100.jpg","0","","prediction_trial","0","","true","","0","false","true","false","true","false","true","[0]","100","100","1","","","","","","",""
"","","","","","image-keyboard-response","91","248775","0.0-66.0","5ec9cf3ed4642d4ebb802b42","665500ab8938657b03fbdba8","66577af73237019115442a50","503","stimuli/01001000.jpg"," ","","feedback_trial","0","","","","","","","","","","","","","","","","","","","","",""
"","","","","","image-keyboard-response","92","249776","0.0-67.0","5ec9cf3ed4642d4ebb802b42","665500ab8938657b03fbdba8","66577af73237019115442a50","999","stimuli/1101101.jpg","1","","prediction_trial","1","","true","","1","true","true","true","true","true","true","[1]","101","101","1","","","","","","",""
"","","","","","image-keyboard-response","93","250207","0.0-68.0","5ec9cf3ed4642d4ebb802b42","665500ab8938657b03fbdba8","66577af73237019115442a50","430","stimuli/11011011.jpg"," ","","feedback_trial","1","","","","","","","","","","","","","","","","","","","","",""
"","","","","","image-keyboard-response","94","251896","0.0-69.0","5ec9cf3ed4642d4ebb802b42","665500ab8938657b03fbdba8","66577af73237019115442a50","1687","stimuli/0000100.jpg","0","","prediction_trial","0","","true","","0","false","true","true","true","false","true","[0]","000","100","1","","","","","","",""
"","","","","","image-keyboard-response","95","252351","0.0-70.0","5ec9cf3ed4642d4ebb802b42","665500ab8938657b03fbdba8","66577af73237019115442a50","454","stimuli/00001000.jpg"," ","","feedback_trial","0","","","","","","","","","","","","","","","","","","","","",""
"","","","","","image-keyboard-response","96","253424","0.0-71.0","5ec9cf3ed4642d4ebb802b42","665500ab8938657b03fbdba8","66577af73237019115442a50","1071","stimuli/1111101.jpg","1","","prediction_trial","2","","false","","1","true","true","false","false","false","false","[1,0,2]","111","101","0","","","","","","",""
"","","","","","image-keyboard-response","97","254134","0.0-72.0","5ec9cf3ed4642d4ebb802b42","665500ab8938657b03fbdba8","66577af73237019115442a50","708","stimuli/11111012.jpg"," ","","feedback_trial","1","","","","","","","","","","","","","","","","","","","","",""
"","","","","","image-keyboard-response","98","255272","0.0-73.0","5ec9cf3ed4642d4ebb802b42","665500ab8938657b03fbdba8","66577af73237019115442a50","1137","stimuli/0111100.jpg","0","","prediction_trial","0","","true","","0","false","true","false","false","false","false","[0,1,2]","111","100","1","","","","","","",""
"","","","","","image-keyboard-response","99","255807","0.0-74.0","5ec9cf3ed4642d4ebb802b42","665500ab8938657b03fbdba8","66577af73237019115442a50","534","stimuli/01111000.jpg"," ","","feedback_trial","0","","","","","","","","","","","","","","","","","","","","",""
"","","","","","image-keyboard-response","100","257728","0.0-75.0","5ec9cf3ed4642d4ebb802b42","665500ab8938657b03fbdba8","66577af73237019115442a50","1919","stimuli/1001111.jpg","1","","prediction_trial","1","","true","","1","false","false","true","true","false","false","[1]","001","111","1","","","","","","",""
"","","","","","image-keyboard-response","101","258319","0.0-76.0","5ec9cf3ed4642d4ebb802b42","665500ab8938657b03fbdba8","66577af73237019115442a50","590","stimuli/10011111.jpg"," ","","feedback_trial","1","","","","","","","","","","","","","","","","","","","","",""
"","","","","","image-keyboard-response","102","260136","0.0-77.0","5ec9cf3ed4642d4ebb802b42","665500ab8938657b03fbdba8","66577af73237019115442a50","1815","stimuli/1110010.jpg","1","","prediction_trial","1","","true","","1","false","true","false","false","false","false","[1,0]","110","010","1","","","","","","",""
"","","","","","image-keyboard-response","103","260632","0.0-78.0","5ec9cf3ed4642d4ebb802b42","665500ab8938657b03fbdba8","66577af73237019115442a50","494","stimuli/11100101.jpg"," ","","feedback_trial","1","","","","","","","","","","","","","","","","","","","","",""
"","","","","","image-keyboard-response","104","261344","0.0-79.0","5ec9cf3ed4642d4ebb802b42","665500ab8938657b03fbdba8","66577af73237019115442a50","711","stimuli/1100000.jpg","1","","prediction_trial","1","","true","","1","true","true","true","true","true","true","[1]","100","000","1","","","","","","",""
"","","","","","image-keyboard-response","105","261768","0.0-80.0","5ec9cf3ed4642d4ebb802b42","665500ab8938657b03fbdba8","66577af73237019115442a50","423","stimuli/11000001.jpg"," ","","feedback_trial","1","","","","","","","","","","","","","","","","","","","","",""
"","","","","","image-keyboard-response","106","263288","0.0-81.0","5ec9cf3ed4642d4ebb802b42","665500ab8938657b03fbdba8","66577af73237019115442a50","1519","stimuli/0111110.jpg","0","","prediction_trial","0","","true","","0","false","false","false","false","false","false","[0,1,2]","111","110","1","","","","","","",""
"","","","","","image-keyboard-response","107","263792","0.0-82.0","5ec9cf3ed4642d4ebb802b42","665500ab8938657b03fbdba8","66577af73237019115442a50","502","stimuli/01111100.jpg"," ","","feedback_trial","0","","","","","","","","","","","","","","","","","","","","",""
"","","","","","image-keyboard-response","108","264967","0.0-83.0","5ec9cf3ed4642d4ebb802b42","665500ab8938657b03fbdba8","66577af73237019115442a50","1174","stimuli/1001101.jpg","1","","prediction_trial","1","","true","","1","true","true","true","true","true","true","[1]","001","101","1","","","","","","",""
"","","","","","image-keyboard-response","109","265456","0.0-84.0","5ec9cf3ed4642d4ebb802b42","665500ab8938657b03fbdba8","66577af73237019115442a50","487","stimuli/10011011.jpg"," ","","feedback_trial","1","","","","","","","","","","","","","","","","","","","","",""
"","","","","","image-keyboard-response","110","267440","0.0-85.0","5ec9cf3ed4642d4ebb802b42","665500ab8938657b03fbdba8","66577af73237019115442a50","1983","stimuli/1110111.jpg","2","","prediction_trial","1","","false","","1","false","false","false","false","false","false","[1,0]","110","111","0","","","","","","",""
"","","","","","image-keyboard-response","111","268080","0.0-86.0","5ec9cf3ed4642d4ebb802b42","665500ab8938657b03fbdba8","66577af73237019115442a50","638","stimuli/11101111.jpg"," ","","feedback_trial","1","","","","","","","","","","","","","","","","","","","","",""
"","","","","","image-keyboard-response","112","269968","0.0-87.0","5ec9cf3ed4642d4ebb802b42","665500ab8938657b03fbdba8","66577af73237019115442a50","1887","stimuli/1010010.jpg","1","","prediction_trial","1","","true","","1","false","true","false","true","false","true","[1]","010","010","1","","","","","","",""
"","","","","","image-keyboard-response","113","270432","0.0-88.0","5ec9cf3ed4642d4ebb802b42","665500ab8938657b03fbdba8","66577af73237019115442a50","463","stimuli/10100101.jpg"," ","","feedback_trial","1","","","","","","","","","","","","","","","","","","","","",""
"","","","","","image-keyboard-response","114","273305","0.0-89.0","5ec9cf3ed4642d4ebb802b42","665500ab8938657b03fbdba8","66577af73237019115442a50","2871","stimuli/2011001.jpg","2","","prediction_trial","1","","false","","2","false","true","false","false","false","false","[1,2]","011","001","0","","","","","","",""
"","","","","","image-keyboard-response","115","273952","0.0-90.0","5ec9cf3ed4642d4ebb802b42","665500ab8938657b03fbdba8","66577af73237019115442a50","646","stimuli/20110011.jpg"," ","","feedback_trial","1","","","","","","","","","","","","","","","","","","","","",""
"","","","","","image-keyboard-response","116","274913","0.0-91.0","5ec9cf3ed4642d4ebb802b42","665500ab8938657b03fbdba8","66577af73237019115442a50","959","stimuli/0011001.jpg","0","","prediction_trial","0","","true","","0","true","true","true","true","true","true","[0]","011","001","1","","","","","","",""
"","","","","","image-keyboard-response","117","275350","0.0-92.0","5ec9cf3ed4642d4ebb802b42","665500ab8938657b03fbdba8","66577af73237019115442a50","436","stimuli/00110010.jpg"," ","","feedback_trial","0","","","","","","","","","","","","","","","","","","","","",""
"","","","","","image-keyboard-response","118","277928","0.0-93.0","5ec9cf3ed4642d4ebb802b42","665500ab8938657b03fbdba8","66577af73237019115442a50","2577","stimuli/1001011.jpg","1","","prediction_trial","1","","true","","1","false","false","true","true","false","false","[1]","001","011","1","","","","","","",""
"","","","","","image-keyboard-response","119","278448","0.0-94.0","5ec9cf3ed4642d4ebb802b42","665500ab8938657b03fbdba8","66577af73237019115442a50","518","stimuli/10010111.jpg"," ","","feedback_trial","1","","","","","","","","","","","","","","","","","","","","",""
"","","","","","image-keyboard-response","120","279345","0.0-95.0","5ec9cf3ed4642d4ebb802b42","665500ab8938657b03fbdba8","66577af73237019115442a50","895","stimuli/2010100.jpg","2","","prediction_trial","2","","true","","2","true","true","true","true","true","true","[2]","010","100","1","","","","","","",""
"","","","","","image-keyboard-response","121","279848","0.0-96.0","5ec9cf3ed4642d4ebb802b42","665500ab8938657b03fbdba8","66577af73237019115442a50","502","stimuli/20101002.jpg"," ","","feedback_trial","2","","","","","","","","","","","","","","","","","","","","",""
"","","","","","image-keyboard-response","122","281009","0.0-97.0","5ec9cf3ed4642d4ebb802b42","665500ab8938657b03fbdba8","66577af73237019115442a50","1159","stimuli/1111000.jpg","1","","prediction_trial","2","","false","","1","true","true","false","false","false","false","[2,1,0]","111","000","0","","","","","","",""
"","","","","","image-keyboard-response","123","281512","0.0-98.0","5ec9cf3ed4642d4ebb802b42","665500ab8938657b03fbdba8","66577af73237019115442a50","502","stimuli/11110002.jpg"," ","","feedback_trial","2","","","","","","","","","","","","","","","","","","","","",""
"","","","","","image-keyboard-response","124","282616","0.0-99.0","5ec9cf3ed4642d4ebb802b42","665500ab8938657b03fbdba8","66577af73237019115442a50","1102","stimuli/2000010.jpg","2","","prediction_trial","2","","true","","2","true","true","true","true","true","true","[2]","000","010","1","","","","","","",""
"","","","","","image-keyboard-response","125","283112","0.0-100.0","5ec9cf3ed4642d4ebb802b42","665500ab8938657b03fbdba8","66577af73237019115442a50","495","stimuli/20000102.jpg"," ","","feedback_trial","2","","","","","","","","","","","","","","","","","","","","",""
"","","","","","image-keyboard-response","126","284793","0.0-101.0","5ec9cf3ed4642d4ebb802b42","665500ab8938657b03fbdba8","66577af73237019115442a50","1679","stimuli/2111011.jpg","1","","prediction_trial","2","","false","","2","false","false","false","false","false","false","[2,0,1]","111","011","0","","","","","","",""
"","","","","","image-keyboard-response","127","285288","0.0-102.0","5ec9cf3ed4642d4ebb802b42","665500ab8938657b03fbdba8","66577af73237019115442a50","494","stimuli/21110112.jpg"," ","","feedback_trial","2","","","","","","","","","","","","","","","","","","","","",""
"","","","","","image-keyboard-response","128","286967","0.0-103.0","5ec9cf3ed4642d4ebb802b42","665500ab8938657b03fbdba8","66577af73237019115442a50","1677","stimuli/2101110.jpg","2","","prediction_trial","0","","false","","2","true","true","false","false","false","false","[0,2]","101","110","0","","","","","","",""
"","","","","","image-keyboard-response","129","287648","0.0-104.0","5ec9cf3ed4642d4ebb802b42","665500ab8938657b03fbdba8","66577af73237019115442a50","680","stimuli/21011100.jpg"," ","","feedback_trial","0","","","","","","","","","","","","","","","","","","","","",""
"","","","","","image-keyboard-response","130","290081","0.0-105.0","5ec9cf3ed4642d4ebb802b42","665500ab8938657b03fbdba8","66577af73237019115442a50","2431","stimuli/2011000.jpg","2","","prediction_trial","2","","true","","2","true","true","false","false","false","false","[1,2]","011","000","1","","","","","","",""
"","","","","","image-keyboard-response","131","290665","0.0-106.0","5ec9cf3ed4642d4ebb802b42","665500ab8938657b03fbdba8","66577af73237019115442a50","583","stimuli/20110002.jpg"," ","","feedback_trial","1","","","","","","","","","","","","","","","","","","","","",""
"","","","","","image-keyboard-response","132","292017","0.0-107.0","5ec9cf3ed4642d4ebb802b42","665500ab8938657b03fbdba8","66577af73237019115442a50","1351","stimuli/2010101.jpg","0","","prediction_trial","2","","false","","2","false","false","true","true","false","false","[2]","010","101","0","","","","","","",""
"","","","","","image-keyboard-response","133","292625","0.0-108.0","5ec9cf3ed4642d4ebb802b42","665500ab8938657b03fbdba8","66577af73237019115442a50","607","stimuli/20101012.jpg"," ","","feedback_trial","2","","","","","","","","","","","","","","","","","","","","",""
"","","","","","image-keyboard-response","134","294153","0.0-109.0","5ec9cf3ed4642d4ebb802b42","665500ab8938657b03fbdba8","66577af73237019115442a50","1527","stimuli/1011110.jpg","0","","prediction_trial","1","","false","","1","false","false","false","false","false","false","[1,2]","011","110","0","","","","","","",""
"","","","","","image-keyboard-response","135","294785","0.0-110.0","5ec9cf3ed4642d4ebb802b42","665500ab8938657b03fbdba8","66577af73237019115442a50","630","stimuli/10111101.jpg"," ","","feedback_trial","1","","","","","","","","","","","","","","","","","","","","",""
"","","","","","image-keyboard-response","136","296473","0.0-111.0","5ec9cf3ed4642d4ebb802b42","665500ab8938657b03fbdba8","66577af73237019115442a50","1687","stimuli/2011101.jpg","0","","prediction_trial","1","","false","","2","false","false","false","false","false","false","[1,2]","011","101","0","","","","","","",""
"","","","","","image-keyboard-response","137","297092","0.0-112.0","5ec9cf3ed4642d4ebb802b42","665500ab8938657b03fbdba8","66577af73237019115442a50","618","stimuli/20111011.jpg"," ","","feedback_trial","1","","","","","","","","","","","","","","","","","","","","",""
"","","","","","image-keyboard-response","138","298681","0.0-113.0","5ec9cf3ed4642d4ebb802b42","665500ab8938657b03fbdba8","66577af73237019115442a50","1588","stimuli/0000111.jpg","2","","prediction_trial","0","","false","","0","false","false","true","true","false","false","[0]","000","111","0","","","","","","",""
"","","","","","image-keyboard-response","139","299401","0.0-114.0","5ec9cf3ed4642d4ebb802b42","665500ab8938657b03fbdba8","66577af73237019115442a50","719","stimuli/00001110.jpg"," ","","feedback_trial","0","","","","","","","","","","","","","","","","","","","","",""
"","","","","","image-keyboard-response","140","300577","0.0-115.0","5ec9cf3ed4642d4ebb802b42","665500ab8938657b03fbdba8","66577af73237019115442a50","1174","stimuli/2000111.jpg","2","","prediction_trial","2","","true","","2","false","false","true","true","false","false","[2]","000","111","1","","","","","","",""
"","","","","","image-keyboard-response","141","301265","0.0-116.0","5ec9cf3ed4642d4ebb802b42","665500ab8938657b03fbdba8","66577af73237019115442a50","687","stimuli/20001112.jpg"," ","","feedback_trial","2","","","","","","","","","","","","","","","","","","","","",""
"","","","","","image-keyboard-response","142","302896","0.0-117.0","5ec9cf3ed4642d4ebb802b42","665500ab8938657b03fbdba8","66577af73237019115442a50","1630","stimuli/2111111.jpg","0","","prediction_trial","1","","false","","2","false","false","false","false","false","false","[0,1,2]","111","111","0","","","","","","",""
"","","","","","image-keyboard-response","143","303521","0.0-118.0","5ec9cf3ed4642d4ebb802b42","665500ab8938657b03fbdba8","66577af73237019115442a50","624","stimuli/21111111.jpg"," ","","feedback_trial","0","","","","","","","","","","","","","","","","","","","","",""
"","","","","","image-keyboard-response","144","305209","0.0-119.0","5ec9cf3ed4642d4ebb802b42","665500ab8938657b03fbdba8","66577af73237019115442a50","1687","stimuli/1100010.jpg","1","","prediction_trial","1","","true","","1","false","true","true","true","false","true","[1]","100","010","1","","","","","","",""
"","","","","","image-keyboard-response","145","305713","0.0-120.0","5ec9cf3ed4642d4ebb802b42","665500ab8938657b03fbdba8","66577af73237019115442a50","503","stimuli/11000101.jpg"," ","","feedback_trial","1","","","","","","","","","","","","","","","","","","","","",""
"","","","","","image-keyboard-response","146","306577","0.0-121.0","5ec9cf3ed4642d4ebb802b42","665500ab8938657b03fbdba8","66577af73237019115442a50","863","stimuli/0001010.jpg","0","","prediction_trial","0","","true","","0","true","true","true","true","true","true","[0]","001","010","1","","","","","","",""
"","","","","","image-keyboard-response","147","307017","0.0-122.0","5ec9cf3ed4642d4ebb802b42","665500ab8938657b03fbdba8","66577af73237019115442a50","438","stimuli/00010100.jpg"," ","","feedback_trial","0","","","","","","","","","","","","","","","","","","","","",""
"","","","","","image-keyboard-response","148","307870","0.0-123.0","5ec9cf3ed4642d4ebb802b42","665500ab8938657b03fbdba8","66577af73237019115442a50","851","stimuli/0001000.jpg","0","","prediction_trial","0","","true","","0","true","true","true","true","true","true","[0]","001","000","1","","","","","","",""
"","","","","","image-keyboard-response","149","308305","0.0-124.0","5ec9cf3ed4642d4ebb802b42","665500ab8938657b03fbdba8","66577af73237019115442a50","434","stimuli/00010000.jpg"," ","","feedback_trial","0","","","","","","","","","","","","","","","","","","","","",""
"","","","","","image-keyboard-response","150","309681","0.0-125.0","5ec9cf3ed4642d4ebb802b42","665500ab8938657b03fbdba8","66577af73237019115442a50","1375","stimuli/0100010.jpg","0","","prediction_trial","0","","true","","0","true","true","false","true","false","true","[0]","100","010","1","","","","","","",""
"","","","","","image-keyboard-response","151","310089","0.0-126.0","5ec9cf3ed4642d4ebb802b42","665500ab8938657b03fbdba8","66577af73237019115442a50","406","stimuli/01000100.jpg"," ","","feedback_trial","0","","","","","","","","","","","","","","","","","","","","",""
"","","","","","image-keyboard-response","152","312170","0.0-127.0","5ec9cf3ed4642d4ebb802b42","665500ab8938657b03fbdba8","66577af73237019115442a50","2079","stimuli/2010011.jpg","2","","prediction_trial","2","","true","","2","false","false","true","true","false","false","[2]","010","011","1","","","","","","",""
"","","","","","image-keyboard-response","153","312753","0.0-128.0","5ec9cf3ed4642d4ebb802b42","665500ab8938657b03fbdba8","66577af73237019115442a50","582","stimuli/20100112.jpg"," ","","feedback_trial","2","","","","","","","","","","","","","","","","","","","","",""
"","","","","","image-keyboard-response","154","314113","0.0-129.0","5ec9cf3ed4642d4ebb802b42","665500ab8938657b03fbdba8","66577af73237019115442a50","1359","stimuli/2010111.jpg","2","","prediction_trial","2","","true","","2","false","false","true","true","false","false","[2]","010","111","1","","","","","","",""
"","","","","","image-keyboard-response","155","314673","0.0-130.0","5ec9cf3ed4642d4ebb802b42","665500ab8938657b03fbdba8","66577af73237019115442a50","559","stimuli/20101112.jpg"," ","","feedback_trial","2","","","","","","","","","","","","","","","","","","","","",""
"","","","","","image-keyboard-response","156","315745","0.0-131.0","5ec9cf3ed4642d4ebb802b42","665500ab8938657b03fbdba8","66577af73237019115442a50","1071","stimuli/0110101.jpg","2","","prediction_trial","1","","false","","0","false","false","false","false","false","false","[0,1]","110","101","0","","","","","","",""
"","","","","","image-keyboard-response","157","316481","0.0-132.0","5ec9cf3ed4642d4ebb802b42","665500ab8938657b03fbdba8","66577af73237019115442a50","734","stimuli/01101011.jpg"," ","","feedback_trial","0","","","","","","","","","","","","","","","","","","","","",""
"","","","","","image-keyboard-response","158","317393","0.0-133.0","5ec9cf3ed4642d4ebb802b42","665500ab8938657b03fbdba8","66577af73237019115442a50","911","stimuli/1000100.jpg","1","","prediction_trial","1","","true","","1","true","true","true","true","true","true","[1]","000","100","1","","","","","","",""
"","","","","","image-keyboard-response","159","317990","0.0-134.0","5ec9cf3ed4642d4ebb802b42","665500ab8938657b03fbdba8","66577af73237019115442a50","595","stimuli/10001001.jpg"," ","","feedback_trial","1","","","","","","","","","","","","","","","","","","","","",""
"","","","","","image-keyboard-response","160","320233","0.0-135.0","5ec9cf3ed4642d4ebb802b42","665500ab8938657b03fbdba8","66577af73237019115442a50","2241","stimuli/0101000.jpg","0","","prediction_trial","2","","false","","0","true","true","false","false","false","false","[2,0]","101","000","0","","","","","","",""
"","","","","","image-keyboard-response","161","320874","0.0-136.0","5ec9cf3ed4642d4ebb802b42","665500ab8938657b03fbdba8","66577af73237019115442a50","639","stimuli/01010002.jpg"," ","","feedback_trial","2","","","","","","","","","","","","","","","","","","","","",""
"","","","","","image-keyboard-response","162","321946","0.0-137.0","5ec9cf3ed4642d4ebb802b42","665500ab8938657b03fbdba8","66577af73237019115442a50","1071","stimuli/2111101.jpg","0","","prediction_trial","1","","false","","2","false","false","false","false","false","false","[0,2,1]","111","101","0","","","","","","",""
"","","","","","image-keyboard-response","163","322466","0.0-138.0","5ec9cf3ed4642d4ebb802b42","665500ab8938657b03fbdba8","66577af73237019115442a50","518","stimuli/21111011.jpg"," ","","feedback_trial","0","","","","","","","","","","","","","","","","","","","","",""
"","","","","","image-keyboard-response","164","324762","0.0-139.0","5ec9cf3ed4642d4ebb802b42","665500ab8938657b03fbdba8","66577af73237019115442a50","2295","stimuli/1100111.jpg","1","","prediction_trial","1","","true","","1","false","false","true","true","false","false","[1]","100","111","1","","","","","","",""
"","","","","","image-keyboard-response","165","325330","0.0-140.0","5ec9cf3ed4642d4ebb802b42","665500ab8938657b03fbdba8","66577af73237019115442a50","566","stimuli/11001111.jpg"," ","","feedback_trial","1","","","","","","","","","","","","","","","","","","","","",""
"","","","","","image-keyboard-response","166","326858","0.0-141.0","5ec9cf3ed4642d4ebb802b42","665500ab8938657b03fbdba8","66577af73237019115442a50","1527","stimuli/2001001.jpg","2","","prediction_trial","2","","true","","2","false","true","false","true","false","true","[2]","001","001","1","","","","","","",""
"","","","","","image-keyboard-response","167","327394","0.0-142.0","5ec9cf3ed4642d4ebb802b42","665500ab8938657b03fbdba8","66577af73237019115442a50","534","stimuli/20010012.jpg"," ","","feedback_trial","2","","","","","","","","","","","","","","","","","","","","",""
"","","","","","image-keyboard-response","168","328703","0.0-143.0","5ec9cf3ed4642d4ebb802b42","665500ab8938657b03fbdba8","66577af73237019115442a50","1308","stimuli/0101111.jpg","1","","prediction_trial","2","","false","","0","false","false","false","false","false","false","[2,0]","101","111","0","","","","","","",""
"","","","","","image-keyboard-response","169","329218","0.0-144.0","5ec9cf3ed4642d4ebb802b42","665500ab8938657b03fbdba8","66577af73237019115442a50","513","stimuli/01011112.jpg"," ","","feedback_trial","2","","","","","","","","","","","","","","","","","","","","",""
"","","","","","image-keyboard-response","170","330402","0.0-145.0","5ec9cf3ed4642d4ebb802b42","665500ab8938657b03fbdba8","66577af73237019115442a50","1183","stimuli/1000011.jpg","2","","prediction_trial","1","","false","","1","false","false","true","true","false","false","[1]","000","011","0","","","","","","",""
"","","","","","image-keyboard-response","171","331002","0.0-146.0","5ec9cf3ed4642d4ebb802b42","665500ab8938657b03fbdba8","66577af73237019115442a50","598","stimuli/10000111.jpg"," ","","feedback_trial","1","","","","","","","","","","","","","","","","","","","","",""
"","","","","","image-keyboard-response","172","332426","0.0-147.0","5ec9cf3ed4642d4ebb802b42","665500ab8938657b03fbdba8","66577af73237019115442a50","1423","stimuli/0110000.jpg","0","","prediction_trial","0","","true","","0","true","true","false","false","false","false","[0,1]","110","000","1","","","","","","",""
"","","","","","image-keyboard-response","173","332914","0.0-148.0","5ec9cf3ed4642d4ebb802b42","665500ab8938657b03fbdba8","66577af73237019115442a50","486","stimuli/01100000.jpg"," ","","feedback_trial","0","","","","","","","","","","","","","","","","","","","","",""
"","","","","","image-keyboard-response","174","334058","0.0-149.0","5ec9cf3ed4642d4ebb802b42","665500ab8938657b03fbdba8","66577af73237019115442a50","1142","stimuli/2111110.jpg","2","","prediction_trial","0","","false","","2","true","true","false","false","false","false","[2,0,1]","111","110","0","","","","","","",""
"","","","","","image-keyboard-response","175","334698","0.0-150.0","5ec9cf3ed4642d4ebb802b42","665500ab8938657b03fbdba8","66577af73237019115442a50","639","stimuli/21111100.jpg"," ","","feedback_trial","2","","","","","","","","","","","","","","","","","","","","",""
"","","","","","image-keyboard-response","176","336898","0.0-151.0","5ec9cf3ed4642d4ebb802b42","665500ab8938657b03fbdba8","66577af73237019115442a50","2199","stimuli/0011110.jpg","0","","prediction_trial","0","","true","","0","false","false","true","true","false","false","[0]","011","110","1","","","","","","",""
"","","","","","image-keyboard-response","177","337450","0.0-152.0","5ec9cf3ed4642d4ebb802b42","665500ab8938657b03fbdba8","66577af73237019115442a50","550","stimuli/00111100.jpg"," ","","feedback_trial","0","","","","","","","","","","","","","","","","","","","","",""
"","","","","","image-keyboard-response","178","338482","0.0-153.0","5ec9cf3ed4642d4ebb802b42","665500ab8938657b03fbdba8","66577af73237019115442a50","1031","stimuli/0111101.jpg","0","","prediction_trial","1","","false","","0","false","false","false","false","false","false","[2,0,1]","111","101","0","","","","","","",""
"","","","","","image-keyboard-response","179","339006","0.0-154.0","5ec9cf3ed4642d4ebb802b42","665500ab8938657b03fbdba8","66577af73237019115442a50","523","stimuli/01111011.jpg"," ","","feedback_trial","2","","","","","","","","","","","","","","","","","","","","",""
"","","","","","image-keyboard-response","180","340490","0.0-155.0","5ec9cf3ed4642d4ebb802b42","665500ab8938657b03fbdba8","66577af73237019115442a50","1482","stimuli/0001100.jpg","0","","prediction_trial","0","","true","","0","false","true","true","true","false","true","[0]","001","100","1","","","","","","",""
"","","","","","image-keyboard-response","181","340986","0.0-156.0","5ec9cf3ed4642d4ebb802b42","665500ab8938657b03fbdba8","66577af73237019115442a50","494","stimuli/00011000.jpg"," ","","feedback_trial","0","","","","","","","","","","","","","","","","","","","","",""
"","","","","","image-keyboard-response","182","342371","0.0-157.0","5ec9cf3ed4642d4ebb802b42","665500ab8938657b03fbdba8","66577af73237019115442a50","1383","stimuli/1011000.jpg","1","","prediction_trial","1","","true","","1","true","true","false","false","false","false","[1,2]","011","000","1","","","","","","",""
"","","","","","image-keyboard-response","183","342786","0.0-158.0","5ec9cf3ed4642d4ebb802b42","665500ab8938657b03fbdba8","66577af73237019115442a50","414","stimuli/10110001.jpg"," ","","feedback_trial","1","","","","","","","","","","","","","","","","","","","","",""
"","","","","","image-keyboard-response","184","344250","0.0-159.0","5ec9cf3ed4642d4ebb802b42","665500ab8938657b03fbdba8","66577af73237019115442a50","1463","stimuli/2001011.jpg","1","","prediction_trial","2","","false","","2","false","false","false","true","false","false","[2]","001","011","0","","","","","","",""
"","","","","","image-keyboard-response","185","344914","0.0-160.0","5ec9cf3ed4642d4ebb802b42","665500ab8938657b03fbdba8","66577af73237019115442a50","662","stimuli/20010112.jpg"," ","","feedback_trial","2","","","","","","","","","","","","","","","","","","","","",""
"","","","","","image-keyboard-response","186","347034","0.0-161.0","5ec9cf3ed4642d4ebb802b42","665500ab8938657b03fbdba8","66577af73237019115442a50","2119","stimuli/1011100.jpg","1","","prediction_trial","2","","false","","1","true","true","false","false","false","false","[1,2]","011","100","0","","","","","","",""
"","","","","","image-keyboard-response","187","347546","0.0-162.0","5ec9cf3ed4642d4ebb802b42","665500ab8938657b03fbdba8","66577af73237019115442a50","511","stimuli/10111002.jpg"," ","","feedback_trial","1","","","","","","","","","","","","","","","","","","","","",""
"","","","","","image-keyboard-response","188","349249","0.0-163.0","5ec9cf3ed4642d4ebb802b42","665500ab8938657b03fbdba8","66577af73237019115442a50","1701","stimuli/0100011.jpg","0","","prediction_trial","0","","true","","0","true","true","false","true","false","true","[0]","100","011","1","","","","","","",""
"","","","","","image-keyboard-response","189","349682","0.0-164.0","5ec9cf3ed4642d4ebb802b42","665500ab8938657b03fbdba8","66577af73237019115442a50","432","stimuli/01000110.jpg"," ","","feedback_trial","0","","","","","","","","","","","","","","","","","","","","",""
"","","","","","image-keyboard-response","190","350978","0.0-165.0","5ec9cf3ed4642d4ebb802b42","665500ab8938657b03fbdba8","66577af73237019115442a50","1295","stimuli/2001000.jpg","2","","prediction_trial","2","","true","","2","true","true","false","true","false","true","[2]","001","000","1","","","","","","",""
"","","","","","image-keyboard-response","191","351410","0.0-166.0","5ec9cf3ed4642d4ebb802b42","665500ab8938657b03fbdba8","66577af73237019115442a50","430","stimuli/20010002.jpg"," ","","feedback_trial","2","","","","","","","","","","","","","","","","","","","","",""
"","","","","","image-keyboard-response","192","352667","0.0-167.0","5ec9cf3ed4642d4ebb802b42","665500ab8938657b03fbdba8","66577af73237019115442a50","1255","stimuli/0010101.jpg","2","","prediction_trial","0","","false","","0","false","false","true","true","false","false","[0]","010","101","0","","","","","","",""
"","","","","","image-keyboard-response","193","353258","0.0-168.0","5ec9cf3ed4642d4ebb802b42","665500ab8938657b03fbdba8","66577af73237019115442a50","590","stimuli/00101010.jpg"," ","","feedback_trial","0","","","","","","","","","","","","","","","","","","","","",""
"","","","","","image-keyboard-response","194","354114","0.0-169.0","5ec9cf3ed4642d4ebb802b42","665500ab8938657b03fbdba8","66577af73237019115442a50","855","stimuli/2100010.jpg","2","","prediction_trial","2","","true","","2","true","true","true","true","true","true","[2]","100","010","1","","","","","","",""
"","","","","","image-keyboard-response","195","354539","0.0-170.0","5ec9cf3ed4642d4ebb802b42","665500ab8938657b03fbdba8","66577af73237019115442a50","423","stimuli/21000102.jpg"," ","","feedback_trial","2","","","","","","","","","","","","","","","","","","","","",""
"","","","","","image-keyboard-response","196","356867","0.0-171.0","5ec9cf3ed4642d4ebb802b42","665500ab8938657b03fbdba8","66577af73237019115442a50","2327","stimuli/1010111.jpg","2","","prediction_trial","1","","false","","1","false","false","false","true","false","false","[1]","010","111","0","","","","","","",""
"","","","","","image-keyboard-response","197","357435","0.0-172.0","5ec9cf3ed4642d4ebb802b42","665500ab8938657b03fbdba8","66577af73237019115442a50","567","stimuli/10101111.jpg"," ","","feedback_trial","1","","","","","","","","","","","","","","","","","","","","",""
"","","","","","image-keyboard-response","198","359512","0.0-173.0","5ec9cf3ed4642d4ebb802b42","665500ab8938657b03fbdba8","66577af73237019115442a50","2076","stimuli/1100001.jpg","1","","prediction_trial","1","","true","","1","true","true","true","true","true","true","[1]","100","001","1","","","","","","",""
"","","","","","image-keyboard-response","199","360011","0.0-174.0","5ec9cf3ed4642d4ebb802b42","665500ab8938657b03fbdba8","66577af73237019115442a50","497","stimuli/11000011.jpg"," ","","feedback_trial","1","","","","","","","","","","","","","","","","","","","","",""
"","","","","","image-keyboard-response","200","361331","0.0-175.0","5ec9cf3ed4642d4ebb802b42","665500ab8938657b03fbdba8","66577af73237019115442a50","1319","stimuli/2001010.jpg","2","","prediction_trial","2","","true","","2","true","true","false","true","false","true","[2]","001","010","1","","","","","","",""
"","","","","","image-keyboard-response","201","361771","0.0-176.0","5ec9cf3ed4642d4ebb802b42","665500ab8938657b03fbdba8","66577af73237019115442a50","439","stimuli/20010102.jpg"," ","","feedback_trial","2","","","","","","","","","","","","","","","","","","","","",""
"","","","","","image-keyboard-response","202","362787","0.0-177.0","5ec9cf3ed4642d4ebb802b42","665500ab8938657b03fbdba8","66577af73237019115442a50","1015","stimuli/2010110.jpg","2","","prediction_trial","2","","true","","2","true","true","true","true","true","true","[2]","010","110","1","","","","","","",""
"","","","","","image-keyboard-response","203","363283","0.0-178.0","5ec9cf3ed4642d4ebb802b42","665500ab8938657b03fbdba8","66577af73237019115442a50","494","stimuli/20101102.jpg"," ","","feedback_trial","2","","","","","","","","","","","","","","","","","","","","",""
"","","","","","image-keyboard-response","204","364666","0.0-179.0","5ec9cf3ed4642d4ebb802b42","665500ab8938657b03fbdba8","66577af73237019115442a50","1382","stimuli/0010100.jpg","0","","prediction_trial","0","","true","","0","false","true","true","true","false","true","[0]","010","100","1","","","","","","",""
"","","","","","image-keyboard-response","205","365163","0.0-180.0","5ec9cf3ed4642d4ebb802b42","665500ab8938657b03fbdba8","66577af73237019115442a50","495","stimuli/00101000.jpg"," ","","feedback_trial","0","","","","","","","","","","","","","","","","","","","","",""
"","","","","","image-keyboard-response","206","366267","0.0-181.0","5ec9cf3ed4642d4ebb802b42","665500ab8938657b03fbdba8","66577af73237019115442a50","1102","stimuli/2000011.jpg","2","","prediction_trial","2","","true","","2","false","false","true","true","false","false","[2]","000","011","1","","","","","","",""
"","","","","","image-keyboard-response","207","366748","0.0-182.0","5ec9cf3ed4642d4ebb802b42","665500ab8938657b03fbdba8","66577af73237019115442a50","478","stimuli/20000112.jpg"," ","","feedback_trial","2","","","","","","","","","","","","","","","","","","","","",""
"","","","","","image-keyboard-response","208","368348","0.0-183.0","5ec9cf3ed4642d4ebb802b42","665500ab8938657b03fbdba8","66577af73237019115442a50","1598","stimuli/0110010.jpg","0","","prediction_trial","1","","false","","0","true","true","false","false","false","false","[0,1]","110","010","0","","","","","","",""
"","","","","","image-keyboard-response","209","368860","0.0-184.0","5ec9cf3ed4642d4ebb802b42","665500ab8938657b03fbdba8","66577af73237019115442a50","510","stimuli/01100101.jpg"," ","","feedback_trial","0","","","","","","","","","","","","","","","","","","","","",""
"","","","","","image-keyboard-response","210","370441","0.0-185.0","5ec9cf3ed4642d4ebb802b42","665500ab8938657b03fbdba8","66577af73237019115442a50","1579","stimuli/1010000.jpg","1","","prediction_trial","1","","true","","1","true","true","false","true","false","true","[1]","010","000","1","","","","","","",""
"","","","","","image-keyboard-response","211","370972","0.0-186.0","5ec9cf3ed4642d4ebb802b42","665500ab8938657b03fbdba8","66577af73237019115442a50","530","stimuli/10100001.jpg"," ","","feedback_trial","1","","","","","","","","","","","","","","","","","","","","",""
"","","","","","image-keyboard-response","212","372580","0.0-187.0","5ec9cf3ed4642d4ebb802b42","665500ab8938657b03fbdba8","66577af73237019115442a50","1607","stimuli/0100110.jpg","1","","prediction_trial","0","","false","","0","false","false","false","true","false","false","[0]","100","110","0","","","","","","",""
"","","","","","image-keyboard-response","213","373116","0.0-188.0","5ec9cf3ed4642d4ebb802b42","665500ab8938657b03fbdba8","66577af73237019115442a50","535","stimuli/01001100.jpg"," ","","feedback_trial","0","","","","","","","","","","","","","","","","","","","","",""
"","","","","","image-keyboard-response","214","374084","0.0-189.0","5ec9cf3ed4642d4ebb802b42","665500ab8938657b03fbdba8","66577af73237019115442a50","966","stimuli/2110110.jpg","2","","prediction_trial","2","","true","","2","true","true","true","true","true","true","[2]","110","110","1","","","","","","",""
"","","","","","image-keyboard-response","215","374524","0.0-190.0","5ec9cf3ed4642d4ebb802b42","665500ab8938657b03fbdba8","66577af73237019115442a50","438","stimuli/21101102.jpg"," ","","feedback_trial","2","","","","","","","","","","","","","","","","","","","","",""
"","","","","","image-keyboard-response","216","376324","0.0-191.0","5ec9cf3ed4642d4ebb802b42","665500ab8938657b03fbdba8","66577af73237019115442a50","1798","stimuli/0011111.jpg","1","","prediction_trial","0","","false","","0","false","false","true","true","false","false","[0]","011","111","0","","","","","","",""
"","","","","","image-keyboard-response","217","376828","0.0-192.0","5ec9cf3ed4642d4ebb802b42","665500ab8938657b03fbdba8","66577af73237019115442a50","502","stimuli/00111110.jpg"," ","","feedback_trial","0","","","","","","","","","","","","","","","","","","","","",""
"","","","","","image-keyboard-response","218","378148","0.0-193.0","5ec9cf3ed4642d4ebb802b42","665500ab8938657b03fbdba8","66577af73237019115442a50","1318","stimuli/2101101.jpg","0","","prediction_trial","0","","true","","2","false","false","false","false","false","false","[2,0]","101","101","1","","","","","","",""
"","","","","","image-keyboard-response","219","378836","0.0-194.0","5ec9cf3ed4642d4ebb802b42","665500ab8938657b03fbdba8","66577af73237019115442a50","686","stimuli/21011010.jpg"," ","","feedback_trial","2","","","","","","","","","","","","","","","","","","","","",""
"","","","","","image-keyboard-response","220","380140","0.0-195.0","5ec9cf3ed4642d4ebb802b42","665500ab8938657b03fbdba8","66577af73237019115442a50","1303","stimuli/2110111.jpg","2","","prediction_trial","2","","true","","2","false","false","true","true","false","false","[2]","110","111","1","","","","","","",""
"","","","","","image-keyboard-response","221","380665","0.0-196.0","5ec9cf3ed4642d4ebb802b42","665500ab8938657b03fbdba8","66577af73237019115442a50","523","stimuli/21101112.jpg"," ","","feedback_trial","2","","","","","","","","","","","","","","","","","","","","",""
"","","","","","image-keyboard-response","222","382196","0.0-197.0","5ec9cf3ed4642d4ebb802b42","665500ab8938657b03fbdba8","66577af73237019115442a50","1530","stimuli/2001101.jpg","0","","prediction_trial","2","","false","","2","false","false","false","true","false","false","[2]","001","101","0","","","","","","",""
"","","","","","image-keyboard-response","223","382836","0.0-198.0","5ec9cf3ed4642d4ebb802b42","665500ab8938657b03fbdba8","66577af73237019115442a50","639","stimuli/20011012.jpg"," ","","feedback_trial","2","","","","","","","","","","","","","","","","","","","","",""
"","","","","","image-keyboard-response","224","383900","0.0-199.0","5ec9cf3ed4642d4ebb802b42","665500ab8938657b03fbdba8","66577af73237019115442a50","1063","stimuli/1011011.jpg","1","","prediction_trial","2","","false","","1","false","false","false","false","false","false","[1,2]","011","011","0","","","","","","",""
"","","","","","image-keyboard-response","225","384492","0.0-200.0","5ec9cf3ed4642d4ebb802b42","665500ab8938657b03fbdba8","66577af73237019115442a50","590","stimuli/10110112.jpg"," ","","feedback_trial","1","","","","","","","","","","","","","","","","","","","","",""
"","","","","","image-keyboard-response","226","386852","0.0-201.0","5ec9cf3ed4642d4ebb802b42","665500ab8938657b03fbdba8","66577af73237019115442a50","2359","stimuli/1011111.jpg","0","","prediction_trial","2","","false","","1","false","false","false","false","false","false","[1,2]","011","111","0","","","","","","",""
"","","","","","image-keyboard-response","227","387436","0.0-202.0","5ec9cf3ed4642d4ebb802b42","665500ab8938657b03fbdba8","66577af73237019115442a50","582","stimuli/10111112.jpg"," ","","feedback_trial","1","","","","","","","","","","","","","","","","","","","","",""
"","","","","","image-keyboard-response","228","389453","0.0-203.0","5ec9cf3ed4642d4ebb802b42","665500ab8938657b03fbdba8","66577af73237019115442a50","2015","stimuli/1011010.jpg","1","","prediction_trial","1","","true","","1","false","true","false","false","false","false","[2,1]","011","010","1","","","","","","",""
"","","","","","image-keyboard-response","229","389996","0.0-204.0","5ec9cf3ed4642d4ebb802b42","665500ab8938657b03fbdba8","66577af73237019115442a50","542","stimuli/10110101.jpg"," ","","feedback_trial","2","","","","","","","","","","","","","","","","","","","","",""
"","","","","","image-keyboard-response","230","390915","0.0-205.0","5ec9cf3ed4642d4ebb802b42","665500ab8938657b03fbdba8","66577af73237019115442a50","917","stimuli/1111110.jpg","1","","prediction_trial","2","","false","","1","false","false","false","false","false","false","[0,2,1]","111","110","0","","","","","","",""
"","","","","","image-keyboard-response","231","391517","0.0-206.0","5ec9cf3ed4642d4ebb802b42","665500ab8938657b03fbdba8","66577af73237019115442a50","599","stimuli/11111102.jpg"," ","","feedback_trial","0","","","","","","","","","","","","","","","","","","","","",""
"","","","","","image-keyboard-response","232","392461","0.0-207.0","5ec9cf3ed4642d4ebb802b42","665500ab8938657b03fbdba8","66577af73237019115442a50","942","stimuli/1010101.jpg","1","","prediction_trial","1","","true","","1","true","true","false","true","false","true","[1]","010","101","1","","","","","","",""
"","","","","","image-keyboard-response","233","392940","0.0-208.0","5ec9cf3ed4642d4ebb802b42","665500ab8938657b03fbdba8","66577af73237019115442a50","478","stimuli/10101011.jpg"," ","","feedback_trial","1","","","","","","","","","","","","","","","","","","","","",""
"","","","","","image-keyboard-response","234","394053","0.0-209.0","5ec9cf3ed4642d4ebb802b42","665500ab8938657b03fbdba8","66577af73237019115442a50","1111","stimuli/2010010.jpg","2","","prediction_trial","2","","true","","2","true","true","true","true","true","true","[2]","010","010","1","","","","","","",""
"","","","","","image-keyboard-response","235","394589","0.0-210.0","5ec9cf3ed4642d4ebb802b42","665500ab8938657b03fbdba8","66577af73237019115442a50","534","stimuli/20100102.jpg"," ","","feedback_trial","2","","","","","","","","","","","","","","","","","","","","",""
"","","","","","image-keyboard-response","236","395661","0.0-211.0","5ec9cf3ed4642d4ebb802b42","665500ab8938657b03fbdba8","66577af73237019115442a50","1071","stimuli/2111100.jpg","2","","prediction_trial","0","","false","","2","true","true","false","false","false","false","[0,1,2]","111","100","0","","","","","","",""
"","","","","","image-keyboard-response","237","396309","0.0-212.0","5ec9cf3ed4642d4ebb802b42","665500ab8938657b03fbdba8","66577af73237019115442a50","646","stimuli/21111000.jpg"," ","","feedback_trial","0","","","","","","","","","","","","","","","","","","","","",""
"","","","","","image-keyboard-response","238","398141","0.0-213.0","5ec9cf3ed4642d4ebb802b42","665500ab8938657b03fbdba8","66577af73237019115442a50","1831","stimuli/1110011.jpg","2","","prediction_trial","1","","false","","1","false","false","false","false","false","false","[0,1]","110","011","0","","","","","","",""
"","","","","","image-keyboard-response","239","398685","0.0-214.0","5ec9cf3ed4642d4ebb802b42","665500ab8938657b03fbdba8","66577af73237019115442a50","542","stimuli/11100111.jpg"," ","","feedback_trial","0","","","","","","","","","","","","","","","","","","","","",""
"","","","","","image-keyboard-response","240","399861","0.0-215.0","5ec9cf3ed4642d4ebb802b42","665500ab8938657b03fbdba8","66577af73237019115442a50","1175","stimuli/1101110.jpg","1","","prediction_trial","1","","true","","1","false","false","true","true","false","false","[1]","101","110","1","","","","","","",""
"","","","","","image-keyboard-response","241","400469","0.0-216.0","5ec9cf3ed4642d4ebb802b42","665500ab8938657b03fbdba8","66577af73237019115442a50","606","stimuli/11011101.jpg"," ","","feedback_trial","1","","","","","","","","","","","","","","","","","","","","",""
"","","","","","image-keyboard-response","242","401770","0.0-217.0","5ec9cf3ed4642d4ebb802b42","665500ab8938657b03fbdba8","66577af73237019115442a50","1300","stimuli/0101001.jpg","0","","prediction_trial","0","","true","","0","true","true","false","false","false","false","[2,0]","101","001","1","","","","","","",""
"","","","","","image-keyboard-response","243","402245","0.0-218.0","5ec9cf3ed4642d4ebb802b42","665500ab8938657b03fbdba8","66577af73237019115442a50","473","stimuli/01010010.jpg"," ","","feedback_trial","2","","","","","","","","","","","","","","","","","","","","",""
"","","","","","image-keyboard-response","244","403621","0.0-219.0","5ec9cf3ed4642d4ebb802b42","665500ab8938657b03fbdba8","66577af73237019115442a50","1374","stimuli/1111011.jpg","1","","prediction_trial","0","","false","","1","false","false","false","false","false","false","[2,1,0]","111","011","0","","","","","","",""
"","","","","","image-keyboard-response","245","404093","0.0-220.0","5ec9cf3ed4642d4ebb802b42","665500ab8938657b03fbdba8","66577af73237019115442a50","470","stimuli/11110110.jpg"," ","","feedback_trial","2","","","","","","","","","","","","","","","","","","","","",""
"","","","","","image-keyboard-response","246","404997","0.0-221.0","5ec9cf3ed4642d4ebb802b42","665500ab8938657b03fbdba8","66577af73237019115442a50","903","stimuli/0001110.jpg","1","","prediction_trial","0","","false","","0","false","false","true","true","false","false","[0]","001","110","0","","","","","","",""
"","","","","","image-keyboard-response","247","405485","0.0-222.0","5ec9cf3ed4642d4ebb802b42","665500ab8938657b03fbdba8","66577af73237019115442a50","486","stimuli/00011100.jpg"," ","","feedback_trial","0","","","","","","","","","","","","","","","","","","","","",""
"","","","","","image-keyboard-response","248","406573","0.0-223.0","5ec9cf3ed4642d4ebb802b42","665500ab8938657b03fbdba8","66577af73237019115442a50","1087","stimuli/0000011.jpg","0","","prediction_trial","0","","true","","0","true","true","true","true","true","true","[0]","000","011","1","","","","","","",""
"","","","","","image-keyboard-response","249","407053","0.0-224.0","5ec9cf3ed4642d4ebb802b42","665500ab8938657b03fbdba8","66577af73237019115442a50","478","stimuli/00000110.jpg"," ","","feedback_trial","0","","","","","","","","","","","","","","","","","","","","",""
"","","","","","image-keyboard-response","250","408149","0.0-225.0","5ec9cf3ed4642d4ebb802b42","665500ab8938657b03fbdba8","66577af73237019115442a50","1095","stimuli/0101010.jpg","0","","prediction_trial","0","","true","","0","true","true","false","false","false","false","[2,0]","101","010","1","","","","","","",""
"","","","","","image-keyboard-response","251","408605","0.0-226.0","5ec9cf3ed4642d4ebb802b42","665500ab8938657b03fbdba8","66577af73237019115442a50","454","stimuli/01010100.jpg"," ","","feedback_trial","2","","","","","","","","","","","","","","","","","","","","",""
"","","","","","image-keyboard-response","252","409981","0.0-227.0","5ec9cf3ed4642d4ebb802b42","665500ab8938657b03fbdba8","66577af73237019115442a50","1375","stimuli/2100111.jpg","1","","prediction_trial","2","","false","","2","false","false","true","true","false","false","[2]","100","111","0","","","","","","",""
"","","","","","image-keyboard-response","253","410517","0.0-228.0","5ec9cf3ed4642d4ebb802b42","665500ab8938657b03fbdba8","66577af73237019115442a50","534","stimuli/21001112.jpg"," ","","feedback_trial","2","","","","","","","","","","","","","","","","","","","","",""
"","","","","","image-keyboard-response","254","411613","0.0-229.0","5ec9cf3ed4642d4ebb802b42","665500ab8938657b03fbdba8","66577af73237019115442a50","1095","stimuli/1001110.jpg","0","","prediction_trial","1","","false","","1","false","false","true","true","false","false","[1]","001","110","0","","","","","","",""
"","","","","","image-keyboard-response","255","412138","0.0-230.0","5ec9cf3ed4642d4ebb802b42","665500ab8938657b03fbdba8","66577af73237019115442a50","523","stimuli/10011101.jpg"," ","","feedback_trial","1","","","","","","","","","","","","","","","","","","","","",""
"","","","","","image-keyboard-response","256","413270","0.0-231.0","5ec9cf3ed4642d4ebb802b42","665500ab8938657b03fbdba8","66577af73237019115442a50","1130","stimuli/0111011.jpg","0","","prediction_trial","2","","false","","0","true","true","false","false","false","false","[2,0,1]","111","011","0","","","","","","",""
"","","","","","image-keyboard-response","257","413893","0.0-232.0","5ec9cf3ed4642d4ebb802b42","665500ab8938657b03fbdba8","66577af73237019115442a50","622","stimuli/01110112.jpg"," ","","feedback_trial","2","","","","","","","","","","","","","","","","","","","","",""
"","","","","","image-keyboard-response","258","415293","0.0-233.0","5ec9cf3ed4642d4ebb802b42","665500ab8938657b03fbdba8","66577af73237019115442a50","1399","stimuli/2000001.jpg","2","","prediction_trial","2","","true","","2","false","true","true","true","false","true","[2]","000","001","1","","","","","","",""
"","","","","","image-keyboard-response","259","415901","0.0-234.0","5ec9cf3ed4642d4ebb802b42","665500ab8938657b03fbdba8","66577af73237019115442a50","607","stimuli/20000012.jpg"," ","","feedback_trial","2","","","","","","","","","","","","","","","","","","","","",""
"","","","","","image-keyboard-response","260","417013","0.0-235.0","5ec9cf3ed4642d4ebb802b42","665500ab8938657b03fbdba8","66577af73237019115442a50","1111","stimuli/0010011.jpg","0","","prediction_trial","0","","true","","0","true","true","true","true","true","true","[0]","010","011","1","","","","","","",""
"","","","","","image-keyboard-response","261","417469","0.0-236.0","5ec9cf3ed4642d4ebb802b42","665500ab8938657b03fbdba8","66577af73237019115442a50","454","stimuli/00100110.jpg"," ","","feedback_trial","0","","","","","","","","","","","","","","","","","","","","",""
"","","","","","image-keyboard-response","262","418237","0.0-237.0","5ec9cf3ed4642d4ebb802b42","665500ab8938657b03fbdba8","66577af73237019115442a50","767","stimuli/2100110.jpg","2","","prediction_trial","2","","true","","2","true","true","true","true","true","true","[2]","100","110","1","","","","","","",""
"","","","","","image-keyboard-response","263","418653","0.0-238.0","5ec9cf3ed4642d4ebb802b42","665500ab8938657b03fbdba8","66577af73237019115442a50","415","stimuli/21001102.jpg"," ","","feedback_trial","2","","","","","","","","","","","","","","","","","","","","",""
"","","","","","image-keyboard-response","264","419333","0.0-239.0","5ec9cf3ed4642d4ebb802b42","665500ab8938657b03fbdba8","66577af73237019115442a50","679","stimuli/0001001.jpg","0","","prediction_trial","0","","true","","0","true","true","true","true","true","true","[0]","001","001","1","","","","","","",""
"","","","","","image-keyboard-response","265","419933","0.0-240.0","5ec9cf3ed4642d4ebb802b42","665500ab8938657b03fbdba8","66577af73237019115442a50","599","stimuli/00010010.jpg"," ","","feedback_trial","0","","","","","","","","","","","","","","","","","","","","",""
"","","","","","image-keyboard-response","266","420845","0.0-241.0","5ec9cf3ed4642d4ebb802b42","665500ab8938657b03fbdba8","66577af73237019115442a50","911","stimuli/0011100.jpg","0","","prediction_trial","0","","true","","0","false","true","true","true","false","true","[0]","011","100","1","","","","","","",""
"","","","","","image-keyboard-response","267","421301","0.0-242.0","5ec9cf3ed4642d4ebb802b42","665500ab8938657b03fbdba8","66577af73237019115442a50","455","stimuli/00111000.jpg"," ","","feedback_trial","0","","","","","","","","","","","","","","","","","","","","",""
"","","","","","image-keyboard-response","268","422714","0.0-243.0","5ec9cf3ed4642d4ebb802b42","665500ab8938657b03fbdba8","66577af73237019115442a50","1411","stimuli/1011001.jpg","1","","prediction_trial","1","","true","","1","true","true","false","false","false","false","[1,2]","011","001","1","","","","","","",""
"","","","","","image-keyboard-response","269","423221","0.0-244.0","5ec9cf3ed4642d4ebb802b42","665500ab8938657b03fbdba8","66577af73237019115442a50","506","stimuli/10110011.jpg"," ","","feedback_trial","1","","","","","","","","","","","","","","","","","","","","",""
"","","","","","image-keyboard-response","270","424221","0.0-245.0","5ec9cf3ed4642d4ebb802b42","665500ab8938657b03fbdba8","66577af73237019115442a50","990","stimuli/2011011.jpg","1","","prediction_trial","1","","true","","2","false","false","false","false","false","false","[2,1]","011","011","1","","","","","","",""
"","","","","","image-keyboard-response","271","424862","0.0-246.0","5ec9cf3ed4642d4ebb802b42","665500ab8938657b03fbdba8","66577af73237019115442a50","638","stimuli/20110111.jpg"," ","","feedback_trial","2","","","","","","","","","","","","","","","","","","","","",""
"","","","","","image-keyboard-response","272","426598","0.0-247.0","5ec9cf3ed4642d4ebb802b42","665500ab8938657b03fbdba8","66577af73237019115442a50","1734","stimuli/0110011.jpg","0","","prediction_trial","1","","false","","0","true","true","false","false","false","false","[0,1]","110","011","0","","","","","","",""
"","","","","","image-keyboard-response","273","427357","0.0-248.0","5ec9cf3ed4642d4ebb802b42","665500ab8938657b03fbdba8","66577af73237019115442a50","758","stimuli/01100111.jpg"," ","","feedback_trial","0","","","","","","","","","","","","","","","","","","","","",""
"","","","","","image-keyboard-response","274","428350","0.0-249.0","5ec9cf3ed4642d4ebb802b42","665500ab8938657b03fbdba8","66577af73237019115442a50","991","stimuli/0011010.jpg","0","","prediction_trial","0","","true","","0","true","true","true","true","true","true","[0]","011","010","1","","","","","","",""
"","","","","","image-keyboard-response","275","428797","0.0-250.0","5ec9cf3ed4642d4ebb802b42","665500ab8938657b03fbdba8","66577af73237019115442a50","446","stimuli/00110100.jpg"," ","","feedback_trial","0","","","","","","","","","","","","","","","","","","","","",""
"","","","","","image-keyboard-response","276","429925","0.0-251.0","5ec9cf3ed4642d4ebb802b42","665500ab8938657b03fbdba8","66577af73237019115442a50","1127","stimuli/1110101.jpg","1","","prediction_trial","1","","true","","1","true","true","false","false","false","false","[0,1]","110","101","1","","","","","","",""
"","","","","","image-keyboard-response","277","430309","0.0-252.0","5ec9cf3ed4642d4ebb802b42","665500ab8938657b03fbdba8","66577af73237019115442a50","382","stimuli/11101011.jpg"," ","","feedback_trial","0","","","","","","","","","","","","","","","","","","","","",""
"","","","","","image-keyboard-response","278","431469","0.0-253.0","5ec9cf3ed4642d4ebb802b42","665500ab8938657b03fbdba8","66577af73237019115442a50","1158","stimuli/1111010.jpg","1","","prediction_trial","2","","false","","1","false","true","false","false","false","false","[1,2,0]","111","010","0","","","","","","",""
"","","","","","image-keyboard-response","279","432229","0.0-254.0","5ec9cf3ed4642d4ebb802b42","665500ab8938657b03fbdba8","66577af73237019115442a50","758","stimuli/11110102.jpg"," ","","feedback_trial","1","","","","","","","","","","","","","","","","","","","","",""
"","","","","","image-keyboard-response","280","433138","0.0-255.0","5ec9cf3ed4642d4ebb802b42","665500ab8938657b03fbdba8","66577af73237019115442a50","907","stimuli/2000100.jpg","2","","prediction_trial","2","","true","","2","true","true","true","true","true","true","[2]","000","100","1","","","","","","",""
"","","","","","image-keyboard-response","281","433621","0.0-256.0","5ec9cf3ed4642d4ebb802b42","665500ab8938657b03fbdba8","66577af73237019115442a50","482","stimuli/20001002.jpg"," ","","feedback_trial","2","","","","","","","","","","","","","","","","","","","","",""
"","","","","","image-keyboard-response","282","434590","0.0-257.0","5ec9cf3ed4642d4ebb802b42","665500ab8938657b03fbdba8","66577af73237019115442a50","967","stimuli/2110001.jpg","2","","prediction_trial","2","","true","","2","false","true","true","true","false","true","[2]","110","001","1","","","","","","",""
"","","","","","image-keyboard-response","283","435022","0.0-258.0","5ec9cf3ed4642d4ebb802b42","665500ab8938657b03fbdba8","66577af73237019115442a50","430","stimuli/21100012.jpg"," ","","feedback_trial","2","","","","","","","","","","","","","","","","","","","","",""
"","","","","","image-keyboard-response","284","435742","0.0-259.0","5ec9cf3ed4642d4ebb802b42","665500ab8938657b03fbdba8","66577af73237019115442a50","718","stimuli/2010000.jpg","2","","prediction_trial","2","","true","","2","true","true","true","true","true","true","[2]","010","000","1","","","","","","",""
"","","","","","image-keyboard-response","285","436133","0.0-260.0","5ec9cf3ed4642d4ebb802b42","665500ab8938657b03fbdba8","66577af73237019115442a50","390","stimuli/20100002.jpg"," ","","feedback_trial","2","","","","","","","","","","","","","","","","","","","","",""
"","","","","","image-keyboard-response","286","437822","0.0-261.0","5ec9cf3ed4642d4ebb802b42","665500ab8938657b03fbdba8","66577af73237019115442a50","1687","stimuli/1010100.jpg","1","","prediction_trial","1","","true","","1","true","true","false","true","false","true","[1]","010","100","1","","","","","","",""
"","","","","","image-keyboard-response","287","438261","0.0-262.0","5ec9cf3ed4642d4ebb802b42","665500ab8938657b03fbdba8","66577af73237019115442a50","438","stimuli/10101001.jpg"," ","","feedback_trial","1","","","","","","","","","","","","","","","","","","","","",""
"","","","","","image-keyboard-response","288","439822","0.0-263.0","5ec9cf3ed4642d4ebb802b42","665500ab8938657b03fbdba8","66577af73237019115442a50","1558","stimuli/2101001.jpg","2","","prediction_trial","0","","false","","2","false","true","false","false","false","false","[2,0]","101","001","0","","","","","","",""
"","","","","","image-keyboard-response","289","440446","0.0-264.0","5ec9cf3ed4642d4ebb802b42","665500ab8938657b03fbdba8","66577af73237019115442a50","623","stimuli/21010010.jpg"," ","","feedback_trial","2","","","","","","","","","","","","","","","","","","","","",""
"","","","","","image-keyboard-response","290","442070","0.0-265.0","5ec9cf3ed4642d4ebb802b42","665500ab8938657b03fbdba8","66577af73237019115442a50","1623","stimuli/2100001.jpg","2","","prediction_trial","2","","true","","2","false","true","true","true","false","true","[2]","100","001","1","","","","","","",""
"","","","","","image-keyboard-response","291","442662","0.0-266.0","5ec9cf3ed4642d4ebb802b42","665500ab8938657b03fbdba8","66577af73237019115442a50","590","stimuli/21000012.jpg"," ","","feedback_trial","2","","","","","","","","","","","","","","","","","","","","",""
"","","","","","image-keyboard-response","292","444219","0.0-267.0","5ec9cf3ed4642d4ebb802b42","665500ab8938657b03fbdba8","66577af73237019115442a50","1555","stimuli/1000111.jpg","1","","prediction_trial","1","","true","","1","false","false","true","true","false","false","[1]","000","111","1","","","","","","",""
"","","","","","image-keyboard-response","293","444822","0.0-268.0","5ec9cf3ed4642d4ebb802b42","665500ab8938657b03fbdba8","66577af73237019115442a50","602","stimuli/10001111.jpg"," ","","feedback_trial","1","","","","","","","","","","","","","","","","","","","","",""
"","","","","","image-keyboard-response","294","445598","0.0-269.0","5ec9cf3ed4642d4ebb802b42","665500ab8938657b03fbdba8","66577af73237019115442a50","775","stimuli/2100100.jpg","2","","prediction_trial","2","","true","","2","true","true","true","true","true","true","[2]","100","100","1","","","","","","",""
"","","","","","image-keyboard-response","295","446030","0.0-270.0","5ec9cf3ed4642d4ebb802b42","665500ab8938657b03fbdba8","66577af73237019115442a50","430","stimuli/21001002.jpg"," ","","feedback_trial","2","","","","","","","","","","","","","","","","","","","","",""
"","","","","","image-keyboard-response","296","447038","0.0-271.0","5ec9cf3ed4642d4ebb802b42","665500ab8938657b03fbdba8","66577af73237019115442a50","1007","stimuli/2111001.jpg","2","","prediction_trial","2","","true","","2","false","true","false","false","false","false","[2,0,1]","111","001","1","","","","","","",""
"","","","","","image-keyboard-response","297","447742","0.0-272.0","5ec9cf3ed4642d4ebb802b42","665500ab8938657b03fbdba8","66577af73237019115442a50","702","stimuli/21110012.jpg"," ","","feedback_trial","2","","","","","","","","","","","","","","","","","","","","",""
"","","","","","image-keyboard-response","298","448662","0.0-273.0","5ec9cf3ed4642d4ebb802b42","665500ab8938657b03fbdba8","66577af73237019115442a50","919","stimuli/1101010.jpg","1","","prediction_trial","1","","true","","1","false","true","true","true","false","true","[1]","101","010","1","","","","","","",""
"","","","","","image-keyboard-response","299","449294","0.0-274.0","5ec9cf3ed4642d4ebb802b42","665500ab8938657b03fbdba8","66577af73237019115442a50","630","stimuli/11010101.jpg"," ","","feedback_trial","1","","","","","","","","","","","","","","","","","","","","",""
"","","","","","image-keyboard-response","300","450318","0.0-275.0","5ec9cf3ed4642d4ebb802b42","665500ab8938657b03fbdba8","66577af73237019115442a50","1023","stimuli/1111100.jpg","1","","prediction_trial","0","","false","","1","true","true","false","false","false","false","[1,0,2]","111","100","0","","","","","","",""
"","","","","","image-keyboard-response","301","450870","0.0-276.0","5ec9cf3ed4642d4ebb802b42","665500ab8938657b03fbdba8","66577af73237019115442a50","551","stimuli/11111000.jpg"," ","","feedback_trial","1","","","","","","","","","","","","","","","","","","","","",""
"","","","","","image-keyboard-response","302","452342","0.0-277.0","5ec9cf3ed4642d4ebb802b42","665500ab8938657b03fbdba8","66577af73237019115442a50","1471","stimuli/2101000.jpg","2","","prediction_trial","2","","true","","2","true","true","false","false","false","false","[0,2]","101","000","1","","","","","","",""
"","","","","","image-keyboard-response","303","452734","0.0-278.0","5ec9cf3ed4642d4ebb802b42","665500ab8938657b03fbdba8","66577af73237019115442a50","390","stimuli/21010002.jpg"," ","","feedback_trial","0","","","","","","","","","","","","","","","","","","","","",""
"","","","","","image-keyboard-response","304","453598","0.0-279.0","5ec9cf3ed4642d4ebb802b42","665500ab8938657b03fbdba8","66577af73237019115442a50","863","stimuli/1001000.jpg","1","","prediction_trial","1","","true","","1","true","true","true","true","true","true","[1]","001","000","1","","","","","","",""
"","","","","","image-keyboard-response","305","454046","0.0-280.0","5ec9cf3ed4642d4ebb802b42","665500ab8938657b03fbdba8","66577af73237019115442a50","447","stimuli/10010001.jpg"," ","","feedback_trial","1","","","","","","","","","","","","","","","","","","","","",""
"","","","","","image-keyboard-response","306","455043","0.0-281.0","5ec9cf3ed4642d4ebb802b42","665500ab8938657b03fbdba8","66577af73237019115442a50","995","stimuli/1001100.jpg","1","","prediction_trial","1","","true","","1","true","true","true","true","true","true","[1]","001","100","1","","","","","","",""
"","","","","","image-keyboard-response","307","455526","0.0-282.0","5ec9cf3ed4642d4ebb802b42","665500ab8938657b03fbdba8","66577af73237019115442a50","482","stimuli/10011001.jpg"," ","","feedback_trial","1","","","","","","","","","","","","","","","","","","","","",""
"","","","","","image-keyboard-response","308","456790","0.0-283.0","5ec9cf3ed4642d4ebb802b42","665500ab8938657b03fbdba8","66577af73237019115442a50","1263","stimuli/0101100.jpg","0","","prediction_trial","2","","false","","0","false","true","false","false","false","false","[2,0]","101","100","0","","","","","","",""
"","","","","","image-keyboard-response","309","457486","0.0-284.0","5ec9cf3ed4642d4ebb802b42","665500ab8938657b03fbdba8","66577af73237019115442a50","694","stimuli/01011002.jpg"," ","","feedback_trial","2","","","","","","","","","","","","","","","","","","","","",""
"","","","","","image-keyboard-response","310","459254","0.0-285.0","5ec9cf3ed4642d4ebb802b42","665500ab8938657b03fbdba8","66577af73237019115442a50","1767","stimuli/2101111.jpg","1","","prediction_trial","0","","false","","2","false","false","false","false","false","false","[0,2]","101","111","0","","","","","","",""
"","","","","","image-keyboard-response","311","459838","0.0-286.0","5ec9cf3ed4642d4ebb802b42","665500ab8938657b03fbdba8","66577af73237019115442a50","582","stimuli/21011110.jpg"," ","","feedback_trial","0","","","","","","","","","","","","","","","","","","","","",""
"","","","","","image-keyboard-response","312","460638","0.0-287.0","5ec9cf3ed4642d4ebb802b42","665500ab8938657b03fbdba8","66577af73237019115442a50","799","stimuli/2110100.jpg","2","","prediction_trial","2","","true","","2","true","true","true","true","true","true","[2]","110","100","1","","","","","","",""
"","","","","","image-keyboard-response","313","461070","0.0-288.0","5ec9cf3ed4642d4ebb802b42","665500ab8938657b03fbdba8","66577af73237019115442a50","430","stimuli/21101002.jpg"," ","","feedback_trial","2","","","","","","","","","","","","","","","","","","","","",""
"","","","","","image-keyboard-response","314","462054","0.0-289.0","5ec9cf3ed4642d4ebb802b42","665500ab8938657b03fbdba8","66577af73237019115442a50","983","stimuli/0111000.jpg","0","","prediction_trial","1","","false","","0","true","true","false","false","false","false","[1,2,0]","111","000","0","","","","","","",""
"","","","","","image-keyboard-response","315","462534","0.0-290.0","5ec9cf3ed4642d4ebb802b42","665500ab8938657b03fbdba8","66577af73237019115442a50","479","stimuli/01110001.jpg"," ","","feedback_trial","1","","","","","","","","","","","","","","","","","","","","",""
"","","","","","image-keyboard-response","316","463254","0.0-291.0","5ec9cf3ed4642d4ebb802b42","665500ab8938657b03fbdba8","66577af73237019115442a50","719","stimuli/0010000.jpg","0","","prediction_trial","0","","true","","0","true","true","true","true","true","true","[0]","010","000","1","","","","","","",""
"","","","","","image-keyboard-response","317","463582","0.0-292.0","5ec9cf3ed4642d4ebb802b42","665500ab8938657b03fbdba8","66577af73237019115442a50","327","stimuli/00100000.jpg"," ","","feedback_trial","0","","","","","","","","","","","","","","","","","","","","",""
"","","","","","survey-html-form","318","500121","0.0-293.0","5ec9cf3ed4642d4ebb802b42","665500ab8938657b03fbdba8","66577af73237019115442a50","36536","","{""feedback"":""What was hidden or visible"",""age"":""56"",""gender"":""Male"",""other_gender"":"""",""race"":""White"",""other_race"":"""",""ethnicity"":""Non-Hispanic""}","","exit_survey","","","","","","","","","","","","","","","","What was hidden or visible","56","Non-Hispanic","Male","White","0.6527777777777778","0.6527777777777778"
