"success","timeout","failed_images","failed_audio","failed_video","trial_type","trial_index","time_elapsed","internal_node_id","prolific_id","prolific_study_id","prolific_session_id","rt","stimulus","response","view_history","trial","character_choice","stimulus_dict","accuracy","correct_response","ball_pos","ego_ball_visible","ego_can_infer","alter_ball_visible","alter_can_infer","collective_ball_visible","collective_can_infer","search_locations","alter_occluders","ego_occluders","accuracy_bool","feedback","age","ethnicity","gender","race","overall_accuracy","bonus"
"true","false","[]","[]","[]","preload","0","3514","0.0-0.0","5e8b9c7054a5cc07dd6e174d","665500ab8938657b03fbdba8","6657923eb651b453ebb03e3c","","","","","","","","","","","","","","","","","","","","","","","","","","",""
"true","","","","","fullscreen","1","6654","0.0-1.0","5e8b9c7054a5cc07dd6e174d","665500ab8938657b03fbdba8","6657923eb651b453ebb03e3c","","","","","","","","","","","","","","","","","","","","","","","","","","",""
"","","","","","html-button-response","2","10392","0.0-2.0","5e8b9c7054a5cc07dd6e174d","665500ab8938657b03fbdba8","6657923eb651b453ebb03e3c","3736","<p><b>Consent Form</b></p> <div style=""text-align:left;background-color:lightgrey; padding:20px; max-width:900px;""><p>Please consider this information carefully before deciding whether to participate in this research.</p> <p>The purpose of this research is to examine which factors influence social judgment and decision-making. You will be asked to make judgements about individuals and actions in social scenarios. We are simply interested in your judgement. The study will take less than 1 hour to complete, and you will receive less than $20 on Prolific. Your compensation and time commitment are specified in the study description. There are no anticipated risks associated with participating in this study. The effects of participating should be comparable to those you would ordinarily experience from viewing a computer monitor and using a mouse or keyboard for a similar amount of time. At the end of the study, we will provide an explanation of the questions that motivate this line of research and will describe the potential implications. </p><p> Your participation in this study is completely voluntary and you may refuse to participate or you may choose to withdraw at any time without penalty or loss of benefits to you which are otherwise entitled. Your participation in this study will remain confidential. No personally identifiable information will be associated with your data. Also, all analyses of the data will be averaged across all the participants, so your individual responses will never be specifically analyzed. </p><p> If you have questions or concerns about your participation or payment, or want to request a summary of research findings, please contact Dr. Jonathan Phillips at Jonathan.S.Phillips@dartmouth.edu. </p><p> Please save a copy of this form for your records. </p><p><b>Agreement: </b>The nature and purpose of this research have been sufficiently explained and I agree to participate in this study. I understand that I am free to withdraw at any time without incurring any penalty. Please consent by clicking the button below to continue. Otherwise, please exit the study at any time. </p>","0","","","","","","","","","","","","","","","","","","","","","","","",""
"","","","","","instructions","3","93818","0.0-3.0-0.0","5e8b9c7054a5cc07dd6e174d","665500ab8938657b03fbdba8","6657923eb651b453ebb03e3c","83426","","","[{""page_index"":0,""viewing_time"":3012},{""page_index"":1,""viewing_time"":2749},{""page_index"":2,""viewing_time"":2785},{""page_index"":3,""viewing_time"":4883},{""page_index"":4,""viewing_time"":3882},{""page_index"":5,""viewing_time"":4765},{""page_index"":6,""viewing_time"":7148},{""page_index"":7,""viewing_time"":5048},{""page_index"":8,""viewing_time"":3667},{""page_index"":9,""viewing_time"":2881},{""page_index"":10,""viewing_time"":22444},{""page_index"":11,""viewing_time"":12099},{""page_index"":12,""viewing_time"":6498},{""page_index"":13,""viewing_time"":1565}]","intro","","","","","","","","","","","","","","","","","","","","","",""
"","","","","","image-keyboard-response","4","97744","0.0-3.0-1.0","5e8b9c7054a5cc07dd6e174d","665500ab8938657b03fbdba8","6657923eb651b453ebb03e3c","3923","stimuli/0011111.jpg","1","","prediction_practice","0","{""filepath"":""stimuli/0011111.jpg"",""ball_pos"":0,""ego_ball_visible"":false,""ego_can_infer"":false,""alter_ball_visible"":true,""alter_can_infer"":true,""collective_ball_visible"":false,""collective_can_infer"":false,""search_locations"":[0],""alter_occluders"":""011"",""ego_occluders"":""111""}","false","","","","","","","","","","","","","","","","","","",""
"","","","","","image-keyboard-response","5","100202","0.0-3.0-2.0","5e8b9c7054a5cc07dd6e174d","665500ab8938657b03fbdba8","6657923eb651b453ebb03e3c","2458","stimuli/00111110.jpg"," ","","practrice_feedback","0","","","","","","","","","","","","","","","","","","","","",""
"","","","","","image-keyboard-response","6","103096","0.0-3.0-3.0","5e8b9c7054a5cc07dd6e174d","665500ab8938657b03fbdba8","6657923eb651b453ebb03e3c","2893","stimuli/1100111.jpg","1","","prediction_practice","1","{""filepath"":""stimuli/1100111.jpg"",""ball_pos"":1,""ego_ball_visible"":false,""ego_can_infer"":false,""alter_ball_visible"":true,""alter_can_infer"":true,""collective_ball_visible"":false,""collective_can_infer"":false,""search_locations"":[1],""alter_occluders"":""100"",""ego_occluders"":""111""}","true","","","","","","","","","","","","","","","","","","",""
"","","","","","image-keyboard-response","7","105086","0.0-3.0-4.0","5e8b9c7054a5cc07dd6e174d","665500ab8938657b03fbdba8","6657923eb651b453ebb03e3c","1990","stimuli/11001111.jpg"," ","","practrice_feedback","1","","","","","","","","","","","","","","","","","","","","",""
"","","","","","image-keyboard-response","8","110950","0.0-3.0-5.0","5e8b9c7054a5cc07dd6e174d","665500ab8938657b03fbdba8","6657923eb651b453ebb03e3c","5861","stimuli/1010001.jpg","1","","prediction_practice","1","{""filepath"":""stimuli/1010001.jpg"",""ball_pos"":1,""ego_ball_visible"":true,""ego_can_infer"":true,""alter_ball_visible"":false,""alter_can_infer"":true,""collective_ball_visible"":false,""collective_can_infer"":true,""search_locations"":[1],""alter_occluders"":""010"",""ego_occluders"":""001""}","true","","","","","","","","","","","","","","","","","","",""
"","","","","","image-keyboard-response","9","112388","0.0-3.0-6.0","5e8b9c7054a5cc07dd6e174d","665500ab8938657b03fbdba8","6657923eb651b453ebb03e3c","1437","stimuli/10100011.jpg"," ","","practrice_feedback","1","","","","","","","","","","","","","","","","","","","","",""
"","","","","","image-keyboard-response","10","114332","0.0-3.0-7.0","5e8b9c7054a5cc07dd6e174d","665500ab8938657b03fbdba8","6657923eb651b453ebb03e3c","1943","stimuli/1000101.jpg","1","","prediction_practice","1","{""filepath"":""stimuli/1000101.jpg"",""ball_pos"":1,""ego_ball_visible"":true,""ego_can_infer"":true,""alter_ball_visible"":true,""alter_can_infer"":true,""collective_ball_visible"":true,""collective_can_infer"":true,""search_locations"":[1],""alter_occluders"":""000"",""ego_occluders"":""101""}","true","","","","","","","","","","","","","","","","","","",""
"","","","","","image-keyboard-response","11","115503","0.0-3.0-8.0","5e8b9c7054a5cc07dd6e174d","665500ab8938657b03fbdba8","6657923eb651b453ebb03e3c","1170","stimuli/10001011.jpg"," ","","practrice_feedback","1","","","","","","","","","","","","","","","","","","","","",""
"","","","","","image-keyboard-response","12","121387","0.0-3.0-9.0","5e8b9c7054a5cc07dd6e174d","665500ab8938657b03fbdba8","6657923eb651b453ebb03e3c","5888","stimuli/2001110.jpg","2","","prediction_practice","2","{""filepath"":""stimuli/2001110.jpg"",""ball_pos"":2,""ego_ball_visible"":true,""ego_can_infer"":true,""alter_ball_visible"":false,""alter_can_infer"":true,""collective_ball_visible"":false,""collective_can_infer"":true,""search_locations"":[2],""alter_occluders"":""001"",""ego_occluders"":""110""}","true","","","","","","","","","","","","","","","","","","",""
"","","","","","image-keyboard-response","13","123032","0.0-3.0-10.0","5e8b9c7054a5cc07dd6e174d","665500ab8938657b03fbdba8","6657923eb651b453ebb03e3c","1644","stimuli/20011102.jpg"," ","","practrice_feedback","2","","","","","","","","","","","","","","","","","","","","",""
"","","","","","image-keyboard-response","14","125512","0.0-3.0-11.0","5e8b9c7054a5cc07dd6e174d","665500ab8938657b03fbdba8","6657923eb651b453ebb03e3c","2480","stimuli/2001001.jpg","2","","prediction_practice","2","{""filepath"":""stimuli/2001001.jpg"",""ball_pos"":2,""ego_ball_visible"":false,""ego_can_infer"":true,""alter_ball_visible"":false,""alter_can_infer"":true,""collective_ball_visible"":false,""collective_can_infer"":true,""search_locations"":[2],""alter_occluders"":""001"",""ego_occluders"":""001""}","true","","","","","","","","","","","","","","","","","","",""
"","","","","","image-keyboard-response","15","126704","0.0-3.0-12.0","5e8b9c7054a5cc07dd6e174d","665500ab8938657b03fbdba8","6657923eb651b453ebb03e3c","1191","stimuli/20010012.jpg"," ","","practrice_feedback","2","","","","","","","","","","","","","","","","","","","","",""
"","","","","","image-keyboard-response","16","130839","0.0-3.0-13.0","5e8b9c7054a5cc07dd6e174d","665500ab8938657b03fbdba8","6657923eb651b453ebb03e3c","4134","stimuli/2101000.jpg","0","","prediction_practice","0","{""filepath"":""stimuli/2101000.jpg"",""ball_pos"":2,""ego_ball_visible"":true,""ego_can_infer"":true,""alter_ball_visible"":false,""alter_can_infer"":false,""collective_ball_visible"":false,""collective_can_infer"":false,""search_locations"":[2,0],""alter_occluders"":""101"",""ego_occluders"":""000""}","true","","","","","","","","","","","","","","","","","","",""
"","","","","","image-keyboard-response","17","132140","0.0-3.0-14.0","5e8b9c7054a5cc07dd6e174d","665500ab8938657b03fbdba8","6657923eb651b453ebb03e3c","1300","stimuli/21010000.jpg"," ","","practrice_feedback","2","","","","","","","","","","","","","","","","","","","","",""
"","","","","","image-keyboard-response","18","140473","0.0-3.0-15.0","5e8b9c7054a5cc07dd6e174d","665500ab8938657b03fbdba8","6657923eb651b453ebb03e3c","8333","stimuli/2110111.jpg","1","","prediction_practice","2","{""filepath"":""stimuli/2110111.jpg"",""ball_pos"":2,""ego_ball_visible"":false,""ego_can_infer"":false,""alter_ball_visible"":true,""alter_can_infer"":true,""collective_ball_visible"":false,""collective_can_infer"":false,""search_locations"":[2],""alter_occluders"":""110"",""ego_occluders"":""111""}","false","","","","","","","","","","","","","","","","","","",""
"","","","","","image-keyboard-response","19","143001","0.0-3.0-16.0","5e8b9c7054a5cc07dd6e174d","665500ab8938657b03fbdba8","6657923eb651b453ebb03e3c","2527","stimuli/21101112.jpg"," ","","practrice_feedback","2","","","","","","","","","","","","","","","","","","","","",""
"","","","","","image-keyboard-response","20","146946","0.0-3.0-17.0","5e8b9c7054a5cc07dd6e174d","665500ab8938657b03fbdba8","6657923eb651b453ebb03e3c","3944","stimuli/0110100.jpg","1","","prediction_practice","0","{""filepath"":""stimuli/0110100.jpg"",""ball_pos"":0,""ego_ball_visible"":false,""ego_can_infer"":true,""alter_ball_visible"":false,""alter_can_infer"":false,""collective_ball_visible"":false,""collective_can_infer"":false,""search_locations"":[1,0],""alter_occluders"":""110"",""ego_occluders"":""100""}","false","","","","","","","","","","","","","","","","","","",""
"","","","","","image-keyboard-response","21","148215","0.0-3.0-18.0","5e8b9c7054a5cc07dd6e174d","665500ab8938657b03fbdba8","6657923eb651b453ebb03e3c","1268","stimuli/01101000.jpg"," ","","practrice_feedback","1","","","","","","","","","","","","","","","","","","","","",""
"","","","","","image-keyboard-response","22","150657","0.0-3.0-19.0","5e8b9c7054a5cc07dd6e174d","665500ab8938657b03fbdba8","6657923eb651b453ebb03e3c","2442","stimuli/2111000.jpg","2","","prediction_practice","2","{""filepath"":""stimuli/2111000.jpg"",""ball_pos"":2,""ego_ball_visible"":true,""ego_can_infer"":true,""alter_ball_visible"":false,""alter_can_infer"":false,""collective_ball_visible"":false,""collective_can_infer"":false,""search_locations"":[2,1,0],""alter_occluders"":""111"",""ego_occluders"":""000""}","true","","","","","","","","","","","","","","","","","","",""
"","","","","","image-keyboard-response","23","152198","0.0-3.0-20.0","5e8b9c7054a5cc07dd6e174d","665500ab8938657b03fbdba8","6657923eb651b453ebb03e3c","1540","stimuli/21110002.jpg"," ","","practrice_feedback","2","","","","","","","","","","","","","","","","","","","","",""
"","","","","","html-button-response","24","160915","0.0-3.0-21.0","5e8b9c7054a5cc07dd6e174d","665500ab8938657b03fbdba8","6657923eb651b453ebb03e3c","8717","Now that you've had some practice, you'll be tested with a couple of easy trials. If you correctly predict Sam's choice, you'll move on to complete the experiment!","0","","","","","","","","","","","","","","","","","","","","","","","",""
"","","","","","image-keyboard-response","25","162805","0.0-3.0-22.0-0.0","5e8b9c7054a5cc07dd6e174d","665500ab8938657b03fbdba8","6657923eb651b453ebb03e3c","1889","stimuli/0000011.jpg","arrowleft","","comprehension_quiz","","","true","arrowleft","","","","","","","","","","","","","","","","","",""
"","","","","","image-keyboard-response","26","164358","0.0-3.0-22.0-1.0","5e8b9c7054a5cc07dd6e174d","665500ab8938657b03fbdba8","6657923eb651b453ebb03e3c","1553","stimuli/00000110.jpg"," ","","comprehension_quiz","","","true"," ","","","","","","","","","","","","","","","","","",""
"","","","","","image-keyboard-response","27","166494","0.0-3.0-22.0-2.0","5e8b9c7054a5cc07dd6e174d","665500ab8938657b03fbdba8","6657923eb651b453ebb03e3c","2135","stimuli/1010010.jpg","arrowdown","","comprehension_quiz","","","true","arrowdown","","","","","","","","","","","","","","","","","",""
"","","","","","image-keyboard-response","28","167467","0.0-3.0-22.0-3.0","5e8b9c7054a5cc07dd6e174d","665500ab8938657b03fbdba8","6657923eb651b453ebb03e3c","972","stimuli/10100101.jpg"," ","","comprehension_quiz","","","true"," ","","","","","","","","","","","","","","","","","",""
"","","","","","html-button-response","29","171862","0.0-4.0","5e8b9c7054a5cc07dd6e174d","665500ab8938657b03fbdba8","6657923eb651b453ebb03e3c","4392","The experiment will now begin.","0","","","","","","","","","","","","","","","","","","","","","","","",""
"","","","","","image-keyboard-response","30","173617","0.0-5.0","5e8b9c7054a5cc07dd6e174d","665500ab8938657b03fbdba8","6657923eb651b453ebb03e3c","1754","stimuli/1000000.jpg","1","","prediction_trial","1","","true","","1","true","true","true","true","true","true","[1]","000","000","1","","","","","","",""
"","","","","","image-keyboard-response","31","176460","0.0-6.0","5e8b9c7054a5cc07dd6e174d","665500ab8938657b03fbdba8","6657923eb651b453ebb03e3c","2843","stimuli/10000001.jpg"," ","","feedback_trial","1","","","","","","","","","","","","","","","","","","","","",""
"","","","","","image-keyboard-response","32","179380","0.0-7.0","5e8b9c7054a5cc07dd6e174d","665500ab8938657b03fbdba8","6657923eb651b453ebb03e3c","2918","stimuli/2000001.jpg","2","","prediction_trial","2","","true","","2","false","true","true","true","false","true","[2]","000","001","1","","","","","","",""
"","","","","","image-keyboard-response","33","180763","0.0-8.0","5e8b9c7054a5cc07dd6e174d","665500ab8938657b03fbdba8","6657923eb651b453ebb03e3c","1382","stimuli/20000012.jpg"," ","","feedback_trial","2","","","","","","","","","","","","","","","","","","","","",""
"","","","","","image-keyboard-response","34","185717","0.0-9.0","5e8b9c7054a5cc07dd6e174d","665500ab8938657b03fbdba8","6657923eb651b453ebb03e3c","4952","stimuli/0010101.jpg","0","","prediction_trial","0","","true","","0","false","false","true","true","false","false","[0]","010","101","1","","","","","","",""
"","","","","","image-keyboard-response","35","187136","0.0-10.0","5e8b9c7054a5cc07dd6e174d","665500ab8938657b03fbdba8","6657923eb651b453ebb03e3c","1418","stimuli/00101010.jpg"," ","","feedback_trial","0","","","","","","","","","","","","","","","","","","","","",""
"","","","","","image-keyboard-response","36","189331","0.0-11.0","5e8b9c7054a5cc07dd6e174d","665500ab8938657b03fbdba8","6657923eb651b453ebb03e3c","2194","stimuli/0001110.jpg","1","","prediction_trial","0","","false","","0","false","false","true","true","false","false","[0]","001","110","0","","","","","","",""
"","","","","","image-keyboard-response","37","190704","0.0-12.0","5e8b9c7054a5cc07dd6e174d","665500ab8938657b03fbdba8","6657923eb651b453ebb03e3c","1373","stimuli/00011100.jpg"," ","","feedback_trial","0","","","","","","","","","","","","","","","","","","","","",""
"","","","","","image-keyboard-response","38","193050","0.0-13.0","5e8b9c7054a5cc07dd6e174d","665500ab8938657b03fbdba8","6657923eb651b453ebb03e3c","2345","stimuli/0010011.jpg","0","","prediction_trial","0","","true","","0","true","true","true","true","true","true","[0]","010","011","1","","","","","","",""
"","","","","","image-keyboard-response","39","194168","0.0-14.0","5e8b9c7054a5cc07dd6e174d","665500ab8938657b03fbdba8","6657923eb651b453ebb03e3c","1117","stimuli/00100110.jpg"," ","","feedback_trial","0","","","","","","","","","","","","","","","","","","","","",""
"","","","","","image-keyboard-response","40","199901","0.0-15.0","5e8b9c7054a5cc07dd6e174d","665500ab8938657b03fbdba8","6657923eb651b453ebb03e3c","5732","stimuli/0011101.jpg","0","","prediction_trial","0","","true","","0","false","false","true","true","false","false","[0]","011","101","1","","","","","","",""
"","","","","","image-keyboard-response","41","201471","0.0-16.0","5e8b9c7054a5cc07dd6e174d","665500ab8938657b03fbdba8","6657923eb651b453ebb03e3c","1570","stimuli/00111010.jpg"," ","","feedback_trial","0","","","","","","","","","","","","","","","","","","","","",""
"","","","","","image-keyboard-response","42","202852","0.0-17.0","5e8b9c7054a5cc07dd6e174d","665500ab8938657b03fbdba8","6657923eb651b453ebb03e3c","1380","stimuli/1100000.jpg","1","","prediction_trial","1","","true","","1","true","true","true","true","true","true","[1]","100","000","1","","","","","","",""
"","","","","","image-keyboard-response","43","203760","0.0-18.0","5e8b9c7054a5cc07dd6e174d","665500ab8938657b03fbdba8","6657923eb651b453ebb03e3c","908","stimuli/11000001.jpg"," ","","feedback_trial","1","","","","","","","","","","","","","","","","","","","","",""
"","","","","","image-keyboard-response","44","207743","0.0-19.0","5e8b9c7054a5cc07dd6e174d","665500ab8938657b03fbdba8","6657923eb651b453ebb03e3c","3982","stimuli/1101111.jpg","2","","prediction_trial","1","","false","","1","false","false","true","true","false","false","[1]","101","111","0","","","","","","",""
"","","","","","image-keyboard-response","45","209165","0.0-20.0","5e8b9c7054a5cc07dd6e174d","665500ab8938657b03fbdba8","6657923eb651b453ebb03e3c","1421","stimuli/11011111.jpg"," ","","feedback_trial","1","","","","","","","","","","","","","","","","","","","","",""
"","","","","","image-keyboard-response","46","212802","0.0-21.0","5e8b9c7054a5cc07dd6e174d","665500ab8938657b03fbdba8","6657923eb651b453ebb03e3c","3636","stimuli/2011101.jpg","2","","prediction_trial","2","","true","","2","false","false","false","false","false","false","[1,2]","011","101","1","","","","","","",""
"","","","","","image-keyboard-response","47","213857","0.0-22.0","5e8b9c7054a5cc07dd6e174d","665500ab8938657b03fbdba8","6657923eb651b453ebb03e3c","1054","stimuli/20111012.jpg"," ","","feedback_trial","1","","","","","","","","","","","","","","","","","","","","",""
"","","","","","image-keyboard-response","48","216868","0.0-23.0","5e8b9c7054a5cc07dd6e174d","665500ab8938657b03fbdba8","6657923eb651b453ebb03e3c","3010","stimuli/0111000.jpg","1","","prediction_trial","2","","false","","0","true","true","false","false","false","false","[2,1,0]","111","000","0","","","","","","",""
"","","","","","image-keyboard-response","49","218241","0.0-24.0","5e8b9c7054a5cc07dd6e174d","665500ab8938657b03fbdba8","6657923eb651b453ebb03e3c","1373","stimuli/01110002.jpg"," ","","feedback_trial","2","","","","","","","","","","","","","","","","","","","","",""
"","","","","","image-keyboard-response","50","219748","0.0-25.0","5e8b9c7054a5cc07dd6e174d","665500ab8938657b03fbdba8","6657923eb651b453ebb03e3c","1506","stimuli/1000001.jpg","1","","prediction_trial","1","","true","","1","true","true","true","true","true","true","[1]","000","001","1","","","","","","",""
"","","","","","image-keyboard-response","51","220659","0.0-26.0","5e8b9c7054a5cc07dd6e174d","665500ab8938657b03fbdba8","6657923eb651b453ebb03e3c","911","stimuli/10000011.jpg"," ","","feedback_trial","1","","","","","","","","","","","","","","","","","","","","",""
"","","","","","image-keyboard-response","52","226436","0.0-27.0","5e8b9c7054a5cc07dd6e174d","665500ab8938657b03fbdba8","6657923eb651b453ebb03e3c","5777","stimuli/0101100.jpg","0","","prediction_trial","0","","true","","0","false","true","false","false","false","false","[0,2]","101","100","1","","","","","","",""
"","","","","","image-keyboard-response","53","227599","0.0-28.0","5e8b9c7054a5cc07dd6e174d","665500ab8938657b03fbdba8","6657923eb651b453ebb03e3c","1163","stimuli/01011000.jpg"," ","","feedback_trial","0","","","","","","","","","","","","","","","","","","","","",""
"","","","","","image-keyboard-response","54","229934","0.0-29.0","5e8b9c7054a5cc07dd6e174d","665500ab8938657b03fbdba8","6657923eb651b453ebb03e3c","2334","stimuli/2100001.jpg","2","","prediction_trial","2","","true","","2","false","true","true","true","false","true","[2]","100","001","1","","","","","","",""
"","","","","","image-keyboard-response","55","231029","0.0-30.0","5e8b9c7054a5cc07dd6e174d","665500ab8938657b03fbdba8","6657923eb651b453ebb03e3c","1094","stimuli/21000012.jpg"," ","","feedback_trial","2","","","","","","","","","","","","","","","","","","","","",""
"","","","","","image-keyboard-response","56","234058","0.0-31.0","5e8b9c7054a5cc07dd6e174d","665500ab8938657b03fbdba8","6657923eb651b453ebb03e3c","3029","stimuli/1110110.jpg","1","","prediction_trial","1","","true","","1","false","false","false","false","false","false","[0,1]","110","110","1","","","","","","",""
"","","","","","image-keyboard-response","57","234918","0.0-32.0","5e8b9c7054a5cc07dd6e174d","665500ab8938657b03fbdba8","6657923eb651b453ebb03e3c","859","stimuli/11101101.jpg"," ","","feedback_trial","0","","","","","","","","","","","","","","","","","","","","",""
"","","","","","image-keyboard-response","58","236322","0.0-33.0","5e8b9c7054a5cc07dd6e174d","665500ab8938657b03fbdba8","6657923eb651b453ebb03e3c","1403","stimuli/2010010.jpg","2","","prediction_trial","2","","true","","2","true","true","true","true","true","true","[2]","010","010","1","","","","","","",""
"","","","","","image-keyboard-response","59","237241","0.0-34.0","5e8b9c7054a5cc07dd6e174d","665500ab8938657b03fbdba8","6657923eb651b453ebb03e3c","919","stimuli/20100102.jpg"," ","","feedback_trial","2","","","","","","","","","","","","","","","","","","","","",""
"","","","","","image-keyboard-response","60","239404","0.0-35.0","5e8b9c7054a5cc07dd6e174d","665500ab8938657b03fbdba8","6657923eb651b453ebb03e3c","2162","stimuli/0000100.jpg","0","","prediction_trial","0","","true","","0","false","true","true","true","false","true","[0]","000","100","1","","","","","","",""
"","","","","","image-keyboard-response","61","240188","0.0-36.0","5e8b9c7054a5cc07dd6e174d","665500ab8938657b03fbdba8","6657923eb651b453ebb03e3c","783","stimuli/00001000.jpg"," ","","feedback_trial","0","","","","","","","","","","","","","","","","","","","","",""
"","","","","","image-keyboard-response","62","244324","0.0-37.0","5e8b9c7054a5cc07dd6e174d","665500ab8938657b03fbdba8","6657923eb651b453ebb03e3c","4133","stimuli/0110000.jpg","1","","prediction_trial","0","","false","","0","true","true","false","false","false","false","[0,1]","110","000","0","","","","","","",""
"","","","","","image-keyboard-response","63","245527","0.0-38.0","5e8b9c7054a5cc07dd6e174d","665500ab8938657b03fbdba8","6657923eb651b453ebb03e3c","1203","stimuli/01100000.jpg"," ","","feedback_trial","0","","","","","","","","","","","","","","","","","","","","",""
"","","","","","image-keyboard-response","64","247619","0.0-39.0","5e8b9c7054a5cc07dd6e174d","665500ab8938657b03fbdba8","6657923eb651b453ebb03e3c","2097","stimuli/1000110.jpg","0","","prediction_trial","1","","false","","1","false","false","true","true","false","false","[1]","000","110","0","","","","","","",""
"","","","","","image-keyboard-response","65","249240","0.0-40.0","5e8b9c7054a5cc07dd6e174d","665500ab8938657b03fbdba8","6657923eb651b453ebb03e3c","1620","stimuli/10001101.jpg"," ","","feedback_trial","1","","","","","","","","","","","","","","","","","","","","",""
"","","","","","image-keyboard-response","66","251215","0.0-41.0","5e8b9c7054a5cc07dd6e174d","665500ab8938657b03fbdba8","6657923eb651b453ebb03e3c","1974","stimuli/2011000.jpg","2","","prediction_trial","1","","false","","2","true","true","false","false","false","false","[2,1]","011","000","0","","","","","","",""
"","","","","","image-keyboard-response","67","252224","0.0-42.0","5e8b9c7054a5cc07dd6e174d","665500ab8938657b03fbdba8","6657923eb651b453ebb03e3c","1009","stimuli/20110001.jpg"," ","","feedback_trial","2","","","","","","","","","","","","","","","","","","","","",""
"","","","","","image-keyboard-response","68","255160","0.0-43.0","5e8b9c7054a5cc07dd6e174d","665500ab8938657b03fbdba8","6657923eb651b453ebb03e3c","2933","stimuli/2110011.jpg","2","","prediction_trial","2","","true","","2","false","false","true","true","false","false","[2]","110","011","1","","","","","","",""
"","","","","","image-keyboard-response","69","256160","0.0-44.0","5e8b9c7054a5cc07dd6e174d","665500ab8938657b03fbdba8","6657923eb651b453ebb03e3c","1000","stimuli/21100112.jpg"," ","","feedback_trial","2","","","","","","","","","","","","","","","","","","","","",""
"","","","","","image-keyboard-response","70","259359","0.0-45.0","5e8b9c7054a5cc07dd6e174d","665500ab8938657b03fbdba8","6657923eb651b453ebb03e3c","3199","stimuli/0100101.jpg","2","","prediction_trial","0","","false","","0","false","false","false","true","false","false","[0]","100","101","0","","","","","","",""
"","","","","","image-keyboard-response","71","260238","0.0-46.0","5e8b9c7054a5cc07dd6e174d","665500ab8938657b03fbdba8","6657923eb651b453ebb03e3c","878","stimuli/01001010.jpg"," ","","feedback_trial","0","","","","","","","","","","","","","","","","","","","","",""
"","","","","","image-keyboard-response","72","262647","0.0-47.0","5e8b9c7054a5cc07dd6e174d","665500ab8938657b03fbdba8","6657923eb651b453ebb03e3c","2409","stimuli/1111110.jpg","1","","prediction_trial","2","","false","","1","false","false","false","false","false","false","[0,2,1]","111","110","0","","","","","","",""
"","","","","","image-keyboard-response","73","263871","0.0-48.0","5e8b9c7054a5cc07dd6e174d","665500ab8938657b03fbdba8","6657923eb651b453ebb03e3c","1223","stimuli/11111102.jpg"," ","","feedback_trial","0","","","","","","","","","","","","","","","","","","","","",""
"","","","","","image-keyboard-response","74","268511","0.0-49.0","5e8b9c7054a5cc07dd6e174d","665500ab8938657b03fbdba8","6657923eb651b453ebb03e3c","4639","stimuli/2100111.jpg","1","","prediction_trial","2","","false","","2","false","false","true","true","false","false","[2]","100","111","0","","","","","","",""
"","","","","","image-keyboard-response","75","269836","0.0-50.0","5e8b9c7054a5cc07dd6e174d","665500ab8938657b03fbdba8","6657923eb651b453ebb03e3c","1324","stimuli/21001112.jpg"," ","","feedback_trial","2","","","","","","","","","","","","","","","","","","","","",""
"","","","","","image-keyboard-response","76","271105","0.0-51.0","5e8b9c7054a5cc07dd6e174d","665500ab8938657b03fbdba8","6657923eb651b453ebb03e3c","1269","stimuli/1101100.jpg","1","","prediction_trial","1","","true","","1","true","true","true","true","true","true","[1]","101","100","1","","","","","","",""
"","","","","","image-keyboard-response","77","271908","0.0-52.0","5e8b9c7054a5cc07dd6e174d","665500ab8938657b03fbdba8","6657923eb651b453ebb03e3c","802","stimuli/11011001.jpg"," ","","feedback_trial","1","","","","","","","","","","","","","","","","","","","","",""
"","","","","","image-keyboard-response","78","274282","0.0-53.0","5e8b9c7054a5cc07dd6e174d","665500ab8938657b03fbdba8","6657923eb651b453ebb03e3c","2373","stimuli/1101011.jpg","1","","prediction_trial","1","","true","","1","false","false","true","true","false","false","[1]","101","011","1","","","","","","",""
"","","","","","image-keyboard-response","79","275133","0.0-54.0","5e8b9c7054a5cc07dd6e174d","665500ab8938657b03fbdba8","6657923eb651b453ebb03e3c","850","stimuli/11010111.jpg"," ","","feedback_trial","1","","","","","","","","","","","","","","","","","","","","",""
"","","","","","image-keyboard-response","80","280187","0.0-55.0","5e8b9c7054a5cc07dd6e174d","665500ab8938657b03fbdba8","6657923eb651b453ebb03e3c","5052","stimuli/2111011.jpg","0","","prediction_trial","0","","true","","2","false","false","false","false","false","false","[2,1,0]","111","011","1","","","","","","",""
"","","","","","image-keyboard-response","81","281215","0.0-56.0","5e8b9c7054a5cc07dd6e174d","665500ab8938657b03fbdba8","6657923eb651b453ebb03e3c","1027","stimuli/21110110.jpg"," ","","feedback_trial","2","","","","","","","","","","","","","","","","","","","","",""
"","","","","","image-keyboard-response","82","282996","0.0-57.0","5e8b9c7054a5cc07dd6e174d","665500ab8938657b03fbdba8","6657923eb651b453ebb03e3c","1781","stimuli/1011100.jpg","1","","prediction_trial","2","","false","","1","true","true","false","false","false","false","[1,2]","011","100","0","","","","","","",""
"","","","","","image-keyboard-response","83","283839","0.0-58.0","5e8b9c7054a5cc07dd6e174d","665500ab8938657b03fbdba8","6657923eb651b453ebb03e3c","842","stimuli/10111002.jpg"," ","","feedback_trial","1","","","","","","","","","","","","","","","","","","","","",""
"","","","","","image-keyboard-response","84","286535","0.0-59.0","5e8b9c7054a5cc07dd6e174d","665500ab8938657b03fbdba8","6657923eb651b453ebb03e3c","2695","stimuli/1000011.jpg","2","","prediction_trial","1","","false","","1","false","false","true","true","false","false","[1]","000","011","0","","","","","","",""
"","","","","","image-keyboard-response","85","287615","0.0-60.0","5e8b9c7054a5cc07dd6e174d","665500ab8938657b03fbdba8","6657923eb651b453ebb03e3c","1080","stimuli/10000111.jpg"," ","","feedback_trial","1","","","","","","","","","","","","","","","","","","","","",""
"","","","","","image-keyboard-response","86","289652","0.0-61.0","5e8b9c7054a5cc07dd6e174d","665500ab8938657b03fbdba8","6657923eb651b453ebb03e3c","2035","stimuli/0011100.jpg","0","","prediction_trial","0","","true","","0","false","true","true","true","false","true","[0]","011","100","1","","","","","","",""
"","","","","","image-keyboard-response","87","290503","0.0-62.0","5e8b9c7054a5cc07dd6e174d","665500ab8938657b03fbdba8","6657923eb651b453ebb03e3c","851","stimuli/00111000.jpg"," ","","feedback_trial","0","","","","","","","","","","","","","","","","","","","","",""
"","","","","","image-keyboard-response","88","292850","0.0-63.0","5e8b9c7054a5cc07dd6e174d","665500ab8938657b03fbdba8","6657923eb651b453ebb03e3c","2346","stimuli/2100101.jpg","2","","prediction_trial","2","","true","","2","false","false","true","true","false","false","[2]","100","101","1","","","","","","",""
"","","","","","image-keyboard-response","89","293738","0.0-64.0","5e8b9c7054a5cc07dd6e174d","665500ab8938657b03fbdba8","6657923eb651b453ebb03e3c","887","stimuli/21001012.jpg"," ","","feedback_trial","2","","","","","","","","","","","","","","","","","","","","",""
"","","","","","image-keyboard-response","90","296102","0.0-65.0","5e8b9c7054a5cc07dd6e174d","665500ab8938657b03fbdba8","6657923eb651b453ebb03e3c","2364","stimuli/2011010.jpg","1","","prediction_trial","2","","false","","2","true","true","false","false","false","false","[1,2]","011","010","0","","","","","","",""
"","","","","","image-keyboard-response","91","297014","0.0-66.0","5e8b9c7054a5cc07dd6e174d","665500ab8938657b03fbdba8","6657923eb651b453ebb03e3c","911","stimuli/20110102.jpg"," ","","feedback_trial","1","","","","","","","","","","","","","","","","","","","","",""
"","","","","","image-keyboard-response","92","298814","0.0-67.0","5e8b9c7054a5cc07dd6e174d","665500ab8938657b03fbdba8","6657923eb651b453ebb03e3c","1798","stimuli/0111010.jpg","0","","prediction_trial","0","","true","","0","true","true","false","false","false","false","[2,1,0]","111","010","1","","","","","","",""
"","","","","","image-keyboard-response","93","299649","0.0-68.0","5e8b9c7054a5cc07dd6e174d","665500ab8938657b03fbdba8","6657923eb651b453ebb03e3c","834","stimuli/01110100.jpg"," ","","feedback_trial","2","","","","","","","","","","","","","","","","","","","","",""
"","","","","","image-keyboard-response","94","301760","0.0-69.0","5e8b9c7054a5cc07dd6e174d","665500ab8938657b03fbdba8","6657923eb651b453ebb03e3c","2110","stimuli/1110111.jpg","2","","prediction_trial","1","","false","","1","false","false","false","false","false","false","[1,0]","110","111","0","","","","","","",""
"","","","","","image-keyboard-response","95","302647","0.0-70.0","5e8b9c7054a5cc07dd6e174d","665500ab8938657b03fbdba8","6657923eb651b453ebb03e3c","886","stimuli/11101111.jpg"," ","","feedback_trial","1","","","","","","","","","","","","","","","","","","","","",""
"","","","","","image-keyboard-response","96","304001","0.0-71.0","5e8b9c7054a5cc07dd6e174d","665500ab8938657b03fbdba8","6657923eb651b453ebb03e3c","1353","stimuli/0000001.jpg","0","","prediction_trial","0","","true","","0","true","true","true","true","true","true","[0]","000","001","1","","","","","","",""
"","","","","","image-keyboard-response","97","304653","0.0-72.0","5e8b9c7054a5cc07dd6e174d","665500ab8938657b03fbdba8","6657923eb651b453ebb03e3c","652","stimuli/00000010.jpg"," ","","feedback_trial","0","","","","","","","","","","","","","","","","","","","","",""
"","","","","","image-keyboard-response","98","307824","0.0-73.0","5e8b9c7054a5cc07dd6e174d","665500ab8938657b03fbdba8","6657923eb651b453ebb03e3c","3174","stimuli/1011101.jpg","1","","prediction_trial","2","","false","","1","true","true","false","false","false","false","[2,1]","011","101","0","","","","","","",""
"","","","","","image-keyboard-response","99","308775","0.0-74.0","5e8b9c7054a5cc07dd6e174d","665500ab8938657b03fbdba8","6657923eb651b453ebb03e3c","950","stimuli/10111012.jpg"," ","","feedback_trial","2","","","","","","","","","","","","","","","","","","","","",""
"","","","","","image-keyboard-response","100","310699","0.0-75.0","5e8b9c7054a5cc07dd6e174d","665500ab8938657b03fbdba8","6657923eb651b453ebb03e3c","1923","stimuli/1111001.jpg","1","","prediction_trial","1","","true","","1","true","true","false","false","false","false","[2,1,0]","111","001","1","","","","","","",""
"","","","","","image-keyboard-response","101","311404","0.0-76.0","5e8b9c7054a5cc07dd6e174d","665500ab8938657b03fbdba8","6657923eb651b453ebb03e3c","704","stimuli/11110011.jpg"," ","","feedback_trial","2","","","","","","","","","","","","","","","","","","","","",""
"","","","","","image-keyboard-response","102","314752","0.0-77.0","5e8b9c7054a5cc07dd6e174d","665500ab8938657b03fbdba8","6657923eb651b453ebb03e3c","3348","stimuli/0110100.jpg","0","","prediction_trial","0","","true","","0","false","true","false","false","false","false","[1,0]","110","100","1","","","","","","",""
"","","","","","image-keyboard-response","103","315608","0.0-78.0","5e8b9c7054a5cc07dd6e174d","665500ab8938657b03fbdba8","6657923eb651b453ebb03e3c","855","stimuli/01101000.jpg"," ","","feedback_trial","1","","","","","","","","","","","","","","","","","","","","",""
"","","","","","image-keyboard-response","104","316951","0.0-79.0","5e8b9c7054a5cc07dd6e174d","665500ab8938657b03fbdba8","6657923eb651b453ebb03e3c","1341","stimuli/0110111.jpg","1","","prediction_trial","1","","true","","0","false","false","false","false","false","false","[0,1]","110","111","1","","","","","","",""
"","","","","","image-keyboard-response","105","317801","0.0-80.0","5e8b9c7054a5cc07dd6e174d","665500ab8938657b03fbdba8","6657923eb651b453ebb03e3c","849","stimuli/01101111.jpg"," ","","feedback_trial","0","","","","","","","","","","","","","","","","","","","","",""
"","","","","","image-keyboard-response","106","319466","0.0-81.0","5e8b9c7054a5cc07dd6e174d","665500ab8938657b03fbdba8","6657923eb651b453ebb03e3c","1665","stimuli/1100001.jpg","1","","prediction_trial","1","","true","","1","true","true","true","true","true","true","[1]","100","001","1","","","","","","",""
"","","","","","image-keyboard-response","107","320205","0.0-82.0","5e8b9c7054a5cc07dd6e174d","665500ab8938657b03fbdba8","6657923eb651b453ebb03e3c","738","stimuli/11000011.jpg"," ","","feedback_trial","1","","","","","","","","","","","","","","","","","","","","",""
"","","","","","image-keyboard-response","108","322808","0.0-83.0","5e8b9c7054a5cc07dd6e174d","665500ab8938657b03fbdba8","6657923eb651b453ebb03e3c","2602","stimuli/0001111.jpg","0","","prediction_trial","0","","true","","0","false","false","true","true","false","false","[0]","001","111","1","","","","","","",""
"","","","","","image-keyboard-response","109","323745","0.0-84.0","5e8b9c7054a5cc07dd6e174d","665500ab8938657b03fbdba8","6657923eb651b453ebb03e3c","936","stimuli/00011110.jpg"," ","","feedback_trial","0","","","","","","","","","","","","","","","","","","","","",""
"","","","","","image-keyboard-response","110","326494","0.0-85.0","5e8b9c7054a5cc07dd6e174d","665500ab8938657b03fbdba8","6657923eb651b453ebb03e3c","2749","stimuli/1001110.jpg","1","","prediction_trial","1","","true","","1","false","false","true","true","false","false","[1]","001","110","1","","","","","","",""
"","","","","","image-keyboard-response","111","327332","0.0-86.0","5e8b9c7054a5cc07dd6e174d","665500ab8938657b03fbdba8","6657923eb651b453ebb03e3c","837","stimuli/10011101.jpg"," ","","feedback_trial","1","","","","","","","","","","","","","","","","","","","","",""
"","","","","","image-keyboard-response","112","329940","0.0-87.0","5e8b9c7054a5cc07dd6e174d","665500ab8938657b03fbdba8","6657923eb651b453ebb03e3c","2607","stimuli/1111010.jpg","1","","prediction_trial","2","","false","","1","false","true","false","false","false","false","[0,2,1]","111","010","0","","","","","","",""
"","","","","","image-keyboard-response","113","330951","0.0-88.0","5e8b9c7054a5cc07dd6e174d","665500ab8938657b03fbdba8","6657923eb651b453ebb03e3c","1011","stimuli/11110102.jpg"," ","","feedback_trial","0","","","","","","","","","","","","","","","","","","","","",""
"","","","","","image-keyboard-response","114","334221","0.0-89.0","5e8b9c7054a5cc07dd6e174d","665500ab8938657b03fbdba8","6657923eb651b453ebb03e3c","3269","stimuli/0000111.jpg","1","","prediction_trial","0","","false","","0","false","false","true","true","false","false","[0]","000","111","0","","","","","","",""
"","","","","","image-keyboard-response","115","335054","0.0-90.0","5e8b9c7054a5cc07dd6e174d","665500ab8938657b03fbdba8","6657923eb651b453ebb03e3c","832","stimuli/00001110.jpg"," ","","feedback_trial","0","","","","","","","","","","","","","","","","","","","","",""
"","","","","","image-keyboard-response","116","338016","0.0-91.0","5e8b9c7054a5cc07dd6e174d","665500ab8938657b03fbdba8","6657923eb651b453ebb03e3c","2962","stimuli/0010100.jpg","0","","prediction_trial","0","","true","","0","false","true","true","true","false","true","[0]","010","100","1","","","","","","",""
"","","","","","image-keyboard-response","117","338963","0.0-92.0","5e8b9c7054a5cc07dd6e174d","665500ab8938657b03fbdba8","6657923eb651b453ebb03e3c","947","stimuli/00101000.jpg"," ","","feedback_trial","0","","","","","","","","","","","","","","","","","","","","",""
"","","","","","image-keyboard-response","118","343243","0.0-93.0","5e8b9c7054a5cc07dd6e174d","665500ab8938657b03fbdba8","6657923eb651b453ebb03e3c","4279","stimuli/0100010.jpg","0","","prediction_trial","0","","true","","0","true","true","false","true","false","true","[0]","100","010","1","","","","","","",""
"","","","","","image-keyboard-response","119","344161","0.0-94.0","5e8b9c7054a5cc07dd6e174d","665500ab8938657b03fbdba8","6657923eb651b453ebb03e3c","917","stimuli/01000100.jpg"," ","","feedback_trial","0","","","","","","","","","","","","","","","","","","","","",""
"","","","","","image-keyboard-response","120","347852","0.0-95.0","5e8b9c7054a5cc07dd6e174d","665500ab8938657b03fbdba8","6657923eb651b453ebb03e3c","3691","stimuli/2101100.jpg","0","","prediction_trial","2","","false","","2","true","true","false","false","false","false","[2,0]","101","100","0","","","","","","",""
"","","","","","image-keyboard-response","121","349053","0.0-96.0","5e8b9c7054a5cc07dd6e174d","665500ab8938657b03fbdba8","6657923eb651b453ebb03e3c","1200","stimuli/21011002.jpg"," ","","feedback_trial","2","","","","","","","","","","","","","","","","","","","","",""
"","","","","","image-keyboard-response","122","350308","0.0-97.0","5e8b9c7054a5cc07dd6e174d","665500ab8938657b03fbdba8","6657923eb651b453ebb03e3c","1253","stimuli/0010001.jpg","0","","prediction_trial","0","","true","","0","true","true","true","true","true","true","[0]","010","001","1","","","","","","",""
"","","","","","image-keyboard-response","123","351011","0.0-98.0","5e8b9c7054a5cc07dd6e174d","665500ab8938657b03fbdba8","6657923eb651b453ebb03e3c","703","stimuli/00100010.jpg"," ","","feedback_trial","0","","","","","","","","","","","","","","","","","","","","",""
"","","","","","image-keyboard-response","124","353038","0.0-99.0","5e8b9c7054a5cc07dd6e174d","665500ab8938657b03fbdba8","6657923eb651b453ebb03e3c","2026","stimuli/0100110.jpg","1","","prediction_trial","0","","false","","0","false","false","false","true","false","false","[0]","100","110","0","","","","","","",""
"","","","","","image-keyboard-response","125","353839","0.0-100.0","5e8b9c7054a5cc07dd6e174d","665500ab8938657b03fbdba8","6657923eb651b453ebb03e3c","801","stimuli/01001100.jpg"," ","","feedback_trial","0","","","","","","","","","","","","","","","","","","","","",""
"","","","","","image-keyboard-response","126","355189","0.0-101.0","5e8b9c7054a5cc07dd6e174d","665500ab8938657b03fbdba8","6657923eb651b453ebb03e3c","1349","stimuli/2110010.jpg","2","","prediction_trial","2","","true","","2","true","true","true","true","true","true","[2]","110","010","1","","","","","","",""
"","","","","","image-keyboard-response","127","355979","0.0-102.0","5e8b9c7054a5cc07dd6e174d","665500ab8938657b03fbdba8","6657923eb651b453ebb03e3c","789","stimuli/21100102.jpg"," ","","feedback_trial","2","","","","","","","","","","","","","","","","","","","","",""
"","","","","","image-keyboard-response","128","359449","0.0-103.0","5e8b9c7054a5cc07dd6e174d","665500ab8938657b03fbdba8","6657923eb651b453ebb03e3c","3469","stimuli/1111101.jpg","2","","prediction_trial","2","","true","","1","true","true","false","false","false","false","[0,1,2]","111","101","1","","","","","","",""
"","","","","","image-keyboard-response","129","360343","0.0-104.0","5e8b9c7054a5cc07dd6e174d","665500ab8938657b03fbdba8","6657923eb651b453ebb03e3c","894","stimuli/11111012.jpg"," ","","feedback_trial","0","","","","","","","","","","","","","","","","","","","","",""
"","","","","","image-keyboard-response","130","361968","0.0-105.0","5e8b9c7054a5cc07dd6e174d","665500ab8938657b03fbdba8","6657923eb651b453ebb03e3c","1624","stimuli/0000000.jpg","0","","prediction_trial","0","","true","","0","true","true","true","true","true","true","[0]","000","000","1","","","","","","",""
"","","","","","image-keyboard-response","131","362635","0.0-106.0","5e8b9c7054a5cc07dd6e174d","665500ab8938657b03fbdba8","6657923eb651b453ebb03e3c","667","stimuli/00000000.jpg"," ","","feedback_trial","0","","","","","","","","","","","","","","","","","","","","",""
"","","","","","image-keyboard-response","132","364511","0.0-107.0","5e8b9c7054a5cc07dd6e174d","665500ab8938657b03fbdba8","6657923eb651b453ebb03e3c","1876","stimuli/1010110.jpg","1","","prediction_trial","1","","true","","1","false","false","false","true","false","false","[1]","010","110","1","","","","","","",""
"","","","","","image-keyboard-response","133","365951","0.0-108.0","5e8b9c7054a5cc07dd6e174d","665500ab8938657b03fbdba8","6657923eb651b453ebb03e3c","1439","stimuli/10101101.jpg"," ","","feedback_trial","1","","","","","","","","","","","","","","","","","","","","",""
"","","","","","image-keyboard-response","134","367594","0.0-109.0","5e8b9c7054a5cc07dd6e174d","665500ab8938657b03fbdba8","6657923eb651b453ebb03e3c","1641","stimuli/0000011.jpg","0","","prediction_trial","0","","true","","0","true","true","true","true","true","true","[0]","000","011","1","","","","","","",""
"","","","","","image-keyboard-response","135","368591","0.0-110.0","5e8b9c7054a5cc07dd6e174d","665500ab8938657b03fbdba8","6657923eb651b453ebb03e3c","984","stimuli/00000110.jpg"," ","","feedback_trial","0","","","","","","","","","","","","","","","","","","","","",""
"","","","","","image-keyboard-response","136","370317","0.0-111.0","5e8b9c7054a5cc07dd6e174d","665500ab8938657b03fbdba8","6657923eb651b453ebb03e3c","1726","stimuli/1000010.jpg","1","","prediction_trial","1","","true","","1","false","true","true","true","false","true","[1]","000","010","1","","","","","","",""
"","","","","","image-keyboard-response","137","371072","0.0-112.0","5e8b9c7054a5cc07dd6e174d","665500ab8938657b03fbdba8","6657923eb651b453ebb03e3c","754","stimuli/10000101.jpg"," ","","feedback_trial","1","","","","","","","","","","","","","","","","","","","","",""
"","","","","","image-keyboard-response","138","373938","0.0-113.0","5e8b9c7054a5cc07dd6e174d","665500ab8938657b03fbdba8","6657923eb651b453ebb03e3c","2865","stimuli/1011010.jpg","2","","prediction_trial","2","","true","","1","false","true","false","false","false","false","[2,1]","011","010","1","","","","","","",""
"","","","","","image-keyboard-response","139","374840","0.0-114.0","5e8b9c7054a5cc07dd6e174d","665500ab8938657b03fbdba8","6657923eb651b453ebb03e3c","902","stimuli/10110102.jpg"," ","","feedback_trial","2","","","","","","","","","","","","","","","","","","","","",""
"","","","","","image-keyboard-response","140","379460","0.0-115.0","5e8b9c7054a5cc07dd6e174d","665500ab8938657b03fbdba8","6657923eb651b453ebb03e3c","4620","stimuli/2111100.jpg","0","","prediction_trial","0","","true","","2","true","true","false","false","false","false","[1,2,0]","111","100","1","","","","","","",""
"","","","","","image-keyboard-response","141","380904","0.0-116.0","5e8b9c7054a5cc07dd6e174d","665500ab8938657b03fbdba8","6657923eb651b453ebb03e3c","1443","stimuli/21111000.jpg"," ","","feedback_trial","1","","","","","","","","","","","","","","","","","","","","",""
"","","","","","image-keyboard-response","142","384103","0.0-117.0","5e8b9c7054a5cc07dd6e174d","665500ab8938657b03fbdba8","6657923eb651b453ebb03e3c","3198","stimuli/0011110.jpg","1","","prediction_trial","0","","false","","0","false","false","true","true","false","false","[0]","011","110","0","","","","","","",""
"","","","","","image-keyboard-response","143","386991","0.0-118.0","5e8b9c7054a5cc07dd6e174d","665500ab8938657b03fbdba8","6657923eb651b453ebb03e3c","2888","stimuli/00111100.jpg"," ","","feedback_trial","0","","","","","","","","","","","","","","","","","","","","",""
"","","","","","image-keyboard-response","144","389868","0.0-119.0","5e8b9c7054a5cc07dd6e174d","665500ab8938657b03fbdba8","6657923eb651b453ebb03e3c","2876","stimuli/0110010.jpg","1","","prediction_trial","1","","true","","0","true","true","false","false","false","false","[0,1]","110","010","1","","","","","","",""
"","","","","","image-keyboard-response","145","390955","0.0-120.0","5e8b9c7054a5cc07dd6e174d","665500ab8938657b03fbdba8","6657923eb651b453ebb03e3c","1086","stimuli/01100101.jpg"," ","","feedback_trial","0","","","","","","","","","","","","","","","","","","","","",""
"","","","","","image-keyboard-response","146","394229","0.0-121.0","5e8b9c7054a5cc07dd6e174d","665500ab8938657b03fbdba8","6657923eb651b453ebb03e3c","3272","stimuli/0011111.jpg","2","","prediction_trial","0","","false","","0","false","false","true","true","false","false","[0]","011","111","0","","","","","","",""
"","","","","","image-keyboard-response","147","395291","0.0-122.0","5e8b9c7054a5cc07dd6e174d","665500ab8938657b03fbdba8","6657923eb651b453ebb03e3c","1061","stimuli/00111110.jpg"," ","","feedback_trial","0","","","","","","","","","","","","","","","","","","","","",""
"","","","","","image-keyboard-response","148","399899","0.0-123.0","5e8b9c7054a5cc07dd6e174d","665500ab8938657b03fbdba8","6657923eb651b453ebb03e3c","4608","stimuli/0110001.jpg","1","","prediction_trial","1","","true","","0","true","true","false","false","false","false","[0,1]","110","001","1","","","","","","",""
"","","","","","image-keyboard-response","149","400858","0.0-124.0","5e8b9c7054a5cc07dd6e174d","665500ab8938657b03fbdba8","6657923eb651b453ebb03e3c","958","stimuli/01100011.jpg"," ","","feedback_trial","0","","","","","","","","","","","","","","","","","","","","",""
"","","","","","image-keyboard-response","150","404594","0.0-125.0","5e8b9c7054a5cc07dd6e174d","665500ab8938657b03fbdba8","6657923eb651b453ebb03e3c","3736","stimuli/0101111.jpg","2","","prediction_trial","2","","true","","0","false","false","false","false","false","false","[2,0]","101","111","1","","","","","","",""
"","","","","","image-keyboard-response","151","406303","0.0-126.0","5e8b9c7054a5cc07dd6e174d","665500ab8938657b03fbdba8","6657923eb651b453ebb03e3c","1708","stimuli/01011112.jpg"," ","","feedback_trial","2","","","","","","","","","","","","","","","","","","","","",""
"","","","","","image-keyboard-response","152","408965","0.0-127.0","5e8b9c7054a5cc07dd6e174d","665500ab8938657b03fbdba8","6657923eb651b453ebb03e3c","2661","stimuli/0010110.jpg","0","","prediction_trial","0","","true","","0","false","false","true","true","false","false","[0]","010","110","1","","","","","","",""
"","","","","","image-keyboard-response","153","410091","0.0-128.0","5e8b9c7054a5cc07dd6e174d","665500ab8938657b03fbdba8","6657923eb651b453ebb03e3c","1126","stimuli/00101100.jpg"," ","","feedback_trial","0","","","","","","","","","","","","","","","","","","","","",""
"","","","","","image-keyboard-response","154","411609","0.0-129.0","5e8b9c7054a5cc07dd6e174d","665500ab8938657b03fbdba8","6657923eb651b453ebb03e3c","1517","stimuli/2110001.jpg","1","","prediction_trial","2","","false","","2","false","true","true","true","false","true","[2]","110","001","0","","","","","","",""
"","","","","","image-keyboard-response","155","414950","0.0-130.0","5e8b9c7054a5cc07dd6e174d","665500ab8938657b03fbdba8","6657923eb651b453ebb03e3c","3341","stimuli/21100012.jpg"," ","","feedback_trial","2","","","","","","","","","","","","","","","","","","","","",""
"","","","","","image-keyboard-response","156","418046","0.0-131.0","5e8b9c7054a5cc07dd6e174d","665500ab8938657b03fbdba8","6657923eb651b453ebb03e3c","3095","stimuli/1010111.jpg","2","","prediction_trial","1","","false","","1","false","false","false","true","false","false","[1]","010","111","0","","","","","","",""
"","","","","","image-keyboard-response","157","419996","0.0-132.0","5e8b9c7054a5cc07dd6e174d","665500ab8938657b03fbdba8","6657923eb651b453ebb03e3c","1950","stimuli/10101111.jpg"," ","","feedback_trial","1","","","","","","","","","","","","","","","","","","","","",""
"","","","","","image-keyboard-response","158","421364","0.0-133.0","5e8b9c7054a5cc07dd6e174d","665500ab8938657b03fbdba8","6657923eb651b453ebb03e3c","1367","stimuli/0001000.jpg","0","","prediction_trial","0","","true","","0","true","true","true","true","true","true","[0]","001","000","1","","","","","","",""
"","","","","","image-keyboard-response","159","422165","0.0-134.0","5e8b9c7054a5cc07dd6e174d","665500ab8938657b03fbdba8","6657923eb651b453ebb03e3c","801","stimuli/00010000.jpg"," ","","feedback_trial","0","","","","","","","","","","","","","","","","","","","","",""
"","","","","","image-keyboard-response","160","426024","0.0-135.0","5e8b9c7054a5cc07dd6e174d","665500ab8938657b03fbdba8","6657923eb651b453ebb03e3c","3858","stimuli/1100110.jpg","1","","prediction_trial","1","","true","","1","false","false","true","true","false","false","[1]","100","110","1","","","","","","",""
"","","","","","image-keyboard-response","161","427571","0.0-136.0","5e8b9c7054a5cc07dd6e174d","665500ab8938657b03fbdba8","6657923eb651b453ebb03e3c","1547","stimuli/11001101.jpg"," ","","feedback_trial","1","","","","","","","","","","","","","","","","","","","","",""
"","","","","","image-keyboard-response","162","429315","0.0-137.0","5e8b9c7054a5cc07dd6e174d","665500ab8938657b03fbdba8","6657923eb651b453ebb03e3c","1741","stimuli/2000010.jpg","2","","prediction_trial","2","","true","","2","true","true","true","true","true","true","[2]","000","010","1","","","","","","",""
"","","","","","image-keyboard-response","163","430129","0.0-138.0","5e8b9c7054a5cc07dd6e174d","665500ab8938657b03fbdba8","6657923eb651b453ebb03e3c","814","stimuli/20000102.jpg"," ","","feedback_trial","2","","","","","","","","","","","","","","","","","","","","",""
"","","","","","image-keyboard-response","164","432877","0.0-139.0","5e8b9c7054a5cc07dd6e174d","665500ab8938657b03fbdba8","6657923eb651b453ebb03e3c","2747","stimuli/0101110.jpg","0","","prediction_trial","2","","false","","0","false","false","false","false","false","false","[2,0]","101","110","0","","","","","","",""
"","","","","","image-keyboard-response","165","433813","0.0-140.0","5e8b9c7054a5cc07dd6e174d","665500ab8938657b03fbdba8","6657923eb651b453ebb03e3c","936","stimuli/01011102.jpg"," ","","feedback_trial","2","","","","","","","","","","","","","","","","","","","","",""
"","","","","","image-keyboard-response","166","435733","0.0-141.0","5e8b9c7054a5cc07dd6e174d","665500ab8938657b03fbdba8","6657923eb651b453ebb03e3c","1919","stimuli/1101001.jpg","1","","prediction_trial","1","","true","","1","true","true","true","true","true","true","[1]","101","001","1","","","","","","",""
"","","","","","image-keyboard-response","167","436473","0.0-142.0","5e8b9c7054a5cc07dd6e174d","665500ab8938657b03fbdba8","6657923eb651b453ebb03e3c","739","stimuli/11010011.jpg"," ","","feedback_trial","1","","","","","","","","","","","","","","","","","","","","",""
"","","","","","image-keyboard-response","168","438488","0.0-143.0","5e8b9c7054a5cc07dd6e174d","665500ab8938657b03fbdba8","6657923eb651b453ebb03e3c","2015","stimuli/1010010.jpg","1","","prediction_trial","1","","true","","1","false","true","false","true","false","true","[1]","010","010","1","","","","","","",""
"","","","","","image-keyboard-response","169","439175","0.0-144.0","5e8b9c7054a5cc07dd6e174d","665500ab8938657b03fbdba8","6657923eb651b453ebb03e3c","686","stimuli/10100101.jpg"," ","","feedback_trial","1","","","","","","","","","","","","","","","","","","","","",""
"","","","","","image-keyboard-response","170","442642","0.0-145.0","5e8b9c7054a5cc07dd6e174d","665500ab8938657b03fbdba8","6657923eb651b453ebb03e3c","3465","stimuli/1110000.jpg","0","","prediction_trial","1","","false","","1","true","true","false","false","false","false","[1,0]","110","000","0","","","","","","",""
"","","","","","image-keyboard-response","171","444135","0.0-146.0","5e8b9c7054a5cc07dd6e174d","665500ab8938657b03fbdba8","6657923eb651b453ebb03e3c","1492","stimuli/11100001.jpg"," ","","feedback_trial","1","","","","","","","","","","","","","","","","","","","","",""
"","","","","","image-keyboard-response","172","446478","0.0-147.0","5e8b9c7054a5cc07dd6e174d","665500ab8938657b03fbdba8","6657923eb651b453ebb03e3c","2343","stimuli/1011011.jpg","2","","prediction_trial","2","","true","","1","false","false","false","false","false","false","[2,1]","011","011","1","","","","","","",""
"","","","","","image-keyboard-response","173","447404","0.0-148.0","5e8b9c7054a5cc07dd6e174d","665500ab8938657b03fbdba8","6657923eb651b453ebb03e3c","926","stimuli/10110112.jpg"," ","","feedback_trial","2","","","","","","","","","","","","","","","","","","","","",""
"","","","","","image-keyboard-response","174","450048","0.0-149.0","5e8b9c7054a5cc07dd6e174d","665500ab8938657b03fbdba8","6657923eb651b453ebb03e3c","2643","stimuli/2011001.jpg","1","","prediction_trial","1","","true","","2","false","true","false","false","false","false","[1,2]","011","001","1","","","","","","",""
"","","","","","image-keyboard-response","175","450864","0.0-150.0","5e8b9c7054a5cc07dd6e174d","665500ab8938657b03fbdba8","6657923eb651b453ebb03e3c","816","stimuli/20110011.jpg"," ","","feedback_trial","1","","","","","","","","","","","","","","","","","","","","",""
"","","","","","image-keyboard-response","176","453850","0.0-151.0","5e8b9c7054a5cc07dd6e174d","665500ab8938657b03fbdba8","6657923eb651b453ebb03e3c","2984","stimuli/1101010.jpg","1","","prediction_trial","1","","true","","1","false","true","true","true","false","true","[1]","101","010","1","","","","","","",""
"","","","","","image-keyboard-response","177","454530","0.0-152.0","5e8b9c7054a5cc07dd6e174d","665500ab8938657b03fbdba8","6657923eb651b453ebb03e3c","680","stimuli/11010101.jpg"," ","","feedback_trial","1","","","","","","","","","","","","","","","","","","","","",""
"","","","","","image-keyboard-response","178","456407","0.0-153.0","5e8b9c7054a5cc07dd6e174d","665500ab8938657b03fbdba8","6657923eb651b453ebb03e3c","1877","stimuli/1010000.jpg","1","","prediction_trial","1","","true","","1","true","true","false","true","false","true","[1]","010","000","1","","","","","","",""
"","","","","","image-keyboard-response","179","457089","0.0-154.0","5e8b9c7054a5cc07dd6e174d","665500ab8938657b03fbdba8","6657923eb651b453ebb03e3c","682","stimuli/10100001.jpg"," ","","feedback_trial","1","","","","","","","","","","","","","","","","","","","","",""
"","","","","","image-keyboard-response","180","459746","0.0-155.0","5e8b9c7054a5cc07dd6e174d","665500ab8938657b03fbdba8","6657923eb651b453ebb03e3c","2657","stimuli/2101011.jpg","2","","prediction_trial","0","","false","","2","false","false","false","false","false","false","[0,2]","101","011","0","","","","","","",""
"","","","","","image-keyboard-response","181","461690","0.0-156.0","5e8b9c7054a5cc07dd6e174d","665500ab8938657b03fbdba8","6657923eb651b453ebb03e3c","1943","stimuli/21010110.jpg"," ","","feedback_trial","0","","","","","","","","","","","","","","","","","","","","",""
"","","","","","image-keyboard-response","182","463599","0.0-157.0","5e8b9c7054a5cc07dd6e174d","665500ab8938657b03fbdba8","6657923eb651b453ebb03e3c","1906","stimuli/0011011.jpg","0","","prediction_trial","0","","true","","0","true","true","true","true","true","true","[0]","011","011","1","","","","","","",""
"","","","","","image-keyboard-response","183","464413","0.0-158.0","5e8b9c7054a5cc07dd6e174d","665500ab8938657b03fbdba8","6657923eb651b453ebb03e3c","813","stimuli/00110110.jpg"," ","","feedback_trial","0","","","","","","","","","","","","","","","","","","","","",""
"","","","","","image-keyboard-response","184","467154","0.0-159.0","5e8b9c7054a5cc07dd6e174d","665500ab8938657b03fbdba8","6657923eb651b453ebb03e3c","2741","stimuli/2111001.jpg","1","","prediction_trial","2","","false","","2","false","true","false","false","false","false","[2,0,1]","111","001","0","","","","","","",""
"","","","","","image-keyboard-response","185","468665","0.0-160.0","5e8b9c7054a5cc07dd6e174d","665500ab8938657b03fbdba8","6657923eb651b453ebb03e3c","1510","stimuli/21110012.jpg"," ","","feedback_trial","2","","","","","","","","","","","","","","","","","","","","",""
"","","","","","image-keyboard-response","186","470034","0.0-161.0","5e8b9c7054a5cc07dd6e174d","665500ab8938657b03fbdba8","6657923eb651b453ebb03e3c","1368","stimuli/2000110.jpg","2","","prediction_trial","2","","true","","2","true","true","true","true","true","true","[2]","000","110","1","","","","","","",""
"","","","","","image-keyboard-response","187","470883","0.0-162.0","5e8b9c7054a5cc07dd6e174d","665500ab8938657b03fbdba8","6657923eb651b453ebb03e3c","848","stimuli/20001102.jpg"," ","","feedback_trial","2","","","","","","","","","","","","","","","","","","","","",""
"","","","","","image-keyboard-response","188","472174","0.0-163.0","5e8b9c7054a5cc07dd6e174d","665500ab8938657b03fbdba8","6657923eb651b453ebb03e3c","1290","stimuli/0010010.jpg","0","","prediction_trial","0","","true","","0","true","true","true","true","true","true","[0]","010","010","1","","","","","","",""
"","","","","","image-keyboard-response","189","472936","0.0-164.0","5e8b9c7054a5cc07dd6e174d","665500ab8938657b03fbdba8","6657923eb651b453ebb03e3c","762","stimuli/00100100.jpg"," ","","feedback_trial","0","","","","","","","","","","","","","","","","","","","","",""
"","","","","","image-keyboard-response","190","475637","0.0-165.0","5e8b9c7054a5cc07dd6e174d","665500ab8938657b03fbdba8","6657923eb651b453ebb03e3c","2700","stimuli/2111110.jpg","0","","prediction_trial","1","","false","","2","true","true","false","false","false","false","[2,1,0]","111","110","0","","","","","","",""
"","","","","","image-keyboard-response","191","476815","0.0-166.0","5e8b9c7054a5cc07dd6e174d","665500ab8938657b03fbdba8","6657923eb651b453ebb03e3c","1177","stimuli/21111101.jpg"," ","","feedback_trial","2","","","","","","","","","","","","","","","","","","","","",""
"","","","","","image-keyboard-response","192","479290","0.0-167.0","5e8b9c7054a5cc07dd6e174d","665500ab8938657b03fbdba8","6657923eb651b453ebb03e3c","2475","stimuli/1100011.jpg","2","","prediction_trial","1","","false","","1","false","false","true","true","false","false","[1]","100","011","0","","","","","","",""
"","","","","","image-keyboard-response","193","480206","0.0-168.0","5e8b9c7054a5cc07dd6e174d","665500ab8938657b03fbdba8","6657923eb651b453ebb03e3c","915","stimuli/11000111.jpg"," ","","feedback_trial","1","","","","","","","","","","","","","","","","","","","","",""
"","","","","","image-keyboard-response","194","483395","0.0-169.0","5e8b9c7054a5cc07dd6e174d","665500ab8938657b03fbdba8","6657923eb651b453ebb03e3c","3188","stimuli/0101000.jpg","0","","prediction_trial","0","","true","","0","true","true","false","false","false","false","[2,0]","101","000","1","","","","","","",""
"","","","","","image-keyboard-response","195","484341","0.0-170.0","5e8b9c7054a5cc07dd6e174d","665500ab8938657b03fbdba8","6657923eb651b453ebb03e3c","946","stimuli/01010000.jpg"," ","","feedback_trial","2","","","","","","","","","","","","","","","","","","","","",""
"","","","","","image-keyboard-response","196","487396","0.0-171.0","5e8b9c7054a5cc07dd6e174d","665500ab8938657b03fbdba8","6657923eb651b453ebb03e3c","3054","stimuli/1010011.jpg","2","","prediction_trial","1","","false","","1","false","false","false","true","false","false","[1]","010","011","0","","","","","","",""
"","","","","","image-keyboard-response","197","488362","0.0-172.0","5e8b9c7054a5cc07dd6e174d","665500ab8938657b03fbdba8","6657923eb651b453ebb03e3c","965","stimuli/10100111.jpg"," ","","feedback_trial","1","","","","","","","","","","","","","","","","","","","","",""
"","","","","","image-keyboard-response","198","493629","0.0-173.0","5e8b9c7054a5cc07dd6e174d","665500ab8938657b03fbdba8","6657923eb651b453ebb03e3c","5272","stimuli/2000111.jpg","2","","prediction_trial","2","","true","","2","false","false","true","true","false","false","[2]","000","111","1","","","","","","",""
"","","","","","image-keyboard-response","199","494470","0.0-174.0","5e8b9c7054a5cc07dd6e174d","665500ab8938657b03fbdba8","6657923eb651b453ebb03e3c","840","stimuli/20001112.jpg"," ","","feedback_trial","2","","","","","","","","","","","","","","","","","","","","",""
"","","","","","image-keyboard-response","200","497049","0.0-175.0","5e8b9c7054a5cc07dd6e174d","665500ab8938657b03fbdba8","6657923eb651b453ebb03e3c","2577","stimuli/0111011.jpg","0","","prediction_trial","0","","true","","0","true","true","false","false","false","false","[2,1,0]","111","011","1","","","","","","",""
"","","","","","image-keyboard-response","201","497934","0.0-176.0","5e8b9c7054a5cc07dd6e174d","665500ab8938657b03fbdba8","6657923eb651b453ebb03e3c","884","stimuli/01110110.jpg"," ","","feedback_trial","2","","","","","","","","","","","","","","","","","","","","",""
"","","","","","image-keyboard-response","202","499135","0.0-177.0","5e8b9c7054a5cc07dd6e174d","665500ab8938657b03fbdba8","6657923eb651b453ebb03e3c","1200","stimuli/2110000.jpg","2","","prediction_trial","2","","true","","2","true","true","true","true","true","true","[2]","110","000","1","","","","","","",""
"","","","","","image-keyboard-response","203","499862","0.0-178.0","5e8b9c7054a5cc07dd6e174d","665500ab8938657b03fbdba8","6657923eb651b453ebb03e3c","726","stimuli/21100002.jpg"," ","","feedback_trial","2","","","","","","","","","","","","","","","","","","","","",""
"","","","","","image-keyboard-response","204","501668","0.0-179.0","5e8b9c7054a5cc07dd6e174d","665500ab8938657b03fbdba8","6657923eb651b453ebb03e3c","1805","stimuli/0100100.jpg","0","","prediction_trial","0","","true","","0","false","true","false","true","false","true","[0]","100","100","1","","","","","","",""
"","","","","","image-keyboard-response","205","502202","0.0-180.0","5e8b9c7054a5cc07dd6e174d","665500ab8938657b03fbdba8","6657923eb651b453ebb03e3c","534","stimuli/01001000.jpg"," ","","feedback_trial","0","","","","","","","","","","","","","","","","","","","","",""
"","","","","","image-keyboard-response","206","503432","0.0-181.0","5e8b9c7054a5cc07dd6e174d","665500ab8938657b03fbdba8","6657923eb651b453ebb03e3c","1228","stimuli/2100100.jpg","2","","prediction_trial","2","","true","","2","true","true","true","true","true","true","[2]","100","100","1","","","","","","",""
"","","","","","image-keyboard-response","207","504232","0.0-182.0","5e8b9c7054a5cc07dd6e174d","665500ab8938657b03fbdba8","6657923eb651b453ebb03e3c","799","stimuli/21001002.jpg"," ","","feedback_trial","2","","","","","","","","","","","","","","","","","","","","",""
"","","","","","image-keyboard-response","208","507315","0.0-183.0","5e8b9c7054a5cc07dd6e174d","665500ab8938657b03fbdba8","6657923eb651b453ebb03e3c","3083","stimuli/0101101.jpg","0","","prediction_trial","0","","true","","0","false","false","false","false","false","false","[0,2]","101","101","1","","","","","","",""
"","","","","","image-keyboard-response","209","508073","0.0-184.0","5e8b9c7054a5cc07dd6e174d","665500ab8938657b03fbdba8","6657923eb651b453ebb03e3c","757","stimuli/01011010.jpg"," ","","feedback_trial","0","","","","","","","","","","","","","","","","","","","","",""
"","","","","","image-keyboard-response","210","512059","0.0-185.0","5e8b9c7054a5cc07dd6e174d","665500ab8938657b03fbdba8","6657923eb651b453ebb03e3c","3986","stimuli/1001111.jpg","1","","prediction_trial","1","","true","","1","false","false","true","true","false","false","[1]","001","111","1","","","","","","",""
"","","","","","image-keyboard-response","211","513015","0.0-186.0","5e8b9c7054a5cc07dd6e174d","665500ab8938657b03fbdba8","6657923eb651b453ebb03e3c","955","stimuli/10011111.jpg"," ","","feedback_trial","1","","","","","","","","","","","","","","","","","","","","",""
"","","","","","image-keyboard-response","212","514357","0.0-187.0","5e8b9c7054a5cc07dd6e174d","665500ab8938657b03fbdba8","6657923eb651b453ebb03e3c","1341","stimuli/0001011.jpg","0","","prediction_trial","0","","true","","0","true","true","true","true","true","true","[0]","001","011","1","","","","","","",""
"","","","","","image-keyboard-response","213","515164","0.0-188.0","5e8b9c7054a5cc07dd6e174d","665500ab8938657b03fbdba8","6657923eb651b453ebb03e3c","807","stimuli/00010110.jpg"," ","","feedback_trial","0","","","","","","","","","","","","","","","","","","","","",""
"","","","","","image-keyboard-response","214","518651","0.0-189.0","5e8b9c7054a5cc07dd6e174d","665500ab8938657b03fbdba8","6657923eb651b453ebb03e3c","3486","stimuli/2111101.jpg","2","","prediction_trial","1","","false","","2","false","false","false","false","false","false","[2,1,0]","111","101","0","","","","","","",""
"","","","","","image-keyboard-response","215","519443","0.0-190.0","5e8b9c7054a5cc07dd6e174d","665500ab8938657b03fbdba8","6657923eb651b453ebb03e3c","792","stimuli/21111011.jpg"," ","","feedback_trial","2","","","","","","","","","","","","","","","","","","","","",""
"","","","","","image-keyboard-response","216","522696","0.0-191.0","5e8b9c7054a5cc07dd6e174d","665500ab8938657b03fbdba8","6657923eb651b453ebb03e3c","3253","stimuli/1001011.jpg","1","","prediction_trial","1","","true","","1","false","false","true","true","false","false","[1]","001","011","1","","","","","","",""
"","","","","","image-keyboard-response","217","523449","0.0-192.0","5e8b9c7054a5cc07dd6e174d","665500ab8938657b03fbdba8","6657923eb651b453ebb03e3c","753","stimuli/10010111.jpg"," ","","feedback_trial","1","","","","","","","","","","","","","","","","","","","","",""
"","","","","","image-keyboard-response","218","525298","0.0-193.0","5e8b9c7054a5cc07dd6e174d","665500ab8938657b03fbdba8","6657923eb651b453ebb03e3c","1846","stimuli/1000101.jpg","1","","prediction_trial","1","","true","","1","true","true","true","true","true","true","[1]","000","101","1","","","","","","",""
"","","","","","image-keyboard-response","219","525991","0.0-194.0","5e8b9c7054a5cc07dd6e174d","665500ab8938657b03fbdba8","6657923eb651b453ebb03e3c","692","stimuli/10001011.jpg"," ","","feedback_trial","1","","","","","","","","","","","","","","","","","","","","",""
"","","","","","image-keyboard-response","220","528604","0.0-195.0","5e8b9c7054a5cc07dd6e174d","665500ab8938657b03fbdba8","6657923eb651b453ebb03e3c","2613","stimuli/0001100.jpg","0","","prediction_trial","0","","true","","0","false","true","true","true","false","true","[0]","001","100","1","","","","","","",""
"","","","","","image-keyboard-response","221","529364","0.0-196.0","5e8b9c7054a5cc07dd6e174d","665500ab8938657b03fbdba8","6657923eb651b453ebb03e3c","760","stimuli/00011000.jpg"," ","","feedback_trial","0","","","","","","","","","","","","","","","","","","","","",""
"","","","","","image-keyboard-response","222","532019","0.0-197.0","5e8b9c7054a5cc07dd6e174d","665500ab8938657b03fbdba8","6657923eb651b453ebb03e3c","2654","stimuli/2010000.jpg","2","","prediction_trial","2","","true","","2","true","true","true","true","true","true","[2]","010","000","1","","","","","","",""
"","","","","","image-keyboard-response","223","532761","0.0-198.0","5e8b9c7054a5cc07dd6e174d","665500ab8938657b03fbdba8","6657923eb651b453ebb03e3c","742","stimuli/20100002.jpg"," ","","feedback_trial","2","","","","","","","","","","","","","","","","","","","","",""
"","","","","","image-keyboard-response","224","538159","0.0-199.0","5e8b9c7054a5cc07dd6e174d","665500ab8938657b03fbdba8","6657923eb651b453ebb03e3c","5397","stimuli/0110011.jpg","1","","prediction_trial","1","","true","","0","true","true","false","false","false","false","[1,0]","110","011","1","","","","","","",""
"","","","","","image-keyboard-response","225","538988","0.0-200.0","5e8b9c7054a5cc07dd6e174d","665500ab8938657b03fbdba8","6657923eb651b453ebb03e3c","828","stimuli/01100111.jpg"," ","","feedback_trial","1","","","","","","","","","","","","","","","","","","","","",""
"","","","","","image-keyboard-response","226","540692","0.0-201.0","5e8b9c7054a5cc07dd6e174d","665500ab8938657b03fbdba8","6657923eb651b453ebb03e3c","1704","stimuli/2010110.jpg","2","","prediction_trial","2","","true","","2","true","true","true","true","true","true","[2]","010","110","1","","","","","","",""
"","","","","","image-keyboard-response","227","541383","0.0-202.0","5e8b9c7054a5cc07dd6e174d","665500ab8938657b03fbdba8","6657923eb651b453ebb03e3c","691","stimuli/20101102.jpg"," ","","feedback_trial","2","","","","","","","","","","","","","","","","","","","","",""
"","","","","","image-keyboard-response","228","543687","0.0-203.0","5e8b9c7054a5cc07dd6e174d","665500ab8938657b03fbdba8","6657923eb651b453ebb03e3c","2303","stimuli/1111111.jpg","0","","prediction_trial","0","","true","","1","false","false","false","false","false","false","[2,1,0]","111","111","1","","","","","","",""
"","","","","","image-keyboard-response","229","544331","0.0-204.0","5e8b9c7054a5cc07dd6e174d","665500ab8938657b03fbdba8","6657923eb651b453ebb03e3c","644","stimuli/11111110.jpg"," ","","feedback_trial","2","","","","","","","","","","","","","","","","","","","","",""
"","","","","","image-keyboard-response","230","547253","0.0-205.0","5e8b9c7054a5cc07dd6e174d","665500ab8938657b03fbdba8","6657923eb651b453ebb03e3c","2919","stimuli/2011110.jpg","1","","prediction_trial","1","","true","","2","true","true","false","false","false","false","[2,1]","011","110","1","","","","","","",""
"","","","","","image-keyboard-response","231","547953","0.0-206.0","5e8b9c7054a5cc07dd6e174d","665500ab8938657b03fbdba8","6657923eb651b453ebb03e3c","699","stimuli/20111101.jpg"," ","","feedback_trial","2","","","","","","","","","","","","","","","","","","","","",""
"","","","","","image-keyboard-response","232","550192","0.0-207.0","5e8b9c7054a5cc07dd6e174d","665500ab8938657b03fbdba8","6657923eb651b453ebb03e3c","2238","stimuli/2001110.jpg","2","","prediction_trial","2","","true","","2","true","true","false","true","false","true","[2]","001","110","1","","","","","","",""
"","","","","","image-keyboard-response","233","550810","0.0-208.0","5e8b9c7054a5cc07dd6e174d","665500ab8938657b03fbdba8","6657923eb651b453ebb03e3c","618","stimuli/20011102.jpg"," ","","feedback_trial","2","","","","","","","","","","","","","","","","","","","","",""
"","","","","","image-keyboard-response","234","551975","0.0-209.0","5e8b9c7054a5cc07dd6e174d","665500ab8938657b03fbdba8","6657923eb651b453ebb03e3c","1165","stimuli/0011000.jpg","0","","prediction_trial","0","","true","","0","true","true","true","true","true","true","[0]","011","000","1","","","","","","",""
"","","","","","image-keyboard-response","235","552362","0.0-210.0","5e8b9c7054a5cc07dd6e174d","665500ab8938657b03fbdba8","6657923eb651b453ebb03e3c","386","stimuli/00110000.jpg"," ","","feedback_trial","0","","","","","","","","","","","","","","","","","","","","",""
"","","","","","image-keyboard-response","236","556736","0.0-211.0","5e8b9c7054a5cc07dd6e174d","665500ab8938657b03fbdba8","6657923eb651b453ebb03e3c","4369","stimuli/1100111.jpg","0","","prediction_trial","1","","false","","1","false","false","true","true","false","false","[1]","100","111","0","","","","","","",""
"","","","","","image-keyboard-response","237","557423","0.0-212.0","5e8b9c7054a5cc07dd6e174d","665500ab8938657b03fbdba8","6657923eb651b453ebb03e3c","686","stimuli/11001111.jpg"," ","","feedback_trial","1","","","","","","","","","","","","","","","","","","","","",""
"","","","","","image-keyboard-response","238","559524","0.0-213.0","5e8b9c7054a5cc07dd6e174d","665500ab8938657b03fbdba8","6657923eb651b453ebb03e3c","2101","stimuli/0100000.jpg","0","","prediction_trial","0","","true","","0","true","true","false","true","false","true","[0]","100","000","1","","","","","","",""
"","","","","","image-keyboard-response","239","560265","0.0-214.0","5e8b9c7054a5cc07dd6e174d","665500ab8938657b03fbdba8","6657923eb651b453ebb03e3c","740","stimuli/01000000.jpg"," ","","feedback_trial","0","","","","","","","","","","","","","","","","","","","","",""
"","","","","","image-keyboard-response","240","562089","0.0-215.0","5e8b9c7054a5cc07dd6e174d","665500ab8938657b03fbdba8","6657923eb651b453ebb03e3c","1823","stimuli/2001010.jpg","2","","prediction_trial","2","","true","","2","true","true","false","true","false","true","[2]","001","010","1","","","","","","",""
"","","","","","image-keyboard-response","241","562602","0.0-216.0","5e8b9c7054a5cc07dd6e174d","665500ab8938657b03fbdba8","6657923eb651b453ebb03e3c","513","stimuli/20010102.jpg"," ","","feedback_trial","2","","","","","","","","","","","","","","","","","","","","",""
"","","","","","image-keyboard-response","242","564002","0.0-217.0","5e8b9c7054a5cc07dd6e174d","665500ab8938657b03fbdba8","6657923eb651b453ebb03e3c","1399","stimuli/0001001.jpg","0","","prediction_trial","0","","true","","0","true","true","true","true","true","true","[0]","001","001","1","","","","","","",""
"","","","","","image-keyboard-response","243","564623","0.0-218.0","5e8b9c7054a5cc07dd6e174d","665500ab8938657b03fbdba8","6657923eb651b453ebb03e3c","620","stimuli/00010010.jpg"," ","","feedback_trial","0","","","","","","","","","","","","","","","","","","","","",""
"","","","","","image-keyboard-response","244","568216","0.0-219.0","5e8b9c7054a5cc07dd6e174d","665500ab8938657b03fbdba8","6657923eb651b453ebb03e3c","3593","stimuli/1011111.jpg","2","","prediction_trial","1","","false","","1","false","false","false","false","false","false","[2,1]","011","111","0","","","","","","",""
"","","","","","image-keyboard-response","245","568825","0.0-220.0","5e8b9c7054a5cc07dd6e174d","665500ab8938657b03fbdba8","6657923eb651b453ebb03e3c","608","stimuli/10111111.jpg"," ","","feedback_trial","2","","","","","","","","","","","","","","","","","","","","",""
"","","","","","image-keyboard-response","246","570871","0.0-221.0","5e8b9c7054a5cc07dd6e174d","665500ab8938657b03fbdba8","6657923eb651b453ebb03e3c","2046","stimuli/2011100.jpg","2","","prediction_trial","2","","true","","2","true","true","false","false","false","false","[1,2]","011","100","1","","","","","","",""
"","","","","","image-keyboard-response","247","571552","0.0-222.0","5e8b9c7054a5cc07dd6e174d","665500ab8938657b03fbdba8","6657923eb651b453ebb03e3c","680","stimuli/20111002.jpg"," ","","feedback_trial","1","","","","","","","","","","","","","","","","","","","","",""
"","","","","","image-keyboard-response","248","576227","0.0-223.0","5e8b9c7054a5cc07dd6e174d","665500ab8938657b03fbdba8","6657923eb651b453ebb03e3c","4673","stimuli/2111010.jpg","1","","prediction_trial","2","","false","","2","true","true","false","false","false","false","[0,1,2]","111","010","0","","","","","","",""
"","","","","","image-keyboard-response","249","577023","0.0-224.0","5e8b9c7054a5cc07dd6e174d","665500ab8938657b03fbdba8","6657923eb651b453ebb03e3c","796","stimuli/21110102.jpg"," ","","feedback_trial","0","","","","","","","","","","","","","","","","","","","","",""
"","","","","","image-keyboard-response","250","580170","0.0-225.0","5e8b9c7054a5cc07dd6e174d","665500ab8938657b03fbdba8","6657923eb651b453ebb03e3c","3146","stimuli/0111100.jpg","2","","prediction_trial","1","","false","","0","false","true","false","false","false","false","[1,0,2]","111","100","0","","","","","","",""
"","","","","","image-keyboard-response","251","580853","0.0-226.0","5e8b9c7054a5cc07dd6e174d","665500ab8938657b03fbdba8","6657923eb651b453ebb03e3c","682","stimuli/01111001.jpg"," ","","feedback_trial","1","","","","","","","","","","","","","","","","","","","","",""
"","","","","","image-keyboard-response","252","582137","0.0-227.0","5e8b9c7054a5cc07dd6e174d","665500ab8938657b03fbdba8","6657923eb651b453ebb03e3c","1284","stimuli/2010100.jpg","2","","prediction_trial","2","","true","","2","true","true","true","true","true","true","[2]","010","100","1","","","","","","",""
"","","","","","image-keyboard-response","253","582705","0.0-228.0","5e8b9c7054a5cc07dd6e174d","665500ab8938657b03fbdba8","6657923eb651b453ebb03e3c","567","stimuli/20101002.jpg"," ","","feedback_trial","2","","","","","","","","","","","","","","","","","","","","",""
"","","","","","image-keyboard-response","254","585275","0.0-229.0","5e8b9c7054a5cc07dd6e174d","665500ab8938657b03fbdba8","6657923eb651b453ebb03e3c","2570","stimuli/1011000.jpg","1","","prediction_trial","2","","false","","1","true","true","false","false","false","false","[2,1]","011","000","0","","","","","","",""
"","","","","","image-keyboard-response","255","585920","0.0-230.0","5e8b9c7054a5cc07dd6e174d","665500ab8938657b03fbdba8","6657923eb651b453ebb03e3c","644","stimuli/10110002.jpg"," ","","feedback_trial","2","","","","","","","","","","","","","","","","","","","","",""
"","","","","","image-keyboard-response","256","587864","0.0-231.0","5e8b9c7054a5cc07dd6e174d","665500ab8938657b03fbdba8","6657923eb651b453ebb03e3c","1944","stimuli/1111000.jpg","1","","prediction_trial","1","","true","","1","true","true","false","false","false","false","[0,1,2]","111","000","1","","","","","","",""
"","","","","","image-keyboard-response","257","588553","0.0-232.0","5e8b9c7054a5cc07dd6e174d","665500ab8938657b03fbdba8","6657923eb651b453ebb03e3c","688","stimuli/11110001.jpg"," ","","feedback_trial","0","","","","","","","","","","","","","","","","","","","","",""
"","","","","","image-keyboard-response","258","590468","0.0-233.0","5e8b9c7054a5cc07dd6e174d","665500ab8938657b03fbdba8","6657923eb651b453ebb03e3c","1914","stimuli/2001000.jpg","2","","prediction_trial","2","","true","","2","true","true","false","true","false","true","[2]","001","000","1","","","","","","",""
"","","","","","image-keyboard-response","259","591081","0.0-234.0","5e8b9c7054a5cc07dd6e174d","665500ab8938657b03fbdba8","6657923eb651b453ebb03e3c","612","stimuli/20010002.jpg"," ","","feedback_trial","2","","","","","","","","","","","","","","","","","","","","",""
"","","","","","image-keyboard-response","260","595194","0.0-235.0","5e8b9c7054a5cc07dd6e174d","665500ab8938657b03fbdba8","6657923eb651b453ebb03e3c","4111","stimuli/1110010.jpg","0","","prediction_trial","0","","true","","1","false","true","false","false","false","false","[0,1]","110","010","1","","","","","","",""
"","","","","","image-keyboard-response","261","595788","0.0-236.0","5e8b9c7054a5cc07dd6e174d","665500ab8938657b03fbdba8","6657923eb651b453ebb03e3c","593","stimuli/11100100.jpg"," ","","feedback_trial","0","","","","","","","","","","","","","","","","","","","","",""
"","","","","","image-keyboard-response","262","601208","0.0-237.0","5e8b9c7054a5cc07dd6e174d","665500ab8938657b03fbdba8","6657923eb651b453ebb03e3c","5420","stimuli/0110101.jpg","2","","prediction_trial","0","","false","","0","false","false","false","false","false","false","[1,0]","110","101","0","","","","","","",""
"","","","","","image-keyboard-response","263","601942","0.0-238.0","5e8b9c7054a5cc07dd6e174d","665500ab8938657b03fbdba8","6657923eb651b453ebb03e3c","733","stimuli/01101010.jpg"," ","","feedback_trial","1","","","","","","","","","","","","","","","","","","","","",""
"","","","","","image-keyboard-response","264","605310","0.0-239.0","5e8b9c7054a5cc07dd6e174d","665500ab8938657b03fbdba8","6657923eb651b453ebb03e3c","3367","stimuli/2001100.jpg","2","","prediction_trial","2","","true","","2","true","true","false","true","false","true","[2]","001","100","1","","","","","","",""
"","","","","","image-keyboard-response","265","606003","0.0-240.0","5e8b9c7054a5cc07dd6e174d","665500ab8938657b03fbdba8","6657923eb651b453ebb03e3c","692","stimuli/20011002.jpg"," ","","feedback_trial","2","","","","","","","","","","","","","","","","","","","","",""
"","","","","","image-keyboard-response","266","608479","0.0-241.0","5e8b9c7054a5cc07dd6e174d","665500ab8938657b03fbdba8","6657923eb651b453ebb03e3c","2474","stimuli/0111101.jpg","0","","prediction_trial","2","","false","","0","false","false","false","false","false","false","[2,0,1]","111","101","0","","","","","","",""
"","","","","","image-keyboard-response","267","609095","0.0-242.0","5e8b9c7054a5cc07dd6e174d","665500ab8938657b03fbdba8","6657923eb651b453ebb03e3c","615","stimuli/01111012.jpg"," ","","feedback_trial","2","","","","","","","","","","","","","","","","","","","","",""
"","","","","","image-keyboard-response","268","611042","0.0-243.0","5e8b9c7054a5cc07dd6e174d","665500ab8938657b03fbdba8","6657923eb651b453ebb03e3c","1947","stimuli/2011111.jpg","0","","prediction_trial","1","","false","","2","false","false","false","false","false","false","[2,1]","011","111","0","","","","","","",""
"","","","","","image-keyboard-response","269","612001","0.0-244.0","5e8b9c7054a5cc07dd6e174d","665500ab8938657b03fbdba8","6657923eb651b453ebb03e3c","958","stimuli/20111111.jpg"," ","","feedback_trial","2","","","","","","","","","","","","","","","","","","","","",""
"","","","","","image-keyboard-response","270","613663","0.0-245.0","5e8b9c7054a5cc07dd6e174d","665500ab8938657b03fbdba8","6657923eb651b453ebb03e3c","1662","stimuli/2111000.jpg","2","","prediction_trial","1","","false","","2","true","true","false","false","false","false","[2,1,0]","111","000","0","","","","","","",""
"","","","","","image-keyboard-response","271","614437","0.0-246.0","5e8b9c7054a5cc07dd6e174d","665500ab8938657b03fbdba8","6657923eb651b453ebb03e3c","773","stimuli/21110001.jpg"," ","","feedback_trial","2","","","","","","","","","","","","","","","","","","","","",""
"","","","","","image-keyboard-response","272","616483","0.0-247.0","5e8b9c7054a5cc07dd6e174d","665500ab8938657b03fbdba8","6657923eb651b453ebb03e3c","2046","stimuli/1110011.jpg","2","","prediction_trial","1","","false","","1","false","false","false","false","false","false","[0,1]","110","011","0","","","","","","",""
"","","","","","image-keyboard-response","273","617277","0.0-248.0","5e8b9c7054a5cc07dd6e174d","665500ab8938657b03fbdba8","6657923eb651b453ebb03e3c","796","stimuli/11100111.jpg"," ","","feedback_trial","0","","","","","","","","","","","","","","","","","","","","",""
"","","","","","image-keyboard-response","274","621870","0.0-249.0","5e8b9c7054a5cc07dd6e174d","665500ab8938657b03fbdba8","6657923eb651b453ebb03e3c","4592","stimuli/1110100.jpg","1","","prediction_trial","1","","true","","1","true","true","false","false","false","false","[0,1]","110","100","1","","","","","","",""
"","","","","","image-keyboard-response","275","622445","0.0-250.0","5e8b9c7054a5cc07dd6e174d","665500ab8938657b03fbdba8","6657923eb651b453ebb03e3c","575","stimuli/11101001.jpg"," ","","feedback_trial","0","","","","","","","","","","","","","","","","","","","","",""
"","","","","","image-keyboard-response","276","623738","0.0-251.0","5e8b9c7054a5cc07dd6e174d","665500ab8938657b03fbdba8","6657923eb651b453ebb03e3c","1292","stimuli/2100010.jpg","2","","prediction_trial","2","","true","","2","true","true","true","true","true","true","[2]","100","010","1","","","","","","",""
"","","","","","image-keyboard-response","277","624265","0.0-252.0","5e8b9c7054a5cc07dd6e174d","665500ab8938657b03fbdba8","6657923eb651b453ebb03e3c","527","stimuli/21000102.jpg"," ","","feedback_trial","2","","","","","","","","","","","","","","","","","","","","",""
"","","","","","image-keyboard-response","278","627379","0.0-253.0","5e8b9c7054a5cc07dd6e174d","665500ab8938657b03fbdba8","6657923eb651b453ebb03e3c","3111","stimuli/2101101.jpg","2","","prediction_trial","0","","false","","2","false","false","false","false","false","false","[0,2]","101","101","0","","","","","","",""
"","","","","","image-keyboard-response","279","628044","0.0-254.0","5e8b9c7054a5cc07dd6e174d","665500ab8938657b03fbdba8","6657923eb651b453ebb03e3c","664","stimuli/21011010.jpg"," ","","feedback_trial","0","","","","","","","","","","","","","","","","","","","","",""
"","","","","","image-keyboard-response","280","631887","0.0-255.0","5e8b9c7054a5cc07dd6e174d","665500ab8938657b03fbdba8","6657923eb651b453ebb03e3c","3842","stimuli/0101011.jpg","0","","prediction_trial","2","","false","","0","true","true","false","false","false","false","[2,0]","101","011","0","","","","","","",""
"","","","","","image-keyboard-response","281","632617","0.0-256.0","5e8b9c7054a5cc07dd6e174d","665500ab8938657b03fbdba8","6657923eb651b453ebb03e3c","729","stimuli/01010112.jpg"," ","","feedback_trial","2","","","","","","","","","","","","","","","","","","","","",""
"","","","","","image-keyboard-response","282","636058","0.0-257.0","5e8b9c7054a5cc07dd6e174d","665500ab8938657b03fbdba8","6657923eb651b453ebb03e3c","3441","stimuli/2001101.jpg","0","","prediction_trial","2","","false","","2","false","false","false","true","false","false","[2]","001","101","0","","","","","","",""
"","","","","","image-keyboard-response","283","636756","0.0-258.0","5e8b9c7054a5cc07dd6e174d","665500ab8938657b03fbdba8","6657923eb651b453ebb03e3c","698","stimuli/20011012.jpg"," ","","feedback_trial","2","","","","","","","","","","","","","","","","","","","","",""
"","","","","","image-keyboard-response","284","637987","0.0-259.0","5e8b9c7054a5cc07dd6e174d","665500ab8938657b03fbdba8","6657923eb651b453ebb03e3c","1228","stimuli/0000010.jpg","0","","prediction_trial","0","","true","","0","true","true","true","true","true","true","[0]","000","010","1","","","","","","",""
"","","","","","image-keyboard-response","285","638535","0.0-260.0","5e8b9c7054a5cc07dd6e174d","665500ab8938657b03fbdba8","6657923eb651b453ebb03e3c","548","stimuli/00000100.jpg"," ","","feedback_trial","0","","","","","","","","","","","","","","","","","","","","",""
"","","","","","image-keyboard-response","286","642690","0.0-261.0","5e8b9c7054a5cc07dd6e174d","665500ab8938657b03fbdba8","6657923eb651b453ebb03e3c","4154","stimuli/0000110.jpg","1","","prediction_trial","0","","false","","0","false","false","true","true","false","false","[0]","000","110","0","","","","","","",""
"","","","","","image-keyboard-response","287","643481","0.0-262.0","5e8b9c7054a5cc07dd6e174d","665500ab8938657b03fbdba8","6657923eb651b453ebb03e3c","791","stimuli/00001100.jpg"," ","","feedback_trial","0","","","","","","","","","","","","","","","","","","","","",""
"","","","","","image-keyboard-response","288","646696","0.0-263.0","5e8b9c7054a5cc07dd6e174d","665500ab8938657b03fbdba8","6657923eb651b453ebb03e3c","3215","stimuli/2101001.jpg","2","","prediction_trial","0","","false","","2","false","true","false","false","false","false","[0,2]","101","001","0","","","","","","",""
"","","","","","image-keyboard-response","289","649988","0.0-264.0","5e8b9c7054a5cc07dd6e174d","665500ab8938657b03fbdba8","6657923eb651b453ebb03e3c","3291","stimuli/21010010.jpg"," ","","feedback_trial","0","","","","","","","","","","","","","","","","","","","","",""
"","","","","","image-keyboard-response","290","658621","0.0-265.0","5e8b9c7054a5cc07dd6e174d","665500ab8938657b03fbdba8","6657923eb651b453ebb03e3c","8631","stimuli/1000111.jpg","2","","prediction_trial","1","","false","","1","false","false","true","true","false","false","[1]","000","111","0","","","","","","",""
"","","","","","image-keyboard-response","291","659432","0.0-266.0","5e8b9c7054a5cc07dd6e174d","665500ab8938657b03fbdba8","6657923eb651b453ebb03e3c","811","stimuli/10001111.jpg"," ","","feedback_trial","1","","","","","","","","","","","","","","","","","","","","",""
"","","","","","image-keyboard-response","292","662795","0.0-267.0","5e8b9c7054a5cc07dd6e174d","665500ab8938657b03fbdba8","6657923eb651b453ebb03e3c","3362","stimuli/0100001.jpg","0","","prediction_trial","0","","true","","0","true","true","false","true","false","true","[0]","100","001","1","","","","","","",""
"","","","","","image-keyboard-response","293","663441","0.0-268.0","5e8b9c7054a5cc07dd6e174d","665500ab8938657b03fbdba8","6657923eb651b453ebb03e3c","646","stimuli/01000010.jpg"," ","","feedback_trial","0","","","","","","","","","","","","","","","","","","","","",""
"","","","","","image-keyboard-response","294","665766","0.0-269.0","5e8b9c7054a5cc07dd6e174d","665500ab8938657b03fbdba8","6657923eb651b453ebb03e3c","2324","stimuli/1010001.jpg","1","","prediction_trial","1","","true","","1","true","true","false","true","false","true","[1]","010","001","1","","","","","","",""
"","","","","","image-keyboard-response","295","666262","0.0-270.0","5e8b9c7054a5cc07dd6e174d","665500ab8938657b03fbdba8","6657923eb651b453ebb03e3c","495","stimuli/10100011.jpg"," ","","feedback_trial","1","","","","","","","","","","","","","","","","","","","","",""
"","","","","","image-keyboard-response","296","667909","0.0-271.0","5e8b9c7054a5cc07dd6e174d","665500ab8938657b03fbdba8","6657923eb651b453ebb03e3c","1645","stimuli/0111111.jpg","2","","prediction_trial","2","","true","","0","false","false","false","false","false","false","[0,1,2]","111","111","1","","","","","","",""
"","","","","","image-keyboard-response","297","668469","0.0-272.0","5e8b9c7054a5cc07dd6e174d","665500ab8938657b03fbdba8","6657923eb651b453ebb03e3c","559","stimuli/01111112.jpg"," ","","feedback_trial","0","","","","","","","","","","","","","","","","","","","","",""
"","","","","","image-keyboard-response","298","670866","0.0-273.0","5e8b9c7054a5cc07dd6e174d","665500ab8938657b03fbdba8","6657923eb651b453ebb03e3c","2396","stimuli/0100111.jpg","0","","prediction_trial","0","","true","","0","false","false","false","true","false","false","[0]","100","111","1","","","","","","",""
"","","","","","image-keyboard-response","299","671455","0.0-274.0","5e8b9c7054a5cc07dd6e174d","665500ab8938657b03fbdba8","6657923eb651b453ebb03e3c","589","stimuli/01001110.jpg"," ","","feedback_trial","0","","","","","","","","","","","","","","","","","","","","",""
"","","","","","image-keyboard-response","300","673937","0.0-275.0","5e8b9c7054a5cc07dd6e174d","665500ab8938657b03fbdba8","6657923eb651b453ebb03e3c","2481","stimuli/1001010.jpg","1","","prediction_trial","1","","true","","1","false","true","true","true","false","true","[1]","001","010","1","","","","","","",""
"","","","","","image-keyboard-response","301","674507","0.0-276.0","5e8b9c7054a5cc07dd6e174d","665500ab8938657b03fbdba8","6657923eb651b453ebb03e3c","570","stimuli/10010101.jpg"," ","","feedback_trial","1","","","","","","","","","","","","","","","","","","","","",""
"","","","","","image-keyboard-response","302","677041","0.0-277.0","5e8b9c7054a5cc07dd6e174d","665500ab8938657b03fbdba8","6657923eb651b453ebb03e3c","2531","stimuli/1100010.jpg","1","","prediction_trial","1","","true","","1","false","true","true","true","false","true","[1]","100","010","1","","","","","","",""
"","","","","","image-keyboard-response","303","677821","0.0-278.0","5e8b9c7054a5cc07dd6e174d","665500ab8938657b03fbdba8","6657923eb651b453ebb03e3c","777","stimuli/11000101.jpg"," ","","feedback_trial","1","","","","","","","","","","","","","","","","","","","","",""
"","","","","","image-keyboard-response","304","681218","0.0-279.0","5e8b9c7054a5cc07dd6e174d","665500ab8938657b03fbdba8","6657923eb651b453ebb03e3c","3397","stimuli/2001011.jpg","2","","prediction_trial","2","","true","","2","false","false","false","true","false","false","[2]","001","011","1","","","","","","",""
"","","","","","image-keyboard-response","305","681870","0.0-280.0","5e8b9c7054a5cc07dd6e174d","665500ab8938657b03fbdba8","6657923eb651b453ebb03e3c","652","stimuli/20010112.jpg"," ","","feedback_trial","2","","","","","","","","","","","","","","","","","","","","",""
"","","","","","image-keyboard-response","306","683090","0.0-281.0","5e8b9c7054a5cc07dd6e174d","665500ab8938657b03fbdba8","6657923eb651b453ebb03e3c","1220","stimuli/2000100.jpg","2","","prediction_trial","2","","true","","2","true","true","true","true","true","true","[2]","000","100","1","","","","","","",""
"","","","","","image-keyboard-response","307","683654","0.0-282.0","5e8b9c7054a5cc07dd6e174d","665500ab8938657b03fbdba8","6657923eb651b453ebb03e3c","563","stimuli/20001002.jpg"," ","","feedback_trial","2","","","","","","","","","","","","","","","","","","","","",""
"","","","","","image-keyboard-response","308","686550","0.0-283.0","5e8b9c7054a5cc07dd6e174d","665500ab8938657b03fbdba8","6657923eb651b453ebb03e3c","2896","stimuli/0110110.jpg","1","","prediction_trial","1","","true","","0","false","false","false","false","false","false","[1,0]","110","110","1","","","","","","",""
"","","","","","image-keyboard-response","309","687175","0.0-284.0","5e8b9c7054a5cc07dd6e174d","665500ab8938657b03fbdba8","6657923eb651b453ebb03e3c","624","stimuli/01101101.jpg"," ","","feedback_trial","1","","","","","","","","","","","","","","","","","","","","",""
"","","","","","image-keyboard-response","310","688333","0.0-285.0","5e8b9c7054a5cc07dd6e174d","665500ab8938657b03fbdba8","6657923eb651b453ebb03e3c","1157","stimuli/1100100.jpg","1","","prediction_trial","1","","true","","1","true","true","true","true","true","true","[1]","100","100","1","","","","","","",""
"","","","","","image-keyboard-response","311","688798","0.0-286.0","5e8b9c7054a5cc07dd6e174d","665500ab8938657b03fbdba8","6657923eb651b453ebb03e3c","465","stimuli/11001001.jpg"," ","","feedback_trial","1","","","","","","","","","","","","","","","","","","","","",""
"","","","","","image-keyboard-response","312","690836","0.0-287.0","5e8b9c7054a5cc07dd6e174d","665500ab8938657b03fbdba8","6657923eb651b453ebb03e3c","2037","stimuli/1111011.jpg","1","","prediction_trial","0","","false","","1","false","false","false","false","false","false","[2,0,1]","111","011","0","","","","","","",""
"","","","","","image-keyboard-response","313","691629","0.0-288.0","5e8b9c7054a5cc07dd6e174d","665500ab8938657b03fbdba8","6657923eb651b453ebb03e3c","793","stimuli/11110110.jpg"," ","","feedback_trial","2","","","","","","","","","","","","","","","","","","","","",""
"","","","","","image-keyboard-response","314","701294","0.0-289.0","5e8b9c7054a5cc07dd6e174d","665500ab8938657b03fbdba8","6657923eb651b453ebb03e3c","9663","stimuli/1011001.jpg","1","","prediction_trial","2","","false","","1","true","true","false","false","false","false","[2,1]","011","001","0","","","","","","",""
"","","","","","image-keyboard-response","315","701979","0.0-290.0","5e8b9c7054a5cc07dd6e174d","665500ab8938657b03fbdba8","6657923eb651b453ebb03e3c","684","stimuli/10110012.jpg"," ","","feedback_trial","2","","","","","","","","","","","","","","","","","","","","",""
"","","","","","image-keyboard-response","316","708175","0.0-291.0","5e8b9c7054a5cc07dd6e174d","665500ab8938657b03fbdba8","6657923eb651b453ebb03e3c","6196","stimuli/0111110.jpg","2","","prediction_trial","0","","false","","0","false","false","false","false","false","false","[2,1,0]","111","110","0","","","","","","",""
"","","","","","image-keyboard-response","317","708990","0.0-292.0","5e8b9c7054a5cc07dd6e174d","665500ab8938657b03fbdba8","6657923eb651b453ebb03e3c","814","stimuli/01111100.jpg"," ","","feedback_trial","2","","","","","","","","","","","","","","","","","","","","",""
"","","","","","survey-html-form","318","737344","0.0-293.0","5e8b9c7054a5cc07dd6e174d","665500ab8938657b03fbdba8","6657923eb651b453ebb03e3c","28352","","{""feedback"":""Intuition and random distribution."",""age"":""51"",""gender"":""Female"",""other_gender"":"""",""race"":""White"",""other_race"":"""",""ethnicity"":""Non-Hispanic""}","","exit_survey","","","","","","","","","","","","","","","","Intuition and random distribution.","51","Non-Hispanic","Female","White","0.6597222222222222","0.6597222222222222"
