"success","timeout","failed_images","failed_audio","failed_video","trial_type","trial_index","time_elapsed","internal_node_id","prolific_id","prolific_study_id","prolific_session_id","rt","stimulus","response","view_history","trial","character_choice","stimulus_dict","accuracy","correct_response","ball_pos","ego_ball_visible","ego_can_infer","alter_ball_visible","alter_can_infer","collective_ball_visible","collective_can_infer","search_locations","alter_occluders","ego_occluders","accuracy_bool","feedback","age","ethnicity","gender","race","overall_accuracy","bonus"
"true","false","[]","[]","[]","preload","0","2518","0.0-0.0","63d83a19b8acced30d2e0d32","665500ab8938657b03fbdba8","66579613ec682fff2873a451","","","","","","","","","","","","","","","","","","","","","","","","","","",""
"true","","","","","fullscreen","1","10313","0.0-1.0","63d83a19b8acced30d2e0d32","665500ab8938657b03fbdba8","66579613ec682fff2873a451","","","","","","","","","","","","","","","","","","","","","","","","","","",""
"","","","","","html-button-response","2","12175","0.0-2.0","63d83a19b8acced30d2e0d32","665500ab8938657b03fbdba8","66579613ec682fff2873a451","1860","<p><b>Consent Form</b></p> <div style=""text-align:left;background-color:lightgrey; padding:20px; max-width:900px;""><p>Please consider this information carefully before deciding whether to participate in this research.</p> <p>The purpose of this research is to examine which factors influence social judgment and decision-making. You will be asked to make judgements about individuals and actions in social scenarios. We are simply interested in your judgement. The study will take less than 1 hour to complete, and you will receive less than $20 on Prolific. Your compensation and time commitment are specified in the study description. There are no anticipated risks associated with participating in this study. The effects of participating should be comparable to those you would ordinarily experience from viewing a computer monitor and using a mouse or keyboard for a similar amount of time. At the end of the study, we will provide an explanation of the questions that motivate this line of research and will describe the potential implications. </p><p> Your participation in this study is completely voluntary and you may refuse to participate or you may choose to withdraw at any time without penalty or loss of benefits to you which are otherwise entitled. Your participation in this study will remain confidential. No personally identifiable information will be associated with your data. Also, all analyses of the data will be averaged across all the participants, so your individual responses will never be specifically analyzed. </p><p> If you have questions or concerns about your participation or payment, or want to request a summary of research findings, please contact Dr. Jonathan Phillips at Jonathan.S.Phillips@dartmouth.edu. </p><p> Please save a copy of this form for your records. </p><p><b>Agreement: </b>The nature and purpose of this research have been sufficiently explained and I agree to participate in this study. I understand that I am free to withdraw at any time without incurring any penalty. Please consent by clicking the button below to continue. Otherwise, please exit the study at any time. </p>","0","","","","","","","","","","","","","","","","","","","","","","","",""
"","","","","","instructions","3","54494","0.0-3.0-0.0","63d83a19b8acced30d2e0d32","665500ab8938657b03fbdba8","66579613ec682fff2873a451","42319","","","[{""page_index"":0,""viewing_time"":1215},{""page_index"":1,""viewing_time"":1384},{""page_index"":2,""viewing_time"":1408},{""page_index"":3,""viewing_time"":8752},{""page_index"":4,""viewing_time"":3104},{""page_index"":5,""viewing_time"":1735},{""page_index"":6,""viewing_time"":3433},{""page_index"":7,""viewing_time"":2160},{""page_index"":8,""viewing_time"":1448},{""page_index"":9,""viewing_time"":1200},{""page_index"":10,""viewing_time"":5328},{""page_index"":11,""viewing_time"":4984},{""page_index"":12,""viewing_time"":4560},{""page_index"":13,""viewing_time"":1608}]","intro","","","","","","","","","","","","","","","","","","","","","",""
"","","","","","image-keyboard-response","4","56143","0.0-3.0-1.0","63d83a19b8acced30d2e0d32","665500ab8938657b03fbdba8","66579613ec682fff2873a451","1637","stimuli/0000001.jpg","0","","prediction_practice","0","{""filepath"":""stimuli/0000001.jpg"",""ball_pos"":0,""ego_ball_visible"":true,""ego_can_infer"":true,""alter_ball_visible"":true,""alter_can_infer"":true,""collective_ball_visible"":true,""collective_can_infer"":true,""search_locations"":[0],""alter_occluders"":""000"",""ego_occluders"":""001""}","true","","","","","","","","","","","","","","","","","","",""
"","","","","","image-keyboard-response","5","57417","0.0-3.0-2.0","63d83a19b8acced30d2e0d32","665500ab8938657b03fbdba8","66579613ec682fff2873a451","1272","stimuli/00000010.jpg"," ","","practrice_feedback","0","","","","","","","","","","","","","","","","","","","","",""
"","","","","","image-keyboard-response","6","58690","0.0-3.0-3.0","63d83a19b8acced30d2e0d32","665500ab8938657b03fbdba8","66579613ec682fff2873a451","1272","stimuli/1010000.jpg","1","","prediction_practice","1","{""filepath"":""stimuli/1010000.jpg"",""ball_pos"":1,""ego_ball_visible"":true,""ego_can_infer"":true,""alter_ball_visible"":false,""alter_can_infer"":true,""collective_ball_visible"":false,""collective_can_infer"":true,""search_locations"":[1],""alter_occluders"":""010"",""ego_occluders"":""000""}","true","","","","","","","","","","","","","","","","","","",""
"","","","","","image-keyboard-response","7","59304","0.0-3.0-4.0","63d83a19b8acced30d2e0d32","665500ab8938657b03fbdba8","66579613ec682fff2873a451","614","stimuli/10100001.jpg"," ","","practrice_feedback","1","","","","","","","","","","","","","","","","","","","","",""
"","","","","","image-keyboard-response","8","60656","0.0-3.0-5.0","63d83a19b8acced30d2e0d32","665500ab8938657b03fbdba8","66579613ec682fff2873a451","1352","stimuli/0001111.jpg","2","","prediction_practice","0","{""filepath"":""stimuli/0001111.jpg"",""ball_pos"":0,""ego_ball_visible"":false,""ego_can_infer"":false,""alter_ball_visible"":true,""alter_can_infer"":true,""collective_ball_visible"":false,""collective_can_infer"":false,""search_locations"":[0],""alter_occluders"":""001"",""ego_occluders"":""111""}","false","","","","","","","","","","","","","","","","","","",""
"","","","","","image-keyboard-response","9","61752","0.0-3.0-6.0","63d83a19b8acced30d2e0d32","665500ab8938657b03fbdba8","66579613ec682fff2873a451","1095","stimuli/00011110.jpg"," ","","practrice_feedback","0","","","","","","","","","","","","","","","","","","","","",""
"","","","","","image-keyboard-response","10","62433","0.0-3.0-7.0","63d83a19b8acced30d2e0d32","665500ab8938657b03fbdba8","66579613ec682fff2873a451","680","stimuli/1100001.jpg","1","","prediction_practice","1","{""filepath"":""stimuli/1100001.jpg"",""ball_pos"":1,""ego_ball_visible"":true,""ego_can_infer"":true,""alter_ball_visible"":true,""alter_can_infer"":true,""collective_ball_visible"":true,""collective_can_infer"":true,""search_locations"":[1],""alter_occluders"":""100"",""ego_occluders"":""001""}","true","","","","","","","","","","","","","","","","","","",""
"","","","","","image-keyboard-response","11","63664","0.0-3.0-8.0","63d83a19b8acced30d2e0d32","665500ab8938657b03fbdba8","66579613ec682fff2873a451","1231","stimuli/11000011.jpg"," ","","practrice_feedback","1","","","","","","","","","","","","","","","","","","","","",""
"","","","","","image-keyboard-response","12","64552","0.0-3.0-9.0","63d83a19b8acced30d2e0d32","665500ab8938657b03fbdba8","66579613ec682fff2873a451","887","stimuli/0111101.jpg","0","","prediction_practice","1","{""filepath"":""stimuli/0111101.jpg"",""ball_pos"":0,""ego_ball_visible"":false,""ego_can_infer"":false,""alter_ball_visible"":false,""alter_can_infer"":false,""collective_ball_visible"":false,""collective_can_infer"":false,""search_locations"":[1,2,0],""alter_occluders"":""111"",""ego_occluders"":""101""}","false","","","","","","","","","","","","","","","","","","",""
"","","","","","image-keyboard-response","13","68160","0.0-3.0-10.0","63d83a19b8acced30d2e0d32","665500ab8938657b03fbdba8","66579613ec682fff2873a451","3607","stimuli/01111011.jpg"," ","","practrice_feedback","1","","","","","","","","","","","","","","","","","","","","",""
"","","","","","image-keyboard-response","14","69976","0.0-3.0-11.0","63d83a19b8acced30d2e0d32","665500ab8938657b03fbdba8","66579613ec682fff2873a451","1816","stimuli/0101101.jpg","2","","prediction_practice","0","{""filepath"":""stimuli/0101101.jpg"",""ball_pos"":0,""ego_ball_visible"":false,""ego_can_infer"":false,""alter_ball_visible"":false,""alter_can_infer"":false,""collective_ball_visible"":false,""collective_can_infer"":false,""search_locations"":[2,0],""alter_occluders"":""101"",""ego_occluders"":""101""}","false","","","","","","","","","","","","","","","","","","",""
"","","","","","image-keyboard-response","15","72151","0.0-3.0-12.0","63d83a19b8acced30d2e0d32","665500ab8938657b03fbdba8","66579613ec682fff2873a451","2174","stimuli/01011010.jpg"," ","","practrice_feedback","2","","","","","","","","","","","","","","","","","","","","",""
"","","","","","image-keyboard-response","16","73616","0.0-3.0-13.0","63d83a19b8acced30d2e0d32","665500ab8938657b03fbdba8","66579613ec682fff2873a451","1465","stimuli/2110001.jpg","2","","prediction_practice","2","{""filepath"":""stimuli/2110001.jpg"",""ball_pos"":2,""ego_ball_visible"":false,""ego_can_infer"":true,""alter_ball_visible"":true,""alter_can_infer"":true,""collective_ball_visible"":false,""collective_can_infer"":true,""search_locations"":[2],""alter_occluders"":""110"",""ego_occluders"":""001""}","true","","","","","","","","","","","","","","","","","","",""
"","","","","","image-keyboard-response","17","74616","0.0-3.0-14.0","63d83a19b8acced30d2e0d32","665500ab8938657b03fbdba8","66579613ec682fff2873a451","999","stimuli/21100012.jpg"," ","","practrice_feedback","2","","","","","","","","","","","","","","","","","","","","",""
"","","","","","image-keyboard-response","18","75409","0.0-3.0-15.0","63d83a19b8acced30d2e0d32","665500ab8938657b03fbdba8","66579613ec682fff2873a451","793","stimuli/1110011.jpg","2","","prediction_practice","1","{""filepath"":""stimuli/1110011.jpg"",""ball_pos"":1,""ego_ball_visible"":false,""ego_can_infer"":false,""alter_ball_visible"":false,""alter_can_infer"":false,""collective_ball_visible"":false,""collective_can_infer"":false,""search_locations"":[0,1],""alter_occluders"":""110"",""ego_occluders"":""011""}","false","","","","","","","","","","","","","","","","","","",""
"","","","","","image-keyboard-response","19","76393","0.0-3.0-16.0","63d83a19b8acced30d2e0d32","665500ab8938657b03fbdba8","66579613ec682fff2873a451","983","stimuli/11100111.jpg"," ","","practrice_feedback","0","","","","","","","","","","","","","","","","","","","","",""
"","","","","","image-keyboard-response","20","77864","0.0-3.0-17.0","63d83a19b8acced30d2e0d32","665500ab8938657b03fbdba8","66579613ec682fff2873a451","1471","stimuli/1101011.jpg","1","","prediction_practice","1","{""filepath"":""stimuli/1101011.jpg"",""ball_pos"":1,""ego_ball_visible"":false,""ego_can_infer"":false,""alter_ball_visible"":true,""alter_can_infer"":true,""collective_ball_visible"":false,""collective_can_infer"":false,""search_locations"":[1],""alter_occluders"":""101"",""ego_occluders"":""011""}","true","","","","","","","","","","","","","","","","","","",""
"","","","","","image-keyboard-response","21","78792","0.0-3.0-18.0","63d83a19b8acced30d2e0d32","665500ab8938657b03fbdba8","66579613ec682fff2873a451","928","stimuli/11010111.jpg"," ","","practrice_feedback","1","","","","","","","","","","","","","","","","","","","","",""
"","","","","","image-keyboard-response","22","80304","0.0-3.0-19.0","63d83a19b8acced30d2e0d32","665500ab8938657b03fbdba8","66579613ec682fff2873a451","1512","stimuli/2000010.jpg","1","","prediction_practice","2","{""filepath"":""stimuli/2000010.jpg"",""ball_pos"":2,""ego_ball_visible"":true,""ego_can_infer"":true,""alter_ball_visible"":true,""alter_can_infer"":true,""collective_ball_visible"":true,""collective_can_infer"":true,""search_locations"":[2],""alter_occluders"":""000"",""ego_occluders"":""010""}","false","","","","","","","","","","","","","","","","","","",""
"","","","","","image-keyboard-response","23","81849","0.0-3.0-20.0","63d83a19b8acced30d2e0d32","665500ab8938657b03fbdba8","66579613ec682fff2873a451","1544","stimuli/20000102.jpg"," ","","practrice_feedback","2","","","","","","","","","","","","","","","","","","","","",""
"","","","","","html-button-response","24","90103","0.0-3.0-21.0","63d83a19b8acced30d2e0d32","665500ab8938657b03fbdba8","66579613ec682fff2873a451","8253","Now that you've had some practice, you'll be tested with a couple of easy trials. If you correctly predict Sam's choice, you'll move on to complete the experiment!","0","","","","","","","","","","","","","","","","","","","","","","","",""
"","","","","","image-keyboard-response","25","91642","0.0-3.0-22.0-0.0","63d83a19b8acced30d2e0d32","665500ab8938657b03fbdba8","66579613ec682fff2873a451","1538","stimuli/0000011.jpg","arrowleft","","comprehension_quiz","","","true","arrowleft","","","","","","","","","","","","","","","","","",""
"","","","","","image-keyboard-response","26","92270","0.0-3.0-22.0-1.0","63d83a19b8acced30d2e0d32","665500ab8938657b03fbdba8","66579613ec682fff2873a451","627","stimuli/00000110.jpg"," ","","comprehension_quiz","","","true"," ","","","","","","","","","","","","","","","","","",""
"","","","","","image-keyboard-response","27","93920","0.0-3.0-22.0-2.0","63d83a19b8acced30d2e0d32","665500ab8938657b03fbdba8","66579613ec682fff2873a451","1650","stimuli/1010010.jpg","arrowdown","","comprehension_quiz","","","true","arrowdown","","","","","","","","","","","","","","","","","",""
"","","","","","image-keyboard-response","28","94638","0.0-3.0-22.0-3.0","63d83a19b8acced30d2e0d32","665500ab8938657b03fbdba8","66579613ec682fff2873a451","717","stimuli/10100101.jpg"," ","","comprehension_quiz","","","true"," ","","","","","","","","","","","","","","","","","",""
"","","","","","html-button-response","29","95830","0.0-4.0","63d83a19b8acced30d2e0d32","665500ab8938657b03fbdba8","66579613ec682fff2873a451","1191","The experiment will now begin.","0","","","","","","","","","","","","","","","","","","","","","","","",""
"","","","","","image-keyboard-response","30","96953","0.0-5.0","63d83a19b8acced30d2e0d32","665500ab8938657b03fbdba8","66579613ec682fff2873a451","1122","stimuli/0111010.jpg","0","","prediction_trial","0","","true","","0","true","true","false","false","false","false","[0,1,2]","111","010","1","","","","","","",""
"","","","","","image-keyboard-response","31","97472","0.0-6.0","63d83a19b8acced30d2e0d32","665500ab8938657b03fbdba8","66579613ec682fff2873a451","519","stimuli/01110100.jpg"," ","","feedback_trial","0","","","","","","","","","","","","","","","","","","","","",""
"","","","","","image-keyboard-response","32","98968","0.0-7.0","63d83a19b8acced30d2e0d32","665500ab8938657b03fbdba8","66579613ec682fff2873a451","1495","stimuli/2000101.jpg","2","","prediction_trial","2","","true","","2","false","false","true","true","false","false","[2]","000","101","1","","","","","","",""
"","","","","","image-keyboard-response","33","99760","0.0-8.0","63d83a19b8acced30d2e0d32","665500ab8938657b03fbdba8","66579613ec682fff2873a451","792","stimuli/20001012.jpg"," ","","feedback_trial","2","","","","","","","","","","","","","","","","","","","","",""
"","","","","","image-keyboard-response","34","100649","0.0-9.0","63d83a19b8acced30d2e0d32","665500ab8938657b03fbdba8","66579613ec682fff2873a451","888","stimuli/0001010.jpg","0","","prediction_trial","0","","true","","0","true","true","true","true","true","true","[0]","001","010","1","","","","","","",""
"","","","","","image-keyboard-response","35","101048","0.0-10.0","63d83a19b8acced30d2e0d32","665500ab8938657b03fbdba8","66579613ec682fff2873a451","399","stimuli/00010100.jpg"," ","","feedback_trial","0","","","","","","","","","","","","","","","","","","","","",""
"","","","","","image-keyboard-response","36","102625","0.0-11.0","63d83a19b8acced30d2e0d32","665500ab8938657b03fbdba8","66579613ec682fff2873a451","1576","stimuli/0100110.jpg","1","","prediction_trial","0","","false","","0","false","false","false","true","false","false","[0]","100","110","0","","","","","","",""
"","","","","","image-keyboard-response","37","103360","0.0-12.0","63d83a19b8acced30d2e0d32","665500ab8938657b03fbdba8","66579613ec682fff2873a451","735","stimuli/01001100.jpg"," ","","feedback_trial","0","","","","","","","","","","","","","","","","","","","","",""
"","","","","","image-keyboard-response","38","104312","0.0-13.0","63d83a19b8acced30d2e0d32","665500ab8938657b03fbdba8","66579613ec682fff2873a451","952","stimuli/1110001.jpg","1","","prediction_trial","1","","true","","1","true","true","false","false","false","false","[1,0]","110","001","1","","","","","","",""
"","","","","","image-keyboard-response","39","104624","0.0-14.0","63d83a19b8acced30d2e0d32","665500ab8938657b03fbdba8","66579613ec682fff2873a451","311","stimuli/11100011.jpg"," ","","feedback_trial","1","","","","","","","","","","","","","","","","","","","","",""
"","","","","","image-keyboard-response","40","105345","0.0-15.0","63d83a19b8acced30d2e0d32","665500ab8938657b03fbdba8","66579613ec682fff2873a451","720","stimuli/1000001.jpg","1","","prediction_trial","1","","true","","1","true","true","true","true","true","true","[1]","000","001","1","","","","","","",""
"","","","","","image-keyboard-response","41","105760","0.0-16.0","63d83a19b8acced30d2e0d32","665500ab8938657b03fbdba8","66579613ec682fff2873a451","415","stimuli/10000011.jpg"," ","","feedback_trial","1","","","","","","","","","","","","","","","","","","","","",""
"","","","","","image-keyboard-response","42","106721","0.0-17.0","63d83a19b8acced30d2e0d32","665500ab8938657b03fbdba8","66579613ec682fff2873a451","961","stimuli/0110101.jpg","2","","prediction_trial","1","","false","","0","false","false","false","false","false","false","[0,1]","110","101","0","","","","","","",""
"","","","","","image-keyboard-response","43","107248","0.0-18.0","63d83a19b8acced30d2e0d32","665500ab8938657b03fbdba8","66579613ec682fff2873a451","526","stimuli/01101011.jpg"," ","","feedback_trial","0","","","","","","","","","","","","","","","","","","","","",""
"","","","","","image-keyboard-response","44","108234","0.0-19.0","63d83a19b8acced30d2e0d32","665500ab8938657b03fbdba8","66579613ec682fff2873a451","985","stimuli/1110010.jpg","1","","prediction_trial","0","","false","","1","false","true","false","false","false","false","[0,1]","110","010","0","","","","","","",""
"","","","","","image-keyboard-response","45","111441","0.0-20.0","63d83a19b8acced30d2e0d32","665500ab8938657b03fbdba8","66579613ec682fff2873a451","3207","stimuli/11100100.jpg"," ","","feedback_trial","0","","","","","","","","","","","","","","","","","","","","",""
"","","","","","image-keyboard-response","46","112490","0.0-21.0","63d83a19b8acced30d2e0d32","665500ab8938657b03fbdba8","66579613ec682fff2873a451","1048","stimuli/0110011.jpg","0","","prediction_trial","1","","false","","0","true","true","false","false","false","false","[0,1]","110","011","0","","","","","","",""
"","","","","","image-keyboard-response","47","115272","0.0-22.0","63d83a19b8acced30d2e0d32","665500ab8938657b03fbdba8","66579613ec682fff2873a451","2783","stimuli/01100111.jpg"," ","","feedback_trial","0","","","","","","","","","","","","","","","","","","","","",""
"","","","","","image-keyboard-response","48","116321","0.0-23.0","63d83a19b8acced30d2e0d32","665500ab8938657b03fbdba8","66579613ec682fff2873a451","1048","stimuli/1100111.jpg","0","","prediction_trial","1","","false","","1","false","false","true","true","false","false","[1]","100","111","0","","","","","","",""
"","","","","","image-keyboard-response","49","117200","0.0-24.0","63d83a19b8acced30d2e0d32","665500ab8938657b03fbdba8","66579613ec682fff2873a451","878","stimuli/11001111.jpg"," ","","feedback_trial","1","","","","","","","","","","","","","","","","","","","","",""
"","","","","","image-keyboard-response","50","118746","0.0-25.0","63d83a19b8acced30d2e0d32","665500ab8938657b03fbdba8","66579613ec682fff2873a451","1545","stimuli/1101010.jpg","1","","prediction_trial","1","","true","","1","false","true","true","true","false","true","[1]","101","010","1","","","","","","",""
"","","","","","image-keyboard-response","51","119464","0.0-26.0","63d83a19b8acced30d2e0d32","665500ab8938657b03fbdba8","66579613ec682fff2873a451","718","stimuli/11010101.jpg"," ","","feedback_trial","1","","","","","","","","","","","","","","","","","","","","",""
"","","","","","image-keyboard-response","52","120697","0.0-27.0","63d83a19b8acced30d2e0d32","665500ab8938657b03fbdba8","66579613ec682fff2873a451","1232","stimuli/0011010.jpg","0","","prediction_trial","0","","true","","0","true","true","true","true","true","true","[0]","011","010","1","","","","","","",""
"","","","","","image-keyboard-response","53","121296","0.0-28.0","63d83a19b8acced30d2e0d32","665500ab8938657b03fbdba8","66579613ec682fff2873a451","599","stimuli/00110100.jpg"," ","","feedback_trial","0","","","","","","","","","","","","","","","","","","","","",""
"","","","","","image-keyboard-response","54","122737","0.0-29.0","63d83a19b8acced30d2e0d32","665500ab8938657b03fbdba8","66579613ec682fff2873a451","1441","stimuli/0110010.jpg","0","","prediction_trial","1","","false","","0","true","true","false","false","false","false","[1,0]","110","010","0","","","","","","",""
"","","","","","image-keyboard-response","55","123369","0.0-30.0","63d83a19b8acced30d2e0d32","665500ab8938657b03fbdba8","66579613ec682fff2873a451","631","stimuli/01100101.jpg"," ","","feedback_trial","1","","","","","","","","","","","","","","","","","","","","",""
"","","","","","image-keyboard-response","56","124281","0.0-31.0","63d83a19b8acced30d2e0d32","665500ab8938657b03fbdba8","66579613ec682fff2873a451","912","stimuli/0111110.jpg","0","","prediction_trial","2","","false","","0","false","false","false","false","false","false","[1,2,0]","111","110","0","","","","","","",""
"","","","","","image-keyboard-response","57","125600","0.0-32.0","63d83a19b8acced30d2e0d32","665500ab8938657b03fbdba8","66579613ec682fff2873a451","1318","stimuli/01111102.jpg"," ","","feedback_trial","1","","","","","","","","","","","","","","","","","","","","",""
"","","","","","image-keyboard-response","58","126512","0.0-33.0","63d83a19b8acced30d2e0d32","665500ab8938657b03fbdba8","66579613ec682fff2873a451","912","stimuli/2000100.jpg","2","","prediction_trial","2","","true","","2","true","true","true","true","true","true","[2]","000","100","1","","","","","","",""
"","","","","","image-keyboard-response","59","127024","0.0-34.0","63d83a19b8acced30d2e0d32","665500ab8938657b03fbdba8","66579613ec682fff2873a451","511","stimuli/20001002.jpg"," ","","feedback_trial","2","","","","","","","","","","","","","","","","","","","","",""
"","","","","","image-keyboard-response","60","127728","0.0-35.0","63d83a19b8acced30d2e0d32","665500ab8938657b03fbdba8","66579613ec682fff2873a451","703","stimuli/2101110.jpg","2","","prediction_trial","0","","false","","2","true","true","false","false","false","false","[2,0]","101","110","0","","","","","","",""
"","","","","","image-keyboard-response","61","128457","0.0-36.0","63d83a19b8acced30d2e0d32","665500ab8938657b03fbdba8","66579613ec682fff2873a451","728","stimuli/21011100.jpg"," ","","feedback_trial","2","","","","","","","","","","","","","","","","","","","","",""
"","","","","","image-keyboard-response","62","129272","0.0-37.0","63d83a19b8acced30d2e0d32","665500ab8938657b03fbdba8","66579613ec682fff2873a451","815","stimuli/2011101.jpg","2","","prediction_trial","1","","false","","2","false","false","false","false","false","false","[2,1]","011","101","0","","","","","","",""
"","","","","","image-keyboard-response","63","129808","0.0-38.0","63d83a19b8acced30d2e0d32","665500ab8938657b03fbdba8","66579613ec682fff2873a451","535","stimuli/20111011.jpg"," ","","feedback_trial","2","","","","","","","","","","","","","","","","","","","","",""
"","","","","","image-keyboard-response","64","130472","0.0-39.0","63d83a19b8acced30d2e0d32","665500ab8938657b03fbdba8","66579613ec682fff2873a451","664","stimuli/0010000.jpg","0","","prediction_trial","0","","true","","0","true","true","true","true","true","true","[0]","010","000","1","","","","","","",""
"","","","","","image-keyboard-response","65","130905","0.0-40.0","63d83a19b8acced30d2e0d32","665500ab8938657b03fbdba8","66579613ec682fff2873a451","431","stimuli/00100000.jpg"," ","","feedback_trial","0","","","","","","","","","","","","","","","","","","","","",""
"","","","","","image-keyboard-response","66","132537","0.0-41.0","63d83a19b8acced30d2e0d32","665500ab8938657b03fbdba8","66579613ec682fff2873a451","1632","stimuli/1101011.jpg","1","","prediction_trial","1","","true","","1","false","false","true","true","false","false","[1]","101","011","1","","","","","","",""
"","","","","","image-keyboard-response","67","133329","0.0-42.0","63d83a19b8acced30d2e0d32","665500ab8938657b03fbdba8","66579613ec682fff2873a451","791","stimuli/11010111.jpg"," ","","feedback_trial","1","","","","","","","","","","","","","","","","","","","","",""
"","","","","","image-keyboard-response","68","135034","0.0-43.0","63d83a19b8acced30d2e0d32","665500ab8938657b03fbdba8","66579613ec682fff2873a451","1704","stimuli/2101100.jpg","2","","prediction_trial","2","","true","","2","true","true","false","false","false","false","[2,0]","101","100","1","","","","","","",""
"","","","","","image-keyboard-response","69","135440","0.0-44.0","63d83a19b8acced30d2e0d32","665500ab8938657b03fbdba8","66579613ec682fff2873a451","406","stimuli/21011002.jpg"," ","","feedback_trial","2","","","","","","","","","","","","","","","","","","","","",""
"","","","","","image-keyboard-response","70","136576","0.0-45.0","63d83a19b8acced30d2e0d32","665500ab8938657b03fbdba8","66579613ec682fff2873a451","1135","stimuli/0010110.jpg","1","","prediction_trial","0","","false","","0","false","false","true","true","false","false","[0]","010","110","0","","","","","","",""
"","","","","","image-keyboard-response","71","137240","0.0-46.0","63d83a19b8acced30d2e0d32","665500ab8938657b03fbdba8","66579613ec682fff2873a451","664","stimuli/00101100.jpg"," ","","feedback_trial","0","","","","","","","","","","","","","","","","","","","","",""
"","","","","","image-keyboard-response","72","138249","0.0-47.0","63d83a19b8acced30d2e0d32","665500ab8938657b03fbdba8","66579613ec682fff2873a451","1008","stimuli/2110011.jpg","1","","prediction_trial","2","","false","","2","false","false","true","true","false","false","[2]","110","011","0","","","","","","",""
"","","","","","image-keyboard-response","73","138824","0.0-48.0","63d83a19b8acced30d2e0d32","665500ab8938657b03fbdba8","66579613ec682fff2873a451","575","stimuli/21100112.jpg"," ","","feedback_trial","2","","","","","","","","","","","","","","","","","","","","",""
"","","","","","image-keyboard-response","74","139570","0.0-49.0","63d83a19b8acced30d2e0d32","665500ab8938657b03fbdba8","66579613ec682fff2873a451","745","stimuli/2011011.jpg","2","","prediction_trial","1","","false","","2","false","false","false","false","false","false","[1,2]","011","011","0","","","","","","",""
"","","","","","image-keyboard-response","75","140096","0.0-50.0","63d83a19b8acced30d2e0d32","665500ab8938657b03fbdba8","66579613ec682fff2873a451","526","stimuli/20110111.jpg"," ","","feedback_trial","1","","","","","","","","","","","","","","","","","","","","",""
"","","","","","image-keyboard-response","76","140881","0.0-51.0","63d83a19b8acced30d2e0d32","665500ab8938657b03fbdba8","66579613ec682fff2873a451","785","stimuli/1101100.jpg","1","","prediction_trial","1","","true","","1","true","true","true","true","true","true","[1]","101","100","1","","","","","","",""
"","","","","","image-keyboard-response","77","141408","0.0-52.0","63d83a19b8acced30d2e0d32","665500ab8938657b03fbdba8","66579613ec682fff2873a451","526","stimuli/11011001.jpg"," ","","feedback_trial","1","","","","","","","","","","","","","","","","","","","","",""
"","","","","","image-keyboard-response","78","142280","0.0-53.0","63d83a19b8acced30d2e0d32","665500ab8938657b03fbdba8","66579613ec682fff2873a451","872","stimuli/2100001.jpg","2","","prediction_trial","2","","true","","2","false","true","true","true","false","true","[2]","100","001","1","","","","","","",""
"","","","","","image-keyboard-response","79","142968","0.0-54.0","63d83a19b8acced30d2e0d32","665500ab8938657b03fbdba8","66579613ec682fff2873a451","688","stimuli/21000012.jpg"," ","","feedback_trial","2","","","","","","","","","","","","","","","","","","","","",""
"","","","","","image-keyboard-response","80","143913","0.0-55.0","63d83a19b8acced30d2e0d32","665500ab8938657b03fbdba8","66579613ec682fff2873a451","945","stimuli/1010111.jpg","1","","prediction_trial","1","","true","","1","false","false","false","true","false","false","[1]","010","111","1","","","","","","",""
"","","","","","image-keyboard-response","81","144393","0.0-56.0","63d83a19b8acced30d2e0d32","665500ab8938657b03fbdba8","66579613ec682fff2873a451","479","stimuli/10101111.jpg"," ","","feedback_trial","1","","","","","","","","","","","","","","","","","","","","",""
"","","","","","image-keyboard-response","82","145150","0.0-57.0","63d83a19b8acced30d2e0d32","665500ab8938657b03fbdba8","66579613ec682fff2873a451","757","stimuli/2010000.jpg","2","","prediction_trial","2","","true","","2","true","true","true","true","true","true","[2]","010","000","1","","","","","","",""
"","","","","","image-keyboard-response","83","145598","0.0-58.0","63d83a19b8acced30d2e0d32","665500ab8938657b03fbdba8","66579613ec682fff2873a451","448","stimuli/20100002.jpg"," ","","feedback_trial","2","","","","","","","","","","","","","","","","","","","","",""
"","","","","","image-keyboard-response","84","146368","0.0-59.0","63d83a19b8acced30d2e0d32","665500ab8938657b03fbdba8","66579613ec682fff2873a451","770","stimuli/1001001.jpg","1","","prediction_trial","1","","true","","1","true","true","true","true","true","true","[1]","001","001","1","","","","","","",""
"","","","","","image-keyboard-response","85","146809","0.0-60.0","63d83a19b8acced30d2e0d32","665500ab8938657b03fbdba8","66579613ec682fff2873a451","440","stimuli/10010011.jpg"," ","","feedback_trial","1","","","","","","","","","","","","","","","","","","","","",""
"","","","","","image-keyboard-response","86","147769","0.0-61.0","63d83a19b8acced30d2e0d32","665500ab8938657b03fbdba8","66579613ec682fff2873a451","960","stimuli/2001001.jpg","2","","prediction_trial","2","","true","","2","false","true","false","true","false","true","[2]","001","001","1","","","","","","",""
"","","","","","image-keyboard-response","87","148393","0.0-62.0","63d83a19b8acced30d2e0d32","665500ab8938657b03fbdba8","66579613ec682fff2873a451","623","stimuli/20010012.jpg"," ","","feedback_trial","2","","","","","","","","","","","","","","","","","","","","",""
"","","","","","image-keyboard-response","88","149241","0.0-63.0","63d83a19b8acced30d2e0d32","665500ab8938657b03fbdba8","66579613ec682fff2873a451","848","stimuli/1000011.jpg","1","","prediction_trial","1","","true","","1","false","false","true","true","false","false","[1]","000","011","1","","","","","","",""
"","","","","","image-keyboard-response","89","150016","0.0-64.0","63d83a19b8acced30d2e0d32","665500ab8938657b03fbdba8","66579613ec682fff2873a451","774","stimuli/10000111.jpg"," ","","feedback_trial","1","","","","","","","","","","","","","","","","","","","","",""
"","","","","","image-keyboard-response","90","150680","0.0-65.0","63d83a19b8acced30d2e0d32","665500ab8938657b03fbdba8","66579613ec682fff2873a451","664","stimuli/2110000.jpg","2","","prediction_trial","2","","true","","2","true","true","true","true","true","true","[2]","110","000","1","","","","","","",""
"","","","","","image-keyboard-response","91","151216","0.0-66.0","63d83a19b8acced30d2e0d32","665500ab8938657b03fbdba8","66579613ec682fff2873a451","536","stimuli/21100002.jpg"," ","","feedback_trial","2","","","","","","","","","","","","","","","","","","","","",""
"","","","","","image-keyboard-response","92","152072","0.0-67.0","63d83a19b8acced30d2e0d32","665500ab8938657b03fbdba8","66579613ec682fff2873a451","856","stimuli/0100100.jpg","0","","prediction_trial","0","","true","","0","false","true","false","true","false","true","[0]","100","100","1","","","","","","",""
"","","","","","image-keyboard-response","93","152713","0.0-68.0","63d83a19b8acced30d2e0d32","665500ab8938657b03fbdba8","66579613ec682fff2873a451","640","stimuli/01001000.jpg"," ","","feedback_trial","0","","","","","","","","","","","","","","","","","","","","",""
"","","","","","image-keyboard-response","94","153448","0.0-69.0","63d83a19b8acced30d2e0d32","665500ab8938657b03fbdba8","66579613ec682fff2873a451","735","stimuli/1111111.jpg","1","","prediction_trial","0","","false","","1","false","false","false","false","false","false","[2,0,1]","111","111","0","","","","","","",""
"","","","","","image-keyboard-response","95","154056","0.0-70.0","63d83a19b8acced30d2e0d32","665500ab8938657b03fbdba8","66579613ec682fff2873a451","607","stimuli/11111110.jpg"," ","","feedback_trial","2","","","","","","","","","","","","","","","","","","","","",""
"","","","","","image-keyboard-response","96","154729","0.0-71.0","63d83a19b8acced30d2e0d32","665500ab8938657b03fbdba8","66579613ec682fff2873a451","673","stimuli/0010010.jpg","0","","prediction_trial","0","","true","","0","true","true","true","true","true","true","[0]","010","010","1","","","","","","",""
"","","","","","image-keyboard-response","97","155161","0.0-72.0","63d83a19b8acced30d2e0d32","665500ab8938657b03fbdba8","66579613ec682fff2873a451","431","stimuli/00100100.jpg"," ","","feedback_trial","0","","","","","","","","","","","","","","","","","","","","",""
"","","","","","image-keyboard-response","98","155705","0.0-73.0","63d83a19b8acced30d2e0d32","665500ab8938657b03fbdba8","66579613ec682fff2873a451","543","stimuli/0001011.jpg","0","","prediction_trial","0","","true","","0","true","true","true","true","true","true","[0]","001","011","1","","","","","","",""
"","","","","","image-keyboard-response","99","156096","0.0-74.0","63d83a19b8acced30d2e0d32","665500ab8938657b03fbdba8","66579613ec682fff2873a451","390","stimuli/00010110.jpg"," ","","feedback_trial","0","","","","","","","","","","","","","","","","","","","","",""
"","","","","","image-keyboard-response","100","157353","0.0-75.0","63d83a19b8acced30d2e0d32","665500ab8938657b03fbdba8","66579613ec682fff2873a451","1257","stimuli/2101011.jpg","1","","prediction_trial","0","","false","","2","false","false","false","false","false","false","[2,0]","101","011","0","","","","","","",""
"","","","","","image-keyboard-response","101","157896","0.0-76.0","63d83a19b8acced30d2e0d32","665500ab8938657b03fbdba8","66579613ec682fff2873a451","543","stimuli/21010110.jpg"," ","","feedback_trial","2","","","","","","","","","","","","","","","","","","","","",""
"","","","","","image-keyboard-response","102","158473","0.0-77.0","63d83a19b8acced30d2e0d32","665500ab8938657b03fbdba8","66579613ec682fff2873a451","576","stimuli/1100000.jpg","1","","prediction_trial","1","","true","","1","true","true","true","true","true","true","[1]","100","000","1","","","","","","",""
"","","","","","image-keyboard-response","103","158801","0.0-78.0","63d83a19b8acced30d2e0d32","665500ab8938657b03fbdba8","66579613ec682fff2873a451","327","stimuli/11000001.jpg"," ","","feedback_trial","1","","","","","","","","","","","","","","","","","","","","",""
"","","","","","image-keyboard-response","104","159616","0.0-79.0","63d83a19b8acced30d2e0d32","665500ab8938657b03fbdba8","66579613ec682fff2873a451","814","stimuli/0101000.jpg","0","","prediction_trial","0","","true","","0","true","true","false","false","false","false","[2,0]","101","000","1","","","","","","",""
"","","","","","image-keyboard-response","105","160048","0.0-80.0","63d83a19b8acced30d2e0d32","665500ab8938657b03fbdba8","66579613ec682fff2873a451","432","stimuli/01010000.jpg"," ","","feedback_trial","2","","","","","","","","","","","","","","","","","","","","",""
"","","","","","image-keyboard-response","106","160648","0.0-81.0","63d83a19b8acced30d2e0d32","665500ab8938657b03fbdba8","66579613ec682fff2873a451","600","stimuli/0110000.jpg","0","","prediction_trial","1","","false","","0","true","true","false","false","false","false","[1,0]","110","000","0","","","","","","",""
"","","","","","image-keyboard-response","107","160984","0.0-82.0","63d83a19b8acced30d2e0d32","665500ab8938657b03fbdba8","66579613ec682fff2873a451","335","stimuli/01100001.jpg"," ","","feedback_trial","1","","","","","","","","","","","","","","","","","","","","",""
"","","","","","image-keyboard-response","108","161784","0.0-83.0","63d83a19b8acced30d2e0d32","665500ab8938657b03fbdba8","66579613ec682fff2873a451","800","stimuli/2010011.jpg","2","","prediction_trial","2","","true","","2","false","false","true","true","false","false","[2]","010","011","1","","","","","","",""
"","","","","","image-keyboard-response","109","162409","0.0-84.0","63d83a19b8acced30d2e0d32","665500ab8938657b03fbdba8","66579613ec682fff2873a451","624","stimuli/20100112.jpg"," ","","feedback_trial","2","","","","","","","","","","","","","","","","","","","","",""
"","","","","","image-keyboard-response","110","163009","0.0-85.0","63d83a19b8acced30d2e0d32","665500ab8938657b03fbdba8","66579613ec682fff2873a451","600","stimuli/0001001.jpg","0","","prediction_trial","0","","true","","0","true","true","true","true","true","true","[0]","001","001","1","","","","","","",""
"","","","","","image-keyboard-response","111","163400","0.0-86.0","63d83a19b8acced30d2e0d32","665500ab8938657b03fbdba8","66579613ec682fff2873a451","391","stimuli/00010010.jpg"," ","","feedback_trial","0","","","","","","","","","","","","","","","","","","","","",""
"","","","","","image-keyboard-response","112","164297","0.0-87.0","63d83a19b8acced30d2e0d32","665500ab8938657b03fbdba8","66579613ec682fff2873a451","896","stimuli/0001101.jpg","2","","prediction_trial","0","","false","","0","false","false","true","true","false","false","[0]","001","101","0","","","","","","",""
"","","","","","image-keyboard-response","113","164825","0.0-88.0","63d83a19b8acced30d2e0d32","665500ab8938657b03fbdba8","66579613ec682fff2873a451","527","stimuli/00011010.jpg"," ","","feedback_trial","0","","","","","","","","","","","","","","","","","","","","",""
"","","","","","image-keyboard-response","114","165736","0.0-89.0","63d83a19b8acced30d2e0d32","665500ab8938657b03fbdba8","66579613ec682fff2873a451","911","stimuli/1111110.jpg","1","","prediction_trial","0","","false","","1","false","false","false","false","false","false","[2,0,1]","111","110","0","","","","","","",""
"","","","","","image-keyboard-response","115","166209","0.0-90.0","63d83a19b8acced30d2e0d32","665500ab8938657b03fbdba8","66579613ec682fff2873a451","472","stimuli/11111100.jpg"," ","","feedback_trial","2","","","","","","","","","","","","","","","","","","","","",""
"","","","","","image-keyboard-response","116","166953","0.0-91.0","63d83a19b8acced30d2e0d32","665500ab8938657b03fbdba8","66579613ec682fff2873a451","744","stimuli/0011110.jpg","1","","prediction_trial","0","","false","","0","false","false","true","true","false","false","[0]","011","110","0","","","","","","",""
"","","","","","image-keyboard-response","117","167832","0.0-92.0","63d83a19b8acced30d2e0d32","665500ab8938657b03fbdba8","66579613ec682fff2873a451","879","stimuli/00111100.jpg"," ","","feedback_trial","0","","","","","","","","","","","","","","","","","","","","",""
"","","","","","image-keyboard-response","118","168521","0.0-93.0","63d83a19b8acced30d2e0d32","665500ab8938657b03fbdba8","66579613ec682fff2873a451","688","stimuli/1100100.jpg","1","","prediction_trial","1","","true","","1","true","true","true","true","true","true","[1]","100","100","1","","","","","","",""
"","","","","","image-keyboard-response","119","168991","0.0-94.0","63d83a19b8acced30d2e0d32","665500ab8938657b03fbdba8","66579613ec682fff2873a451","470","stimuli/11001001.jpg"," ","","feedback_trial","1","","","","","","","","","","","","","","","","","","","","",""
"","","","","","image-keyboard-response","120","169809","0.0-95.0","63d83a19b8acced30d2e0d32","665500ab8938657b03fbdba8","66579613ec682fff2873a451","818","stimuli/1110110.jpg","1","","prediction_trial","0","","false","","1","false","false","false","false","false","false","[0,1]","110","110","0","","","","","","",""
"","","","","","image-keyboard-response","121","170328","0.0-96.0","63d83a19b8acced30d2e0d32","665500ab8938657b03fbdba8","66579613ec682fff2873a451","518","stimuli/11101100.jpg"," ","","feedback_trial","0","","","","","","","","","","","","","","","","","","","","",""
"","","","","","image-keyboard-response","122","171064","0.0-97.0","63d83a19b8acced30d2e0d32","665500ab8938657b03fbdba8","66579613ec682fff2873a451","736","stimuli/2111010.jpg","2","","prediction_trial","2","","true","","2","true","true","false","false","false","false","[2,1,0]","111","010","1","","","","","","",""
"","","","","","image-keyboard-response","123","171512","0.0-98.0","63d83a19b8acced30d2e0d32","665500ab8938657b03fbdba8","66579613ec682fff2873a451","448","stimuli/21110102.jpg"," ","","feedback_trial","2","","","","","","","","","","","","","","","","","","","","",""
"","","","","","image-keyboard-response","124","172241","0.0-99.0","63d83a19b8acced30d2e0d32","665500ab8938657b03fbdba8","66579613ec682fff2873a451","728","stimuli/2001010.jpg","2","","prediction_trial","2","","true","","2","true","true","false","true","false","true","[2]","001","010","1","","","","","","",""
"","","","","","image-keyboard-response","125","172776","0.0-100.0","63d83a19b8acced30d2e0d32","665500ab8938657b03fbdba8","66579613ec682fff2873a451","535","stimuli/20010102.jpg"," ","","feedback_trial","2","","","","","","","","","","","","","","","","","","","","",""
"","","","","","image-keyboard-response","126","173337","0.0-101.0","63d83a19b8acced30d2e0d32","665500ab8938657b03fbdba8","66579613ec682fff2873a451","561","stimuli/1110101.jpg","1","","prediction_trial","0","","false","","1","true","true","false","false","false","false","[1,0]","110","101","0","","","","","","",""
"","","","","","image-keyboard-response","127","174049","0.0-102.0","63d83a19b8acced30d2e0d32","665500ab8938657b03fbdba8","66579613ec682fff2873a451","711","stimuli/11101010.jpg"," ","","feedback_trial","1","","","","","","","","","","","","","","","","","","","","",""
"","","","","","image-keyboard-response","128","174920","0.0-103.0","63d83a19b8acced30d2e0d32","665500ab8938657b03fbdba8","66579613ec682fff2873a451","871","stimuli/0101100.jpg","0","","prediction_trial","2","","false","","0","false","true","false","false","false","false","[2,0]","101","100","0","","","","","","",""
"","","","","","image-keyboard-response","129","175921","0.0-104.0","63d83a19b8acced30d2e0d32","665500ab8938657b03fbdba8","66579613ec682fff2873a451","1000","stimuli/01011002.jpg"," ","","feedback_trial","2","","","","","","","","","","","","","","","","","","","","",""
"","","","","","image-keyboard-response","130","176600","0.0-105.0","63d83a19b8acced30d2e0d32","665500ab8938657b03fbdba8","66579613ec682fff2873a451","679","stimuli/0001000.jpg","0","","prediction_trial","0","","true","","0","true","true","true","true","true","true","[0]","001","000","1","","","","","","",""
"","","","","","image-keyboard-response","131","177113","0.0-106.0","63d83a19b8acced30d2e0d32","665500ab8938657b03fbdba8","66579613ec682fff2873a451","512","stimuli/00010000.jpg"," ","","feedback_trial","0","","","","","","","","","","","","","","","","","","","","",""
"","","","","","image-keyboard-response","132","177761","0.0-107.0","63d83a19b8acced30d2e0d32","665500ab8938657b03fbdba8","66579613ec682fff2873a451","647","stimuli/1101000.jpg","1","","prediction_trial","1","","true","","1","true","true","true","true","true","true","[1]","101","000","1","","","","","","",""
"","","","","","image-keyboard-response","133","178248","0.0-108.0","63d83a19b8acced30d2e0d32","665500ab8938657b03fbdba8","66579613ec682fff2873a451","487","stimuli/11010001.jpg"," ","","feedback_trial","1","","","","","","","","","","","","","","","","","","","","",""
"","","","","","image-keyboard-response","134","179104","0.0-109.0","63d83a19b8acced30d2e0d32","665500ab8938657b03fbdba8","66579613ec682fff2873a451","855","stimuli/2001000.jpg","2","","prediction_trial","2","","true","","2","true","true","false","true","false","true","[2]","001","000","1","","","","","","",""
"","","","","","image-keyboard-response","135","179536","0.0-110.0","63d83a19b8acced30d2e0d32","665500ab8938657b03fbdba8","66579613ec682fff2873a451","431","stimuli/20010002.jpg"," ","","feedback_trial","2","","","","","","","","","","","","","","","","","","","","",""
"","","","","","image-keyboard-response","136","180368","0.0-111.0","63d83a19b8acced30d2e0d32","665500ab8938657b03fbdba8","66579613ec682fff2873a451","832","stimuli/0010111.jpg","1","","prediction_trial","0","","false","","0","false","false","true","true","false","false","[0]","010","111","0","","","","","","",""
"","","","","","image-keyboard-response","137","181064","0.0-112.0","63d83a19b8acced30d2e0d32","665500ab8938657b03fbdba8","66579613ec682fff2873a451","695","stimuli/00101110.jpg"," ","","feedback_trial","0","","","","","","","","","","","","","","","","","","","","",""
"","","","","","image-keyboard-response","138","181721","0.0-113.0","63d83a19b8acced30d2e0d32","665500ab8938657b03fbdba8","66579613ec682fff2873a451","657","stimuli/1000100.jpg","1","","prediction_trial","1","","true","","1","true","true","true","true","true","true","[1]","000","100","1","","","","","","",""
"","","","","","image-keyboard-response","139","182296","0.0-114.0","63d83a19b8acced30d2e0d32","665500ab8938657b03fbdba8","66579613ec682fff2873a451","574","stimuli/10001001.jpg"," ","","feedback_trial","1","","","","","","","","","","","","","","","","","","","","",""
"","","","","","image-keyboard-response","140","183392","0.0-115.0","63d83a19b8acced30d2e0d32","665500ab8938657b03fbdba8","66579613ec682fff2873a451","1096","stimuli/1001011.jpg","1","","prediction_trial","1","","true","","1","false","false","true","true","false","false","[1]","001","011","1","","","","","","",""
"","","","","","image-keyboard-response","141","184009","0.0-116.0","63d83a19b8acced30d2e0d32","665500ab8938657b03fbdba8","66579613ec682fff2873a451","616","stimuli/10010111.jpg"," ","","feedback_trial","1","","","","","","","","","","","","","","","","","","","","",""
"","","","","","image-keyboard-response","142","184624","0.0-117.0","63d83a19b8acced30d2e0d32","665500ab8938657b03fbdba8","66579613ec682fff2873a451","615","stimuli/1011000.jpg","1","","prediction_trial","1","","true","","1","true","true","false","false","false","false","[2,1]","011","000","1","","","","","","",""
"","","","","","image-keyboard-response","143","185224","0.0-118.0","63d83a19b8acced30d2e0d32","665500ab8938657b03fbdba8","66579613ec682fff2873a451","599","stimuli/10110001.jpg"," ","","feedback_trial","2","","","","","","","","","","","","","","","","","","","","",""
"","","","","","image-keyboard-response","144","185976","0.0-119.0","63d83a19b8acced30d2e0d32","665500ab8938657b03fbdba8","66579613ec682fff2873a451","751","stimuli/0100011.jpg","0","","prediction_trial","0","","true","","0","true","true","false","true","false","true","[0]","100","011","1","","","","","","",""
"","","","","","image-keyboard-response","145","186617","0.0-120.0","63d83a19b8acced30d2e0d32","665500ab8938657b03fbdba8","66579613ec682fff2873a451","640","stimuli/01000110.jpg"," ","","feedback_trial","0","","","","","","","","","","","","","","","","","","","","",""
"","","","","","image-keyboard-response","146","187464","0.0-121.0","63d83a19b8acced30d2e0d32","665500ab8938657b03fbdba8","66579613ec682fff2873a451","847","stimuli/0010011.jpg","0","","prediction_trial","0","","true","","0","true","true","true","true","true","true","[0]","010","011","1","","","","","","",""
"","","","","","image-keyboard-response","147","188008","0.0-122.0","63d83a19b8acced30d2e0d32","665500ab8938657b03fbdba8","66579613ec682fff2873a451","543","stimuli/00100110.jpg"," ","","feedback_trial","0","","","","","","","","","","","","","","","","","","","","",""
"","","","","","image-keyboard-response","148","188728","0.0-123.0","63d83a19b8acced30d2e0d32","665500ab8938657b03fbdba8","66579613ec682fff2873a451","720","stimuli/2111000.jpg","2","","prediction_trial","2","","true","","2","true","true","false","false","false","false","[1,0,2]","111","000","1","","","","","","",""
"","","","","","image-keyboard-response","149","189175","0.0-124.0","63d83a19b8acced30d2e0d32","665500ab8938657b03fbdba8","66579613ec682fff2873a451","446","stimuli/21110002.jpg"," ","","feedback_trial","1","","","","","","","","","","","","","","","","","","","","",""
"","","","","","image-keyboard-response","150","190201","0.0-125.0","63d83a19b8acced30d2e0d32","665500ab8938657b03fbdba8","66579613ec682fff2873a451","1025","stimuli/0110110.jpg","1","","prediction_trial","1","","true","","0","false","false","false","false","false","false","[0,1]","110","110","1","","","","","","",""
"","","","","","image-keyboard-response","151","190729","0.0-126.0","63d83a19b8acced30d2e0d32","665500ab8938657b03fbdba8","66579613ec682fff2873a451","528","stimuli/01101101.jpg"," ","","feedback_trial","0","","","","","","","","","","","","","","","","","","","","",""
"","","","","","image-keyboard-response","152","191505","0.0-127.0","63d83a19b8acced30d2e0d32","665500ab8938657b03fbdba8","66579613ec682fff2873a451","776","stimuli/0101101.jpg","2","","prediction_trial","0","","false","","0","false","false","false","false","false","false","[2,0]","101","101","0","","","","","","",""
"","","","","","image-keyboard-response","153","192008","0.0-128.0","63d83a19b8acced30d2e0d32","665500ab8938657b03fbdba8","66579613ec682fff2873a451","502","stimuli/01011010.jpg"," ","","feedback_trial","2","","","","","","","","","","","","","","","","","","","","",""
"","","","","","image-keyboard-response","154","192999","0.0-129.0","63d83a19b8acced30d2e0d32","665500ab8938657b03fbdba8","66579613ec682fff2873a451","991","stimuli/2100111.jpg","1","","prediction_trial","2","","false","","2","false","false","true","true","false","false","[2]","100","111","0","","","","","","",""
"","","","","","image-keyboard-response","155","193729","0.0-130.0","63d83a19b8acced30d2e0d32","665500ab8938657b03fbdba8","66579613ec682fff2873a451","729","stimuli/21001112.jpg"," ","","feedback_trial","2","","","","","","","","","","","","","","","","","","","","",""
"","","","","","image-keyboard-response","156","194490","0.0-131.0","63d83a19b8acced30d2e0d32","665500ab8938657b03fbdba8","66579613ec682fff2873a451","760","stimuli/2100010.jpg","2","","prediction_trial","2","","true","","2","true","true","true","true","true","true","[2]","100","010","1","","","","","","",""
"","","","","","image-keyboard-response","157","194952","0.0-132.0","63d83a19b8acced30d2e0d32","665500ab8938657b03fbdba8","66579613ec682fff2873a451","462","stimuli/21000102.jpg"," ","","feedback_trial","2","","","","","","","","","","","","","","","","","","","","",""
"","","","","","image-keyboard-response","158","195663","0.0-133.0","63d83a19b8acced30d2e0d32","665500ab8938657b03fbdba8","66579613ec682fff2873a451","710","stimuli/2001111.jpg","1","","prediction_trial","2","","false","","2","false","false","false","true","false","false","[2]","001","111","0","","","","","","",""
"","","","","","image-keyboard-response","159","196201","0.0-134.0","63d83a19b8acced30d2e0d32","665500ab8938657b03fbdba8","66579613ec682fff2873a451","538","stimuli/20011112.jpg"," ","","feedback_trial","2","","","","","","","","","","","","","","","","","","","","",""
"","","","","","image-keyboard-response","160","196920","0.0-135.0","63d83a19b8acced30d2e0d32","665500ab8938657b03fbdba8","66579613ec682fff2873a451","719","stimuli/1110000.jpg","1","","prediction_trial","1","","true","","1","true","true","false","false","false","false","[0,1]","110","000","1","","","","","","",""
"","","","","","image-keyboard-response","161","197504","0.0-136.0","63d83a19b8acced30d2e0d32","665500ab8938657b03fbdba8","66579613ec682fff2873a451","583","stimuli/11100001.jpg"," ","","feedback_trial","0","","","","","","","","","","","","","","","","","","","","",""
"","","","","","image-keyboard-response","162","198199","0.0-137.0","63d83a19b8acced30d2e0d32","665500ab8938657b03fbdba8","66579613ec682fff2873a451","694","stimuli/1000110.jpg","1","","prediction_trial","1","","true","","1","false","false","true","true","false","false","[1]","000","110","1","","","","","","",""
"","","","","","image-keyboard-response","163","198793","0.0-138.0","63d83a19b8acced30d2e0d32","665500ab8938657b03fbdba8","66579613ec682fff2873a451","594","stimuli/10001101.jpg"," ","","feedback_trial","1","","","","","","","","","","","","","","","","","","","","",""
"","","","","","image-keyboard-response","164","199529","0.0-139.0","63d83a19b8acced30d2e0d32","665500ab8938657b03fbdba8","66579613ec682fff2873a451","735","stimuli/2010110.jpg","2","","prediction_trial","2","","true","","2","true","true","true","true","true","true","[2]","010","110","1","","","","","","",""
"","","","","","image-keyboard-response","165","200041","0.0-140.0","63d83a19b8acced30d2e0d32","665500ab8938657b03fbdba8","66579613ec682fff2873a451","511","stimuli/20101102.jpg"," ","","feedback_trial","2","","","","","","","","","","","","","","","","","","","","",""
"","","","","","image-keyboard-response","166","200720","0.0-141.0","63d83a19b8acced30d2e0d32","665500ab8938657b03fbdba8","66579613ec682fff2873a451","679","stimuli/0110001.jpg","0","","prediction_trial","1","","false","","0","true","true","false","false","false","false","[0,1]","110","001","0","","","","","","",""
"","","","","","image-keyboard-response","167","201280","0.0-142.0","63d83a19b8acced30d2e0d32","665500ab8938657b03fbdba8","66579613ec682fff2873a451","559","stimuli/01100011.jpg"," ","","feedback_trial","0","","","","","","","","","","","","","","","","","","","","",""
"","","","","","image-keyboard-response","168","201913","0.0-143.0","63d83a19b8acced30d2e0d32","665500ab8938657b03fbdba8","66579613ec682fff2873a451","633","stimuli/1000101.jpg","1","","prediction_trial","1","","true","","1","true","true","true","true","true","true","[1]","000","101","1","","","","","","",""
"","","","","","image-keyboard-response","169","202465","0.0-144.0","63d83a19b8acced30d2e0d32","665500ab8938657b03fbdba8","66579613ec682fff2873a451","551","stimuli/10001011.jpg"," ","","feedback_trial","1","","","","","","","","","","","","","","","","","","","","",""
"","","","","","image-keyboard-response","170","203135","0.0-145.0","63d83a19b8acced30d2e0d32","665500ab8938657b03fbdba8","66579613ec682fff2873a451","670","stimuli/0100001.jpg","0","","prediction_trial","0","","true","","0","true","true","false","true","false","true","[0]","100","001","1","","","","","","",""
"","","","","","image-keyboard-response","171","203616","0.0-146.0","63d83a19b8acced30d2e0d32","665500ab8938657b03fbdba8","66579613ec682fff2873a451","480","stimuli/01000010.jpg"," ","","feedback_trial","0","","","","","","","","","","","","","","","","","","","","",""
"","","","","","image-keyboard-response","172","204208","0.0-147.0","63d83a19b8acced30d2e0d32","665500ab8938657b03fbdba8","66579613ec682fff2873a451","592","stimuli/1111010.jpg","1","","prediction_trial","1","","true","","1","false","true","false","false","false","false","[1,2,0]","111","010","1","","","","","","",""
"","","","","","image-keyboard-response","173","204817","0.0-148.0","63d83a19b8acced30d2e0d32","665500ab8938657b03fbdba8","66579613ec682fff2873a451","608","stimuli/11110101.jpg"," ","","feedback_trial","1","","","","","","","","","","","","","","","","","","","","",""
"","","","","","image-keyboard-response","174","205297","0.0-149.0","63d83a19b8acced30d2e0d32","665500ab8938657b03fbdba8","66579613ec682fff2873a451","480","stimuli/1101101.jpg","1","","prediction_trial","1","","true","","1","true","true","true","true","true","true","[1]","101","101","1","","","","","","",""
"","","","","","image-keyboard-response","175","205920","0.0-150.0","63d83a19b8acced30d2e0d32","665500ab8938657b03fbdba8","66579613ec682fff2873a451","622","stimuli/11011011.jpg"," ","","feedback_trial","1","","","","","","","","","","","","","","","","","","","","",""
"","","","","","image-keyboard-response","176","206401","0.0-151.0","63d83a19b8acced30d2e0d32","665500ab8938657b03fbdba8","66579613ec682fff2873a451","480","stimuli/1100001.jpg","1","","prediction_trial","1","","true","","1","true","true","true","true","true","true","[1]","100","001","1","","","","","","",""
"","","","","","image-keyboard-response","177","207040","0.0-152.0","63d83a19b8acced30d2e0d32","665500ab8938657b03fbdba8","66579613ec682fff2873a451","638","stimuli/11000011.jpg"," ","","feedback_trial","1","","","","","","","","","","","","","","","","","","","","",""
"","","","","","image-keyboard-response","178","208097","0.0-153.0","63d83a19b8acced30d2e0d32","665500ab8938657b03fbdba8","66579613ec682fff2873a451","1056","stimuli/1111011.jpg","1","","prediction_trial","0","","false","","1","false","false","false","false","false","false","[1,2,0]","111","011","0","","","","","","",""
"","","","","","image-keyboard-response","179","208656","0.0-154.0","63d83a19b8acced30d2e0d32","665500ab8938657b03fbdba8","66579613ec682fff2873a451","559","stimuli/11110110.jpg"," ","","feedback_trial","1","","","","","","","","","","","","","","","","","","","","",""
"","","","","","image-keyboard-response","180","209257","0.0-155.0","63d83a19b8acced30d2e0d32","665500ab8938657b03fbdba8","66579613ec682fff2873a451","599","stimuli/0000011.jpg","0","","prediction_trial","0","","true","","0","true","true","true","true","true","true","[0]","000","011","1","","","","","","",""
"","","","","","image-keyboard-response","181","209689","0.0-156.0","63d83a19b8acced30d2e0d32","665500ab8938657b03fbdba8","66579613ec682fff2873a451","432","stimuli/00000110.jpg"," ","","feedback_trial","0","","","","","","","","","","","","","","","","","","","","",""
"","","","","","image-keyboard-response","182","210521","0.0-157.0","63d83a19b8acced30d2e0d32","665500ab8938657b03fbdba8","66579613ec682fff2873a451","831","stimuli/0011100.jpg","0","","prediction_trial","0","","true","","0","false","true","true","true","false","true","[0]","011","100","1","","","","","","",""
"","","","","","image-keyboard-response","183","211001","0.0-158.0","63d83a19b8acced30d2e0d32","665500ab8938657b03fbdba8","66579613ec682fff2873a451","480","stimuli/00111000.jpg"," ","","feedback_trial","0","","","","","","","","","","","","","","","","","","","","",""
"","","","","","image-keyboard-response","184","211625","0.0-159.0","63d83a19b8acced30d2e0d32","665500ab8938657b03fbdba8","66579613ec682fff2873a451","624","stimuli/2000010.jpg","2","","prediction_trial","2","","true","","2","true","true","true","true","true","true","[2]","000","010","1","","","","","","",""
"","","","","","image-keyboard-response","185","212009","0.0-160.0","63d83a19b8acced30d2e0d32","665500ab8938657b03fbdba8","66579613ec682fff2873a451","384","stimuli/20000102.jpg"," ","","feedback_trial","2","","","","","","","","","","","","","","","","","","","","",""
"","","","","","image-keyboard-response","186","212760","0.0-161.0","63d83a19b8acced30d2e0d32","665500ab8938657b03fbdba8","66579613ec682fff2873a451","751","stimuli/2101010.jpg","2","","prediction_trial","2","","true","","2","true","true","false","false","false","false","[0,2]","101","010","1","","","","","","",""
"","","","","","image-keyboard-response","187","213112","0.0-162.0","63d83a19b8acced30d2e0d32","665500ab8938657b03fbdba8","66579613ec682fff2873a451","351","stimuli/21010102.jpg"," ","","feedback_trial","0","","","","","","","","","","","","","","","","","","","","",""
"","","","","","image-keyboard-response","188","213817","0.0-163.0","63d83a19b8acced30d2e0d32","665500ab8938657b03fbdba8","66579613ec682fff2873a451","704","stimuli/1000010.jpg","1","","prediction_trial","1","","true","","1","false","true","true","true","false","true","[1]","000","010","1","","","","","","",""
"","","","","","image-keyboard-response","189","214288","0.0-164.0","63d83a19b8acced30d2e0d32","665500ab8938657b03fbdba8","66579613ec682fff2873a451","471","stimuli/10000101.jpg"," ","","feedback_trial","1","","","","","","","","","","","","","","","","","","","","",""
"","","","","","image-keyboard-response","190","214897","0.0-165.0","63d83a19b8acced30d2e0d32","665500ab8938657b03fbdba8","66579613ec682fff2873a451","609","stimuli/2101000.jpg","2","","prediction_trial","0","","false","","2","true","true","false","false","false","false","[2,0]","101","000","0","","","","","","",""
"","","","","","image-keyboard-response","191","216841","0.0-166.0","63d83a19b8acced30d2e0d32","665500ab8938657b03fbdba8","66579613ec682fff2873a451","1943","stimuli/21010000.jpg"," ","","feedback_trial","2","","","","","","","","","","","","","","","","","","","","",""
"","","","","","image-keyboard-response","192","217480","0.0-167.0","63d83a19b8acced30d2e0d32","665500ab8938657b03fbdba8","66579613ec682fff2873a451","639","stimuli/0000111.jpg","1","","prediction_trial","0","","false","","0","false","false","true","true","false","false","[0]","000","111","0","","","","","","",""
"","","","","","image-keyboard-response","193","217760","0.0-168.0","63d83a19b8acced30d2e0d32","665500ab8938657b03fbdba8","66579613ec682fff2873a451","279","stimuli/00001110.jpg"," ","","feedback_trial","0","","","","","","","","","","","","","","","","","","","","",""
"","","","","","image-keyboard-response","194","218449","0.0-169.0","63d83a19b8acced30d2e0d32","665500ab8938657b03fbdba8","66579613ec682fff2873a451","689","stimuli/2110110.jpg","2","","prediction_trial","2","","true","","2","true","true","true","true","true","true","[2]","110","110","1","","","","","","",""
"","","","","","image-keyboard-response","195","218777","0.0-170.0","63d83a19b8acced30d2e0d32","665500ab8938657b03fbdba8","66579613ec682fff2873a451","327","stimuli/21101102.jpg"," ","","feedback_trial","2","","","","","","","","","","","","","","","","","","","","",""
"","","","","","image-keyboard-response","196","219392","0.0-171.0","63d83a19b8acced30d2e0d32","665500ab8938657b03fbdba8","66579613ec682fff2873a451","615","stimuli/0100010.jpg","0","","prediction_trial","0","","true","","0","true","true","false","true","false","true","[0]","100","010","1","","","","","","",""
"","","","","","image-keyboard-response","197","219664","0.0-172.0","63d83a19b8acced30d2e0d32","665500ab8938657b03fbdba8","66579613ec682fff2873a451","271","stimuli/01000100.jpg"," ","","feedback_trial","0","","","","","","","","","","","","","","","","","","","","",""
"","","","","","image-keyboard-response","198","220288","0.0-173.0","63d83a19b8acced30d2e0d32","665500ab8938657b03fbdba8","66579613ec682fff2873a451","623","stimuli/0111011.jpg","0","","prediction_trial","0","","true","","0","true","true","false","false","false","false","[0,2,1]","111","011","1","","","","","","",""
"","","","","","image-keyboard-response","199","220577","0.0-174.0","63d83a19b8acced30d2e0d32","665500ab8938657b03fbdba8","66579613ec682fff2873a451","288","stimuli/01110110.jpg"," ","","feedback_trial","0","","","","","","","","","","","","","","","","","","","","",""
"","","","","","image-keyboard-response","200","221177","0.0-175.0","63d83a19b8acced30d2e0d32","665500ab8938657b03fbdba8","66579613ec682fff2873a451","599","stimuli/1010000.jpg","1","","prediction_trial","1","","true","","1","true","true","false","true","false","true","[1]","010","000","1","","","","","","",""
"","","","","","image-keyboard-response","201","221753","0.0-176.0","63d83a19b8acced30d2e0d32","665500ab8938657b03fbdba8","66579613ec682fff2873a451","576","stimuli/10100001.jpg"," ","","feedback_trial","1","","","","","","","","","","","","","","","","","","","","",""
"","","","","","image-keyboard-response","202","222585","0.0-177.0","63d83a19b8acced30d2e0d32","665500ab8938657b03fbdba8","66579613ec682fff2873a451","832","stimuli/2001101.jpg","2","","prediction_trial","2","","true","","2","false","false","false","true","false","false","[2]","001","101","1","","","","","","",""
"","","","","","image-keyboard-response","203","223408","0.0-178.0","63d83a19b8acced30d2e0d32","665500ab8938657b03fbdba8","66579613ec682fff2873a451","822","stimuli/20011012.jpg"," ","","feedback_trial","2","","","","","","","","","","","","","","","","","","","","",""
"","","","","","image-keyboard-response","204","224057","0.0-179.0","63d83a19b8acced30d2e0d32","665500ab8938657b03fbdba8","66579613ec682fff2873a451","649","stimuli/1010110.jpg","1","","prediction_trial","1","","true","","1","false","false","false","true","false","false","[1]","010","110","1","","","","","","",""
"","","","","","image-keyboard-response","205","224545","0.0-180.0","63d83a19b8acced30d2e0d32","665500ab8938657b03fbdba8","66579613ec682fff2873a451","487","stimuli/10101101.jpg"," ","","feedback_trial","1","","","","","","","","","","","","","","","","","","","","",""
"","","","","","image-keyboard-response","206","225120","0.0-181.0","63d83a19b8acced30d2e0d32","665500ab8938657b03fbdba8","66579613ec682fff2873a451","575","stimuli/2010010.jpg","2","","prediction_trial","2","","true","","2","true","true","true","true","true","true","[2]","010","010","1","","","","","","",""
"","","","","","image-keyboard-response","207","225520","0.0-182.0","63d83a19b8acced30d2e0d32","665500ab8938657b03fbdba8","66579613ec682fff2873a451","400","stimuli/20100102.jpg"," ","","feedback_trial","2","","","","","","","","","","","","","","","","","","","","",""
"","","","","","image-keyboard-response","208","226200","0.0-183.0","63d83a19b8acced30d2e0d32","665500ab8938657b03fbdba8","66579613ec682fff2873a451","680","stimuli/0100111.jpg","1","","prediction_trial","0","","false","","0","false","false","false","true","false","false","[0]","100","111","0","","","","","","",""
"","","","","","image-keyboard-response","209","227056","0.0-184.0","63d83a19b8acced30d2e0d32","665500ab8938657b03fbdba8","66579613ec682fff2873a451","855","stimuli/01001110.jpg"," ","","feedback_trial","0","","","","","","","","","","","","","","","","","","","","",""
"","","","","","image-keyboard-response","210","227593","0.0-185.0","63d83a19b8acced30d2e0d32","665500ab8938657b03fbdba8","66579613ec682fff2873a451","537","stimuli/2010100.jpg","2","","prediction_trial","2","","true","","2","true","true","true","true","true","true","[2]","010","100","1","","","","","","",""
"","","","","","image-keyboard-response","211","228135","0.0-186.0","63d83a19b8acced30d2e0d32","665500ab8938657b03fbdba8","66579613ec682fff2873a451","541","stimuli/20101002.jpg"," ","","feedback_trial","2","","","","","","","","","","","","","","","","","","","","",""
"","","","","","image-keyboard-response","212","228753","0.0-187.0","63d83a19b8acced30d2e0d32","665500ab8938657b03fbdba8","66579613ec682fff2873a451","618","stimuli/1110100.jpg","1","","prediction_trial","0","","false","","1","true","true","false","false","false","false","[1,0]","110","100","0","","","","","","",""
"","","","","","image-keyboard-response","213","229217","0.0-188.0","63d83a19b8acced30d2e0d32","665500ab8938657b03fbdba8","66579613ec682fff2873a451","463","stimuli/11101000.jpg"," ","","feedback_trial","1","","","","","","","","","","","","","","","","","","","","",""
"","","","","","image-keyboard-response","214","229785","0.0-189.0","63d83a19b8acced30d2e0d32","665500ab8938657b03fbdba8","66579613ec682fff2873a451","567","stimuli/1100010.jpg","1","","prediction_trial","1","","true","","1","false","true","true","true","false","true","[1]","100","010","1","","","","","","",""
"","","","","","image-keyboard-response","215","230297","0.0-190.0","63d83a19b8acced30d2e0d32","665500ab8938657b03fbdba8","66579613ec682fff2873a451","512","stimuli/11000101.jpg"," ","","feedback_trial","1","","","","","","","","","","","","","","","","","","","","",""
"","","","","","image-keyboard-response","216","230969","0.0-191.0","63d83a19b8acced30d2e0d32","665500ab8938657b03fbdba8","66579613ec682fff2873a451","671","stimuli/0111100.jpg","0","","prediction_trial","1","","false","","0","false","true","false","false","false","false","[1,0,2]","111","100","0","","","","","","",""
"","","","","","image-keyboard-response","217","231689","0.0-192.0","63d83a19b8acced30d2e0d32","665500ab8938657b03fbdba8","66579613ec682fff2873a451","720","stimuli/01111001.jpg"," ","","feedback_trial","1","","","","","","","","","","","","","","","","","","","","",""
"","","","","","image-keyboard-response","218","232385","0.0-193.0","63d83a19b8acced30d2e0d32","665500ab8938657b03fbdba8","66579613ec682fff2873a451","696","stimuli/0001110.jpg","1","","prediction_trial","0","","false","","0","false","false","true","true","false","false","[0]","001","110","0","","","","","","",""
"","","","","","image-keyboard-response","219","233176","0.0-194.0","63d83a19b8acced30d2e0d32","665500ab8938657b03fbdba8","66579613ec682fff2873a451","790","stimuli/00011100.jpg"," ","","feedback_trial","0","","","","","","","","","","","","","","","","","","","","",""
"","","","","","image-keyboard-response","220","234560","0.0-195.0","63d83a19b8acced30d2e0d32","665500ab8938657b03fbdba8","66579613ec682fff2873a451","1384","stimuli/2010001.jpg","2","","prediction_trial","2","","true","","2","false","true","true","true","false","true","[2]","010","001","1","","","","","","",""
"","","","","","image-keyboard-response","221","235016","0.0-196.0","63d83a19b8acced30d2e0d32","665500ab8938657b03fbdba8","66579613ec682fff2873a451","455","stimuli/20100012.jpg"," ","","feedback_trial","2","","","","","","","","","","","","","","","","","","","","",""
"","","","","","image-keyboard-response","222","235769","0.0-197.0","63d83a19b8acced30d2e0d32","665500ab8938657b03fbdba8","66579613ec682fff2873a451","752","stimuli/1111001.jpg","1","","prediction_trial","2","","false","","1","true","true","false","false","false","false","[1,2,0]","111","001","0","","","","","","",""
"","","","","","image-keyboard-response","223","236121","0.0-198.0","63d83a19b8acced30d2e0d32","665500ab8938657b03fbdba8","66579613ec682fff2873a451","352","stimuli/11110012.jpg"," ","","feedback_trial","1","","","","","","","","","","","","","","","","","","","","",""
"","","","","","image-keyboard-response","224","236776","0.0-199.0","63d83a19b8acced30d2e0d32","665500ab8938657b03fbdba8","66579613ec682fff2873a451","655","stimuli/0111001.jpg","0","","prediction_trial","1","","false","","0","true","true","false","false","false","false","[1,0,2]","111","001","0","","","","","","",""
"","","","","","image-keyboard-response","225","237104","0.0-200.0","63d83a19b8acced30d2e0d32","665500ab8938657b03fbdba8","66579613ec682fff2873a451","327","stimuli/01110011.jpg"," ","","feedback_trial","1","","","","","","","","","","","","","","","","","","","","",""
"","","","","","image-keyboard-response","226","237728","0.0-201.0","63d83a19b8acced30d2e0d32","665500ab8938657b03fbdba8","66579613ec682fff2873a451","624","stimuli/1001000.jpg","1","","prediction_trial","1","","true","","1","true","true","true","true","true","true","[1]","001","000","1","","","","","","",""
"","","","","","image-keyboard-response","227","238104","0.0-202.0","63d83a19b8acced30d2e0d32","665500ab8938657b03fbdba8","66579613ec682fff2873a451","375","stimuli/10010001.jpg"," ","","feedback_trial","1","","","","","","","","","","","","","","","","","","","","",""
"","","","","","image-keyboard-response","228","238810","0.0-203.0","63d83a19b8acced30d2e0d32","665500ab8938657b03fbdba8","66579613ec682fff2873a451","705","stimuli/0000110.jpg","1","","prediction_trial","0","","false","","0","false","false","true","true","false","false","[0]","000","110","0","","","","","","",""
"","","","","","image-keyboard-response","229","239233","0.0-204.0","63d83a19b8acced30d2e0d32","665500ab8938657b03fbdba8","66579613ec682fff2873a451","423","stimuli/00001100.jpg"," ","","feedback_trial","0","","","","","","","","","","","","","","","","","","","","",""
"","","","","","image-keyboard-response","230","240441","0.0-205.0","63d83a19b8acced30d2e0d32","665500ab8938657b03fbdba8","66579613ec682fff2873a451","1207","stimuli/1010010.jpg","1","","prediction_trial","1","","true","","1","false","true","false","true","false","true","[1]","010","010","1","","","","","","",""
"","","","","","image-keyboard-response","231","240920","0.0-206.0","63d83a19b8acced30d2e0d32","665500ab8938657b03fbdba8","66579613ec682fff2873a451","478","stimuli/10100101.jpg"," ","","feedback_trial","1","","","","","","","","","","","","","","","","","","","","",""
"","","","","","image-keyboard-response","232","241488","0.0-207.0","63d83a19b8acced30d2e0d32","665500ab8938657b03fbdba8","66579613ec682fff2873a451","568","stimuli/1001101.jpg","1","","prediction_trial","1","","true","","1","true","true","true","true","true","true","[1]","001","101","1","","","","","","",""
"","","","","","image-keyboard-response","233","241920","0.0-208.0","63d83a19b8acced30d2e0d32","665500ab8938657b03fbdba8","66579613ec682fff2873a451","431","stimuli/10011011.jpg"," ","","feedback_trial","1","","","","","","","","","","","","","","","","","","","","",""
"","","","","","image-keyboard-response","234","242553","0.0-209.0","63d83a19b8acced30d2e0d32","665500ab8938657b03fbdba8","66579613ec682fff2873a451","632","stimuli/0011011.jpg","0","","prediction_trial","0","","true","","0","true","true","true","true","true","true","[0]","011","011","1","","","","","","",""
"","","","","","image-keyboard-response","235","243008","0.0-210.0","63d83a19b8acced30d2e0d32","665500ab8938657b03fbdba8","66579613ec682fff2873a451","455","stimuli/00110110.jpg"," ","","feedback_trial","0","","","","","","","","","","","","","","","","","","","","",""
"","","","","","image-keyboard-response","236","244593","0.0-211.0","63d83a19b8acced30d2e0d32","665500ab8938657b03fbdba8","66579613ec682fff2873a451","1584","stimuli/0001100.jpg","0","","prediction_trial","0","","true","","0","false","true","true","true","false","true","[0]","001","100","1","","","","","","",""
"","","","","","image-keyboard-response","237","244912","0.0-212.0","63d83a19b8acced30d2e0d32","665500ab8938657b03fbdba8","66579613ec682fff2873a451","319","stimuli/00011000.jpg"," ","","feedback_trial","0","","","","","","","","","","","","","","","","","","","","",""
"","","","","","image-keyboard-response","238","245632","0.0-213.0","63d83a19b8acced30d2e0d32","665500ab8938657b03fbdba8","66579613ec682fff2873a451","720","stimuli/1010100.jpg","1","","prediction_trial","1","","true","","1","true","true","false","true","false","true","[1]","010","100","1","","","","","","",""
"","","","","","image-keyboard-response","239","246049","0.0-214.0","63d83a19b8acced30d2e0d32","665500ab8938657b03fbdba8","66579613ec682fff2873a451","416","stimuli/10101001.jpg"," ","","feedback_trial","1","","","","","","","","","","","","","","","","","","","","",""
"","","","","","image-keyboard-response","240","246809","0.0-215.0","63d83a19b8acced30d2e0d32","665500ab8938657b03fbdba8","66579613ec682fff2873a451","760","stimuli/2110101.jpg","2","","prediction_trial","2","","true","","2","false","false","true","true","false","false","[2]","110","101","1","","","","","","",""
"","","","","","image-keyboard-response","241","247329","0.0-216.0","63d83a19b8acced30d2e0d32","665500ab8938657b03fbdba8","66579613ec682fff2873a451","519","stimuli/21101012.jpg"," ","","feedback_trial","2","","","","","","","","","","","","","","","","","","","","",""
"","","","","","image-keyboard-response","242","248281","0.0-217.0","63d83a19b8acced30d2e0d32","665500ab8938657b03fbdba8","66579613ec682fff2873a451","952","stimuli/0101011.jpg","0","","prediction_trial","2","","false","","0","true","true","false","false","false","false","[2,0]","101","011","0","","","","","","",""
"","","","","","image-keyboard-response","243","248897","0.0-218.0","63d83a19b8acced30d2e0d32","665500ab8938657b03fbdba8","66579613ec682fff2873a451","615","stimuli/01010112.jpg"," ","","feedback_trial","2","","","","","","","","","","","","","","","","","","","","",""
"","","","","","image-keyboard-response","244","249624","0.0-219.0","63d83a19b8acced30d2e0d32","665500ab8938657b03fbdba8","66579613ec682fff2873a451","727","stimuli/0100101.jpg","1","","prediction_trial","0","","false","","0","false","false","false","true","false","false","[0]","100","101","0","","","","","","",""
"","","","","","image-keyboard-response","245","250217","0.0-220.0","63d83a19b8acced30d2e0d32","665500ab8938657b03fbdba8","66579613ec682fff2873a451","592","stimuli/01001010.jpg"," ","","feedback_trial","0","","","","","","","","","","","","","","","","","","","","",""
"","","","","","image-keyboard-response","246","250945","0.0-221.0","63d83a19b8acced30d2e0d32","665500ab8938657b03fbdba8","66579613ec682fff2873a451","727","stimuli/2101111.jpg","1","","prediction_trial","2","","false","","2","false","false","false","false","false","false","[2,0]","101","111","0","","","","","","",""
"","","","","","image-keyboard-response","247","251575","0.0-222.0","63d83a19b8acced30d2e0d32","665500ab8938657b03fbdba8","66579613ec682fff2873a451","630","stimuli/21011112.jpg"," ","","feedback_trial","2","","","","","","","","","","","","","","","","","","","","",""
"","","","","","image-keyboard-response","248","252249","0.0-223.0","63d83a19b8acced30d2e0d32","665500ab8938657b03fbdba8","66579613ec682fff2873a451","673","stimuli/0011111.jpg","0","","prediction_trial","0","","true","","0","false","false","true","true","false","false","[0]","011","111","1","","","","","","",""
"","","","","","image-keyboard-response","249","252753","0.0-224.0","63d83a19b8acced30d2e0d32","665500ab8938657b03fbdba8","66579613ec682fff2873a451","503","stimuli/00111110.jpg"," ","","feedback_trial","0","","","","","","","","","","","","","","","","","","","","",""
"","","","","","image-keyboard-response","250","253753","0.0-225.0","63d83a19b8acced30d2e0d32","665500ab8938657b03fbdba8","66579613ec682fff2873a451","999","stimuli/0000100.jpg","0","","prediction_trial","0","","true","","0","false","true","true","true","false","true","[0]","000","100","1","","","","","","",""
"","","","","","image-keyboard-response","251","254208","0.0-226.0","63d83a19b8acced30d2e0d32","665500ab8938657b03fbdba8","66579613ec682fff2873a451","455","stimuli/00001000.jpg"," ","","feedback_trial","0","","","","","","","","","","","","","","","","","","","","",""
"","","","","","image-keyboard-response","252","254937","0.0-227.0","63d83a19b8acced30d2e0d32","665500ab8938657b03fbdba8","66579613ec682fff2873a451","728","stimuli/0101110.jpg","1","","prediction_trial","0","","false","","0","false","false","false","false","false","false","[0,2]","101","110","0","","","","","","",""
"","","","","","image-keyboard-response","253","255800","0.0-228.0","63d83a19b8acced30d2e0d32","665500ab8938657b03fbdba8","66579613ec682fff2873a451","863","stimuli/01011100.jpg"," ","","feedback_trial","0","","","","","","","","","","","","","","","","","","","","",""
"","","","","","image-keyboard-response","254","256656","0.0-229.0","63d83a19b8acced30d2e0d32","665500ab8938657b03fbdba8","66579613ec682fff2873a451","855","stimuli/2001100.jpg","2","","prediction_trial","2","","true","","2","true","true","false","true","false","true","[2]","001","100","1","","","","","","",""
"","","","","","image-keyboard-response","255","257240","0.0-230.0","63d83a19b8acced30d2e0d32","665500ab8938657b03fbdba8","66579613ec682fff2873a451","584","stimuli/20011002.jpg"," ","","feedback_trial","2","","","","","","","","","","","","","","","","","","","","",""
"","","","","","image-keyboard-response","256","257992","0.0-231.0","63d83a19b8acced30d2e0d32","665500ab8938657b03fbdba8","66579613ec682fff2873a451","751","stimuli/2110100.jpg","2","","prediction_trial","2","","true","","2","true","true","true","true","true","true","[2]","110","100","1","","","","","","",""
"","","","","","image-keyboard-response","257","258480","0.0-232.0","63d83a19b8acced30d2e0d32","665500ab8938657b03fbdba8","66579613ec682fff2873a451","488","stimuli/21101002.jpg"," ","","feedback_trial","2","","","","","","","","","","","","","","","","","","","","",""
"","","","","","image-keyboard-response","258","259225","0.0-233.0","63d83a19b8acced30d2e0d32","665500ab8938657b03fbdba8","66579613ec682fff2873a451","744","stimuli/1001110.jpg","1","","prediction_trial","1","","true","","1","false","false","true","true","false","false","[1]","001","110","1","","","","","","",""
"","","","","","image-keyboard-response","259","259752","0.0-234.0","63d83a19b8acced30d2e0d32","665500ab8938657b03fbdba8","66579613ec682fff2873a451","527","stimuli/10011101.jpg"," ","","feedback_trial","1","","","","","","","","","","","","","","","","","","","","",""
"","","","","","image-keyboard-response","260","260472","0.0-235.0","63d83a19b8acced30d2e0d32","665500ab8938657b03fbdba8","66579613ec682fff2873a451","719","stimuli/1011001.jpg","1","","prediction_trial","1","","true","","1","true","true","false","false","false","false","[2,1]","011","001","1","","","","","","",""
"","","","","","image-keyboard-response","261","260985","0.0-236.0","63d83a19b8acced30d2e0d32","665500ab8938657b03fbdba8","66579613ec682fff2873a451","512","stimuli/10110011.jpg"," ","","feedback_trial","2","","","","","","","","","","","","","","","","","","","","",""
"","","","","","image-keyboard-response","262","261640","0.0-237.0","63d83a19b8acced30d2e0d32","665500ab8938657b03fbdba8","66579613ec682fff2873a451","655","stimuli/0101010.jpg","0","","prediction_trial","0","","true","","0","true","true","false","false","false","false","[0,2]","101","010","1","","","","","","",""
"","","","","","image-keyboard-response","263","262064","0.0-238.0","63d83a19b8acced30d2e0d32","665500ab8938657b03fbdba8","66579613ec682fff2873a451","423","stimuli/01010100.jpg"," ","","feedback_trial","0","","","","","","","","","","","","","","","","","","","","",""
"","","","","","image-keyboard-response","264","263249","0.0-239.0","63d83a19b8acced30d2e0d32","665500ab8938657b03fbdba8","66579613ec682fff2873a451","1184","stimuli/2100101.jpg","0","","prediction_trial","2","","false","","2","false","false","true","true","false","false","[2]","100","101","0","","","","","","",""
"","","","","","image-keyboard-response","265","263832","0.0-240.0","63d83a19b8acced30d2e0d32","665500ab8938657b03fbdba8","66579613ec682fff2873a451","582","stimuli/21001012.jpg"," ","","feedback_trial","2","","","","","","","","","","","","","","","","","","","","",""
"","","","","","image-keyboard-response","266","264632","0.0-241.0","63d83a19b8acced30d2e0d32","665500ab8938657b03fbdba8","66579613ec682fff2873a451","800","stimuli/0100000.jpg","0","","prediction_trial","0","","true","","0","true","true","false","true","false","true","[0]","100","000","1","","","","","","",""
"","","","","","image-keyboard-response","267","265184","0.0-242.0","63d83a19b8acced30d2e0d32","665500ab8938657b03fbdba8","66579613ec682fff2873a451","551","stimuli/01000000.jpg"," ","","feedback_trial","0","","","","","","","","","","","","","","","","","","","","",""
"","","","","","image-keyboard-response","268","265977","0.0-243.0","63d83a19b8acced30d2e0d32","665500ab8938657b03fbdba8","66579613ec682fff2873a451","792","stimuli/2000001.jpg","2","","prediction_trial","2","","true","","2","false","true","true","true","false","true","[2]","000","001","1","","","","","","",""
"","","","","","image-keyboard-response","269","266504","0.0-244.0","63d83a19b8acced30d2e0d32","665500ab8938657b03fbdba8","66579613ec682fff2873a451","527","stimuli/20000012.jpg"," ","","feedback_trial","2","","","","","","","","","","","","","","","","","","","","",""
"","","","","","image-keyboard-response","270","267185","0.0-245.0","63d83a19b8acced30d2e0d32","665500ab8938657b03fbdba8","66579613ec682fff2873a451","680","stimuli/2000110.jpg","2","","prediction_trial","2","","true","","2","true","true","true","true","true","true","[2]","000","110","1","","","","","","",""
"","","","","","image-keyboard-response","271","267520","0.0-246.0","63d83a19b8acced30d2e0d32","665500ab8938657b03fbdba8","66579613ec682fff2873a451","335","stimuli/20001102.jpg"," ","","feedback_trial","2","","","","","","","","","","","","","","","","","","","","",""
"","","","","","image-keyboard-response","272","268225","0.0-247.0","63d83a19b8acced30d2e0d32","665500ab8938657b03fbdba8","66579613ec682fff2873a451","705","stimuli/0101001.jpg","0","","prediction_trial","2","","false","","0","true","true","false","false","false","false","[2,0]","101","001","0","","","","","","",""
"","","","","","image-keyboard-response","273","268593","0.0-248.0","63d83a19b8acced30d2e0d32","665500ab8938657b03fbdba8","66579613ec682fff2873a451","367","stimuli/01010012.jpg"," ","","feedback_trial","2","","","","","","","","","","","","","","","","","","","","",""
"","","","","","image-keyboard-response","274","269289","0.0-249.0","63d83a19b8acced30d2e0d32","665500ab8938657b03fbdba8","66579613ec682fff2873a451","695","stimuli/2011110.jpg","2","","prediction_trial","2","","true","","2","true","true","false","false","false","false","[1,2]","011","110","1","","","","","","",""
"","","","","","image-keyboard-response","275","269712","0.0-250.0","63d83a19b8acced30d2e0d32","665500ab8938657b03fbdba8","66579613ec682fff2873a451","423","stimuli/20111102.jpg"," ","","feedback_trial","1","","","","","","","","","","","","","","","","","","","","",""
"","","","","","image-keyboard-response","276","270329","0.0-251.0","63d83a19b8acced30d2e0d32","665500ab8938657b03fbdba8","66579613ec682fff2873a451","616","stimuli/2111001.jpg","2","","prediction_trial","0","","false","","2","false","true","false","false","false","false","[1,2,0]","111","001","0","","","","","","",""
"","","","","","image-keyboard-response","277","270934","0.0-252.0","63d83a19b8acced30d2e0d32","665500ab8938657b03fbdba8","66579613ec682fff2873a451","605","stimuli/21110010.jpg"," ","","feedback_trial","1","","","","","","","","","","","","","","","","","","","","",""
"","","","","","image-keyboard-response","278","271552","0.0-253.0","63d83a19b8acced30d2e0d32","665500ab8938657b03fbdba8","66579613ec682fff2873a451","618","stimuli/1100110.jpg","1","","prediction_trial","1","","true","","1","false","false","true","true","false","false","[1]","100","110","1","","","","","","",""
"","","","","","image-keyboard-response","279","272113","0.0-254.0","63d83a19b8acced30d2e0d32","665500ab8938657b03fbdba8","66579613ec682fff2873a451","560","stimuli/11001101.jpg"," ","","feedback_trial","1","","","","","","","","","","","","","","","","","","","","",""
"","","","","","image-keyboard-response","280","272923","0.0-255.0","63d83a19b8acced30d2e0d32","665500ab8938657b03fbdba8","66579613ec682fff2873a451","809","stimuli/1001010.jpg","1","","prediction_trial","1","","true","","1","false","true","true","true","false","true","[1]","001","010","1","","","","","","",""
"","","","","","image-keyboard-response","281","273552","0.0-256.0","63d83a19b8acced30d2e0d32","665500ab8938657b03fbdba8","66579613ec682fff2873a451","629","stimuli/10010101.jpg"," ","","feedback_trial","1","","","","","","","","","","","","","","","","","","","","",""
"","","","","","image-keyboard-response","282","274249","0.0-257.0","63d83a19b8acced30d2e0d32","665500ab8938657b03fbdba8","66579613ec682fff2873a451","696","stimuli/2011100.jpg","2","","prediction_trial","2","","true","","2","true","true","false","false","false","false","[1,2]","011","100","1","","","","","","",""
"","","","","","image-keyboard-response","283","274616","0.0-258.0","63d83a19b8acced30d2e0d32","665500ab8938657b03fbdba8","66579613ec682fff2873a451","367","stimuli/20111002.jpg"," ","","feedback_trial","1","","","","","","","","","","","","","","","","","","","","",""
"","","","","","image-keyboard-response","284","275202","0.0-259.0","63d83a19b8acced30d2e0d32","665500ab8938657b03fbdba8","66579613ec682fff2873a451","585","stimuli/0101111.jpg","1","","prediction_trial","2","","false","","0","false","false","false","false","false","false","[0,2]","101","111","0","","","","","","",""
"","","","","","image-keyboard-response","285","275936","0.0-260.0","63d83a19b8acced30d2e0d32","665500ab8938657b03fbdba8","66579613ec682fff2873a451","734","stimuli/01011112.jpg"," ","","feedback_trial","0","","","","","","","","","","","","","","","","","","","","",""
"","","","","","image-keyboard-response","286","276537","0.0-261.0","63d83a19b8acced30d2e0d32","665500ab8938657b03fbdba8","66579613ec682fff2873a451","601","stimuli/2111110.jpg","2","","prediction_trial","0","","false","","2","true","true","false","false","false","false","[1,2,0]","111","110","0","","","","","","",""
"","","","","","image-keyboard-response","287","276921","0.0-262.0","63d83a19b8acced30d2e0d32","665500ab8938657b03fbdba8","66579613ec682fff2873a451","383","stimuli/21111100.jpg"," ","","feedback_trial","1","","","","","","","","","","","","","","","","","","","","",""
"","","","","","image-keyboard-response","288","277640","0.0-263.0","63d83a19b8acced30d2e0d32","665500ab8938657b03fbdba8","66579613ec682fff2873a451","719","stimuli/2111111.jpg","2","","prediction_trial","2","","true","","2","false","false","false","false","false","false","[2,0,1]","111","111","1","","","","","","",""
"","","","","","image-keyboard-response","289","278040","0.0-264.0","63d83a19b8acced30d2e0d32","665500ab8938657b03fbdba8","66579613ec682fff2873a451","399","stimuli/21111112.jpg"," ","","feedback_trial","2","","","","","","","","","","","","","","","","","","","","",""
"","","","","","image-keyboard-response","290","278752","0.0-265.0","63d83a19b8acced30d2e0d32","665500ab8938657b03fbdba8","66579613ec682fff2873a451","711","stimuli/0000001.jpg","0","","prediction_trial","0","","true","","0","true","true","true","true","true","true","[0]","000","001","1","","","","","","",""
"","","","","","image-keyboard-response","291","279192","0.0-266.0","63d83a19b8acced30d2e0d32","665500ab8938657b03fbdba8","66579613ec682fff2873a451","439","stimuli/00000010.jpg"," ","","feedback_trial","0","","","","","","","","","","","","","","","","","","","","",""
"","","","","","image-keyboard-response","292","279793","0.0-267.0","63d83a19b8acced30d2e0d32","665500ab8938657b03fbdba8","66579613ec682fff2873a451","600","stimuli/2001110.jpg","2","","prediction_trial","2","","true","","2","true","true","false","true","false","true","[2]","001","110","1","","","","","","",""
"","","","","","image-keyboard-response","293","280142","0.0-268.0","63d83a19b8acced30d2e0d32","665500ab8938657b03fbdba8","66579613ec682fff2873a451","349","stimuli/20011102.jpg"," ","","feedback_trial","2","","","","","","","","","","","","","","","","","","","","",""
"","","","","","image-keyboard-response","294","280698","0.0-269.0","63d83a19b8acced30d2e0d32","665500ab8938657b03fbdba8","66579613ec682fff2873a451","555","stimuli/1001100.jpg","1","","prediction_trial","1","","true","","1","true","true","true","true","true","true","[1]","001","100","1","","","","","","",""
"","","","","","image-keyboard-response","295","281064","0.0-270.0","63d83a19b8acced30d2e0d32","665500ab8938657b03fbdba8","66579613ec682fff2873a451","366","stimuli/10011001.jpg"," ","","feedback_trial","1","","","","","","","","","","","","","","","","","","","","",""
"","","","","","image-keyboard-response","296","281665","0.0-271.0","63d83a19b8acced30d2e0d32","665500ab8938657b03fbdba8","66579613ec682fff2873a451","600","stimuli/2011111.jpg","0","","prediction_trial","1","","false","","2","false","false","false","false","false","false","[1,2]","011","111","0","","","","","","",""
"","","","","","image-keyboard-response","297","282209","0.0-272.0","63d83a19b8acced30d2e0d32","665500ab8938657b03fbdba8","66579613ec682fff2873a451","543","stimuli/20111111.jpg"," ","","feedback_trial","1","","","","","","","","","","","","","","","","","","","","",""
"","","","","","image-keyboard-response","298","282721","0.0-273.0","63d83a19b8acced30d2e0d32","665500ab8938657b03fbdba8","66579613ec682fff2873a451","512","stimuli/0000000.jpg","0","","prediction_trial","0","","true","","0","true","true","true","true","true","true","[0]","000","000","1","","","","","","",""
"","","","","","image-keyboard-response","299","283033","0.0-274.0","63d83a19b8acced30d2e0d32","665500ab8938657b03fbdba8","66579613ec682fff2873a451","311","stimuli/00000000.jpg"," ","","feedback_trial","0","","","","","","","","","","","","","","","","","","","","",""
"","","","","","image-keyboard-response","300","283616","0.0-275.0","63d83a19b8acced30d2e0d32","665500ab8938657b03fbdba8","66579613ec682fff2873a451","583","stimuli/2100110.jpg","2","","prediction_trial","2","","true","","2","true","true","true","true","true","true","[2]","100","110","1","","","","","","",""
"","","","","","image-keyboard-response","301","284032","0.0-276.0","63d83a19b8acced30d2e0d32","665500ab8938657b03fbdba8","66579613ec682fff2873a451","415","stimuli/21001102.jpg"," ","","feedback_trial","2","","","","","","","","","","","","","","","","","","","","",""
"","","","","","image-keyboard-response","302","284608","0.0-277.0","63d83a19b8acced30d2e0d32","665500ab8938657b03fbdba8","66579613ec682fff2873a451","575","stimuli/1011100.jpg","1","","prediction_trial","1","","true","","1","true","true","false","false","false","false","[1,2]","011","100","1","","","","","","",""
"","","","","","image-keyboard-response","303","285009","0.0-278.0","63d83a19b8acced30d2e0d32","665500ab8938657b03fbdba8","66579613ec682fff2873a451","401","stimuli/10111001.jpg"," ","","feedback_trial","1","","","","","","","","","","","","","","","","","","","","",""
"","","","","","image-keyboard-response","304","285633","0.0-279.0","63d83a19b8acced30d2e0d32","665500ab8938657b03fbdba8","66579613ec682fff2873a451","623","stimuli/2011000.jpg","2","","prediction_trial","2","","true","","2","true","true","false","false","false","false","[1,2]","011","000","1","","","","","","",""
"","","","","","image-keyboard-response","305","286000","0.0-280.0","63d83a19b8acced30d2e0d32","665500ab8938657b03fbdba8","66579613ec682fff2873a451","366","stimuli/20110002.jpg"," ","","feedback_trial","1","","","","","","","","","","","","","","","","","","","","",""
"","","","","","image-keyboard-response","306","286577","0.0-281.0","63d83a19b8acced30d2e0d32","665500ab8938657b03fbdba8","66579613ec682fff2873a451","576","stimuli/0000010.jpg","0","","prediction_trial","0","","true","","0","true","true","true","true","true","true","[0]","000","010","1","","","","","","",""
"","","","","","image-keyboard-response","307","286945","0.0-282.0","63d83a19b8acced30d2e0d32","665500ab8938657b03fbdba8","66579613ec682fff2873a451","368","stimuli/00000100.jpg"," ","","feedback_trial","0","","","","","","","","","","","","","","","","","","","","",""
"","","","","","image-keyboard-response","308","287568","0.0-283.0","63d83a19b8acced30d2e0d32","665500ab8938657b03fbdba8","66579613ec682fff2873a451","623","stimuli/1100011.jpg","1","","prediction_trial","1","","true","","1","false","false","true","true","false","false","[1]","100","011","1","","","","","","",""
"","","","","","image-keyboard-response","309","287976","0.0-284.0","63d83a19b8acced30d2e0d32","665500ab8938657b03fbdba8","66579613ec682fff2873a451","407","stimuli/11000111.jpg"," ","","feedback_trial","1","","","","","","","","","","","","","","","","","","","","",""
"","","","","","image-keyboard-response","310","288536","0.0-285.0","63d83a19b8acced30d2e0d32","665500ab8938657b03fbdba8","66579613ec682fff2873a451","560","stimuli/1000000.jpg","1","","prediction_trial","1","","true","","1","true","true","true","true","true","true","[1]","000","000","1","","","","","","",""
"","","","","","image-keyboard-response","311","288929","0.0-286.0","63d83a19b8acced30d2e0d32","665500ab8938657b03fbdba8","66579613ec682fff2873a451","392","stimuli/10000001.jpg"," ","","feedback_trial","1","","","","","","","","","","","","","","","","","","","","",""
"","","","","","image-keyboard-response","312","289561","0.0-287.0","63d83a19b8acced30d2e0d32","665500ab8938657b03fbdba8","66579613ec682fff2873a451","631","stimuli/2000000.jpg","2","","prediction_trial","2","","true","","2","true","true","true","true","true","true","[2]","000","000","1","","","","","","",""
"","","","","","image-keyboard-response","313","289968","0.0-288.0","63d83a19b8acced30d2e0d32","665500ab8938657b03fbdba8","66579613ec682fff2873a451","407","stimuli/20000002.jpg"," ","","feedback_trial","2","","","","","","","","","","","","","","","","","","","","",""
"","","","","","image-keyboard-response","314","290536","0.0-289.0","63d83a19b8acced30d2e0d32","665500ab8938657b03fbdba8","66579613ec682fff2873a451","568","stimuli/2101001.jpg","1","","prediction_trial","0","","false","","2","false","true","false","false","false","false","[0,2]","101","001","0","","","","","","",""
"","","","","","image-keyboard-response","315","290991","0.0-290.0","63d83a19b8acced30d2e0d32","665500ab8938657b03fbdba8","66579613ec682fff2873a451","454","stimuli/21010010.jpg"," ","","feedback_trial","0","","","","","","","","","","","","","","","","","","","","",""
"","","","","","image-keyboard-response","316","291985","0.0-291.0","63d83a19b8acced30d2e0d32","665500ab8938657b03fbdba8","66579613ec682fff2873a451","993","stimuli/1111101.jpg","1","","prediction_trial","0","","false","","1","true","true","false","false","false","false","[2,0,1]","111","101","0","","","","","","",""
"","","","","","image-keyboard-response","317","292416","0.0-292.0","63d83a19b8acced30d2e0d32","665500ab8938657b03fbdba8","66579613ec682fff2873a451","431","stimuli/11111010.jpg"," ","","feedback_trial","2","","","","","","","","","","","","","","","","","","","","",""
"","","","","","survey-html-form","318","322352","0.0-293.0","63d83a19b8acced30d2e0d32","665500ab8938657b03fbdba8","66579613ec682fff2873a451","29934","","{""feedback"":""If Sam could see 1, 2 or all 3 of the balls."",""age"":""35"",""gender"":""Male"",""other_gender"":"""",""race"":""White"",""other_race"":"""",""ethnicity"":""Non-Hispanic""}","","exit_survey","","","","","","","","","","","","","","","","If Sam could see 1, 2 or all 3 of the balls.","35","Non-Hispanic","Male","White","0.6666666666666666","0.6666666666666666"
