"success","timeout","failed_images","failed_audio","failed_video","trial_type","trial_index","time_elapsed","internal_node_id","prolific_id","prolific_study_id","prolific_session_id","rt","stimulus","response","view_history","trial","character_choice","stimulus_dict","accuracy","correct_response","ball_pos","ego_ball_visible","ego_can_infer","alter_ball_visible","alter_can_infer","collective_ball_visible","collective_can_infer","search_locations","alter_occluders","ego_occluders","accuracy_bool","feedback","age","ethnicity","gender","race","overall_accuracy","bonus"
"true","false","[]","[]","[]","preload","0","49157","0.0-0.0","6554ea27378d1f1b846788b3","665500ab8938657b03fbdba8","66579322fedf541d6edd92dc","","","","","","","","","","","","","","","","","","","","","","","","","","",""
"true","","","","","fullscreen","1","62952","0.0-1.0","6554ea27378d1f1b846788b3","665500ab8938657b03fbdba8","66579322fedf541d6edd92dc","","","","","","","","","","","","","","","","","","","","","","","","","","",""
"","","","","","html-button-response","2","69023","0.0-2.0","6554ea27378d1f1b846788b3","665500ab8938657b03fbdba8","66579322fedf541d6edd92dc","6069","<p><b>Consent Form</b></p> <div style=""text-align:left;background-color:lightgrey; padding:20px; max-width:900px;""><p>Please consider this information carefully before deciding whether to participate in this research.</p> <p>The purpose of this research is to examine which factors influence social judgment and decision-making. You will be asked to make judgements about individuals and actions in social scenarios. We are simply interested in your judgement. The study will take less than 1 hour to complete, and you will receive less than $20 on Prolific. Your compensation and time commitment are specified in the study description. There are no anticipated risks associated with participating in this study. The effects of participating should be comparable to those you would ordinarily experience from viewing a computer monitor and using a mouse or keyboard for a similar amount of time. At the end of the study, we will provide an explanation of the questions that motivate this line of research and will describe the potential implications. </p><p> Your participation in this study is completely voluntary and you may refuse to participate or you may choose to withdraw at any time without penalty or loss of benefits to you which are otherwise entitled. Your participation in this study will remain confidential. No personally identifiable information will be associated with your data. Also, all analyses of the data will be averaged across all the participants, so your individual responses will never be specifically analyzed. </p><p> If you have questions or concerns about your participation or payment, or want to request a summary of research findings, please contact Dr. Jonathan Phillips at Jonathan.S.Phillips@dartmouth.edu. </p><p> Please save a copy of this form for your records. </p><p><b>Agreement: </b>The nature and purpose of this research have been sufficiently explained and I agree to participate in this study. I understand that I am free to withdraw at any time without incurring any penalty. Please consent by clicking the button below to continue. Otherwise, please exit the study at any time. </p>","0","","","","","","","","","","","","","","","","","","","","","","","",""
"","","","","","instructions","3","217870","0.0-3.0-0.0","6554ea27378d1f1b846788b3","665500ab8938657b03fbdba8","66579322fedf541d6edd92dc","148843","","","[{""page_index"":0,""viewing_time"":11751},{""page_index"":1,""viewing_time"":5577},{""page_index"":2,""viewing_time"":7128},{""page_index"":3,""viewing_time"":27766},{""page_index"":4,""viewing_time"":18688},{""page_index"":5,""viewing_time"":11150},{""page_index"":6,""viewing_time"":9676},{""page_index"":7,""viewing_time"":6302},{""page_index"":8,""viewing_time"":5312},{""page_index"":9,""viewing_time"":3048},{""page_index"":10,""viewing_time"":18220},{""page_index"":11,""viewing_time"":13704},{""page_index"":12,""viewing_time"":8796},{""page_index"":13,""viewing_time"":1724}]","intro","","","","","","","","","","","","","","","","","","","","","",""
"","","","","","image-keyboard-response","4","226606","0.0-3.0-1.0","6554ea27378d1f1b846788b3","665500ab8938657b03fbdba8","66579322fedf541d6edd92dc","8724","stimuli/2010000.jpg","2","","prediction_practice","2","{""filepath"":""stimuli/2010000.jpg"",""ball_pos"":2,""ego_ball_visible"":true,""ego_can_infer"":true,""alter_ball_visible"":true,""alter_can_infer"":true,""collective_ball_visible"":true,""collective_can_infer"":true,""search_locations"":[2],""alter_occluders"":""010"",""ego_occluders"":""000""}","true","","","","","","","","","","","","","","","","","","",""
"","","","","","image-keyboard-response","5","228412","0.0-3.0-2.0","6554ea27378d1f1b846788b3","665500ab8938657b03fbdba8","66579322fedf541d6edd92dc","1804","stimuli/20100002.jpg"," ","","practrice_feedback","2","","","","","","","","","","","","","","","","","","","","",""
"","","","","","image-keyboard-response","6","231064","0.0-3.0-3.0","6554ea27378d1f1b846788b3","665500ab8938657b03fbdba8","66579322fedf541d6edd92dc","2651","stimuli/2011001.jpg","1","","prediction_practice","1","{""filepath"":""stimuli/2011001.jpg"",""ball_pos"":2,""ego_ball_visible"":false,""ego_can_infer"":true,""alter_ball_visible"":false,""alter_can_infer"":false,""collective_ball_visible"":false,""collective_can_infer"":false,""search_locations"":[1,2],""alter_occluders"":""011"",""ego_occluders"":""001""}","true","","","","","","","","","","","","","","","","","","",""
"","","","","","image-keyboard-response","7","232297","0.0-3.0-4.0","6554ea27378d1f1b846788b3","665500ab8938657b03fbdba8","66579322fedf541d6edd92dc","1231","stimuli/20110011.jpg"," ","","practrice_feedback","1","","","","","","","","","","","","","","","","","","","","",""
"","","","","","image-keyboard-response","8","233033","0.0-3.0-5.0","6554ea27378d1f1b846788b3","665500ab8938657b03fbdba8","66579322fedf541d6edd92dc","735","stimuli/2110010.jpg","2","","prediction_practice","2","{""filepath"":""stimuli/2110010.jpg"",""ball_pos"":2,""ego_ball_visible"":true,""ego_can_infer"":true,""alter_ball_visible"":true,""alter_can_infer"":true,""collective_ball_visible"":true,""collective_can_infer"":true,""search_locations"":[2],""alter_occluders"":""110"",""ego_occluders"":""010""}","true","","","","","","","","","","","","","","","","","","",""
"","","","","","image-keyboard-response","9","234627","0.0-3.0-6.0","6554ea27378d1f1b846788b3","665500ab8938657b03fbdba8","66579322fedf541d6edd92dc","1592","stimuli/21100102.jpg"," ","","practrice_feedback","2","","","","","","","","","","","","","","","","","","","","",""
"","","","","","image-keyboard-response","10","238120","0.0-3.0-7.0","6554ea27378d1f1b846788b3","665500ab8938657b03fbdba8","66579322fedf541d6edd92dc","3491","stimuli/1011100.jpg","2","","prediction_practice","1","{""filepath"":""stimuli/1011100.jpg"",""ball_pos"":1,""ego_ball_visible"":true,""ego_can_infer"":true,""alter_ball_visible"":false,""alter_can_infer"":false,""collective_ball_visible"":false,""collective_can_infer"":false,""search_locations"":[1,2],""alter_occluders"":""011"",""ego_occluders"":""100""}","false","","","","","","","","","","","","","","","","","","",""
"","","","","","image-keyboard-response","11","239164","0.0-3.0-8.0","6554ea27378d1f1b846788b3","665500ab8938657b03fbdba8","66579322fedf541d6edd92dc","1042","stimuli/10111001.jpg"," ","","practrice_feedback","1","","","","","","","","","","","","","","","","","","","","",""
"","","","","","image-keyboard-response","12","240515","0.0-3.0-9.0","6554ea27378d1f1b846788b3","665500ab8938657b03fbdba8","66579322fedf541d6edd92dc","1349","stimuli/2000010.jpg","2","","prediction_practice","2","{""filepath"":""stimuli/2000010.jpg"",""ball_pos"":2,""ego_ball_visible"":true,""ego_can_infer"":true,""alter_ball_visible"":true,""alter_can_infer"":true,""collective_ball_visible"":true,""collective_can_infer"":true,""search_locations"":[2],""alter_occluders"":""000"",""ego_occluders"":""010""}","true","","","","","","","","","","","","","","","","","","",""
"","","","","","image-keyboard-response","13","241428","0.0-3.0-10.0","6554ea27378d1f1b846788b3","665500ab8938657b03fbdba8","66579322fedf541d6edd92dc","911","stimuli/20000102.jpg"," ","","practrice_feedback","2","","","","","","","","","","","","","","","","","","","","",""
"","","","","","image-keyboard-response","14","243088","0.0-3.0-11.0","6554ea27378d1f1b846788b3","665500ab8938657b03fbdba8","66579322fedf541d6edd92dc","1659","stimuli/2011000.jpg","2","","prediction_practice","1","{""filepath"":""stimuli/2011000.jpg"",""ball_pos"":2,""ego_ball_visible"":true,""ego_can_infer"":true,""alter_ball_visible"":false,""alter_can_infer"":false,""collective_ball_visible"":false,""collective_can_infer"":false,""search_locations"":[1,2],""alter_occluders"":""011"",""ego_occluders"":""000""}","false","","","","","","","","","","","","","","","","","","",""
"","","","","","image-keyboard-response","15","243765","0.0-3.0-12.0","6554ea27378d1f1b846788b3","665500ab8938657b03fbdba8","66579322fedf541d6edd92dc","675","stimuli/20110001.jpg"," ","","practrice_feedback","1","","","","","","","","","","","","","","","","","","","","",""
"","","","","","image-keyboard-response","16","247043","0.0-3.0-13.0","6554ea27378d1f1b846788b3","665500ab8938657b03fbdba8","66579322fedf541d6edd92dc","3277","stimuli/2000001.jpg","2","","prediction_practice","2","{""filepath"":""stimuli/2000001.jpg"",""ball_pos"":2,""ego_ball_visible"":false,""ego_can_infer"":true,""alter_ball_visible"":true,""alter_can_infer"":true,""collective_ball_visible"":false,""collective_can_infer"":true,""search_locations"":[2],""alter_occluders"":""000"",""ego_occluders"":""001""}","true","","","","","","","","","","","","","","","","","","",""
"","","","","","image-keyboard-response","17","247650","0.0-3.0-14.0","6554ea27378d1f1b846788b3","665500ab8938657b03fbdba8","66579322fedf541d6edd92dc","605","stimuli/20000012.jpg"," ","","practrice_feedback","2","","","","","","","","","","","","","","","","","","","","",""
"","","","","","image-keyboard-response","18","250450","0.0-3.0-15.0","6554ea27378d1f1b846788b3","665500ab8938657b03fbdba8","66579322fedf541d6edd92dc","2799","stimuli/2000011.jpg","2","","prediction_practice","2","{""filepath"":""stimuli/2000011.jpg"",""ball_pos"":2,""ego_ball_visible"":false,""ego_can_infer"":false,""alter_ball_visible"":true,""alter_can_infer"":true,""collective_ball_visible"":false,""collective_can_infer"":false,""search_locations"":[2],""alter_occluders"":""000"",""ego_occluders"":""011""}","true","","","","","","","","","","","","","","","","","","",""
"","","","","","image-keyboard-response","19","251110","0.0-3.0-16.0","6554ea27378d1f1b846788b3","665500ab8938657b03fbdba8","66579322fedf541d6edd92dc","657","stimuli/20000112.jpg"," ","","practrice_feedback","2","","","","","","","","","","","","","","","","","","","","",""
"","","","","","image-keyboard-response","20","255786","0.0-3.0-17.0","6554ea27378d1f1b846788b3","665500ab8938657b03fbdba8","66579322fedf541d6edd92dc","4675","stimuli/0111101.jpg","1","","prediction_practice","1","{""filepath"":""stimuli/0111101.jpg"",""ball_pos"":0,""ego_ball_visible"":false,""ego_can_infer"":false,""alter_ball_visible"":false,""alter_can_infer"":false,""collective_ball_visible"":false,""collective_can_infer"":false,""search_locations"":[0,1,2],""alter_occluders"":""111"",""ego_occluders"":""101""}","true","","","","","","","","","","","","","","","","","","",""
"","","","","","image-keyboard-response","21","256342","0.0-3.0-18.0","6554ea27378d1f1b846788b3","665500ab8938657b03fbdba8","66579322fedf541d6edd92dc","555","stimuli/01111011.jpg"," ","","practrice_feedback","0","","","","","","","","","","","","","","","","","","","","",""
"","","","","","image-keyboard-response","22","258284","0.0-3.0-19.0","6554ea27378d1f1b846788b3","665500ab8938657b03fbdba8","66579322fedf541d6edd92dc","1940","stimuli/1011000.jpg","1","","prediction_practice","2","{""filepath"":""stimuli/1011000.jpg"",""ball_pos"":1,""ego_ball_visible"":true,""ego_can_infer"":true,""alter_ball_visible"":false,""alter_can_infer"":false,""collective_ball_visible"":false,""collective_can_infer"":false,""search_locations"":[2,1],""alter_occluders"":""011"",""ego_occluders"":""000""}","false","","","","","","","","","","","","","","","","","","",""
"","","","","","image-keyboard-response","23","258906","0.0-3.0-20.0","6554ea27378d1f1b846788b3","665500ab8938657b03fbdba8","66579322fedf541d6edd92dc","621","stimuli/10110002.jpg"," ","","practrice_feedback","2","","","","","","","","","","","","","","","","","","","","",""
"","","","","","html-button-response","24","267579","0.0-3.0-21.0","6554ea27378d1f1b846788b3","665500ab8938657b03fbdba8","66579322fedf541d6edd92dc","8670","Now that you've had some practice, you'll be tested with a couple of easy trials. If you correctly predict Sam's choice, you'll move on to complete the experiment!","0","","","","","","","","","","","","","","","","","","","","","","","",""
"","","","","","image-keyboard-response","25","268891","0.0-3.0-22.0-0.0","6554ea27378d1f1b846788b3","665500ab8938657b03fbdba8","66579322fedf541d6edd92dc","1310","stimuli/0000011.jpg","arrowleft","","comprehension_quiz","","","true","arrowleft","","","","","","","","","","","","","","","","","",""
"","","","","","image-keyboard-response","26","269892","0.0-3.0-22.0-1.0","6554ea27378d1f1b846788b3","665500ab8938657b03fbdba8","66579322fedf541d6edd92dc","999","stimuli/00000110.jpg"," ","","comprehension_quiz","","","true"," ","","","","","","","","","","","","","","","","","",""
"","","","","","image-keyboard-response","27","271449","0.0-3.0-22.0-2.0","6554ea27378d1f1b846788b3","665500ab8938657b03fbdba8","66579322fedf541d6edd92dc","1556","stimuli/1010010.jpg","arrowdown","","comprehension_quiz","","","true","arrowdown","","","","","","","","","","","","","","","","","",""
"","","","","","image-keyboard-response","28","272063","0.0-3.0-22.0-3.0","6554ea27378d1f1b846788b3","665500ab8938657b03fbdba8","66579322fedf541d6edd92dc","612","stimuli/10100101.jpg"," ","","comprehension_quiz","","","true"," ","","","","","","","","","","","","","","","","","",""
"","","","","","html-button-response","29","274262","0.0-4.0","6554ea27378d1f1b846788b3","665500ab8938657b03fbdba8","66579322fedf541d6edd92dc","2197","The experiment will now begin.","0","","","","","","","","","","","","","","","","","","","","","","","",""
"","","","","","image-keyboard-response","30","275299","0.0-5.0","6554ea27378d1f1b846788b3","665500ab8938657b03fbdba8","66579322fedf541d6edd92dc","1035","stimuli/0001010.jpg","0","","prediction_trial","0","","true","","0","true","true","true","true","true","true","[0]","001","010","1","","","","","","",""
"","","","","","image-keyboard-response","31","276010","0.0-6.0","6554ea27378d1f1b846788b3","665500ab8938657b03fbdba8","66579322fedf541d6edd92dc","709","stimuli/00010100.jpg"," ","","feedback_trial","0","","","","","","","","","","","","","","","","","","","","",""
"","","","","","image-keyboard-response","32","276761","0.0-7.0","6554ea27378d1f1b846788b3","665500ab8938657b03fbdba8","66579322fedf541d6edd92dc","749","stimuli/2011110.jpg","2","","prediction_trial","2","","true","","2","true","true","false","false","false","false","[1,2]","011","110","1","","","","","","",""
"","","","","","image-keyboard-response","33","277335","0.0-8.0","6554ea27378d1f1b846788b3","665500ab8938657b03fbdba8","66579322fedf541d6edd92dc","573","stimuli/20111102.jpg"," ","","feedback_trial","1","","","","","","","","","","","","","","","","","","","","",""
"","","","","","image-keyboard-response","34","279034","0.0-9.0","6554ea27378d1f1b846788b3","665500ab8938657b03fbdba8","66579322fedf541d6edd92dc","1697","stimuli/2110111.jpg","1","","prediction_trial","2","","false","","2","false","false","true","true","false","false","[2]","110","111","0","","","","","","",""
"","","","","","image-keyboard-response","35","279996","0.0-10.0","6554ea27378d1f1b846788b3","665500ab8938657b03fbdba8","66579322fedf541d6edd92dc","960","stimuli/21101112.jpg"," ","","feedback_trial","2","","","","","","","","","","","","","","","","","","","","",""
"","","","","","image-keyboard-response","36","281374","0.0-11.0","6554ea27378d1f1b846788b3","665500ab8938657b03fbdba8","66579322fedf541d6edd92dc","1377","stimuli/0110111.jpg","0","","prediction_trial","1","","false","","0","false","false","false","false","false","false","[0,1]","110","111","0","","","","","","",""
"","","","","","image-keyboard-response","37","282018","0.0-12.0","6554ea27378d1f1b846788b3","665500ab8938657b03fbdba8","66579322fedf541d6edd92dc","642","stimuli/01101111.jpg"," ","","feedback_trial","0","","","","","","","","","","","","","","","","","","","","",""
"","","","","","image-keyboard-response","38","283078","0.0-13.0","6554ea27378d1f1b846788b3","665500ab8938657b03fbdba8","66579322fedf541d6edd92dc","1058","stimuli/1000000.jpg","1","","prediction_trial","1","","true","","1","true","true","true","true","true","true","[1]","000","000","1","","","","","","",""
"","","","","","image-keyboard-response","39","283602","0.0-14.0","6554ea27378d1f1b846788b3","665500ab8938657b03fbdba8","66579322fedf541d6edd92dc","523","stimuli/10000001.jpg"," ","","feedback_trial","1","","","","","","","","","","","","","","","","","","","","",""
"","","","","","image-keyboard-response","40","285356","0.0-15.0","6554ea27378d1f1b846788b3","665500ab8938657b03fbdba8","66579322fedf541d6edd92dc","1752","stimuli/2100111.jpg","1","","prediction_trial","2","","false","","2","false","false","true","true","false","false","[2]","100","111","0","","","","","","",""
"","","","","","image-keyboard-response","41","285925","0.0-16.0","6554ea27378d1f1b846788b3","665500ab8938657b03fbdba8","66579322fedf541d6edd92dc","568","stimuli/21001112.jpg"," ","","feedback_trial","2","","","","","","","","","","","","","","","","","","","","",""
"","","","","","image-keyboard-response","42","287018","0.0-17.0","6554ea27378d1f1b846788b3","665500ab8938657b03fbdba8","66579322fedf541d6edd92dc","1091","stimuli/2000001.jpg","2","","prediction_trial","2","","true","","2","false","true","true","true","false","true","[2]","000","001","1","","","","","","",""
"","","","","","image-keyboard-response","43","287544","0.0-18.0","6554ea27378d1f1b846788b3","665500ab8938657b03fbdba8","66579322fedf541d6edd92dc","524","stimuli/20000012.jpg"," ","","feedback_trial","2","","","","","","","","","","","","","","","","","","","","",""
"","","","","","image-keyboard-response","44","289199","0.0-19.0","6554ea27378d1f1b846788b3","665500ab8938657b03fbdba8","66579322fedf541d6edd92dc","1654","stimuli/0001110.jpg","2","","prediction_trial","0","","false","","0","false","false","true","true","false","false","[0]","001","110","0","","","","","","",""
"","","","","","image-keyboard-response","45","289761","0.0-20.0","6554ea27378d1f1b846788b3","665500ab8938657b03fbdba8","66579322fedf541d6edd92dc","561","stimuli/00011100.jpg"," ","","feedback_trial","0","","","","","","","","","","","","","","","","","","","","",""
"","","","","","image-keyboard-response","46","292244","0.0-21.0","6554ea27378d1f1b846788b3","665500ab8938657b03fbdba8","66579322fedf541d6edd92dc","2481","stimuli/1011000.jpg","1","","prediction_trial","1","","true","","1","true","true","false","false","false","false","[2,1]","011","000","1","","","","","","",""
"","","","","","image-keyboard-response","47","292666","0.0-22.0","6554ea27378d1f1b846788b3","665500ab8938657b03fbdba8","66579322fedf541d6edd92dc","421","stimuli/10110001.jpg"," ","","feedback_trial","2","","","","","","","","","","","","","","","","","","","","",""
"","","","","","image-keyboard-response","48","297875","0.0-23.0","6554ea27378d1f1b846788b3","665500ab8938657b03fbdba8","66579322fedf541d6edd92dc","5207","stimuli/1011110.jpg","1","","prediction_trial","2","","false","","1","false","false","false","false","false","false","[2,1]","011","110","0","","","","","","",""
"","","","","","image-keyboard-response","49","298589","0.0-24.0","6554ea27378d1f1b846788b3","665500ab8938657b03fbdba8","66579322fedf541d6edd92dc","713","stimuli/10111102.jpg"," ","","feedback_trial","2","","","","","","","","","","","","","","","","","","","","",""
"","","","","","image-keyboard-response","50","303885","0.0-25.0","6554ea27378d1f1b846788b3","665500ab8938657b03fbdba8","66579322fedf541d6edd92dc","5294","stimuli/2111011.jpg","1","","prediction_trial","0","","false","","2","false","false","false","false","false","false","[2,0,1]","111","011","0","","","","","","",""
"","","","","","image-keyboard-response","51","304640","0.0-26.0","6554ea27378d1f1b846788b3","665500ab8938657b03fbdba8","66579322fedf541d6edd92dc","754","stimuli/21110110.jpg"," ","","feedback_trial","2","","","","","","","","","","","","","","","","","","","","",""
"","","","","","image-keyboard-response","52","305659","0.0-27.0","6554ea27378d1f1b846788b3","665500ab8938657b03fbdba8","66579322fedf541d6edd92dc","1017","stimuli/2111100.jpg","2","","prediction_trial","0","","false","","2","true","true","false","false","false","false","[2,1,0]","111","100","0","","","","","","",""
"","","","","","image-keyboard-response","53","306265","0.0-28.0","6554ea27378d1f1b846788b3","665500ab8938657b03fbdba8","66579322fedf541d6edd92dc","604","stimuli/21111000.jpg"," ","","feedback_trial","2","","","","","","","","","","","","","","","","","","","","",""
"","","","","","image-keyboard-response","54","308062","0.0-29.0","6554ea27378d1f1b846788b3","665500ab8938657b03fbdba8","66579322fedf541d6edd92dc","1795","stimuli/2110001.jpg","2","","prediction_trial","2","","true","","2","false","true","true","true","false","true","[2]","110","001","1","","","","","","",""
"","","","","","image-keyboard-response","55","308539","0.0-30.0","6554ea27378d1f1b846788b3","665500ab8938657b03fbdba8","66579322fedf541d6edd92dc","476","stimuli/21100012.jpg"," ","","feedback_trial","2","","","","","","","","","","","","","","","","","","","","",""
"","","","","","image-keyboard-response","56","309720","0.0-31.0","6554ea27378d1f1b846788b3","665500ab8938657b03fbdba8","66579322fedf541d6edd92dc","1179","stimuli/1100101.jpg","1","","prediction_trial","1","","true","","1","true","true","true","true","true","true","[1]","100","101","1","","","","","","",""
"","","","","","image-keyboard-response","57","310240","0.0-32.0","6554ea27378d1f1b846788b3","665500ab8938657b03fbdba8","66579322fedf541d6edd92dc","519","stimuli/11001011.jpg"," ","","feedback_trial","1","","","","","","","","","","","","","","","","","","","","",""
"","","","","","image-keyboard-response","58","310972","0.0-33.0","6554ea27378d1f1b846788b3","665500ab8938657b03fbdba8","66579322fedf541d6edd92dc","731","stimuli/2000010.jpg","2","","prediction_trial","2","","true","","2","true","true","true","true","true","true","[2]","000","010","1","","","","","","",""
"","","","","","image-keyboard-response","59","311373","0.0-34.0","6554ea27378d1f1b846788b3","665500ab8938657b03fbdba8","66579322fedf541d6edd92dc","400","stimuli/20000102.jpg"," ","","feedback_trial","2","","","","","","","","","","","","","","","","","","","","",""
"","","","","","image-keyboard-response","60","314532","0.0-35.0","6554ea27378d1f1b846788b3","665500ab8938657b03fbdba8","66579322fedf541d6edd92dc","3157","stimuli/0111101.jpg","0","","prediction_trial","2","","false","","0","false","false","false","false","false","false","[0,1,2]","111","101","0","","","","","","",""
"","","","","","image-keyboard-response","61","315086","0.0-36.0","6554ea27378d1f1b846788b3","665500ab8938657b03fbdba8","66579322fedf541d6edd92dc","552","stimuli/01111012.jpg"," ","","feedback_trial","0","","","","","","","","","","","","","","","","","","","","",""
"","","","","","image-keyboard-response","62","317203","0.0-37.0","6554ea27378d1f1b846788b3","665500ab8938657b03fbdba8","66579322fedf541d6edd92dc","2116","stimuli/2110101.jpg","2","","prediction_trial","2","","true","","2","false","false","true","true","false","false","[2]","110","101","1","","","","","","",""
"","","","","","image-keyboard-response","63","317777","0.0-38.0","6554ea27378d1f1b846788b3","665500ab8938657b03fbdba8","66579322fedf541d6edd92dc","573","stimuli/21101012.jpg"," ","","feedback_trial","2","","","","","","","","","","","","","","","","","","","","",""
"","","","","","image-keyboard-response","64","320042","0.0-39.0","6554ea27378d1f1b846788b3","665500ab8938657b03fbdba8","66579322fedf541d6edd92dc","2264","stimuli/1110111.jpg","1","","prediction_trial","0","","false","","1","false","false","false","false","false","false","[0,1]","110","111","0","","","","","","",""
"","","","","","image-keyboard-response","65","320536","0.0-40.0","6554ea27378d1f1b846788b3","665500ab8938657b03fbdba8","66579322fedf541d6edd92dc","492","stimuli/11101110.jpg"," ","","feedback_trial","0","","","","","","","","","","","","","","","","","","","","",""
"","","","","","image-keyboard-response","66","321521","0.0-41.0","6554ea27378d1f1b846788b3","665500ab8938657b03fbdba8","66579322fedf541d6edd92dc","984","stimuli/1101100.jpg","1","","prediction_trial","1","","true","","1","true","true","true","true","true","true","[1]","101","100","1","","","","","","",""
"","","","","","image-keyboard-response","67","321800","0.0-42.0","6554ea27378d1f1b846788b3","665500ab8938657b03fbdba8","66579322fedf541d6edd92dc","278","stimuli/11011001.jpg"," ","","feedback_trial","1","","","","","","","","","","","","","","","","","","","","",""
"","","","","","image-keyboard-response","68","323543","0.0-43.0","6554ea27378d1f1b846788b3","665500ab8938657b03fbdba8","66579322fedf541d6edd92dc","1741","stimuli/1010000.jpg","1","","prediction_trial","1","","true","","1","true","true","false","true","false","true","[1]","010","000","1","","","","","","",""
"","","","","","image-keyboard-response","69","323875","0.0-44.0","6554ea27378d1f1b846788b3","665500ab8938657b03fbdba8","66579322fedf541d6edd92dc","330","stimuli/10100001.jpg"," ","","feedback_trial","1","","","","","","","","","","","","","","","","","","","","",""
"","","","","","image-keyboard-response","70","324905","0.0-45.0","6554ea27378d1f1b846788b3","665500ab8938657b03fbdba8","66579322fedf541d6edd92dc","1028","stimuli/2110110.jpg","2","","prediction_trial","2","","true","","2","true","true","true","true","true","true","[2]","110","110","1","","","","","","",""
"","","","","","image-keyboard-response","71","325189","0.0-46.0","6554ea27378d1f1b846788b3","665500ab8938657b03fbdba8","66579322fedf541d6edd92dc","283","stimuli/21101102.jpg"," ","","feedback_trial","2","","","","","","","","","","","","","","","","","","","","",""
"","","","","","image-keyboard-response","72","326132","0.0-47.0","6554ea27378d1f1b846788b3","665500ab8938657b03fbdba8","66579322fedf541d6edd92dc","942","stimuli/0000010.jpg","0","","prediction_trial","0","","true","","0","true","true","true","true","true","true","[0]","000","010","1","","","","","","",""
"","","","","","image-keyboard-response","73","326398","0.0-48.0","6554ea27378d1f1b846788b3","665500ab8938657b03fbdba8","66579322fedf541d6edd92dc","264","stimuli/00000100.jpg"," ","","feedback_trial","0","","","","","","","","","","","","","","","","","","","","",""
"","","","","","image-keyboard-response","74","328784","0.0-49.0","6554ea27378d1f1b846788b3","665500ab8938657b03fbdba8","66579322fedf541d6edd92dc","2385","stimuli/2001101.jpg","0","","prediction_trial","2","","false","","2","false","false","false","true","false","false","[2]","001","101","0","","","","","","",""
"","","","","","image-keyboard-response","75","329357","0.0-50.0","6554ea27378d1f1b846788b3","665500ab8938657b03fbdba8","66579322fedf541d6edd92dc","571","stimuli/20011012.jpg"," ","","feedback_trial","2","","","","","","","","","","","","","","","","","","","","",""
"","","","","","image-keyboard-response","76","333194","0.0-51.0","6554ea27378d1f1b846788b3","665500ab8938657b03fbdba8","66579322fedf541d6edd92dc","3836","stimuli/2110011.jpg","1","","prediction_trial","2","","false","","2","false","false","true","true","false","false","[2]","110","011","0","","","","","","",""
"","","","","","image-keyboard-response","77","333648","0.0-52.0","6554ea27378d1f1b846788b3","665500ab8938657b03fbdba8","66579322fedf541d6edd92dc","453","stimuli/21100112.jpg"," ","","feedback_trial","2","","","","","","","","","","","","","","","","","","","","",""
"","","","","","image-keyboard-response","78","334633","0.0-53.0","6554ea27378d1f1b846788b3","665500ab8938657b03fbdba8","66579322fedf541d6edd92dc","983","stimuli/1101000.jpg","1","","prediction_trial","1","","true","","1","true","true","true","true","true","true","[1]","101","000","1","","","","","","",""
"","","","","","image-keyboard-response","79","335004","0.0-54.0","6554ea27378d1f1b846788b3","665500ab8938657b03fbdba8","66579322fedf541d6edd92dc","370","stimuli/11010001.jpg"," ","","feedback_trial","1","","","","","","","","","","","","","","","","","","","","",""
"","","","","","image-keyboard-response","80","336164","0.0-55.0","6554ea27378d1f1b846788b3","665500ab8938657b03fbdba8","66579322fedf541d6edd92dc","1158","stimuli/2100011.jpg","2","","prediction_trial","2","","true","","2","false","false","true","true","false","false","[2]","100","011","1","","","","","","",""
"","","","","","image-keyboard-response","81","336580","0.0-56.0","6554ea27378d1f1b846788b3","665500ab8938657b03fbdba8","66579322fedf541d6edd92dc","415","stimuli/21000112.jpg"," ","","feedback_trial","2","","","","","","","","","","","","","","","","","","","","",""
"","","","","","image-keyboard-response","82","337783","0.0-57.0","6554ea27378d1f1b846788b3","665500ab8938657b03fbdba8","66579322fedf541d6edd92dc","1202","stimuli/0011101.jpg","0","","prediction_trial","0","","true","","0","false","false","true","true","false","false","[0]","011","101","1","","","","","","",""
"","","","","","image-keyboard-response","83","338150","0.0-58.0","6554ea27378d1f1b846788b3","665500ab8938657b03fbdba8","66579322fedf541d6edd92dc","365","stimuli/00111010.jpg"," ","","feedback_trial","0","","","","","","","","","","","","","","","","","","","","",""
"","","","","","image-keyboard-response","84","339266","0.0-59.0","6554ea27378d1f1b846788b3","665500ab8938657b03fbdba8","66579322fedf541d6edd92dc","1116","stimuli/0011110.jpg","0","","prediction_trial","0","","true","","0","false","false","true","true","false","false","[0]","011","110","1","","","","","","",""
"","","","","","image-keyboard-response","85","339743","0.0-60.0","6554ea27378d1f1b846788b3","665500ab8938657b03fbdba8","66579322fedf541d6edd92dc","474","stimuli/00111100.jpg"," ","","feedback_trial","0","","","","","","","","","","","","","","","","","","","","",""
"","","","","","image-keyboard-response","86","340777","0.0-61.0","6554ea27378d1f1b846788b3","665500ab8938657b03fbdba8","66579322fedf541d6edd92dc","1033","stimuli/1100011.jpg","2","","prediction_trial","1","","false","","1","false","false","true","true","false","false","[1]","100","011","0","","","","","","",""
"","","","","","image-keyboard-response","87","341270","0.0-62.0","6554ea27378d1f1b846788b3","665500ab8938657b03fbdba8","66579322fedf541d6edd92dc","492","stimuli/11000111.jpg"," ","","feedback_trial","1","","","","","","","","","","","","","","","","","","","","",""
"","","","","","image-keyboard-response","88","342214","0.0-63.0","6554ea27378d1f1b846788b3","665500ab8938657b03fbdba8","66579322fedf541d6edd92dc","943","stimuli/2111000.jpg","2","","prediction_trial","1","","false","","2","true","true","false","false","false","false","[0,1,2]","111","000","0","","","","","","",""
"","","","","","image-keyboard-response","89","342535","0.0-64.0","6554ea27378d1f1b846788b3","665500ab8938657b03fbdba8","66579322fedf541d6edd92dc","319","stimuli/21110001.jpg"," ","","feedback_trial","0","","","","","","","","","","","","","","","","","","","","",""
"","","","","","image-keyboard-response","90","343491","0.0-65.0","6554ea27378d1f1b846788b3","665500ab8938657b03fbdba8","66579322fedf541d6edd92dc","955","stimuli/2110010.jpg","2","","prediction_trial","2","","true","","2","true","true","true","true","true","true","[2]","110","010","1","","","","","","",""
"","","","","","image-keyboard-response","91","343791","0.0-66.0","6554ea27378d1f1b846788b3","665500ab8938657b03fbdba8","66579322fedf541d6edd92dc","298","stimuli/21100102.jpg"," ","","feedback_trial","2","","","","","","","","","","","","","","","","","","","","",""
"","","","","","image-keyboard-response","92","344364","0.0-67.0","6554ea27378d1f1b846788b3","665500ab8938657b03fbdba8","66579322fedf541d6edd92dc","572","stimuli/2010010.jpg","2","","prediction_trial","2","","true","","2","true","true","true","true","true","true","[2]","010","010","1","","","","","","",""
"","","","","","image-keyboard-response","93","344660","0.0-68.0","6554ea27378d1f1b846788b3","665500ab8938657b03fbdba8","66579322fedf541d6edd92dc","294","stimuli/20100102.jpg"," ","","feedback_trial","2","","","","","","","","","","","","","","","","","","","","",""
"","","","","","image-keyboard-response","94","345530","0.0-69.0","6554ea27378d1f1b846788b3","665500ab8938657b03fbdba8","66579322fedf541d6edd92dc","869","stimuli/1111000.jpg","1","","prediction_trial","0","","false","","1","true","true","false","false","false","false","[2,0,1]","111","000","0","","","","","","",""
"","","","","","image-keyboard-response","95","345883","0.0-70.0","6554ea27378d1f1b846788b3","665500ab8938657b03fbdba8","66579322fedf541d6edd92dc","352","stimuli/11110000.jpg"," ","","feedback_trial","2","","","","","","","","","","","","","","","","","","","","",""
"","","","","","image-keyboard-response","96","346709","0.0-71.0","6554ea27378d1f1b846788b3","665500ab8938657b03fbdba8","66579322fedf541d6edd92dc","824","stimuli/0111010.jpg","0","","prediction_trial","2","","false","","0","true","true","false","false","false","false","[1,2,0]","111","010","0","","","","","","",""
"","","","","","image-keyboard-response","97","346938","0.0-72.0","6554ea27378d1f1b846788b3","665500ab8938657b03fbdba8","66579322fedf541d6edd92dc","228","stimuli/01110102.jpg"," ","","feedback_trial","1","","","","","","","","","","","","","","","","","","","","",""
"","","","","","image-keyboard-response","98","347646","0.0-73.0","6554ea27378d1f1b846788b3","665500ab8938657b03fbdba8","66579322fedf541d6edd92dc","706","stimuli/2000110.jpg","2","","prediction_trial","2","","true","","2","true","true","true","true","true","true","[2]","000","110","1","","","","","","",""
"","","","","","image-keyboard-response","99","347967","0.0-74.0","6554ea27378d1f1b846788b3","665500ab8938657b03fbdba8","66579322fedf541d6edd92dc","320","stimuli/20001102.jpg"," ","","feedback_trial","2","","","","","","","","","","","","","","","","","","","","",""
"","","","","","image-keyboard-response","100","348638","0.0-75.0","6554ea27378d1f1b846788b3","665500ab8938657b03fbdba8","66579322fedf541d6edd92dc","670","stimuli/0100001.jpg","0","","prediction_trial","0","","true","","0","true","true","false","true","false","true","[0]","100","001","1","","","","","","",""
"","","","","","image-keyboard-response","101","348964","0.0-76.0","6554ea27378d1f1b846788b3","665500ab8938657b03fbdba8","66579322fedf541d6edd92dc","324","stimuli/01000010.jpg"," ","","feedback_trial","0","","","","","","","","","","","","","","","","","","","","",""
"","","","","","image-keyboard-response","102","349493","0.0-77.0","6554ea27378d1f1b846788b3","665500ab8938657b03fbdba8","66579322fedf541d6edd92dc","528","stimuli/2011000.jpg","2","","prediction_trial","1","","false","","2","true","true","false","false","false","false","[1,2]","011","000","0","","","","","","",""
"","","","","","image-keyboard-response","103","350001","0.0-78.0","6554ea27378d1f1b846788b3","665500ab8938657b03fbdba8","66579322fedf541d6edd92dc","506","stimuli/20110001.jpg"," ","","feedback_trial","1","","","","","","","","","","","","","","","","","","","","",""
"","","","","","image-keyboard-response","104","351317","0.0-79.0","6554ea27378d1f1b846788b3","665500ab8938657b03fbdba8","66579322fedf541d6edd92dc","1315","stimuli/2001001.jpg","2","","prediction_trial","2","","true","","2","false","true","false","true","false","true","[2]","001","001","1","","","","","","",""
"","","","","","image-keyboard-response","105","351623","0.0-80.0","6554ea27378d1f1b846788b3","665500ab8938657b03fbdba8","66579322fedf541d6edd92dc","304","stimuli/20010012.jpg"," ","","feedback_trial","2","","","","","","","","","","","","","","","","","","","","",""
"","","","","","image-keyboard-response","106","352687","0.0-81.0","6554ea27378d1f1b846788b3","665500ab8938657b03fbdba8","66579322fedf541d6edd92dc","1062","stimuli/2101111.jpg","1","","prediction_trial","2","","false","","2","false","false","false","false","false","false","[0,2]","101","111","0","","","","","","",""
"","","","","","image-keyboard-response","107","353369","0.0-82.0","6554ea27378d1f1b846788b3","665500ab8938657b03fbdba8","66579322fedf541d6edd92dc","681","stimuli/21011112.jpg"," ","","feedback_trial","0","","","","","","","","","","","","","","","","","","","","",""
"","","","","","image-keyboard-response","108","354576","0.0-83.0","6554ea27378d1f1b846788b3","665500ab8938657b03fbdba8","66579322fedf541d6edd92dc","1205","stimuli/2010101.jpg","0","","prediction_trial","2","","false","","2","false","false","true","true","false","false","[2]","010","101","0","","","","","","",""
"","","","","","image-keyboard-response","109","355251","0.0-84.0","6554ea27378d1f1b846788b3","665500ab8938657b03fbdba8","66579322fedf541d6edd92dc","674","stimuli/20101012.jpg"," ","","feedback_trial","2","","","","","","","","","","","","","","","","","","","","",""
"","","","","","image-keyboard-response","110","355961","0.0-85.0","6554ea27378d1f1b846788b3","665500ab8938657b03fbdba8","66579322fedf541d6edd92dc","709","stimuli/1001000.jpg","1","","prediction_trial","1","","true","","1","true","true","true","true","true","true","[1]","001","000","1","","","","","","",""
"","","","","","image-keyboard-response","111","356383","0.0-86.0","6554ea27378d1f1b846788b3","665500ab8938657b03fbdba8","66579322fedf541d6edd92dc","420","stimuli/10010001.jpg"," ","","feedback_trial","1","","","","","","","","","","","","","","","","","","","","",""
"","","","","","image-keyboard-response","112","357595","0.0-87.0","6554ea27378d1f1b846788b3","665500ab8938657b03fbdba8","66579322fedf541d6edd92dc","1211","stimuli/1110010.jpg","1","","prediction_trial","1","","true","","1","false","true","false","false","false","false","[0,1]","110","010","1","","","","","","",""
"","","","","","image-keyboard-response","113","357999","0.0-88.0","6554ea27378d1f1b846788b3","665500ab8938657b03fbdba8","66579322fedf541d6edd92dc","403","stimuli/11100101.jpg"," ","","feedback_trial","0","","","","","","","","","","","","","","","","","","","","",""
"","","","","","image-keyboard-response","114","358667","0.0-89.0","6554ea27378d1f1b846788b3","665500ab8938657b03fbdba8","66579322fedf541d6edd92dc","666","stimuli/1111100.jpg","1","","prediction_trial","1","","true","","1","true","true","false","false","false","false","[2,0,1]","111","100","1","","","","","","",""
"","","","","","image-keyboard-response","115","359044","0.0-90.0","6554ea27378d1f1b846788b3","665500ab8938657b03fbdba8","66579322fedf541d6edd92dc","376","stimuli/11111001.jpg"," ","","feedback_trial","2","","","","","","","","","","","","","","","","","","","","",""
"","","","","","image-keyboard-response","116","361732","0.0-91.0","6554ea27378d1f1b846788b3","665500ab8938657b03fbdba8","66579322fedf541d6edd92dc","2687","stimuli/2000101.jpg","0","","prediction_trial","2","","false","","2","false","false","true","true","false","false","[2]","000","101","0","","","","","","",""
"","","","","","image-keyboard-response","117","362280","0.0-92.0","6554ea27378d1f1b846788b3","665500ab8938657b03fbdba8","66579322fedf541d6edd92dc","546","stimuli/20001012.jpg"," ","","feedback_trial","2","","","","","","","","","","","","","","","","","","","","",""
"","","","","","image-keyboard-response","118","363242","0.0-93.0","6554ea27378d1f1b846788b3","665500ab8938657b03fbdba8","66579322fedf541d6edd92dc","960","stimuli/1010101.jpg","1","","prediction_trial","1","","true","","1","true","true","false","true","false","true","[1]","010","101","1","","","","","","",""
"","","","","","image-keyboard-response","119","363564","0.0-94.0","6554ea27378d1f1b846788b3","665500ab8938657b03fbdba8","66579322fedf541d6edd92dc","321","stimuli/10101011.jpg"," ","","feedback_trial","1","","","","","","","","","","","","","","","","","","","","",""
"","","","","","image-keyboard-response","120","364452","0.0-95.0","6554ea27378d1f1b846788b3","665500ab8938657b03fbdba8","66579322fedf541d6edd92dc","887","stimuli/0000001.jpg","0","","prediction_trial","0","","true","","0","true","true","true","true","true","true","[0]","000","001","1","","","","","","",""
"","","","","","image-keyboard-response","121","364640","0.0-96.0","6554ea27378d1f1b846788b3","665500ab8938657b03fbdba8","66579322fedf541d6edd92dc","186","stimuli/00000010.jpg"," ","","feedback_trial","0","","","","","","","","","","","","","","","","","","","","",""
"","","","","","image-keyboard-response","122","365702","0.0-97.0","6554ea27378d1f1b846788b3","665500ab8938657b03fbdba8","66579322fedf541d6edd92dc","1061","stimuli/2111111.jpg","1","","prediction_trial","1","","true","","2","false","false","false","false","false","false","[1,0,2]","111","111","1","","","","","","",""
"","","","","","image-keyboard-response","123","366089","0.0-98.0","6554ea27378d1f1b846788b3","665500ab8938657b03fbdba8","66579322fedf541d6edd92dc","385","stimuli/21111111.jpg"," ","","feedback_trial","1","","","","","","","","","","","","","","","","","","","","",""
"","","","","","image-keyboard-response","124","366875","0.0-99.0","6554ea27378d1f1b846788b3","665500ab8938657b03fbdba8","66579322fedf541d6edd92dc","785","stimuli/0100010.jpg","0","","prediction_trial","0","","true","","0","true","true","false","true","false","true","[0]","100","010","1","","","","","","",""
"","","","","","image-keyboard-response","125","367364","0.0-100.0","6554ea27378d1f1b846788b3","665500ab8938657b03fbdba8","66579322fedf541d6edd92dc","488","stimuli/01000100.jpg"," ","","feedback_trial","0","","","","","","","","","","","","","","","","","","","","",""
"","","","","","image-keyboard-response","126","368764","0.0-101.0","6554ea27378d1f1b846788b3","665500ab8938657b03fbdba8","66579322fedf541d6edd92dc","1399","stimuli/1001010.jpg","1","","prediction_trial","1","","true","","1","false","true","true","true","false","true","[1]","001","010","1","","","","","","",""
"","","","","","image-keyboard-response","127","369144","0.0-102.0","6554ea27378d1f1b846788b3","665500ab8938657b03fbdba8","66579322fedf541d6edd92dc","379","stimuli/10010101.jpg"," ","","feedback_trial","1","","","","","","","","","","","","","","","","","","","","",""
"","","","","","image-keyboard-response","128","370021","0.0-103.0","6554ea27378d1f1b846788b3","665500ab8938657b03fbdba8","66579322fedf541d6edd92dc","875","stimuli/1111111.jpg","2","","prediction_trial","1","","false","","1","false","false","false","false","false","false","[0,1,2]","111","111","0","","","","","","",""
"","","","","","image-keyboard-response","129","370483","0.0-104.0","6554ea27378d1f1b846788b3","665500ab8938657b03fbdba8","66579322fedf541d6edd92dc","461","stimuli/11111111.jpg"," ","","feedback_trial","0","","","","","","","","","","","","","","","","","","","","",""
"","","","","","image-keyboard-response","130","371237","0.0-105.0","6554ea27378d1f1b846788b3","665500ab8938657b03fbdba8","66579322fedf541d6edd92dc","753","stimuli/0101110.jpg","1","","prediction_trial","0","","false","","0","false","false","false","false","false","false","[2,0]","101","110","0","","","","","","",""
"","","","","","image-keyboard-response","131","371723","0.0-106.0","6554ea27378d1f1b846788b3","665500ab8938657b03fbdba8","66579322fedf541d6edd92dc","484","stimuli/01011100.jpg"," ","","feedback_trial","2","","","","","","","","","","","","","","","","","","","","",""
"","","","","","image-keyboard-response","132","372725","0.0-107.0","6554ea27378d1f1b846788b3","665500ab8938657b03fbdba8","66579322fedf541d6edd92dc","1001","stimuli/0110001.jpg","0","","prediction_trial","0","","true","","0","true","true","false","false","false","false","[1,0]","110","001","1","","","","","","",""
"","","","","","image-keyboard-response","133","373031","0.0-108.0","6554ea27378d1f1b846788b3","665500ab8938657b03fbdba8","66579322fedf541d6edd92dc","304","stimuli/01100010.jpg"," ","","feedback_trial","1","","","","","","","","","","","","","","","","","","","","",""
"","","","","","image-keyboard-response","134","373891","0.0-109.0","6554ea27378d1f1b846788b3","665500ab8938657b03fbdba8","66579322fedf541d6edd92dc","859","stimuli/1110000.jpg","1","","prediction_trial","1","","true","","1","true","true","false","false","false","false","[1,0]","110","000","1","","","","","","",""
"","","","","","image-keyboard-response","135","374406","0.0-110.0","6554ea27378d1f1b846788b3","665500ab8938657b03fbdba8","66579322fedf541d6edd92dc","513","stimuli/11100001.jpg"," ","","feedback_trial","1","","","","","","","","","","","","","","","","","","","","",""
"","","","","","image-keyboard-response","136","375695","0.0-111.0","6554ea27378d1f1b846788b3","665500ab8938657b03fbdba8","66579322fedf541d6edd92dc","1288","stimuli/0001101.jpg","0","","prediction_trial","0","","true","","0","false","false","true","true","false","false","[0]","001","101","1","","","","","","",""
"","","","","","image-keyboard-response","137","376109","0.0-112.0","6554ea27378d1f1b846788b3","665500ab8938657b03fbdba8","66579322fedf541d6edd92dc","412","stimuli/00011010.jpg"," ","","feedback_trial","0","","","","","","","","","","","","","","","","","","","","",""
"","","","","","image-keyboard-response","138","376868","0.0-113.0","6554ea27378d1f1b846788b3","665500ab8938657b03fbdba8","66579322fedf541d6edd92dc","758","stimuli/2111001.jpg","2","","prediction_trial","2","","true","","2","false","true","false","false","false","false","[0,1,2]","111","001","1","","","","","","",""
"","","","","","image-keyboard-response","139","377254","0.0-114.0","6554ea27378d1f1b846788b3","665500ab8938657b03fbdba8","66579322fedf541d6edd92dc","384","stimuli/21110012.jpg"," ","","feedback_trial","0","","","","","","","","","","","","","","","","","","","","",""
"","","","","","image-keyboard-response","140","378229","0.0-115.0","6554ea27378d1f1b846788b3","665500ab8938657b03fbdba8","66579322fedf541d6edd92dc","974","stimuli/0101101.jpg","2","","prediction_trial","2","","true","","0","false","false","false","false","false","false","[2,0]","101","101","1","","","","","","",""
"","","","","","image-keyboard-response","141","378709","0.0-116.0","6554ea27378d1f1b846788b3","665500ab8938657b03fbdba8","66579322fedf541d6edd92dc","479","stimuli/01011012.jpg"," ","","feedback_trial","2","","","","","","","","","","","","","","","","","","","","",""
"","","","","","image-keyboard-response","142","379262","0.0-117.0","6554ea27378d1f1b846788b3","665500ab8938657b03fbdba8","66579322fedf541d6edd92dc","551","stimuli/2110100.jpg","2","","prediction_trial","2","","true","","2","true","true","true","true","true","true","[2]","110","100","1","","","","","","",""
"","","","","","image-keyboard-response","143","379574","0.0-118.0","6554ea27378d1f1b846788b3","665500ab8938657b03fbdba8","66579322fedf541d6edd92dc","311","stimuli/21101002.jpg"," ","","feedback_trial","2","","","","","","","","","","","","","","","","","","","","",""
"","","","","","image-keyboard-response","144","380348","0.0-119.0","6554ea27378d1f1b846788b3","665500ab8938657b03fbdba8","66579322fedf541d6edd92dc","773","stimuli/0011011.jpg","0","","prediction_trial","0","","true","","0","true","true","true","true","true","true","[0]","011","011","1","","","","","","",""
"","","","","","image-keyboard-response","145","380617","0.0-120.0","6554ea27378d1f1b846788b3","665500ab8938657b03fbdba8","66579322fedf541d6edd92dc","268","stimuli/00110110.jpg"," ","","feedback_trial","0","","","","","","","","","","","","","","","","","","","","",""
"","","","","","image-keyboard-response","146","381263","0.0-121.0","6554ea27378d1f1b846788b3","665500ab8938657b03fbdba8","66579322fedf541d6edd92dc","645","stimuli/0010010.jpg","0","","prediction_trial","0","","true","","0","true","true","true","true","true","true","[0]","010","010","1","","","","","","",""
"","","","","","image-keyboard-response","147","381536","0.0-122.0","6554ea27378d1f1b846788b3","665500ab8938657b03fbdba8","66579322fedf541d6edd92dc","272","stimuli/00100100.jpg"," ","","feedback_trial","0","","","","","","","","","","","","","","","","","","","","",""
"","","","","","image-keyboard-response","148","382200","0.0-123.0","6554ea27378d1f1b846788b3","665500ab8938657b03fbdba8","66579322fedf541d6edd92dc","663","stimuli/0000110.jpg","2","","prediction_trial","0","","false","","0","false","false","true","true","false","false","[0]","000","110","0","","","","","","",""
"","","","","","image-keyboard-response","149","382540","0.0-124.0","6554ea27378d1f1b846788b3","665500ab8938657b03fbdba8","66579322fedf541d6edd92dc","338","stimuli/00001100.jpg"," ","","feedback_trial","0","","","","","","","","","","","","","","","","","","","","",""
"","","","","","image-keyboard-response","150","384862","0.0-125.0","6554ea27378d1f1b846788b3","665500ab8938657b03fbdba8","66579322fedf541d6edd92dc","2321","stimuli/1100111.jpg","0","","prediction_trial","1","","false","","1","false","false","true","true","false","false","[1]","100","111","0","","","","","","",""
"","","","","","image-keyboard-response","151","385241","0.0-126.0","6554ea27378d1f1b846788b3","665500ab8938657b03fbdba8","66579322fedf541d6edd92dc","378","stimuli/11001111.jpg"," ","","feedback_trial","1","","","","","","","","","","","","","","","","","","","","",""
"","","","","","image-keyboard-response","152","387967","0.0-127.0","6554ea27378d1f1b846788b3","665500ab8938657b03fbdba8","66579322fedf541d6edd92dc","2724","stimuli/1001111.jpg","0","","prediction_trial","1","","false","","1","false","false","true","true","false","false","[1]","001","111","0","","","","","","",""
"","","","","","image-keyboard-response","153","388548","0.0-128.0","6554ea27378d1f1b846788b3","665500ab8938657b03fbdba8","66579322fedf541d6edd92dc","581","stimuli/10011111.jpg"," ","","feedback_trial","1","","","","","","","","","","","","","","","","","","","","",""
"","","","","","image-keyboard-response","154","390489","0.0-129.0","6554ea27378d1f1b846788b3","665500ab8938657b03fbdba8","66579322fedf541d6edd92dc","1940","stimuli/1110110.jpg","1","","prediction_trial","1","","true","","1","false","false","false","false","false","false","[1,0]","110","110","1","","","","","","",""
"","","","","","image-keyboard-response","155","391222","0.0-130.0","6554ea27378d1f1b846788b3","665500ab8938657b03fbdba8","66579322fedf541d6edd92dc","731","stimuli/11101101.jpg"," ","","feedback_trial","1","","","","","","","","","","","","","","","","","","","","",""
"","","","","","image-keyboard-response","156","392320","0.0-131.0","6554ea27378d1f1b846788b3","665500ab8938657b03fbdba8","66579322fedf541d6edd92dc","1097","stimuli/0011111.jpg","1","","prediction_trial","0","","false","","0","false","false","true","true","false","false","[0]","011","111","0","","","","","","",""
"","","","","","image-keyboard-response","157","393166","0.0-132.0","6554ea27378d1f1b846788b3","665500ab8938657b03fbdba8","66579322fedf541d6edd92dc","845","stimuli/00111110.jpg"," ","","feedback_trial","0","","","","","","","","","","","","","","","","","","","","",""
"","","","","","image-keyboard-response","158","394613","0.0-133.0","6554ea27378d1f1b846788b3","665500ab8938657b03fbdba8","66579322fedf541d6edd92dc","1446","stimuli/1010010.jpg","1","","prediction_trial","1","","true","","1","false","true","false","true","false","true","[1]","010","010","1","","","","","","",""
"","","","","","image-keyboard-response","159","395478","0.0-134.0","6554ea27378d1f1b846788b3","665500ab8938657b03fbdba8","66579322fedf541d6edd92dc","864","stimuli/10100101.jpg"," ","","feedback_trial","1","","","","","","","","","","","","","","","","","","","","",""
"","","","","","image-keyboard-response","160","396920","0.0-135.0","6554ea27378d1f1b846788b3","665500ab8938657b03fbdba8","66579322fedf541d6edd92dc","1440","stimuli/1111110.jpg","1","","prediction_trial","1","","true","","1","false","false","false","false","false","false","[1,0,2]","111","110","1","","","","","","",""
"","","","","","image-keyboard-response","161","397259","0.0-136.0","6554ea27378d1f1b846788b3","665500ab8938657b03fbdba8","66579322fedf541d6edd92dc","339","stimuli/11111101.jpg"," ","","feedback_trial","1","","","","","","","","","","","","","","","","","","","","",""
"","","","","","image-keyboard-response","162","398179","0.0-137.0","6554ea27378d1f1b846788b3","665500ab8938657b03fbdba8","66579322fedf541d6edd92dc","919","stimuli/1011010.jpg","1","","prediction_trial","1","","true","","1","false","true","false","false","false","false","[1,2]","011","010","1","","","","","","",""
"","","","","","image-keyboard-response","163","398483","0.0-138.0","6554ea27378d1f1b846788b3","665500ab8938657b03fbdba8","66579322fedf541d6edd92dc","302","stimuli/10110101.jpg"," ","","feedback_trial","1","","","","","","","","","","","","","","","","","","","","",""
"","","","","","image-keyboard-response","164","399116","0.0-139.0","6554ea27378d1f1b846788b3","665500ab8938657b03fbdba8","66579322fedf541d6edd92dc","632","stimuli/1100100.jpg","1","","prediction_trial","1","","true","","1","true","true","true","true","true","true","[1]","100","100","1","","","","","","",""
"","","","","","image-keyboard-response","165","399428","0.0-140.0","6554ea27378d1f1b846788b3","665500ab8938657b03fbdba8","66579322fedf541d6edd92dc","309","stimuli/11001001.jpg"," ","","feedback_trial","1","","","","","","","","","","","","","","","","","","","","",""
"","","","","","image-keyboard-response","166","400148","0.0-141.0","6554ea27378d1f1b846788b3","665500ab8938657b03fbdba8","66579322fedf541d6edd92dc","719","stimuli/0010000.jpg","0","","prediction_trial","0","","true","","0","true","true","true","true","true","true","[0]","010","000","1","","","","","","",""
"","","","","","image-keyboard-response","167","400320","0.0-142.0","6554ea27378d1f1b846788b3","665500ab8938657b03fbdba8","66579322fedf541d6edd92dc","171","stimuli/00100000.jpg"," ","","feedback_trial","0","","","","","","","","","","","","","","","","","","","","",""
"","","","","","image-keyboard-response","168","401190","0.0-143.0","6554ea27378d1f1b846788b3","665500ab8938657b03fbdba8","66579322fedf541d6edd92dc","868","stimuli/2011111.jpg","1","","prediction_trial","2","","false","","2","false","false","false","false","false","false","[1,2]","011","111","0","","","","","","",""
"","","","","","image-keyboard-response","169","401660","0.0-144.0","6554ea27378d1f1b846788b3","665500ab8938657b03fbdba8","66579322fedf541d6edd92dc","469","stimuli/20111112.jpg"," ","","feedback_trial","1","","","","","","","","","","","","","","","","","","","","",""
"","","","","","image-keyboard-response","170","402357","0.0-145.0","6554ea27378d1f1b846788b3","665500ab8938657b03fbdba8","66579322fedf541d6edd92dc","696","stimuli/0010111.jpg","1","","prediction_trial","0","","false","","0","false","false","true","true","false","false","[0]","010","111","0","","","","","","",""
"","","","","","image-keyboard-response","171","402734","0.0-146.0","6554ea27378d1f1b846788b3","665500ab8938657b03fbdba8","66579322fedf541d6edd92dc","376","stimuli/00101110.jpg"," ","","feedback_trial","0","","","","","","","","","","","","","","","","","","","","",""
"","","","","","image-keyboard-response","172","403930","0.0-147.0","6554ea27378d1f1b846788b3","665500ab8938657b03fbdba8","66579322fedf541d6edd92dc","1194","stimuli/2001010.jpg","2","","prediction_trial","2","","true","","2","true","true","false","true","false","true","[2]","001","010","1","","","","","","",""
"","","","","","image-keyboard-response","173","404311","0.0-148.0","6554ea27378d1f1b846788b3","665500ab8938657b03fbdba8","66579322fedf541d6edd92dc","380","stimuli/20010102.jpg"," ","","feedback_trial","2","","","","","","","","","","","","","","","","","","","","",""
"","","","","","image-keyboard-response","174","406258","0.0-149.0","6554ea27378d1f1b846788b3","665500ab8938657b03fbdba8","66579322fedf541d6edd92dc","1946","stimuli/2000011.jpg","1","","prediction_trial","2","","false","","2","false","false","true","true","false","false","[2]","000","011","0","","","","","","",""
"","","","","","image-keyboard-response","175","406741","0.0-150.0","6554ea27378d1f1b846788b3","665500ab8938657b03fbdba8","66579322fedf541d6edd92dc","481","stimuli/20000112.jpg"," ","","feedback_trial","2","","","","","","","","","","","","","","","","","","","","",""
"","","","","","image-keyboard-response","176","407562","0.0-151.0","6554ea27378d1f1b846788b3","665500ab8938657b03fbdba8","66579322fedf541d6edd92dc","819","stimuli/1000011.jpg","1","","prediction_trial","1","","true","","1","false","false","true","true","false","false","[1]","000","011","1","","","","","","",""
"","","","","","image-keyboard-response","177","407890","0.0-152.0","6554ea27378d1f1b846788b3","665500ab8938657b03fbdba8","66579322fedf541d6edd92dc","327","stimuli/10000111.jpg"," ","","feedback_trial","1","","","","","","","","","","","","","","","","","","","","",""
"","","","","","image-keyboard-response","178","408853","0.0-153.0","6554ea27378d1f1b846788b3","665500ab8938657b03fbdba8","66579322fedf541d6edd92dc","962","stimuli/0011100.jpg","0","","prediction_trial","0","","true","","0","false","true","true","true","false","true","[0]","011","100","1","","","","","","",""
"","","","","","image-keyboard-response","179","409288","0.0-154.0","6554ea27378d1f1b846788b3","665500ab8938657b03fbdba8","66579322fedf541d6edd92dc","433","stimuli/00111000.jpg"," ","","feedback_trial","0","","","","","","","","","","","","","","","","","","","","",""
"","","","","","image-keyboard-response","180","410533","0.0-155.0","6554ea27378d1f1b846788b3","665500ab8938657b03fbdba8","66579322fedf541d6edd92dc","1244","stimuli/0000100.jpg","0","","prediction_trial","0","","true","","0","false","true","true","true","false","true","[0]","000","100","1","","","","","","",""
"","","","","","image-keyboard-response","181","411131","0.0-156.0","6554ea27378d1f1b846788b3","665500ab8938657b03fbdba8","66579322fedf541d6edd92dc","596","stimuli/00001000.jpg"," ","","feedback_trial","0","","","","","","","","","","","","","","","","","","","","",""
"","","","","","image-keyboard-response","182","412934","0.0-157.0","6554ea27378d1f1b846788b3","665500ab8938657b03fbdba8","66579322fedf541d6edd92dc","1802","stimuli/0111110.jpg","1","","prediction_trial","1","","true","","0","false","false","false","false","false","false","[1,2,0]","111","110","1","","","","","","",""
"","","","","","image-keyboard-response","183","413410","0.0-158.0","6554ea27378d1f1b846788b3","665500ab8938657b03fbdba8","66579322fedf541d6edd92dc","474","stimuli/01111101.jpg"," ","","feedback_trial","1","","","","","","","","","","","","","","","","","","","","",""
"","","","","","image-keyboard-response","184","414109","0.0-159.0","6554ea27378d1f1b846788b3","665500ab8938657b03fbdba8","66579322fedf541d6edd92dc","699","stimuli/2110000.jpg","2","","prediction_trial","2","","true","","2","true","true","true","true","true","true","[2]","110","000","1","","","","","","",""
"","","","","","image-keyboard-response","185","414474","0.0-160.0","6554ea27378d1f1b846788b3","665500ab8938657b03fbdba8","66579322fedf541d6edd92dc","363","stimuli/21100002.jpg"," ","","feedback_trial","2","","","","","","","","","","","","","","","","","","","","",""
"","","","","","image-keyboard-response","186","415163","0.0-161.0","6554ea27378d1f1b846788b3","665500ab8938657b03fbdba8","66579322fedf541d6edd92dc","688","stimuli/0000000.jpg","0","","prediction_trial","0","","true","","0","true","true","true","true","true","true","[0]","000","000","1","","","","","","",""
"","","","","","image-keyboard-response","187","415435","0.0-162.0","6554ea27378d1f1b846788b3","665500ab8938657b03fbdba8","66579322fedf541d6edd92dc","272","stimuli/00000000.jpg"," ","","feedback_trial","0","","","","","","","","","","","","","","","","","","","","",""
"","","","","","image-keyboard-response","188","416010","0.0-163.0","6554ea27378d1f1b846788b3","665500ab8938657b03fbdba8","66579322fedf541d6edd92dc","574","stimuli/2000000.jpg","2","","prediction_trial","2","","true","","2","true","true","true","true","true","true","[2]","000","000","1","","","","","","",""
"","","","","","image-keyboard-response","189","416355","0.0-164.0","6554ea27378d1f1b846788b3","665500ab8938657b03fbdba8","66579322fedf541d6edd92dc","343","stimuli/20000002.jpg"," ","","feedback_trial","2","","","","","","","","","","","","","","","","","","","","",""
"","","","","","image-keyboard-response","190","416908","0.0-165.0","6554ea27378d1f1b846788b3","665500ab8938657b03fbdba8","66579322fedf541d6edd92dc","552","stimuli/2100000.jpg","2","","prediction_trial","2","","true","","2","true","true","true","true","true","true","[2]","100","000","1","","","","","","",""
"","","","","","image-keyboard-response","191","417248","0.0-166.0","6554ea27378d1f1b846788b3","665500ab8938657b03fbdba8","66579322fedf541d6edd92dc","339","stimuli/21000002.jpg"," ","","feedback_trial","2","","","","","","","","","","","","","","","","","","","","",""
"","","","","","image-keyboard-response","192","418459","0.0-167.0","6554ea27378d1f1b846788b3","665500ab8938657b03fbdba8","66579322fedf541d6edd92dc","1209","stimuli/2011011.jpg","1","","prediction_trial","1","","true","","2","false","false","false","false","false","false","[1,2]","011","011","1","","","","","","",""
"","","","","","image-keyboard-response","193","418822","0.0-168.0","6554ea27378d1f1b846788b3","665500ab8938657b03fbdba8","66579322fedf541d6edd92dc","362","stimuli/20110111.jpg"," ","","feedback_trial","1","","","","","","","","","","","","","","","","","","","","",""
"","","","","","image-keyboard-response","194","419379","0.0-169.0","6554ea27378d1f1b846788b3","665500ab8938657b03fbdba8","66579322fedf541d6edd92dc","556","stimuli/2101110.jpg","2","","prediction_trial","2","","true","","2","true","true","false","false","false","false","[2,0]","101","110","1","","","","","","",""
"","","","","","image-keyboard-response","195","419692","0.0-170.0","6554ea27378d1f1b846788b3","665500ab8938657b03fbdba8","66579322fedf541d6edd92dc","312","stimuli/21011102.jpg"," ","","feedback_trial","2","","","","","","","","","","","","","","","","","","","","",""
"","","","","","image-keyboard-response","196","420665","0.0-171.0","6554ea27378d1f1b846788b3","665500ab8938657b03fbdba8","66579322fedf541d6edd92dc","971","stimuli/0001111.jpg","1","","prediction_trial","0","","false","","0","false","false","true","true","false","false","[0]","001","111","0","","","","","","",""
"","","","","","image-keyboard-response","197","421179","0.0-172.0","6554ea27378d1f1b846788b3","665500ab8938657b03fbdba8","66579322fedf541d6edd92dc","513","stimuli/00011110.jpg"," ","","feedback_trial","0","","","","","","","","","","","","","","","","","","","","",""
"","","","","","image-keyboard-response","198","421944","0.0-173.0","6554ea27378d1f1b846788b3","665500ab8938657b03fbdba8","66579322fedf541d6edd92dc","763","stimuli/1000010.jpg","1","","prediction_trial","1","","true","","1","false","true","true","true","false","true","[1]","000","010","1","","","","","","",""
"","","","","","image-keyboard-response","199","422319","0.0-174.0","6554ea27378d1f1b846788b3","665500ab8938657b03fbdba8","66579322fedf541d6edd92dc","373","stimuli/10000101.jpg"," ","","feedback_trial","1","","","","","","","","","","","","","","","","","","","","",""
"","","","","","image-keyboard-response","200","422904","0.0-175.0","6554ea27378d1f1b846788b3","665500ab8938657b03fbdba8","66579322fedf541d6edd92dc","584","stimuli/2100110.jpg","2","","prediction_trial","2","","true","","2","true","true","true","true","true","true","[2]","100","110","1","","","","","","",""
"","","","","","image-keyboard-response","201","423244","0.0-176.0","6554ea27378d1f1b846788b3","665500ab8938657b03fbdba8","66579322fedf541d6edd92dc","339","stimuli/21001102.jpg"," ","","feedback_trial","2","","","","","","","","","","","","","","","","","","","","",""
"","","","","","image-keyboard-response","202","423826","0.0-177.0","6554ea27378d1f1b846788b3","665500ab8938657b03fbdba8","66579322fedf541d6edd92dc","581","stimuli/2011100.jpg","2","","prediction_trial","2","","true","","2","true","true","false","false","false","false","[2,1]","011","100","1","","","","","","",""
"","","","","","image-keyboard-response","203","424186","0.0-178.0","6554ea27378d1f1b846788b3","665500ab8938657b03fbdba8","66579322fedf541d6edd92dc","358","stimuli/20111002.jpg"," ","","feedback_trial","2","","","","","","","","","","","","","","","","","","","","",""
"","","","","","image-keyboard-response","204","425278","0.0-179.0","6554ea27378d1f1b846788b3","665500ab8938657b03fbdba8","66579322fedf541d6edd92dc","1091","stimuli/2101011.jpg","1","","prediction_trial","0","","false","","2","false","false","false","false","false","false","[0,2]","101","011","0","","","","","","",""
"","","","","","image-keyboard-response","205","425765","0.0-180.0","6554ea27378d1f1b846788b3","665500ab8938657b03fbdba8","66579322fedf541d6edd92dc","486","stimuli/21010110.jpg"," ","","feedback_trial","0","","","","","","","","","","","","","","","","","","","","",""
"","","","","","image-keyboard-response","206","427876","0.0-181.0","6554ea27378d1f1b846788b3","665500ab8938657b03fbdba8","66579322fedf541d6edd92dc","2109","stimuli/1111011.jpg","1","","prediction_trial","0","","false","","1","false","false","false","false","false","false","[1,2,0]","111","011","0","","","","","","",""
"","","","","","image-keyboard-response","207","428285","0.0-182.0","6554ea27378d1f1b846788b3","665500ab8938657b03fbdba8","66579322fedf541d6edd92dc","408","stimuli/11110110.jpg"," ","","feedback_trial","1","","","","","","","","","","","","","","","","","","","","",""
"","","","","","image-keyboard-response","208","429721","0.0-183.0","6554ea27378d1f1b846788b3","665500ab8938657b03fbdba8","66579322fedf541d6edd92dc","1433","stimuli/0111100.jpg","0","","prediction_trial","0","","true","","0","false","true","false","false","false","false","[2,0,1]","111","100","1","","","","","","",""
"","","","","","image-keyboard-response","209","430119","0.0-184.0","6554ea27378d1f1b846788b3","665500ab8938657b03fbdba8","66579322fedf541d6edd92dc","397","stimuli/01111000.jpg"," ","","feedback_trial","2","","","","","","","","","","","","","","","","","","","","",""
"","","","","","image-keyboard-response","210","430877","0.0-185.0","6554ea27378d1f1b846788b3","665500ab8938657b03fbdba8","66579322fedf541d6edd92dc","756","stimuli/0011001.jpg","0","","prediction_trial","0","","true","","0","true","true","true","true","true","true","[0]","011","001","1","","","","","","",""
"","","","","","image-keyboard-response","211","431230","0.0-186.0","6554ea27378d1f1b846788b3","665500ab8938657b03fbdba8","66579322fedf541d6edd92dc","352","stimuli/00110010.jpg"," ","","feedback_trial","0","","","","","","","","","","","","","","","","","","","","",""
"","","","","","image-keyboard-response","212","434202","0.0-187.0","6554ea27378d1f1b846788b3","665500ab8938657b03fbdba8","66579322fedf541d6edd92dc","2970","stimuli/2100101.jpg","2","","prediction_trial","2","","true","","2","false","false","true","true","false","false","[2]","100","101","1","","","","","","",""
"","","","","","image-keyboard-response","213","434594","0.0-188.0","6554ea27378d1f1b846788b3","665500ab8938657b03fbdba8","66579322fedf541d6edd92dc","391","stimuli/21001012.jpg"," ","","feedback_trial","2","","","","","","","","","","","","","","","","","","","","",""
"","","","","","image-keyboard-response","214","435449","0.0-189.0","6554ea27378d1f1b846788b3","665500ab8938657b03fbdba8","66579322fedf541d6edd92dc","853","stimuli/1011100.jpg","1","","prediction_trial","1","","true","","1","true","true","false","false","false","false","[1,2]","011","100","1","","","","","","",""
"","","","","","image-keyboard-response","215","435951","0.0-190.0","6554ea27378d1f1b846788b3","665500ab8938657b03fbdba8","66579322fedf541d6edd92dc","500","stimuli/10111001.jpg"," ","","feedback_trial","1","","","","","","","","","","","","","","","","","","","","",""
"","","","","","image-keyboard-response","216","436728","0.0-191.0","6554ea27378d1f1b846788b3","665500ab8938657b03fbdba8","66579322fedf541d6edd92dc","775","stimuli/1011101.jpg","1","","prediction_trial","1","","true","","1","true","true","false","false","false","false","[1,2]","011","101","1","","","","","","",""
"","","","","","image-keyboard-response","217","437130","0.0-192.0","6554ea27378d1f1b846788b3","665500ab8938657b03fbdba8","66579322fedf541d6edd92dc","400","stimuli/10111011.jpg"," ","","feedback_trial","1","","","","","","","","","","","","","","","","","","","","",""
"","","","","","image-keyboard-response","218","438856","0.0-193.0","6554ea27378d1f1b846788b3","665500ab8938657b03fbdba8","66579322fedf541d6edd92dc","1724","stimuli/0100011.jpg","0","","prediction_trial","0","","true","","0","true","true","false","true","false","true","[0]","100","011","1","","","","","","",""
"","","","","","image-keyboard-response","219","439161","0.0-194.0","6554ea27378d1f1b846788b3","665500ab8938657b03fbdba8","66579322fedf541d6edd92dc","304","stimuli/01000110.jpg"," ","","feedback_trial","0","","","","","","","","","","","","","","","","","","","","",""
"","","","","","image-keyboard-response","220","441118","0.0-195.0","6554ea27378d1f1b846788b3","665500ab8938657b03fbdba8","66579322fedf541d6edd92dc","1956","stimuli/1010011.jpg","2","","prediction_trial","1","","false","","1","false","false","false","true","false","false","[1]","010","011","0","","","","","","",""
"","","","","","image-keyboard-response","221","441527","0.0-196.0","6554ea27378d1f1b846788b3","665500ab8938657b03fbdba8","66579322fedf541d6edd92dc","407","stimuli/10100111.jpg"," ","","feedback_trial","1","","","","","","","","","","","","","","","","","","","","",""
"","","","","","image-keyboard-response","222","445278","0.0-197.0","6554ea27378d1f1b846788b3","665500ab8938657b03fbdba8","66579322fedf541d6edd92dc","3750","stimuli/2111101.jpg","1","","prediction_trial","1","","true","","2","false","false","false","false","false","false","[2,0,1]","111","101","1","","","","","","",""
"","","","","","image-keyboard-response","223","445689","0.0-198.0","6554ea27378d1f1b846788b3","665500ab8938657b03fbdba8","66579322fedf541d6edd92dc","409","stimuli/21111011.jpg"," ","","feedback_trial","2","","","","","","","","","","","","","","","","","","","","",""
"","","","","","image-keyboard-response","224","446882","0.0-199.0","6554ea27378d1f1b846788b3","665500ab8938657b03fbdba8","66579322fedf541d6edd92dc","1192","stimuli/1010111.jpg","1","","prediction_trial","1","","true","","1","false","false","false","true","false","false","[1]","010","111","1","","","","","","",""
"","","","","","image-keyboard-response","225","447299","0.0-200.0","6554ea27378d1f1b846788b3","665500ab8938657b03fbdba8","66579322fedf541d6edd92dc","415","stimuli/10101111.jpg"," ","","feedback_trial","1","","","","","","","","","","","","","","","","","","","","",""
"","","","","","image-keyboard-response","226","448261","0.0-201.0","6554ea27378d1f1b846788b3","665500ab8938657b03fbdba8","66579322fedf541d6edd92dc","961","stimuli/1111010.jpg","1","","prediction_trial","2","","false","","1","false","true","false","false","false","false","[2,0,1]","111","010","0","","","","","","",""
"","","","","","image-keyboard-response","227","448763","0.0-202.0","6554ea27378d1f1b846788b3","665500ab8938657b03fbdba8","66579322fedf541d6edd92dc","500","stimuli/11110102.jpg"," ","","feedback_trial","2","","","","","","","","","","","","","","","","","","","","",""
"","","","","","image-keyboard-response","228","449549","0.0-203.0","6554ea27378d1f1b846788b3","665500ab8938657b03fbdba8","66579322fedf541d6edd92dc","784","stimuli/1111101.jpg","1","","prediction_trial","1","","true","","1","true","true","false","false","false","false","[2,1,0]","111","101","1","","","","","","",""
"","","","","","image-keyboard-response","229","449866","0.0-204.0","6554ea27378d1f1b846788b3","665500ab8938657b03fbdba8","66579322fedf541d6edd92dc","316","stimuli/11111011.jpg"," ","","feedback_trial","2","","","","","","","","","","","","","","","","","","","","",""
"","","","","","image-keyboard-response","230","450747","0.0-205.0","6554ea27378d1f1b846788b3","665500ab8938657b03fbdba8","66579322fedf541d6edd92dc","879","stimuli/1011011.jpg","1","","prediction_trial","2","","false","","1","false","false","false","false","false","false","[1,2]","011","011","0","","","","","","",""
"","","","","","image-keyboard-response","231","451235","0.0-206.0","6554ea27378d1f1b846788b3","665500ab8938657b03fbdba8","66579322fedf541d6edd92dc","486","stimuli/10110112.jpg"," ","","feedback_trial","1","","","","","","","","","","","","","","","","","","","","",""
"","","","","","image-keyboard-response","232","453021","0.0-207.0","6554ea27378d1f1b846788b3","665500ab8938657b03fbdba8","66579322fedf541d6edd92dc","1785","stimuli/2010001.jpg","2","","prediction_trial","2","","true","","2","false","true","true","true","false","true","[2]","010","001","1","","","","","","",""
"","","","","","image-keyboard-response","233","453693","0.0-208.0","6554ea27378d1f1b846788b3","665500ab8938657b03fbdba8","66579322fedf541d6edd92dc","670","stimuli/20100012.jpg"," ","","feedback_trial","2","","","","","","","","","","","","","","","","","","","","",""
"","","","","","image-keyboard-response","234","456175","0.0-209.0","6554ea27378d1f1b846788b3","665500ab8938657b03fbdba8","66579322fedf541d6edd92dc","2481","stimuli/1101010.jpg","1","","prediction_trial","1","","true","","1","false","true","true","true","false","true","[1]","101","010","1","","","","","","",""
"","","","","","image-keyboard-response","235","456526","0.0-210.0","6554ea27378d1f1b846788b3","665500ab8938657b03fbdba8","66579322fedf541d6edd92dc","350","stimuli/11010101.jpg"," ","","feedback_trial","1","","","","","","","","","","","","","","","","","","","","",""
"","","","","","image-keyboard-response","236","458297","0.0-211.0","6554ea27378d1f1b846788b3","665500ab8938657b03fbdba8","66579322fedf541d6edd92dc","1769","stimuli/0010110.jpg","0","","prediction_trial","0","","true","","0","false","false","true","true","false","false","[0]","010","110","1","","","","","","",""
"","","","","","image-keyboard-response","237","458548","0.0-212.0","6554ea27378d1f1b846788b3","665500ab8938657b03fbdba8","66579322fedf541d6edd92dc","250","stimuli/00101100.jpg"," ","","feedback_trial","0","","","","","","","","","","","","","","","","","","","","",""
"","","","","","image-keyboard-response","238","460610","0.0-213.0","6554ea27378d1f1b846788b3","665500ab8938657b03fbdba8","66579322fedf541d6edd92dc","2060","stimuli/0110100.jpg","0","","prediction_trial","0","","true","","0","false","true","false","false","false","false","[1,0]","110","100","1","","","","","","",""
"","","","","","image-keyboard-response","239","461062","0.0-214.0","6554ea27378d1f1b846788b3","665500ab8938657b03fbdba8","66579322fedf541d6edd92dc","451","stimuli/01101000.jpg"," ","","feedback_trial","1","","","","","","","","","","","","","","","","","","","","",""
"","","","","","image-keyboard-response","240","462067","0.0-215.0","6554ea27378d1f1b846788b3","665500ab8938657b03fbdba8","66579322fedf541d6edd92dc","1003","stimuli/2101001.jpg","2","","prediction_trial","0","","false","","2","false","true","false","false","false","false","[2,0]","101","001","0","","","","","","",""
"","","","","","image-keyboard-response","241","462295","0.0-216.0","6554ea27378d1f1b846788b3","665500ab8938657b03fbdba8","66579322fedf541d6edd92dc","227","stimuli/21010010.jpg"," ","","feedback_trial","2","","","","","","","","","","","","","","","","","","","","",""
"","","","","","image-keyboard-response","242","463575","0.0-217.0","6554ea27378d1f1b846788b3","665500ab8938657b03fbdba8","66579322fedf541d6edd92dc","1279","stimuli/1101110.jpg","0","","prediction_trial","1","","false","","1","false","false","true","true","false","false","[1]","101","110","0","","","","","","",""
"","","","","","image-keyboard-response","243","464588","0.0-218.0","6554ea27378d1f1b846788b3","665500ab8938657b03fbdba8","66579322fedf541d6edd92dc","1011","stimuli/11011101.jpg"," ","","feedback_trial","1","","","","","","","","","","","","","","","","","","","","",""
"","","","","","image-keyboard-response","244","465362","0.0-219.0","6554ea27378d1f1b846788b3","665500ab8938657b03fbdba8","66579322fedf541d6edd92dc","772","stimuli/0001000.jpg","0","","prediction_trial","0","","true","","0","true","true","true","true","true","true","[0]","001","000","1","","","","","","",""
"","","","","","image-keyboard-response","245","465668","0.0-220.0","6554ea27378d1f1b846788b3","665500ab8938657b03fbdba8","66579322fedf541d6edd92dc","304","stimuli/00010000.jpg"," ","","feedback_trial","0","","","","","","","","","","","","","","","","","","","","",""
"","","","","","image-keyboard-response","246","466545","0.0-221.0","6554ea27378d1f1b846788b3","665500ab8938657b03fbdba8","66579322fedf541d6edd92dc","876","stimuli/0101001.jpg","0","","prediction_trial","2","","false","","0","true","true","false","false","false","false","[0,2]","101","001","0","","","","","","",""
"","","","","","image-keyboard-response","247","467209","0.0-222.0","6554ea27378d1f1b846788b3","665500ab8938657b03fbdba8","66579322fedf541d6edd92dc","662","stimuli/01010012.jpg"," ","","feedback_trial","0","","","","","","","","","","","","","","","","","","","","",""
"","","","","","image-keyboard-response","248","467812","0.0-223.0","6554ea27378d1f1b846788b3","665500ab8938657b03fbdba8","66579322fedf541d6edd92dc","602","stimuli/2111110.jpg","2","","prediction_trial","2","","true","","2","true","true","false","false","false","false","[1,0,2]","111","110","1","","","","","","",""
"","","","","","image-keyboard-response","249","468131","0.0-224.0","6554ea27378d1f1b846788b3","665500ab8938657b03fbdba8","66579322fedf541d6edd92dc","317","stimuli/21111102.jpg"," ","","feedback_trial","1","","","","","","","","","","","","","","","","","","","","",""
"","","","","","image-keyboard-response","250","468817","0.0-225.0","6554ea27378d1f1b846788b3","665500ab8938657b03fbdba8","66579322fedf541d6edd92dc","685","stimuli/2101010.jpg","2","","prediction_trial","2","","true","","2","true","true","false","false","false","false","[2,0]","101","010","1","","","","","","",""
"","","","","","image-keyboard-response","251","469111","0.0-226.0","6554ea27378d1f1b846788b3","665500ab8938657b03fbdba8","66579322fedf541d6edd92dc","292","stimuli/21010102.jpg"," ","","feedback_trial","2","","","","","","","","","","","","","","","","","","","","",""
"","","","","","image-keyboard-response","252","469920","0.0-227.0","6554ea27378d1f1b846788b3","665500ab8938657b03fbdba8","66579322fedf541d6edd92dc","807","stimuli/0100110.jpg","0","","prediction_trial","0","","true","","0","false","false","false","true","false","false","[0]","100","110","1","","","","","","",""
"","","","","","image-keyboard-response","253","470292","0.0-228.0","6554ea27378d1f1b846788b3","665500ab8938657b03fbdba8","66579322fedf541d6edd92dc","371","stimuli/01001100.jpg"," ","","feedback_trial","0","","","","","","","","","","","","","","","","","","","","",""
"","","","","","image-keyboard-response","254","471550","0.0-229.0","6554ea27378d1f1b846788b3","665500ab8938657b03fbdba8","66579322fedf541d6edd92dc","1256","stimuli/2101101.jpg","2","","prediction_trial","0","","false","","2","false","false","false","false","false","false","[0,2]","101","101","0","","","","","","",""
"","","","","","image-keyboard-response","255","471960","0.0-230.0","6554ea27378d1f1b846788b3","665500ab8938657b03fbdba8","66579322fedf541d6edd92dc","409","stimuli/21011010.jpg"," ","","feedback_trial","0","","","","","","","","","","","","","","","","","","","","",""
"","","","","","image-keyboard-response","256","472746","0.0-231.0","6554ea27378d1f1b846788b3","665500ab8938657b03fbdba8","66579322fedf541d6edd92dc","784","stimuli/0111000.jpg","2","","prediction_trial","0","","false","","0","true","true","false","false","false","false","[0,2,1]","111","000","0","","","","","","",""
"","","","","","image-keyboard-response","257","473118","0.0-232.0","6554ea27378d1f1b846788b3","665500ab8938657b03fbdba8","66579322fedf541d6edd92dc","371","stimuli/01110000.jpg"," ","","feedback_trial","0","","","","","","","","","","","","","","","","","","","","",""
"","","","","","image-keyboard-response","258","475189","0.0-233.0","6554ea27378d1f1b846788b3","665500ab8938657b03fbdba8","66579322fedf541d6edd92dc","2070","stimuli/0100000.jpg","0","","prediction_trial","0","","true","","0","true","true","false","true","false","true","[0]","100","000","1","","","","","","",""
"","","","","","image-keyboard-response","259","475531","0.0-234.0","6554ea27378d1f1b846788b3","665500ab8938657b03fbdba8","66579322fedf541d6edd92dc","340","stimuli/01000000.jpg"," ","","feedback_trial","0","","","","","","","","","","","","","","","","","","","","",""
"","","","","","image-keyboard-response","260","477637","0.0-235.0","6554ea27378d1f1b846788b3","665500ab8938657b03fbdba8","66579322fedf541d6edd92dc","2105","stimuli/1001101.jpg","1","","prediction_trial","1","","true","","1","true","true","true","true","true","true","[1]","001","101","1","","","","","","",""
"","","","","","image-keyboard-response","261","477924","0.0-236.0","6554ea27378d1f1b846788b3","665500ab8938657b03fbdba8","66579322fedf541d6edd92dc","285","stimuli/10011011.jpg"," ","","feedback_trial","1","","","","","","","","","","","","","","","","","","","","",""
"","","","","","image-keyboard-response","262","480934","0.0-237.0","6554ea27378d1f1b846788b3","665500ab8938657b03fbdba8","66579322fedf541d6edd92dc","3009","stimuli/0100100.jpg","0","","prediction_trial","0","","true","","0","false","true","false","true","false","true","[0]","100","100","1","","","","","","",""
"","","","","","image-keyboard-response","263","481226","0.0-238.0","6554ea27378d1f1b846788b3","665500ab8938657b03fbdba8","66579322fedf541d6edd92dc","291","stimuli/01001000.jpg"," ","","feedback_trial","0","","","","","","","","","","","","","","","","","","","","",""
"","","","","","image-keyboard-response","264","482796","0.0-239.0","6554ea27378d1f1b846788b3","665500ab8938657b03fbdba8","66579322fedf541d6edd92dc","1568","stimuli/1100110.jpg","0","","prediction_trial","1","","false","","1","false","false","true","true","false","false","[1]","100","110","0","","","","","","",""
"","","","","","image-keyboard-response","265","483311","0.0-240.0","6554ea27378d1f1b846788b3","665500ab8938657b03fbdba8","66579322fedf541d6edd92dc","515","stimuli/11001101.jpg"," ","","feedback_trial","1","","","","","","","","","","","","","","","","","","","","",""
"","","","","","image-keyboard-response","266","485026","0.0-241.0","6554ea27378d1f1b846788b3","665500ab8938657b03fbdba8","66579322fedf541d6edd92dc","1713","stimuli/0110110.jpg","0","","prediction_trial","1","","false","","0","false","false","false","false","false","false","[1,0]","110","110","0","","","","","","",""
"","","","","","image-keyboard-response","267","485522","0.0-242.0","6554ea27378d1f1b846788b3","665500ab8938657b03fbdba8","66579322fedf541d6edd92dc","495","stimuli/01101101.jpg"," ","","feedback_trial","1","","","","","","","","","","","","","","","","","","","","",""
"","","","","","image-keyboard-response","268","486264","0.0-243.0","6554ea27378d1f1b846788b3","665500ab8938657b03fbdba8","66579322fedf541d6edd92dc","740","stimuli/2011010.jpg","2","","prediction_trial","2","","true","","2","true","true","false","false","false","false","[1,2]","011","010","1","","","","","","",""
"","","","","","image-keyboard-response","269","486579","0.0-244.0","6554ea27378d1f1b846788b3","665500ab8938657b03fbdba8","66579322fedf541d6edd92dc","314","stimuli/20110102.jpg"," ","","feedback_trial","1","","","","","","","","","","","","","","","","","","","","",""
"","","","","","image-keyboard-response","270","487279","0.0-245.0","6554ea27378d1f1b846788b3","665500ab8938657b03fbdba8","66579322fedf541d6edd92dc","698","stimuli/2001111.jpg","2","","prediction_trial","2","","true","","2","false","false","false","true","false","false","[2]","001","111","1","","","","","","",""
"","","","","","image-keyboard-response","271","487662","0.0-246.0","6554ea27378d1f1b846788b3","665500ab8938657b03fbdba8","66579322fedf541d6edd92dc","381","stimuli/20011112.jpg"," ","","feedback_trial","2","","","","","","","","","","","","","","","","","","","","",""
"","","","","","image-keyboard-response","272","488312","0.0-247.0","6554ea27378d1f1b846788b3","665500ab8938657b03fbdba8","66579322fedf541d6edd92dc","649","stimuli/2101000.jpg","2","","prediction_trial","0","","false","","2","true","true","false","false","false","false","[2,0]","101","000","0","","","","","","",""
"","","","","","image-keyboard-response","273","488569","0.0-248.0","6554ea27378d1f1b846788b3","665500ab8938657b03fbdba8","66579322fedf541d6edd92dc","256","stimuli/21010000.jpg"," ","","feedback_trial","2","","","","","","","","","","","","","","","","","","","","",""
"","","","","","image-keyboard-response","274","489197","0.0-249.0","6554ea27378d1f1b846788b3","665500ab8938657b03fbdba8","66579322fedf541d6edd92dc","626","stimuli/2010000.jpg","2","","prediction_trial","2","","true","","2","true","true","true","true","true","true","[2]","010","000","1","","","","","","",""
"","","","","","image-keyboard-response","275","489496","0.0-250.0","6554ea27378d1f1b846788b3","665500ab8938657b03fbdba8","66579322fedf541d6edd92dc","298","stimuli/20100002.jpg"," ","","feedback_trial","2","","","","","","","","","","","","","","","","","","","","",""
"","","","","","image-keyboard-response","276","490312","0.0-251.0","6554ea27378d1f1b846788b3","665500ab8938657b03fbdba8","66579322fedf541d6edd92dc","814","stimuli/1111001.jpg","1","","prediction_trial","2","","false","","1","true","true","false","false","false","false","[0,2,1]","111","001","0","","","","","","",""
"","","","","","image-keyboard-response","277","490559","0.0-252.0","6554ea27378d1f1b846788b3","665500ab8938657b03fbdba8","66579322fedf541d6edd92dc","246","stimuli/11110012.jpg"," ","","feedback_trial","0","","","","","","","","","","","","","","","","","","","","",""
"","","","","","image-keyboard-response","278","491199","0.0-253.0","6554ea27378d1f1b846788b3","665500ab8938657b03fbdba8","66579322fedf541d6edd92dc","638","stimuli/2010100.jpg","2","","prediction_trial","2","","true","","2","true","true","true","true","true","true","[2]","010","100","1","","","","","","",""
"","","","","","image-keyboard-response","279","491527","0.0-254.0","6554ea27378d1f1b846788b3","665500ab8938657b03fbdba8","66579322fedf541d6edd92dc","326","stimuli/20101002.jpg"," ","","feedback_trial","2","","","","","","","","","","","","","","","","","","","","",""
"","","","","","image-keyboard-response","280","492310","0.0-255.0","6554ea27378d1f1b846788b3","665500ab8938657b03fbdba8","66579322fedf541d6edd92dc","782","stimuli/0101010.jpg","0","","prediction_trial","0","","true","","0","true","true","false","false","false","false","[2,0]","101","010","1","","","","","","",""
"","","","","","image-keyboard-response","281","492599","0.0-256.0","6554ea27378d1f1b846788b3","665500ab8938657b03fbdba8","66579322fedf541d6edd92dc","287","stimuli/01010100.jpg"," ","","feedback_trial","2","","","","","","","","","","","","","","","","","","","","",""
"","","","","","image-keyboard-response","282","493237","0.0-257.0","6554ea27378d1f1b846788b3","665500ab8938657b03fbdba8","66579322fedf541d6edd92dc","637","stimuli/1101101.jpg","1","","prediction_trial","1","","true","","1","true","true","true","true","true","true","[1]","101","101","1","","","","","","",""
"","","","","","image-keyboard-response","283","493592","0.0-258.0","6554ea27378d1f1b846788b3","665500ab8938657b03fbdba8","66579322fedf541d6edd92dc","354","stimuli/11011011.jpg"," ","","feedback_trial","1","","","","","","","","","","","","","","","","","","","","",""
"","","","","","image-keyboard-response","284","494879","0.0-259.0","6554ea27378d1f1b846788b3","665500ab8938657b03fbdba8","66579322fedf541d6edd92dc","1286","stimuli/2011001.jpg","1","","prediction_trial","2","","false","","2","false","true","false","false","false","false","[1,2]","011","001","0","","","","","","",""
"","","","","","image-keyboard-response","285","495274","0.0-260.0","6554ea27378d1f1b846788b3","665500ab8938657b03fbdba8","66579322fedf541d6edd92dc","393","stimuli/20110012.jpg"," ","","feedback_trial","1","","","","","","","","","","","","","","","","","","","","",""
"","","","","","image-keyboard-response","286","495988","0.0-261.0","6554ea27378d1f1b846788b3","665500ab8938657b03fbdba8","66579322fedf541d6edd92dc","713","stimuli/1001100.jpg","1","","prediction_trial","1","","true","","1","true","true","true","true","true","true","[1]","001","100","1","","","","","","",""
"","","","","","image-keyboard-response","287","496304","0.0-262.0","6554ea27378d1f1b846788b3","665500ab8938657b03fbdba8","66579322fedf541d6edd92dc","314","stimuli/10011001.jpg"," ","","feedback_trial","1","","","","","","","","","","","","","","","","","","","","",""
"","","","","","image-keyboard-response","288","498187","0.0-263.0","6554ea27378d1f1b846788b3","665500ab8938657b03fbdba8","66579322fedf541d6edd92dc","1882","stimuli/0100111.jpg","2","","prediction_trial","0","","false","","0","false","false","false","true","false","false","[0]","100","111","0","","","","","","",""
"","","","","","image-keyboard-response","289","498666","0.0-264.0","6554ea27378d1f1b846788b3","665500ab8938657b03fbdba8","66579322fedf541d6edd92dc","477","stimuli/01001110.jpg"," ","","feedback_trial","0","","","","","","","","","","","","","","","","","","","","",""
"","","","","","image-keyboard-response","290","499531","0.0-265.0","6554ea27378d1f1b846788b3","665500ab8938657b03fbdba8","66579322fedf541d6edd92dc","863","stimuli/1000111.jpg","1","","prediction_trial","1","","true","","1","false","false","true","true","false","false","[1]","000","111","1","","","","","","",""
"","","","","","image-keyboard-response","291","499909","0.0-266.0","6554ea27378d1f1b846788b3","665500ab8938657b03fbdba8","66579322fedf541d6edd92dc","377","stimuli/10001111.jpg"," ","","feedback_trial","1","","","","","","","","","","","","","","","","","","","","",""
"","","","","","image-keyboard-response","292","500577","0.0-267.0","6554ea27378d1f1b846788b3","665500ab8938657b03fbdba8","66579322fedf541d6edd92dc","666","stimuli/2111010.jpg","2","","prediction_trial","0","","false","","2","true","true","false","false","false","false","[1,2,0]","111","010","0","","","","","","",""
"","","","","","image-keyboard-response","293","500852","0.0-268.0","6554ea27378d1f1b846788b3","665500ab8938657b03fbdba8","66579322fedf541d6edd92dc","273","stimuli/21110100.jpg"," ","","feedback_trial","1","","","","","","","","","","","","","","","","","","","","",""
"","","","","","image-keyboard-response","294","502970","0.0-269.0","6554ea27378d1f1b846788b3","665500ab8938657b03fbdba8","66579322fedf541d6edd92dc","2117","stimuli/0111111.jpg","1","","prediction_trial","0","","false","","0","false","false","false","false","false","false","[1,2,0]","111","111","0","","","","","","",""
"","","","","","image-keyboard-response","295","503558","0.0-270.0","6554ea27378d1f1b846788b3","665500ab8938657b03fbdba8","66579322fedf541d6edd92dc","587","stimuli/01111110.jpg"," ","","feedback_trial","1","","","","","","","","","","","","","","","","","","","","",""
"","","","","","image-keyboard-response","296","505259","0.0-271.0","6554ea27378d1f1b846788b3","665500ab8938657b03fbdba8","66579322fedf541d6edd92dc","1699","stimuli/0110000.jpg","0","","prediction_trial","0","","true","","0","true","true","false","false","false","false","[1,0]","110","000","1","","","","","","",""
"","","","","","image-keyboard-response","297","505570","0.0-272.0","6554ea27378d1f1b846788b3","665500ab8938657b03fbdba8","66579322fedf541d6edd92dc","310","stimuli/01100000.jpg"," ","","feedback_trial","1","","","","","","","","","","","","","","","","","","","","",""
"","","","","","image-keyboard-response","298","507280","0.0-273.0","6554ea27378d1f1b846788b3","665500ab8938657b03fbdba8","66579322fedf541d6edd92dc","1709","stimuli/0010101.jpg","2","","prediction_trial","0","","false","","0","false","false","true","true","false","false","[0]","010","101","0","","","","","","",""
"","","","","","image-keyboard-response","299","507715","0.0-274.0","6554ea27378d1f1b846788b3","665500ab8938657b03fbdba8","66579322fedf541d6edd92dc","433","stimuli/00101010.jpg"," ","","feedback_trial","0","","","","","","","","","","","","","","","","","","","","",""
"","","","","","image-keyboard-response","300","508643","0.0-275.0","6554ea27378d1f1b846788b3","665500ab8938657b03fbdba8","66579322fedf541d6edd92dc","926","stimuli/1110001.jpg","1","","prediction_trial","1","","true","","1","true","true","false","false","false","false","[0,1]","110","001","1","","","","","","",""
"","","","","","image-keyboard-response","301","521701","0.0-276.0","6554ea27378d1f1b846788b3","665500ab8938657b03fbdba8","66579322fedf541d6edd92dc","13057","stimuli/11100011.jpg"," ","","feedback_trial","0","","","","","","","","","","","","","","","","","","","","",""
"","","","","","image-keyboard-response","302","522882","0.0-277.0","6554ea27378d1f1b846788b3","665500ab8938657b03fbdba8","66579322fedf541d6edd92dc","1180","stimuli/2001011.jpg","2","","prediction_trial","2","","true","","2","false","false","false","true","false","false","[2]","001","011","1","","","","","","",""
"","","","","","image-keyboard-response","303","523257","0.0-278.0","6554ea27378d1f1b846788b3","665500ab8938657b03fbdba8","66579322fedf541d6edd92dc","374","stimuli/20010112.jpg"," ","","feedback_trial","2","","","","","","","","","","","","","","","","","","","","",""
"","","","","","image-keyboard-response","304","524698","0.0-279.0","6554ea27378d1f1b846788b3","665500ab8938657b03fbdba8","66579322fedf541d6edd92dc","1439","stimuli/2011101.jpg","0","","prediction_trial","1","","false","","2","false","false","false","false","false","false","[1,2]","011","101","0","","","","","","",""
"","","","","","image-keyboard-response","305","525491","0.0-280.0","6554ea27378d1f1b846788b3","665500ab8938657b03fbdba8","66579322fedf541d6edd92dc","792","stimuli/20111011.jpg"," ","","feedback_trial","1","","","","","","","","","","","","","","","","","","","","",""
"","","","","","image-keyboard-response","306","526288","0.0-281.0","6554ea27378d1f1b846788b3","665500ab8938657b03fbdba8","66579322fedf541d6edd92dc","796","stimuli/0000111.jpg","0","","prediction_trial","0","","true","","0","false","false","true","true","false","false","[0]","000","111","1","","","","","","",""
"","","","","","image-keyboard-response","307","526651","0.0-282.0","6554ea27378d1f1b846788b3","665500ab8938657b03fbdba8","66579322fedf541d6edd92dc","362","stimuli/00001110.jpg"," ","","feedback_trial","0","","","","","","","","","","","","","","","","","","","","",""
"","","","","","image-keyboard-response","308","527404","0.0-283.0","6554ea27378d1f1b846788b3","665500ab8938657b03fbdba8","66579322fedf541d6edd92dc","751","stimuli/1010100.jpg","1","","prediction_trial","1","","true","","1","true","true","false","true","false","true","[1]","010","100","1","","","","","","",""
"","","","","","image-keyboard-response","309","527713","0.0-284.0","6554ea27378d1f1b846788b3","665500ab8938657b03fbdba8","66579322fedf541d6edd92dc","307","stimuli/10101001.jpg"," ","","feedback_trial","1","","","","","","","","","","","","","","","","","","","","",""
"","","","","","image-keyboard-response","310","528276","0.0-285.0","6554ea27378d1f1b846788b3","665500ab8938657b03fbdba8","66579322fedf541d6edd92dc","562","stimuli/2010110.jpg","2","","prediction_trial","2","","true","","2","true","true","true","true","true","true","[2]","010","110","1","","","","","","",""
"","","","","","image-keyboard-response","311","528581","0.0-286.0","6554ea27378d1f1b846788b3","665500ab8938657b03fbdba8","66579322fedf541d6edd92dc","304","stimuli/20101102.jpg"," ","","feedback_trial","2","","","","","","","","","","","","","","","","","","","","",""
"","","","","","image-keyboard-response","312","529207","0.0-287.0","6554ea27378d1f1b846788b3","665500ab8938657b03fbdba8","66579322fedf541d6edd92dc","625","stimuli/2001000.jpg","2","","prediction_trial","2","","true","","2","true","true","false","true","false","true","[2]","001","000","1","","","","","","",""
"","","","","","image-keyboard-response","313","529493","0.0-288.0","6554ea27378d1f1b846788b3","665500ab8938657b03fbdba8","66579322fedf541d6edd92dc","284","stimuli/20010002.jpg"," ","","feedback_trial","2","","","","","","","","","","","","","","","","","","","","",""
"","","","","","image-keyboard-response","314","530331","0.0-289.0","6554ea27378d1f1b846788b3","665500ab8938657b03fbdba8","66579322fedf541d6edd92dc","837","stimuli/2100001.jpg","2","","prediction_trial","2","","true","","2","false","true","true","true","false","true","[2]","100","001","1","","","","","","",""
"","","","","","image-keyboard-response","315","530620","0.0-290.0","6554ea27378d1f1b846788b3","665500ab8938657b03fbdba8","66579322fedf541d6edd92dc","287","stimuli/21000012.jpg"," ","","feedback_trial","2","","","","","","","","","","","","","","","","","","","","",""
"","","","","","image-keyboard-response","316","531446","0.0-291.0","6554ea27378d1f1b846788b3","665500ab8938657b03fbdba8","66579322fedf541d6edd92dc","825","stimuli/0010011.jpg","0","","prediction_trial","0","","true","","0","true","true","true","true","true","true","[0]","010","011","1","","","","","","",""
"","","","","","image-keyboard-response","317","531702","0.0-292.0","6554ea27378d1f1b846788b3","665500ab8938657b03fbdba8","66579322fedf541d6edd92dc","255","stimuli/00100110.jpg"," ","","feedback_trial","0","","","","","","","","","","","","","","","","","","","","",""
"","","","","","survey-html-form","318","558840","0.0-293.0","6554ea27378d1f1b846788b3","665500ab8938657b03fbdba8","66579322fedf541d6edd92dc","27131","","{""feedback"":""random guess"",""age"":""25"",""gender"":""Female"",""other_gender"":"""",""race"":""Black/African American"",""other_race"":"""",""ethnicity"":""Non-Hispanic""}","","exit_survey","","","","","","","","","","","","","","","","random guess","25","Non-Hispanic","Female","Black/African American","0.6597222222222222","0.6597222222222222"
