"success","timeout","failed_images","failed_audio","failed_video","trial_type","trial_index","time_elapsed","internal_node_id","prolific_id","prolific_study_id","prolific_session_id","rt","stimulus","response","view_history","trial","character_choice","stimulus_dict","accuracy","correct_response","ball_pos","ego_ball_visible","ego_can_infer","alter_ball_visible","alter_can_infer","collective_ball_visible","collective_can_infer","search_locations","alter_occluders","ego_occluders","accuracy_bool","feedback","age","ethnicity","gender","race","overall_accuracy","bonus"
"true","false","[]","[]","[]","preload","0","6847","0.0-0.0","63d73ed8b1c15ff155c74597","665500ab8938657b03fbdba8","665792bb533974ece4058990","","","","","","","","","","","","","","","","","","","","","","","","","","",""
"true","","","","","fullscreen","1","19223","0.0-1.0","63d73ed8b1c15ff155c74597","665500ab8938657b03fbdba8","665792bb533974ece4058990","","","","","","","","","","","","","","","","","","","","","","","","","","",""
"","","","","","html-button-response","2","20980","0.0-2.0","63d73ed8b1c15ff155c74597","665500ab8938657b03fbdba8","665792bb533974ece4058990","1754","<p><b>Consent Form</b></p> <div style=""text-align:left;background-color:lightgrey; padding:20px; max-width:900px;""><p>Please consider this information carefully before deciding whether to participate in this research.</p> <p>The purpose of this research is to examine which factors influence social judgment and decision-making. You will be asked to make judgements about individuals and actions in social scenarios. We are simply interested in your judgement. The study will take less than 1 hour to complete, and you will receive less than $20 on Prolific. Your compensation and time commitment are specified in the study description. There are no anticipated risks associated with participating in this study. The effects of participating should be comparable to those you would ordinarily experience from viewing a computer monitor and using a mouse or keyboard for a similar amount of time. At the end of the study, we will provide an explanation of the questions that motivate this line of research and will describe the potential implications. </p><p> Your participation in this study is completely voluntary and you may refuse to participate or you may choose to withdraw at any time without penalty or loss of benefits to you which are otherwise entitled. Your participation in this study will remain confidential. No personally identifiable information will be associated with your data. Also, all analyses of the data will be averaged across all the participants, so your individual responses will never be specifically analyzed. </p><p> If you have questions or concerns about your participation or payment, or want to request a summary of research findings, please contact Dr. Jonathan Phillips at Jonathan.S.Phillips@dartmouth.edu. </p><p> Please save a copy of this form for your records. </p><p><b>Agreement: </b>The nature and purpose of this research have been sufficiently explained and I agree to participate in this study. I understand that I am free to withdraw at any time without incurring any penalty. Please consent by clicking the button below to continue. Otherwise, please exit the study at any time. </p>","0","","","","","","","","","","","","","","","","","","","","","","","",""
"","","","","","instructions","3","40546","0.0-3.0-0.0","63d73ed8b1c15ff155c74597","665500ab8938657b03fbdba8","665792bb533974ece4058990","19565","","","[{""page_index"":0,""viewing_time"":1461},{""page_index"":1,""viewing_time"":1189},{""page_index"":2,""viewing_time"":887},{""page_index"":3,""viewing_time"":2095},{""page_index"":4,""viewing_time"":986},{""page_index"":5,""viewing_time"":667},{""page_index"":6,""viewing_time"":1068},{""page_index"":7,""viewing_time"":1188},{""page_index"":8,""viewing_time"":1195},{""page_index"":9,""viewing_time"":1295},{""page_index"":10,""viewing_time"":2640},{""page_index"":11,""viewing_time"":1343},{""page_index"":12,""viewing_time"":2516},{""page_index"":13,""viewing_time"":1035}]","intro","","","","","","","","","","","","","","","","","","","","","",""
"","","","","","image-keyboard-response","4","43416","0.0-3.0-1.0","63d73ed8b1c15ff155c74597","665500ab8938657b03fbdba8","665792bb533974ece4058990","2852","stimuli/0010010.jpg","0","","prediction_practice","0","{""filepath"":""stimuli/0010010.jpg"",""ball_pos"":0,""ego_ball_visible"":true,""ego_can_infer"":true,""alter_ball_visible"":true,""alter_can_infer"":true,""collective_ball_visible"":true,""collective_can_infer"":true,""search_locations"":[0],""alter_occluders"":""010"",""ego_occluders"":""010""}","true","","","","","","","","","","","","","","","","","","",""
"","","","","","image-keyboard-response","5","46030","0.0-3.0-2.0","63d73ed8b1c15ff155c74597","665500ab8938657b03fbdba8","665792bb533974ece4058990","2612","stimuli/00100100.jpg"," ","","practrice_feedback","0","","","","","","","","","","","","","","","","","","","","",""
"","","","","","image-keyboard-response","6","50404","0.0-3.0-3.0","63d73ed8b1c15ff155c74597","665500ab8938657b03fbdba8","665792bb533974ece4058990","4373","stimuli/2001101.jpg","2","","prediction_practice","2","{""filepath"":""stimuli/2001101.jpg"",""ball_pos"":2,""ego_ball_visible"":false,""ego_can_infer"":false,""alter_ball_visible"":false,""alter_can_infer"":true,""collective_ball_visible"":false,""collective_can_infer"":false,""search_locations"":[2],""alter_occluders"":""001"",""ego_occluders"":""101""}","true","","","","","","","","","","","","","","","","","","",""
"","","","","","image-keyboard-response","7","52236","0.0-3.0-4.0","63d73ed8b1c15ff155c74597","665500ab8938657b03fbdba8","665792bb533974ece4058990","1831","stimuli/20011012.jpg"," ","","practrice_feedback","2","","","","","","","","","","","","","","","","","","","","",""
"","","","","","image-keyboard-response","8","53548","0.0-3.0-5.0","63d73ed8b1c15ff155c74597","665500ab8938657b03fbdba8","665792bb533974ece4058990","1311","stimuli/0110100.jpg","0","","prediction_practice","1","{""filepath"":""stimuli/0110100.jpg"",""ball_pos"":0,""ego_ball_visible"":false,""ego_can_infer"":true,""alter_ball_visible"":false,""alter_can_infer"":false,""collective_ball_visible"":false,""collective_can_infer"":false,""search_locations"":[1,0],""alter_occluders"":""110"",""ego_occluders"":""100""}","false","","","","","","","","","","","","","","","","","","",""
"","","","","","image-keyboard-response","9","56563","0.0-3.0-6.0","63d73ed8b1c15ff155c74597","665500ab8938657b03fbdba8","665792bb533974ece4058990","3014","stimuli/01101001.jpg"," ","","practrice_feedback","1","","","","","","","","","","","","","","","","","","","","",""
"","","","","","image-keyboard-response","10","57780","0.0-3.0-7.0","63d73ed8b1c15ff155c74597","665500ab8938657b03fbdba8","665792bb533974ece4058990","1215","stimuli/1111111.jpg","1","","prediction_practice","1","{""filepath"":""stimuli/1111111.jpg"",""ball_pos"":1,""ego_ball_visible"":false,""ego_can_infer"":false,""alter_ball_visible"":false,""alter_can_infer"":false,""collective_ball_visible"":false,""collective_can_infer"":false,""search_locations"":[1,0,2],""alter_occluders"":""111"",""ego_occluders"":""111""}","true","","","","","","","","","","","","","","","","","","",""
"","","","","","image-keyboard-response","11","58578","0.0-3.0-8.0","63d73ed8b1c15ff155c74597","665500ab8938657b03fbdba8","665792bb533974ece4058990","798","stimuli/11111111.jpg"," ","","practrice_feedback","1","","","","","","","","","","","","","","","","","","","","",""
"","","","","","image-keyboard-response","12","59396","0.0-3.0-9.0","63d73ed8b1c15ff155c74597","665500ab8938657b03fbdba8","665792bb533974ece4058990","817","stimuli/2111101.jpg","2","","prediction_practice","2","{""filepath"":""stimuli/2111101.jpg"",""ball_pos"":2,""ego_ball_visible"":false,""ego_can_infer"":false,""alter_ball_visible"":false,""alter_can_infer"":false,""collective_ball_visible"":false,""collective_can_infer"":false,""search_locations"":[2,1,0],""alter_occluders"":""111"",""ego_occluders"":""101""}","true","","","","","","","","","","","","","","","","","","",""
"","","","","","image-keyboard-response","13","60099","0.0-3.0-10.0","63d73ed8b1c15ff155c74597","665500ab8938657b03fbdba8","665792bb533974ece4058990","701","stimuli/21111012.jpg"," ","","practrice_feedback","2","","","","","","","","","","","","","","","","","","","","",""
"","","","","","image-keyboard-response","14","60892","0.0-3.0-11.0","63d73ed8b1c15ff155c74597","665500ab8938657b03fbdba8","665792bb533974ece4058990","791","stimuli/1111100.jpg","1","","prediction_practice","1","{""filepath"":""stimuli/1111100.jpg"",""ball_pos"":1,""ego_ball_visible"":true,""ego_can_infer"":true,""alter_ball_visible"":false,""alter_can_infer"":false,""collective_ball_visible"":false,""collective_can_infer"":false,""search_locations"":[1,0,2],""alter_occluders"":""111"",""ego_occluders"":""100""}","true","","","","","","","","","","","","","","","","","","",""
"","","","","","image-keyboard-response","15","61715","0.0-3.0-12.0","63d73ed8b1c15ff155c74597","665500ab8938657b03fbdba8","665792bb533974ece4058990","823","stimuli/11111001.jpg"," ","","practrice_feedback","1","","","","","","","","","","","","","","","","","","","","",""
"","","","","","image-keyboard-response","16","62700","0.0-3.0-13.0","63d73ed8b1c15ff155c74597","665500ab8938657b03fbdba8","665792bb533974ece4058990","984","stimuli/1000011.jpg","1","","prediction_practice","1","{""filepath"":""stimuli/1000011.jpg"",""ball_pos"":1,""ego_ball_visible"":false,""ego_can_infer"":false,""alter_ball_visible"":true,""alter_can_infer"":true,""collective_ball_visible"":false,""collective_can_infer"":false,""search_locations"":[1],""alter_occluders"":""000"",""ego_occluders"":""011""}","true","","","","","","","","","","","","","","","","","","",""
"","","","","","image-keyboard-response","17","63363","0.0-3.0-14.0","63d73ed8b1c15ff155c74597","665500ab8938657b03fbdba8","665792bb533974ece4058990","662","stimuli/10000111.jpg"," ","","practrice_feedback","1","","","","","","","","","","","","","","","","","","","","",""
"","","","","","image-keyboard-response","18","64228","0.0-3.0-15.0","63d73ed8b1c15ff155c74597","665500ab8938657b03fbdba8","665792bb533974ece4058990","864","stimuli/2110101.jpg","0","","prediction_practice","2","{""filepath"":""stimuli/2110101.jpg"",""ball_pos"":2,""ego_ball_visible"":false,""ego_can_infer"":false,""alter_ball_visible"":true,""alter_can_infer"":true,""collective_ball_visible"":false,""collective_can_infer"":false,""search_locations"":[2],""alter_occluders"":""110"",""ego_occluders"":""101""}","false","","","","","","","","","","","","","","","","","","",""
"","","","","","image-keyboard-response","19","65179","0.0-3.0-16.0","63d73ed8b1c15ff155c74597","665500ab8938657b03fbdba8","665792bb533974ece4058990","950","stimuli/21101012.jpg"," ","","practrice_feedback","2","","","","","","","","","","","","","","","","","","","","",""
"","","","","","image-keyboard-response","20","66955","0.0-3.0-17.0","63d73ed8b1c15ff155c74597","665500ab8938657b03fbdba8","665792bb533974ece4058990","1775","stimuli/0011100.jpg","0","","prediction_practice","0","{""filepath"":""stimuli/0011100.jpg"",""ball_pos"":0,""ego_ball_visible"":false,""ego_can_infer"":true,""alter_ball_visible"":true,""alter_can_infer"":true,""collective_ball_visible"":false,""collective_can_infer"":true,""search_locations"":[0],""alter_occluders"":""011"",""ego_occluders"":""100""}","true","","","","","","","","","","","","","","","","","","",""
"","","","","","image-keyboard-response","21","67452","0.0-3.0-18.0","63d73ed8b1c15ff155c74597","665500ab8938657b03fbdba8","665792bb533974ece4058990","496","stimuli/00111000.jpg"," ","","practrice_feedback","0","","","","","","","","","","","","","","","","","","","","",""
"","","","","","image-keyboard-response","22","68187","0.0-3.0-19.0","63d73ed8b1c15ff155c74597","665500ab8938657b03fbdba8","665792bb533974ece4058990","734","stimuli/0011111.jpg","0","","prediction_practice","0","{""filepath"":""stimuli/0011111.jpg"",""ball_pos"":0,""ego_ball_visible"":false,""ego_can_infer"":false,""alter_ball_visible"":true,""alter_can_infer"":true,""collective_ball_visible"":false,""collective_can_infer"":false,""search_locations"":[0],""alter_occluders"":""011"",""ego_occluders"":""111""}","true","","","","","","","","","","","","","","","","","","",""
"","","","","","image-keyboard-response","23","68923","0.0-3.0-20.0","63d73ed8b1c15ff155c74597","665500ab8938657b03fbdba8","665792bb533974ece4058990","735","stimuli/00111110.jpg"," ","","practrice_feedback","0","","","","","","","","","","","","","","","","","","","","",""
"","","","","","html-button-response","24","70900","0.0-3.0-21.0","63d73ed8b1c15ff155c74597","665500ab8938657b03fbdba8","665792bb533974ece4058990","1976","Now that you've had some practice, you'll be tested with a couple of easy trials. If you correctly predict Sam's choice, you'll move on to complete the experiment!","0","","","","","","","","","","","","","","","","","","","","","","","",""
"","","","","","image-keyboard-response","25","72374","0.0-3.0-22.0-0.0","63d73ed8b1c15ff155c74597","665500ab8938657b03fbdba8","665792bb533974ece4058990","1473","stimuli/0000011.jpg","arrowleft","","comprehension_quiz","","","true","arrowleft","","","","","","","","","","","","","","","","","",""
"","","","","","image-keyboard-response","26","72916","0.0-3.0-22.0-1.0","63d73ed8b1c15ff155c74597","665500ab8938657b03fbdba8","665792bb533974ece4058990","540","stimuli/00000110.jpg"," ","","comprehension_quiz","","","true"," ","","","","","","","","","","","","","","","","","",""
"","","","","","image-keyboard-response","27","77997","0.0-3.0-22.0-2.0","63d73ed8b1c15ff155c74597","665500ab8938657b03fbdba8","665792bb533974ece4058990","5080","stimuli/1010010.jpg","arrowdown","","comprehension_quiz","","","true","arrowdown","","","","","","","","","","","","","","","","","",""
"","","","","","image-keyboard-response","28","78148","0.0-3.0-22.0-3.0","63d73ed8b1c15ff155c74597","665500ab8938657b03fbdba8","665792bb533974ece4058990","150","stimuli/10100101.jpg"," ","","comprehension_quiz","","","true"," ","","","","","","","","","","","","","","","","","",""
"","","","","","html-button-response","29","79785","0.0-4.0","63d73ed8b1c15ff155c74597","665500ab8938657b03fbdba8","665792bb533974ece4058990","1634","The experiment will now begin.","0","","","","","","","","","","","","","","","","","","","","","","","",""
"","","","","","image-keyboard-response","30","80539","0.0-5.0","63d73ed8b1c15ff155c74597","665500ab8938657b03fbdba8","665792bb533974ece4058990","753","stimuli/2111001.jpg","2","","prediction_trial","0","","false","","2","false","true","false","false","false","false","[1,2,0]","111","001","0","","","","","","",""
"","","","","","image-keyboard-response","31","81620","0.0-6.0","63d73ed8b1c15ff155c74597","665500ab8938657b03fbdba8","665792bb533974ece4058990","1079","stimuli/21110010.jpg"," ","","feedback_trial","1","","","","","","","","","","","","","","","","","","","","",""
"","","","","","image-keyboard-response","32","82467","0.0-7.0","63d73ed8b1c15ff155c74597","665500ab8938657b03fbdba8","665792bb533974ece4058990","847","stimuli/0001111.jpg","1","","prediction_trial","0","","false","","0","false","false","true","true","false","false","[0]","001","111","0","","","","","","",""
"","","","","","image-keyboard-response","33","82931","0.0-8.0","63d73ed8b1c15ff155c74597","665500ab8938657b03fbdba8","665792bb533974ece4058990","462","stimuli/00011110.jpg"," ","","feedback_trial","0","","","","","","","","","","","","","","","","","","","","",""
"","","","","","image-keyboard-response","34","83275","0.0-9.0","63d73ed8b1c15ff155c74597","665500ab8938657b03fbdba8","665792bb533974ece4058990","344","stimuli/2111000.jpg","0","","prediction_trial","0","","true","","2","true","true","false","false","false","false","[1,0,2]","111","000","1","","","","","","",""
"","","","","","image-keyboard-response","35","83587","0.0-10.0","63d73ed8b1c15ff155c74597","665500ab8938657b03fbdba8","665792bb533974ece4058990","310","stimuli/21110000.jpg"," ","","feedback_trial","1","","","","","","","","","","","","","","","","","","","","",""
"","","","","","image-keyboard-response","36","84371","0.0-11.0","63d73ed8b1c15ff155c74597","665500ab8938657b03fbdba8","665792bb533974ece4058990","783","stimuli/0100111.jpg","1","","prediction_trial","0","","false","","0","false","false","false","true","false","false","[0]","100","111","0","","","","","","",""
"","","","","","image-keyboard-response","37","84563","0.0-12.0","63d73ed8b1c15ff155c74597","665500ab8938657b03fbdba8","665792bb533974ece4058990","190","stimuli/01001110.jpg"," ","","feedback_trial","0","","","","","","","","","","","","","","","","","","","","",""
"","","","","","image-keyboard-response","38","85011","0.0-13.0","63d73ed8b1c15ff155c74597","665500ab8938657b03fbdba8","665792bb533974ece4058990","448","stimuli/2011101.jpg","0","","prediction_trial","1","","false","","2","false","false","false","false","false","false","[1,2]","011","101","0","","","","","","",""
"","","","","","image-keyboard-response","39","85291","0.0-14.0","63d73ed8b1c15ff155c74597","665500ab8938657b03fbdba8","665792bb533974ece4058990","279","stimuli/20111011.jpg"," ","","feedback_trial","1","","","","","","","","","","","","","","","","","","","","",""
"","","","","","image-keyboard-response","40","85739","0.0-15.0","63d73ed8b1c15ff155c74597","665500ab8938657b03fbdba8","665792bb533974ece4058990","447","stimuli/0100011.jpg","0","","prediction_trial","0","","true","","0","true","true","false","true","false","true","[0]","100","011","1","","","","","","",""
"","","","","","image-keyboard-response","41","85915","0.0-16.0","63d73ed8b1c15ff155c74597","665500ab8938657b03fbdba8","665792bb533974ece4058990","174","stimuli/01000110.jpg"," ","","feedback_trial","0","","","","","","","","","","","","","","","","","","","","",""
"","","","","","image-keyboard-response","42","86379","0.0-17.0","63d73ed8b1c15ff155c74597","665500ab8938657b03fbdba8","665792bb533974ece4058990","464","stimuli/0001001.jpg","0","","prediction_trial","0","","true","","0","true","true","true","true","true","true","[0]","001","001","1","","","","","","",""
"","","","","","image-keyboard-response","43","86499","0.0-18.0","63d73ed8b1c15ff155c74597","665500ab8938657b03fbdba8","665792bb533974ece4058990","118","stimuli/00010010.jpg"," ","","feedback_trial","0","","","","","","","","","","","","","","","","","","","","",""
"","","","","","image-keyboard-response","44","86771","0.0-19.0","63d73ed8b1c15ff155c74597","665500ab8938657b03fbdba8","665792bb533974ece4058990","272","stimuli/2100000.jpg","0","","prediction_trial","2","","false","","2","true","true","true","true","true","true","[2]","100","000","0","","","","","","",""
"","","","","","image-keyboard-response","45","86907","0.0-20.0","63d73ed8b1c15ff155c74597","665500ab8938657b03fbdba8","665792bb533974ece4058990","134","stimuli/21000002.jpg"," ","","feedback_trial","2","","","","","","","","","","","","","","","","","","","","",""
"","","","","","image-keyboard-response","46","87236","0.0-21.0","63d73ed8b1c15ff155c74597","665500ab8938657b03fbdba8","665792bb533974ece4058990","328","stimuli/1001010.jpg","0","","prediction_trial","1","","false","","1","false","true","true","true","false","true","[1]","001","010","0","","","","","","",""
"","","","","","image-keyboard-response","47","87443","0.0-22.0","63d73ed8b1c15ff155c74597","665500ab8938657b03fbdba8","665792bb533974ece4058990","206","stimuli/10010101.jpg"," ","","feedback_trial","1","","","","","","","","","","","","","","","","","","","","",""
"","","","","","image-keyboard-response","48","87587","0.0-23.0","63d73ed8b1c15ff155c74597","665500ab8938657b03fbdba8","665792bb533974ece4058990","144","stimuli/2010001.jpg","0","","prediction_trial","2","","false","","2","false","true","true","true","false","true","[2]","010","001","0","","","","","","",""
"","","","","","image-keyboard-response","49","87923","0.0-24.0","63d73ed8b1c15ff155c74597","665500ab8938657b03fbdba8","665792bb533974ece4058990","335","stimuli/20100012.jpg"," ","","feedback_trial","2","","","","","","","","","","","","","","","","","","","","",""
"","","","","","image-keyboard-response","50","88116","0.0-25.0","63d73ed8b1c15ff155c74597","665500ab8938657b03fbdba8","665792bb533974ece4058990","191","stimuli/2111111.jpg","1","","prediction_trial","0","","false","","2","false","false","false","false","false","false","[2,1,0]","111","111","0","","","","","","",""
"","","","","","image-keyboard-response","51","88283","0.0-26.0","63d73ed8b1c15ff155c74597","665500ab8938657b03fbdba8","665792bb533974ece4058990","166","stimuli/21111110.jpg"," ","","feedback_trial","2","","","","","","","","","","","","","","","","","","","","",""
"","","","","","image-keyboard-response","52","88395","0.0-27.0","63d73ed8b1c15ff155c74597","665500ab8938657b03fbdba8","665792bb533974ece4058990","112","stimuli/2011010.jpg","1","","prediction_trial","1","","true","","2","true","true","false","false","false","false","[1,2]","011","010","1","","","","","","",""
"","","","","","image-keyboard-response","53","88587","0.0-28.0","63d73ed8b1c15ff155c74597","665500ab8938657b03fbdba8","665792bb533974ece4058990","191","stimuli/20110101.jpg"," ","","feedback_trial","1","","","","","","","","","","","","","","","","","","","","",""
"","","","","","image-keyboard-response","54","88700","0.0-29.0","63d73ed8b1c15ff155c74597","665500ab8938657b03fbdba8","665792bb533974ece4058990","113","stimuli/0101110.jpg","2","","prediction_trial","0","","false","","0","false","false","false","false","false","false","[2,0]","101","110","0","","","","","","",""
"","","","","","image-keyboard-response","55","88899","0.0-30.0","63d73ed8b1c15ff155c74597","665500ab8938657b03fbdba8","665792bb533974ece4058990","197","stimuli/01011100.jpg"," ","","feedback_trial","2","","","","","","","","","","","","","","","","","","","","",""
"","","","","","image-keyboard-response","56","89017","0.0-31.0","63d73ed8b1c15ff155c74597","665500ab8938657b03fbdba8","665792bb533974ece4058990","117","stimuli/2011000.jpg","2","","prediction_trial","1","","false","","2","true","true","false","false","false","false","[1,2]","011","000","0","","","","","","",""
"","","","","","image-keyboard-response","57","89193","0.0-32.0","63d73ed8b1c15ff155c74597","665500ab8938657b03fbdba8","665792bb533974ece4058990","176","stimuli/20110001.jpg"," ","","feedback_trial","1","","","","","","","","","","","","","","","","","","","","",""
"","","","","","image-keyboard-response","58","89315","0.0-33.0","63d73ed8b1c15ff155c74597","665500ab8938657b03fbdba8","665792bb533974ece4058990","121","stimuli/0110000.jpg","0","","prediction_trial","0","","true","","0","true","true","false","false","false","false","[1,0]","110","000","1","","","","","","",""
"","","","","","image-keyboard-response","59","89499","0.0-34.0","63d73ed8b1c15ff155c74597","665500ab8938657b03fbdba8","665792bb533974ece4058990","184","stimuli/01100000.jpg"," ","","feedback_trial","1","","","","","","","","","","","","","","","","","","","","",""
"","","","","","image-keyboard-response","60","89604","0.0-35.0","63d73ed8b1c15ff155c74597","665500ab8938657b03fbdba8","665792bb533974ece4058990","104","stimuli/1000101.jpg","0","","prediction_trial","1","","false","","1","true","true","true","true","true","true","[1]","000","101","0","","","","","","",""
"","","","","","image-keyboard-response","61","89771","0.0-36.0","63d73ed8b1c15ff155c74597","665500ab8938657b03fbdba8","665792bb533974ece4058990","165","stimuli/10001011.jpg"," ","","feedback_trial","1","","","","","","","","","","","","","","","","","","","","",""
"","","","","","image-keyboard-response","62","89861","0.0-37.0","63d73ed8b1c15ff155c74597","665500ab8938657b03fbdba8","665792bb533974ece4058990","89","stimuli/2001110.jpg","0","","prediction_trial","2","","false","","2","true","true","false","true","false","true","[2]","001","110","0","","","","","","",""
"","","","","","image-keyboard-response","63","90107","0.0-38.0","63d73ed8b1c15ff155c74597","665500ab8938657b03fbdba8","665792bb533974ece4058990","246","stimuli/20011102.jpg"," ","","feedback_trial","2","","","","","","","","","","","","","","","","","","","","",""
"","","","","","image-keyboard-response","64","90268","0.0-39.0","63d73ed8b1c15ff155c74597","665500ab8938657b03fbdba8","665792bb533974ece4058990","160","stimuli/0011000.jpg","1","","prediction_trial","0","","false","","0","true","true","true","true","true","true","[0]","011","000","0","","","","","","",""
"","","","","","image-keyboard-response","65","90348","0.0-40.0","63d73ed8b1c15ff155c74597","665500ab8938657b03fbdba8","665792bb533974ece4058990","78","stimuli/00110000.jpg"," ","","feedback_trial","0","","","","","","","","","","","","","","","","","","","","",""
"","","","","","image-keyboard-response","66","90525","0.0-41.0","63d73ed8b1c15ff155c74597","665500ab8938657b03fbdba8","665792bb533974ece4058990","175","stimuli/2001100.jpg","2","","prediction_trial","2","","true","","2","true","true","false","true","false","true","[2]","001","100","1","","","","","","",""
"","","","","","image-keyboard-response","67","90612","0.0-42.0","63d73ed8b1c15ff155c74597","665500ab8938657b03fbdba8","665792bb533974ece4058990","86","stimuli/20011002.jpg"," ","","feedback_trial","2","","","","","","","","","","","","","","","","","","","","",""
"","","","","","image-keyboard-response","68","90724","0.0-43.0","63d73ed8b1c15ff155c74597","665500ab8938657b03fbdba8","665792bb533974ece4058990","111","stimuli/1101011.jpg","2","","prediction_trial","1","","false","","1","false","false","true","true","false","false","[1]","101","011","0","","","","","","",""
"","","","","","image-keyboard-response","69","90876","0.0-44.0","63d73ed8b1c15ff155c74597","665500ab8938657b03fbdba8","665792bb533974ece4058990","150","stimuli/11010111.jpg"," ","","feedback_trial","1","","","","","","","","","","","","","","","","","","","","",""
"","","","","","image-keyboard-response","70","90909","0.0-45.0","63d73ed8b1c15ff155c74597","665500ab8938657b03fbdba8","665792bb533974ece4058990","32","stimuli/0101100.jpg","2","","prediction_trial","0","","false","","0","false","true","false","false","false","false","[0,2]","101","100","0","","","","","","",""
"","","","","","image-keyboard-response","71","91196","0.0-46.0","63d73ed8b1c15ff155c74597","665500ab8938657b03fbdba8","665792bb533974ece4058990","286","stimuli/01011000.jpg"," ","","feedback_trial","0","","","","","","","","","","","","","","","","","","","","",""
"","","","","","image-keyboard-response","72","91301","0.0-47.0","63d73ed8b1c15ff155c74597","665500ab8938657b03fbdba8","665792bb533974ece4058990","104","stimuli/1100110.jpg","1","","prediction_trial","1","","true","","1","false","false","true","true","false","false","[1]","100","110","1","","","","","","",""
"","","","","","image-keyboard-response","73","91460","0.0-48.0","63d73ed8b1c15ff155c74597","665500ab8938657b03fbdba8","665792bb533974ece4058990","158","stimuli/11001101.jpg"," ","","feedback_trial","1","","","","","","","","","","","","","","","","","","","","",""
"","","","","","image-keyboard-response","74","91483","0.0-49.0","63d73ed8b1c15ff155c74597","665500ab8938657b03fbdba8","665792bb533974ece4058990","22","stimuli/2011001.jpg","1","","prediction_trial","1","","true","","2","false","true","false","false","false","false","[1,2]","011","001","1","","","","","","",""
"","","","","","image-keyboard-response","75","91756","0.0-50.0","63d73ed8b1c15ff155c74597","665500ab8938657b03fbdba8","665792bb533974ece4058990","272","stimuli/20110011.jpg"," ","","feedback_trial","1","","","","","","","","","","","","","","","","","","","","",""
"","","","","","image-keyboard-response","76","91901","0.0-51.0","63d73ed8b1c15ff155c74597","665500ab8938657b03fbdba8","665792bb533974ece4058990","143","stimuli/1001111.jpg","0","","prediction_trial","1","","false","","1","false","false","true","true","false","false","[1]","001","111","0","","","","","","",""
"","","","","","image-keyboard-response","77","92044","0.0-52.0","63d73ed8b1c15ff155c74597","665500ab8938657b03fbdba8","665792bb533974ece4058990","142","stimuli/10011111.jpg"," ","","feedback_trial","1","","","","","","","","","","","","","","","","","","","","",""
"","","","","","image-keyboard-response","78","92165","0.0-53.0","63d73ed8b1c15ff155c74597","665500ab8938657b03fbdba8","665792bb533974ece4058990","119","stimuli/2111011.jpg","1","","prediction_trial","0","","false","","2","false","false","false","false","false","false","[0,2,1]","111","011","0","","","","","","",""
"","","","","","image-keyboard-response","79","92308","0.0-54.0","63d73ed8b1c15ff155c74597","665500ab8938657b03fbdba8","665792bb533974ece4058990","142","stimuli/21110110.jpg"," ","","feedback_trial","0","","","","","","","","","","","","","","","","","","","","",""
"","","","","","image-keyboard-response","80","92357","0.0-55.0","63d73ed8b1c15ff155c74597","665500ab8938657b03fbdba8","665792bb533974ece4058990","47","stimuli/0010000.jpg","1","","prediction_trial","0","","false","","0","true","true","true","true","true","true","[0]","010","000","0","","","","","","",""
"","","","","","image-keyboard-response","81","92588","0.0-56.0","63d73ed8b1c15ff155c74597","665500ab8938657b03fbdba8","665792bb533974ece4058990","230","stimuli/00100000.jpg"," ","","feedback_trial","0","","","","","","","","","","","","","","","","","","","","",""
"","","","","","image-keyboard-response","82","92740","0.0-57.0","63d73ed8b1c15ff155c74597","665500ab8938657b03fbdba8","665792bb533974ece4058990","151","stimuli/1100100.jpg","2","","prediction_trial","1","","false","","1","true","true","true","true","true","true","[1]","100","100","0","","","","","","",""
"","","","","","image-keyboard-response","83","92868","0.0-58.0","63d73ed8b1c15ff155c74597","665500ab8938657b03fbdba8","665792bb533974ece4058990","126","stimuli/11001001.jpg"," ","","feedback_trial","1","","","","","","","","","","","","","","","","","","","","",""
"","","","","","image-keyboard-response","84","92907","0.0-59.0","63d73ed8b1c15ff155c74597","665500ab8938657b03fbdba8","665792bb533974ece4058990","38","stimuli/2000100.jpg","2","","prediction_trial","2","","true","","2","true","true","true","true","true","true","[2]","000","100","1","","","","","","",""
"","","","","","image-keyboard-response","85","93148","0.0-60.0","63d73ed8b1c15ff155c74597","665500ab8938657b03fbdba8","665792bb533974ece4058990","240","stimuli/20001002.jpg"," ","","feedback_trial","2","","","","","","","","","","","","","","","","","","","","",""
"","","","","","image-keyboard-response","86","93317","0.0-61.0","63d73ed8b1c15ff155c74597","665500ab8938657b03fbdba8","665792bb533974ece4058990","167","stimuli/1110010.jpg","2","","prediction_trial","0","","false","","1","false","true","false","false","false","false","[1,0]","110","010","0","","","","","","",""
"","","","","","image-keyboard-response","87","93436","0.0-62.0","63d73ed8b1c15ff155c74597","665500ab8938657b03fbdba8","665792bb533974ece4058990","118","stimuli/11100100.jpg"," ","","feedback_trial","1","","","","","","","","","","","","","","","","","","","","",""
"","","","","","image-keyboard-response","88","93549","0.0-63.0","63d73ed8b1c15ff155c74597","665500ab8938657b03fbdba8","665792bb533974ece4058990","111","stimuli/2100011.jpg","0","","prediction_trial","2","","false","","2","false","false","true","true","false","false","[2]","100","011","0","","","","","","",""
"","","","","","image-keyboard-response","89","93708","0.0-64.0","63d73ed8b1c15ff155c74597","665500ab8938657b03fbdba8","665792bb533974ece4058990","158","stimuli/21000112.jpg"," ","","feedback_trial","2","","","","","","","","","","","","","","","","","","","","",""
"","","","","","image-keyboard-response","90","93813","0.0-65.0","63d73ed8b1c15ff155c74597","665500ab8938657b03fbdba8","665792bb533974ece4058990","103","stimuli/0010110.jpg","0","","prediction_trial","0","","true","","0","false","false","true","true","false","false","[0]","010","110","1","","","","","","",""
"","","","","","image-keyboard-response","91","94020","0.0-66.0","63d73ed8b1c15ff155c74597","665500ab8938657b03fbdba8","665792bb533974ece4058990","206","stimuli/00101100.jpg"," ","","feedback_trial","0","","","","","","","","","","","","","","","","","","","","",""
"","","","","","image-keyboard-response","92","94069","0.0-67.0","63d73ed8b1c15ff155c74597","665500ab8938657b03fbdba8","665792bb533974ece4058990","47","stimuli/0101011.jpg","1","","prediction_trial","0","","false","","0","true","true","false","false","false","false","[0,2]","101","011","0","","","","","","",""
"","","","","","image-keyboard-response","93","94292","0.0-68.0","63d73ed8b1c15ff155c74597","665500ab8938657b03fbdba8","665792bb533974ece4058990","222","stimuli/01010110.jpg"," ","","feedback_trial","0","","","","","","","","","","","","","","","","","","","","",""
"","","","","","image-keyboard-response","94","94340","0.0-69.0","63d73ed8b1c15ff155c74597","665500ab8938657b03fbdba8","665792bb533974ece4058990","47","stimuli/2100001.jpg","1","","prediction_trial","2","","false","","2","false","true","true","true","false","true","[2]","100","001","0","","","","","","",""
"","","","","","image-keyboard-response","95","94540","0.0-70.0","63d73ed8b1c15ff155c74597","665500ab8938657b03fbdba8","665792bb533974ece4058990","198","stimuli/21000012.jpg"," ","","feedback_trial","2","","","","","","","","","","","","","","","","","","","","",""
"","","","","","image-keyboard-response","96","94709","0.0-71.0","63d73ed8b1c15ff155c74597","665500ab8938657b03fbdba8","665792bb533974ece4058990","167","stimuli/2111010.jpg","0","","prediction_trial","0","","true","","2","true","true","false","false","false","false","[0,2,1]","111","010","1","","","","","","",""
"","","","","","image-keyboard-response","97","94852","0.0-72.0","63d73ed8b1c15ff155c74597","665500ab8938657b03fbdba8","665792bb533974ece4058990","142","stimuli/21110100.jpg"," ","","feedback_trial","0","","","","","","","","","","","","","","","","","","","","",""
"","","","","","image-keyboard-response","98","94981","0.0-73.0","63d73ed8b1c15ff155c74597","665500ab8938657b03fbdba8","665792bb533974ece4058990","127","stimuli/0001101.jpg","0","","prediction_trial","0","","true","","0","false","false","true","true","false","false","[0]","001","101","1","","","","","","",""
"","","","","","image-keyboard-response","99","95148","0.0-74.0","63d73ed8b1c15ff155c74597","665500ab8938657b03fbdba8","665792bb533974ece4058990","166","stimuli/00011010.jpg"," ","","feedback_trial","0","","","","","","","","","","","","","","","","","","","","",""
"","","","","","image-keyboard-response","100","95237","0.0-75.0","63d73ed8b1c15ff155c74597","665500ab8938657b03fbdba8","665792bb533974ece4058990","87","stimuli/2000110.jpg","0","","prediction_trial","2","","false","","2","true","true","true","true","true","true","[2]","000","110","0","","","","","","",""
"","","","","","image-keyboard-response","101","95412","0.0-76.0","63d73ed8b1c15ff155c74597","665500ab8938657b03fbdba8","665792bb533974ece4058990","174","stimuli/20001102.jpg"," ","","feedback_trial","2","","","","","","","","","","","","","","","","","","","","",""
"","","","","","image-keyboard-response","102","95460","0.0-77.0","63d73ed8b1c15ff155c74597","665500ab8938657b03fbdba8","665792bb533974ece4058990","47","stimuli/0100000.jpg","0","","prediction_trial","0","","true","","0","true","true","false","true","false","true","[0]","100","000","1","","","","","","",""
"","","","","","image-keyboard-response","103","95692","0.0-78.0","63d73ed8b1c15ff155c74597","665500ab8938657b03fbdba8","665792bb533974ece4058990","230","stimuli/01000000.jpg"," ","","feedback_trial","0","","","","","","","","","","","","","","","","","","","","",""
"","","","","","image-keyboard-response","104","96365","0.0-79.0","63d73ed8b1c15ff155c74597","665500ab8938657b03fbdba8","665792bb533974ece4058990","672","stimuli/2010100.jpg","2","","prediction_trial","2","","true","","2","true","true","true","true","true","true","[2]","010","100","1","","","","","","",""
"","","","","","image-keyboard-response","105","96460","0.0-80.0","63d73ed8b1c15ff155c74597","665500ab8938657b03fbdba8","665792bb533974ece4058990","94","stimuli/20101002.jpg"," ","","feedback_trial","2","","","","","","","","","","","","","","","","","","","","",""
"","","","","","image-keyboard-response","106","97013","0.0-81.0","63d73ed8b1c15ff155c74597","665500ab8938657b03fbdba8","665792bb533974ece4058990","551","stimuli/1110101.jpg","1","","prediction_trial","0","","false","","1","true","true","false","false","false","false","[0,1]","110","101","0","","","","","","",""
"","","","","","image-keyboard-response","107","97100","0.0-82.0","63d73ed8b1c15ff155c74597","665500ab8938657b03fbdba8","665792bb533974ece4058990","86","stimuli/11101010.jpg"," ","","feedback_trial","0","","","","","","","","","","","","","","","","","","","","",""
"","","","","","image-keyboard-response","108","97660","0.0-83.0","63d73ed8b1c15ff155c74597","665500ab8938657b03fbdba8","665792bb533974ece4058990","559","stimuli/0010111.jpg","1","","prediction_trial","0","","false","","0","false","false","true","true","false","false","[0]","010","111","0","","","","","","",""
"","","","","","image-keyboard-response","109","97764","0.0-84.0","63d73ed8b1c15ff155c74597","665500ab8938657b03fbdba8","665792bb533974ece4058990","102","stimuli/00101110.jpg"," ","","feedback_trial","0","","","","","","","","","","","","","","","","","","","","",""
"","","","","","image-keyboard-response","110","98413","0.0-85.0","63d73ed8b1c15ff155c74597","665500ab8938657b03fbdba8","665792bb533974ece4058990","648","stimuli/1000011.jpg","1","","prediction_trial","1","","true","","1","false","false","true","true","false","false","[1]","000","011","1","","","","","","",""
"","","","","","image-keyboard-response","111","98492","0.0-86.0","63d73ed8b1c15ff155c74597","665500ab8938657b03fbdba8","665792bb533974ece4058990","77","stimuli/10000111.jpg"," ","","feedback_trial","1","","","","","","","","","","","","","","","","","","","","",""
"","","","","","image-keyboard-response","112","99177","0.0-87.0","63d73ed8b1c15ff155c74597","665500ab8938657b03fbdba8","665792bb533974ece4058990","684","stimuli/1110110.jpg","1","","prediction_trial","0","","false","","1","false","false","false","false","false","false","[1,0]","110","110","0","","","","","","",""
"","","","","","image-keyboard-response","113","99252","0.0-88.0","63d73ed8b1c15ff155c74597","665500ab8938657b03fbdba8","665792bb533974ece4058990","74","stimuli/11101100.jpg"," ","","feedback_trial","1","","","","","","","","","","","","","","","","","","","","",""
"","","","","","image-keyboard-response","114","99404","0.0-89.0","63d73ed8b1c15ff155c74597","665500ab8938657b03fbdba8","665792bb533974ece4058990","151","stimuli/2000011.jpg","1","","prediction_trial","2","","false","","2","false","false","true","true","false","false","[2]","000","011","0","","","","","","",""
"","","","","","image-keyboard-response","115","99563","0.0-90.0","63d73ed8b1c15ff155c74597","665500ab8938657b03fbdba8","665792bb533974ece4058990","158","stimuli/20000112.jpg"," ","","feedback_trial","2","","","","","","","","","","","","","","","","","","","","",""
"","","","","","image-keyboard-response","116","99595","0.0-91.0","63d73ed8b1c15ff155c74597","665500ab8938657b03fbdba8","665792bb533974ece4058990","32","stimuli/2110110.jpg","0","","prediction_trial","2","","false","","2","true","true","true","true","true","true","[2]","110","110","0","","","","","","",""
"","","","","","image-keyboard-response","117","99819","0.0-92.0","63d73ed8b1c15ff155c74597","665500ab8938657b03fbdba8","665792bb533974ece4058990","223","stimuli/21101102.jpg"," ","","feedback_trial","2","","","","","","","","","","","","","","","","","","","","",""
"","","","","","image-keyboard-response","118","99908","0.0-93.0","63d73ed8b1c15ff155c74597","665500ab8938657b03fbdba8","665792bb533974ece4058990","88","stimuli/0010100.jpg","0","","prediction_trial","0","","true","","0","false","true","true","true","false","true","[0]","010","100","1","","","","","","",""
"","","","","","image-keyboard-response","119","100075","0.0-94.0","63d73ed8b1c15ff155c74597","665500ab8938657b03fbdba8","665792bb533974ece4058990","166","stimuli/00101000.jpg"," ","","feedback_trial","0","","","","","","","","","","","","","","","","","","","","",""
"","","","","","image-keyboard-response","120","100132","0.0-95.0","63d73ed8b1c15ff155c74597","665500ab8938657b03fbdba8","665792bb533974ece4058990","55","stimuli/0101001.jpg","0","","prediction_trial","0","","true","","0","true","true","false","false","false","false","[0,2]","101","001","1","","","","","","",""
"","","","","","image-keyboard-response","121","100314","0.0-96.0","63d73ed8b1c15ff155c74597","665500ab8938657b03fbdba8","665792bb533974ece4058990","182","stimuli/01010010.jpg"," ","","feedback_trial","0","","","","","","","","","","","","","","","","","","","","",""
"","","","","","image-keyboard-response","122","100322","0.0-97.0","63d73ed8b1c15ff155c74597","665500ab8938657b03fbdba8","665792bb533974ece4058990","7","stimuli/1011001.jpg","1","","prediction_trial","1","","true","","1","true","true","false","false","false","false","[2,1]","011","001","1","","","","","","",""
"","","","","","image-keyboard-response","123","100595","0.0-98.0","63d73ed8b1c15ff155c74597","665500ab8938657b03fbdba8","665792bb533974ece4058990","272","stimuli/10110011.jpg"," ","","feedback_trial","2","","","","","","","","","","","","","","","","","","","","",""
"","","","","","image-keyboard-response","124","100699","0.0-99.0","63d73ed8b1c15ff155c74597","665500ab8938657b03fbdba8","665792bb533974ece4058990","103","stimuli/0011111.jpg","1","","prediction_trial","0","","false","","0","false","false","true","true","false","false","[0]","011","111","0","","","","","","",""
"","","","","","image-keyboard-response","125","100842","0.0-100.0","63d73ed8b1c15ff155c74597","665500ab8938657b03fbdba8","665792bb533974ece4058990","142","stimuli/00111110.jpg"," ","","feedback_trial","0","","","","","","","","","","","","","","","","","","","","",""
"","","","","","image-keyboard-response","126","100892","0.0-101.0","63d73ed8b1c15ff155c74597","665500ab8938657b03fbdba8","665792bb533974ece4058990","49","stimuli/0111001.jpg","1","","prediction_trial","2","","false","","0","true","true","false","false","false","false","[0,2,1]","111","001","0","","","","","","",""
"","","","","","image-keyboard-response","127","101123","0.0-102.0","63d73ed8b1c15ff155c74597","665500ab8938657b03fbdba8","665792bb533974ece4058990","230","stimuli/01110012.jpg"," ","","feedback_trial","0","","","","","","","","","","","","","","","","","","","","",""
"","","","","","image-keyboard-response","128","101260","0.0-103.0","63d73ed8b1c15ff155c74597","665500ab8938657b03fbdba8","665792bb533974ece4058990","136","stimuli/0001000.jpg","1","","prediction_trial","0","","false","","0","true","true","true","true","true","true","[0]","001","000","0","","","","","","",""
"","","","","","image-keyboard-response","129","101388","0.0-104.0","63d73ed8b1c15ff155c74597","665500ab8938657b03fbdba8","665792bb533974ece4058990","127","stimuli/00010000.jpg"," ","","feedback_trial","0","","","","","","","","","","","","","","","","","","","","",""
"","","","","","image-keyboard-response","130","101460","0.0-105.0","63d73ed8b1c15ff155c74597","665500ab8938657b03fbdba8","665792bb533974ece4058990","71","stimuli/0110001.jpg","0","","prediction_trial","1","","false","","0","true","true","false","false","false","false","[0,1]","110","001","0","","","","","","",""
"","","","","","image-keyboard-response","131","101643","0.0-106.0","63d73ed8b1c15ff155c74597","665500ab8938657b03fbdba8","665792bb533974ece4058990","181","stimuli/01100011.jpg"," ","","feedback_trial","0","","","","","","","","","","","","","","","","","","","","",""
"","","","","","image-keyboard-response","132","101646","0.0-107.0","63d73ed8b1c15ff155c74597","665500ab8938657b03fbdba8","665792bb533974ece4058990","2","stimuli/2011110.jpg","0","","prediction_trial","2","","false","","2","true","true","false","false","false","false","[2,1]","011","110","0","","","","","","",""
"","","","","","image-keyboard-response","133","101922","0.0-108.0","63d73ed8b1c15ff155c74597","665500ab8938657b03fbdba8","665792bb533974ece4058990","276","stimuli/20111102.jpg"," ","","feedback_trial","2","","","","","","","","","","","","","","","","","","","","",""
"","","","","","image-keyboard-response","134","102036","0.0-109.0","63d73ed8b1c15ff155c74597","665500ab8938657b03fbdba8","665792bb533974ece4058990","113","stimuli/1111101.jpg","2","","prediction_trial","1","","false","","1","true","true","false","false","false","false","[2,0,1]","111","101","0","","","","","","",""
"","","","","","image-keyboard-response","135","102156","0.0-110.0","63d73ed8b1c15ff155c74597","665500ab8938657b03fbdba8","665792bb533974ece4058990","118","stimuli/11111011.jpg"," ","","feedback_trial","2","","","","","","","","","","","","","","","","","","","","",""
"","","","","","image-keyboard-response","136","102223","0.0-111.0","63d73ed8b1c15ff155c74597","665500ab8938657b03fbdba8","665792bb533974ece4058990","66","stimuli/1001100.jpg","2","","prediction_trial","1","","false","","1","true","true","true","true","true","true","[1]","001","100","0","","","","","","",""
"","","","","","image-keyboard-response","137","102409","0.0-112.0","63d73ed8b1c15ff155c74597","665500ab8938657b03fbdba8","665792bb533974ece4058990","185","stimuli/10011001.jpg"," ","","feedback_trial","1","","","","","","","","","","","","","","","","","","","","",""
"","","","","","image-keyboard-response","138","102425","0.0-113.0","63d73ed8b1c15ff155c74597","665500ab8938657b03fbdba8","665792bb533974ece4058990","15","stimuli/2000111.jpg","1","","prediction_trial","2","","false","","2","false","false","true","true","false","false","[2]","000","111","0","","","","","","",""
"","","","","","image-keyboard-response","139","102641","0.0-114.0","63d73ed8b1c15ff155c74597","665500ab8938657b03fbdba8","665792bb533974ece4058990","216","stimuli/20001112.jpg"," ","","feedback_trial","2","","","","","","","","","","","","","","","","","","","","",""
"","","","","","image-keyboard-response","140","102643","0.0-115.0","63d73ed8b1c15ff155c74597","665500ab8938657b03fbdba8","665792bb533974ece4058990","1","stimuli/2001101.jpg","1","","prediction_trial","2","","false","","2","false","false","false","true","false","false","[2]","001","101","0","","","","","","",""
"","","","","","image-keyboard-response","141","102972","0.0-116.0","63d73ed8b1c15ff155c74597","665500ab8938657b03fbdba8","665792bb533974ece4058990","328","stimuli/20011012.jpg"," ","","feedback_trial","2","","","","","","","","","","","","","","","","","","","","",""
"","","","","","image-keyboard-response","142","103132","0.0-117.0","63d73ed8b1c15ff155c74597","665500ab8938657b03fbdba8","665792bb533974ece4058990","159","stimuli/2011011.jpg","0","","prediction_trial","1","","false","","2","false","false","false","false","false","false","[2,1]","011","011","0","","","","","","",""
"","","","","","image-keyboard-response","143","103252","0.0-118.0","63d73ed8b1c15ff155c74597","665500ab8938657b03fbdba8","665792bb533974ece4058990","119","stimuli/20110111.jpg"," ","","feedback_trial","2","","","","","","","","","","","","","","","","","","","","",""
"","","","","","image-keyboard-response","144","103372","0.0-119.0","63d73ed8b1c15ff155c74597","665500ab8938657b03fbdba8","665792bb533974ece4058990","119","stimuli/2111100.jpg","0","","prediction_trial","0","","true","","2","true","true","false","false","false","false","[1,0,2]","111","100","1","","","","","","",""
"","","","","","image-keyboard-response","145","103523","0.0-120.0","63d73ed8b1c15ff155c74597","665500ab8938657b03fbdba8","665792bb533974ece4058990","149","stimuli/21111000.jpg"," ","","feedback_trial","1","","","","","","","","","","","","","","","","","","","","",""
"","","","","","image-keyboard-response","146","103612","0.0-121.0","63d73ed8b1c15ff155c74597","665500ab8938657b03fbdba8","665792bb533974ece4058990","89","stimuli/1010110.jpg","1","","prediction_trial","1","","true","","1","false","false","false","true","false","false","[1]","010","110","1","","","","","","",""
"","","","","","image-keyboard-response","147","103812","0.0-122.0","63d73ed8b1c15ff155c74597","665500ab8938657b03fbdba8","665792bb533974ece4058990","198","stimuli/10101101.jpg"," ","","feedback_trial","1","","","","","","","","","","","","","","","","","","","","",""
"","","","","","image-keyboard-response","148","104067","0.0-123.0","63d73ed8b1c15ff155c74597","665500ab8938657b03fbdba8","665792bb533974ece4058990","255","stimuli/0110011.jpg","1","","prediction_trial","0","","false","","0","true","true","false","false","false","false","[0,1]","110","011","0","","","","","","",""
"","","","","","image-keyboard-response","149","104132","0.0-124.0","63d73ed8b1c15ff155c74597","665500ab8938657b03fbdba8","665792bb533974ece4058990","63","stimuli/01100110.jpg"," ","","feedback_trial","0","","","","","","","","","","","","","","","","","","","","",""
"","","","","","image-keyboard-response","150","104276","0.0-125.0","63d73ed8b1c15ff155c74597","665500ab8938657b03fbdba8","665792bb533974ece4058990","143","stimuli/2101010.jpg","1","","prediction_trial","0","","false","","2","true","true","false","false","false","false","[2,0]","101","010","0","","","","","","",""
"","","","","","image-keyboard-response","151","104403","0.0-126.0","63d73ed8b1c15ff155c74597","665500ab8938657b03fbdba8","665792bb533974ece4058990","126","stimuli/21010100.jpg"," ","","feedback_trial","2","","","","","","","","","","","","","","","","","","","","",""
"","","","","","image-keyboard-response","152","104476","0.0-127.0","63d73ed8b1c15ff155c74597","665500ab8938657b03fbdba8","665792bb533974ece4058990","72","stimuli/1111100.jpg","1","","prediction_trial","0","","false","","1","true","true","false","false","false","false","[1,0,2]","111","100","0","","","","","","",""
"","","","","","image-keyboard-response","153","104707","0.0-128.0","63d73ed8b1c15ff155c74597","665500ab8938657b03fbdba8","665792bb533974ece4058990","229","stimuli/11111000.jpg"," ","","feedback_trial","1","","","","","","","","","","","","","","","","","","","","",""
"","","","","","image-keyboard-response","154","104710","0.0-129.0","63d73ed8b1c15ff155c74597","665500ab8938657b03fbdba8","665792bb533974ece4058990","2","stimuli/2110001.jpg","1","","prediction_trial","2","","false","","2","false","true","true","true","false","true","[2]","110","001","0","","","","","","",""
"","","","","","image-keyboard-response","155","105011","0.0-130.0","63d73ed8b1c15ff155c74597","665500ab8938657b03fbdba8","665792bb533974ece4058990","300","stimuli/21100012.jpg"," ","","feedback_trial","2","","","","","","","","","","","","","","","","","","","","",""
"","","","","","image-keyboard-response","156","105083","0.0-131.0","63d73ed8b1c15ff155c74597","665500ab8938657b03fbdba8","665792bb533974ece4058990","71","stimuli/2000010.jpg","0","","prediction_trial","2","","false","","2","true","true","true","true","true","true","[2]","000","010","0","","","","","","",""
"","","","","","image-keyboard-response","157","105316","0.0-132.0","63d73ed8b1c15ff155c74597","665500ab8938657b03fbdba8","665792bb533974ece4058990","231","stimuli/20000102.jpg"," ","","feedback_trial","2","","","","","","","","","","","","","","","","","","","","",""
"","","","","","image-keyboard-response","158","105612","0.0-133.0","63d73ed8b1c15ff155c74597","665500ab8938657b03fbdba8","665792bb533974ece4058990","295","stimuli/1000000.jpg","2","","prediction_trial","1","","false","","1","true","true","true","true","true","true","[1]","000","000","0","","","","","","",""
"","","","","","image-keyboard-response","159","105625","0.0-134.0","63d73ed8b1c15ff155c74597","665500ab8938657b03fbdba8","665792bb533974ece4058990","13","stimuli/10000001.jpg"," ","","feedback_trial","1","","","","","","","","","","","","","","","","","","","","",""
"","","","","","image-keyboard-response","160","105836","0.0-135.0","63d73ed8b1c15ff155c74597","665500ab8938657b03fbdba8","665792bb533974ece4058990","210","stimuli/1001011.jpg","2","","prediction_trial","1","","false","","1","false","false","true","true","false","false","[1]","001","011","0","","","","","","",""
"","","","","","image-keyboard-response","161","105987","0.0-136.0","63d73ed8b1c15ff155c74597","665500ab8938657b03fbdba8","665792bb533974ece4058990","150","stimuli/10010111.jpg"," ","","feedback_trial","1","","","","","","","","","","","","","","","","","","","","",""
"","","","","","image-keyboard-response","162","106075","0.0-137.0","63d73ed8b1c15ff155c74597","665500ab8938657b03fbdba8","665792bb533974ece4058990","88","stimuli/2100100.jpg","2","","prediction_trial","2","","true","","2","true","true","true","true","true","true","[2]","100","100","1","","","","","","",""
"","","","","","image-keyboard-response","163","106387","0.0-138.0","63d73ed8b1c15ff155c74597","665500ab8938657b03fbdba8","665792bb533974ece4058990","310","stimuli/21001002.jpg"," ","","feedback_trial","2","","","","","","","","","","","","","","","","","","","","",""
"","","","","","image-keyboard-response","164","106499","0.0-139.0","63d73ed8b1c15ff155c74597","665500ab8938657b03fbdba8","665792bb533974ece4058990","112","stimuli/0101111.jpg","1","","prediction_trial","0","","false","","0","false","false","false","false","false","false","[2,0]","101","111","0","","","","","","",""
"","","","","","image-keyboard-response","165","106683","0.0-140.0","63d73ed8b1c15ff155c74597","665500ab8938657b03fbdba8","665792bb533974ece4058990","183","stimuli/01011110.jpg"," ","","feedback_trial","2","","","","","","","","","","","","","","","","","","","","",""
"","","","","","image-keyboard-response","166","106691","0.0-141.0","63d73ed8b1c15ff155c74597","665500ab8938657b03fbdba8","665792bb533974ece4058990","6","stimuli/2110101.jpg","1","","prediction_trial","2","","false","","2","false","false","true","true","false","false","[2]","110","101","0","","","","","","",""
"","","","","","image-keyboard-response","167","107043","0.0-142.0","63d73ed8b1c15ff155c74597","665500ab8938657b03fbdba8","665792bb533974ece4058990","352","stimuli/21101012.jpg"," ","","feedback_trial","2","","","","","","","","","","","","","","","","","","","","",""
"","","","","","image-keyboard-response","168","107123","0.0-143.0","63d73ed8b1c15ff155c74597","665500ab8938657b03fbdba8","665792bb533974ece4058990","79","stimuli/0000100.jpg","2","","prediction_trial","0","","false","","0","false","true","true","true","false","true","[0]","000","100","0","","","","","","",""
"","","","","","image-keyboard-response","169","107363","0.0-144.0","63d73ed8b1c15ff155c74597","665500ab8938657b03fbdba8","665792bb533974ece4058990","239","stimuli/00001000.jpg"," ","","feedback_trial","0","","","","","","","","","","","","","","","","","","","","",""
"","","","","","image-keyboard-response","170","107498","0.0-145.0","63d73ed8b1c15ff155c74597","665500ab8938657b03fbdba8","665792bb533974ece4058990","134","stimuli/2011111.jpg","2","","prediction_trial","1","","false","","2","false","false","false","false","false","false","[2,1]","011","111","0","","","","","","",""
"","","","","","image-keyboard-response","171","107682","0.0-146.0","63d73ed8b1c15ff155c74597","665500ab8938657b03fbdba8","665792bb533974ece4058990","183","stimuli/20111111.jpg"," ","","feedback_trial","2","","","","","","","","","","","","","","","","","","","","",""
"","","","","","image-keyboard-response","172","107883","0.0-147.0","63d73ed8b1c15ff155c74597","665500ab8938657b03fbdba8","665792bb533974ece4058990","200","stimuli/0110110.jpg","0","","prediction_trial","1","","false","","0","false","false","false","false","false","false","[0,1]","110","110","0","","","","","","",""
"","","","","","image-keyboard-response","173","108073","0.0-148.0","63d73ed8b1c15ff155c74597","665500ab8938657b03fbdba8","665792bb533974ece4058990","190","stimuli/01101101.jpg"," ","","feedback_trial","0","","","","","","","","","","","","","","","","","","","","",""
"","","","","","image-keyboard-response","174","108179","0.0-149.0","63d73ed8b1c15ff155c74597","665500ab8938657b03fbdba8","665792bb533974ece4058990","105","stimuli/1111001.jpg","1","","prediction_trial","2","","false","","1","true","true","false","false","false","false","[0,1,2]","111","001","0","","","","","","",""
"","","","","","image-keyboard-response","175","108347","0.0-150.0","63d73ed8b1c15ff155c74597","665500ab8938657b03fbdba8","665792bb533974ece4058990","166","stimuli/11110012.jpg"," ","","feedback_trial","0","","","","","","","","","","","","","","","","","","","","",""
"","","","","","image-keyboard-response","176","108354","0.0-151.0","63d73ed8b1c15ff155c74597","665500ab8938657b03fbdba8","665792bb533974ece4058990","6","stimuli/1001001.jpg","1","","prediction_trial","1","","true","","1","true","true","true","true","true","true","[1]","001","001","1","","","","","","",""
"","","","","","image-keyboard-response","177","108731","0.0-152.0","63d73ed8b1c15ff155c74597","665500ab8938657b03fbdba8","665792bb533974ece4058990","376","stimuli/10010011.jpg"," ","","feedback_trial","1","","","","","","","","","","","","","","","","","","","","",""
"","","","","","image-keyboard-response","178","108820","0.0-153.0","63d73ed8b1c15ff155c74597","665500ab8938657b03fbdba8","665792bb533974ece4058990","88","stimuli/1100011.jpg","1","","prediction_trial","1","","true","","1","false","false","true","true","false","false","[1]","100","011","1","","","","","","",""
"","","","","","image-keyboard-response","179","109028","0.0-154.0","63d73ed8b1c15ff155c74597","665500ab8938657b03fbdba8","665792bb533974ece4058990","206","stimuli/11000111.jpg"," ","","feedback_trial","1","","","","","","","","","","","","","","","","","","","","",""
"","","","","","image-keyboard-response","180","109076","0.0-155.0","63d73ed8b1c15ff155c74597","665500ab8938657b03fbdba8","665792bb533974ece4058990","48","stimuli/1010111.jpg","2","","prediction_trial","1","","false","","1","false","false","false","true","false","false","[1]","010","111","0","","","","","","",""
"","","","","","image-keyboard-response","181","109337","0.0-156.0","63d73ed8b1c15ff155c74597","665500ab8938657b03fbdba8","665792bb533974ece4058990","260","stimuli/10101111.jpg"," ","","feedback_trial","1","","","","","","","","","","","","","","","","","","","","",""
"","","","","","image-keyboard-response","182","109368","0.0-157.0","63d73ed8b1c15ff155c74597","665500ab8938657b03fbdba8","665792bb533974ece4058990","31","stimuli/1000111.jpg","2","","prediction_trial","1","","false","","1","false","false","true","true","false","false","[1]","000","111","0","","","","","","",""
"","","","","","image-keyboard-response","183","109580","0.0-158.0","63d73ed8b1c15ff155c74597","665500ab8938657b03fbdba8","665792bb533974ece4058990","211","stimuli/10001111.jpg"," ","","feedback_trial","1","","","","","","","","","","","","","","","","","","","","",""
"","","","","","image-keyboard-response","184","109627","0.0-159.0","63d73ed8b1c15ff155c74597","665500ab8938657b03fbdba8","665792bb533974ece4058990","46","stimuli/2101011.jpg","1","","prediction_trial","2","","false","","2","false","false","false","false","false","false","[2,0]","101","011","0","","","","","","",""
"","","","","","image-keyboard-response","185","109834","0.0-160.0","63d73ed8b1c15ff155c74597","665500ab8938657b03fbdba8","665792bb533974ece4058990","206","stimuli/21010112.jpg"," ","","feedback_trial","2","","","","","","","","","","","","","","","","","","","","",""
"","","","","","image-keyboard-response","186","109890","0.0-161.0","63d73ed8b1c15ff155c74597","665500ab8938657b03fbdba8","665792bb533974ece4058990","55","stimuli/0011100.jpg","1","","prediction_trial","0","","false","","0","false","true","true","true","false","true","[0]","011","100","0","","","","","","",""
"","","","","","image-keyboard-response","187","110074","0.0-162.0","63d73ed8b1c15ff155c74597","665500ab8938657b03fbdba8","665792bb533974ece4058990","184","stimuli/00111000.jpg"," ","","feedback_trial","0","","","","","","","","","","","","","","","","","","","","",""
"","","","","","image-keyboard-response","188","110124","0.0-163.0","63d73ed8b1c15ff155c74597","665500ab8938657b03fbdba8","665792bb533974ece4058990","48","stimuli/2001011.jpg","1","","prediction_trial","2","","false","","2","false","false","false","true","false","false","[2]","001","011","0","","","","","","",""
"","","","","","image-keyboard-response","189","110338","0.0-164.0","63d73ed8b1c15ff155c74597","665500ab8938657b03fbdba8","665792bb533974ece4058990","214","stimuli/20010112.jpg"," ","","feedback_trial","2","","","","","","","","","","","","","","","","","","","","",""
"","","","","","image-keyboard-response","190","110366","0.0-165.0","63d73ed8b1c15ff155c74597","665500ab8938657b03fbdba8","665792bb533974ece4058990","27","stimuli/0000101.jpg","1","","prediction_trial","0","","false","","0","false","false","true","true","false","false","[0]","000","101","0","","","","","","",""
"","","","","","image-keyboard-response","191","110579","0.0-166.0","63d73ed8b1c15ff155c74597","665500ab8938657b03fbdba8","665792bb533974ece4058990","212","stimuli/00001010.jpg"," ","","feedback_trial","0","","","","","","","","","","","","","","","","","","","","",""
"","","","","","image-keyboard-response","192","110620","0.0-167.0","63d73ed8b1c15ff155c74597","665500ab8938657b03fbdba8","665792bb533974ece4058990","40","stimuli/0000111.jpg","1","","prediction_trial","0","","false","","0","false","false","true","true","false","false","[0]","000","111","0","","","","","","",""
"","","","","","image-keyboard-response","193","110836","0.0-168.0","63d73ed8b1c15ff155c74597","665500ab8938657b03fbdba8","665792bb533974ece4058990","215","stimuli/00001110.jpg"," ","","feedback_trial","0","","","","","","","","","","","","","","","","","","","","",""
"","","","","","image-keyboard-response","194","110884","0.0-169.0","63d73ed8b1c15ff155c74597","665500ab8938657b03fbdba8","665792bb533974ece4058990","47","stimuli/1001000.jpg","1","","prediction_trial","1","","true","","1","true","true","true","true","true","true","[1]","001","000","1","","","","","","",""
"","","","","","image-keyboard-response","195","111067","0.0-170.0","63d73ed8b1c15ff155c74597","665500ab8938657b03fbdba8","665792bb533974ece4058990","182","stimuli/10010001.jpg"," ","","feedback_trial","1","","","","","","","","","","","","","","","","","","","","",""
"","","","","","image-keyboard-response","196","111108","0.0-171.0","63d73ed8b1c15ff155c74597","665500ab8938657b03fbdba8","665792bb533974ece4058990","40","stimuli/0000010.jpg","1","","prediction_trial","0","","false","","0","true","true","true","true","true","true","[0]","000","010","0","","","","","","",""
"","","","","","image-keyboard-response","197","111307","0.0-172.0","63d73ed8b1c15ff155c74597","665500ab8938657b03fbdba8","665792bb533974ece4058990","198","stimuli/00000100.jpg"," ","","feedback_trial","0","","","","","","","","","","","","","","","","","","","","",""
"","","","","","image-keyboard-response","198","111338","0.0-173.0","63d73ed8b1c15ff155c74597","665500ab8938657b03fbdba8","665792bb533974ece4058990","31","stimuli/1100001.jpg","1","","prediction_trial","1","","true","","1","true","true","true","true","true","true","[1]","100","001","1","","","","","","",""
"","","","","","image-keyboard-response","199","111545","0.0-174.0","63d73ed8b1c15ff155c74597","665500ab8938657b03fbdba8","665792bb533974ece4058990","206","stimuli/11000011.jpg"," ","","feedback_trial","1","","","","","","","","","","","","","","","","","","","","",""
"","","","","","image-keyboard-response","200","111571","0.0-175.0","63d73ed8b1c15ff155c74597","665500ab8938657b03fbdba8","665792bb533974ece4058990","24","stimuli/0110100.jpg","1","","prediction_trial","0","","false","","0","false","true","false","false","false","false","[1,0]","110","100","0","","","","","","",""
"","","","","","image-keyboard-response","201","111763","0.0-176.0","63d73ed8b1c15ff155c74597","665500ab8938657b03fbdba8","665792bb533974ece4058990","192","stimuli/01101000.jpg"," ","","feedback_trial","1","","","","","","","","","","","","","","","","","","","","",""
"","","","","","image-keyboard-response","202","111803","0.0-177.0","63d73ed8b1c15ff155c74597","665500ab8938657b03fbdba8","665792bb533974ece4058990","38","stimuli/0110010.jpg","1","","prediction_trial","0","","false","","0","true","true","false","false","false","false","[1,0]","110","010","0","","","","","","",""
"","","","","","image-keyboard-response","203","111996","0.0-178.0","63d73ed8b1c15ff155c74597","665500ab8938657b03fbdba8","665792bb533974ece4058990","191","stimuli/01100100.jpg"," ","","feedback_trial","1","","","","","","","","","","","","","","","","","","","","",""
"","","","","","image-keyboard-response","204","112026","0.0-179.0","63d73ed8b1c15ff155c74597","665500ab8938657b03fbdba8","665792bb533974ece4058990","29","stimuli/0101101.jpg","1","","prediction_trial","0","","false","","0","false","false","false","false","false","false","[0,2]","101","101","0","","","","","","",""
"","","","","","image-keyboard-response","205","112211","0.0-180.0","63d73ed8b1c15ff155c74597","665500ab8938657b03fbdba8","665792bb533974ece4058990","184","stimuli/01011010.jpg"," ","","feedback_trial","0","","","","","","","","","","","","","","","","","","","","",""
"","","","","","image-keyboard-response","206","112260","0.0-181.0","63d73ed8b1c15ff155c74597","665500ab8938657b03fbdba8","665792bb533974ece4058990","48","stimuli/2110010.jpg","1","","prediction_trial","2","","false","","2","true","true","true","true","true","true","[2]","110","010","0","","","","","","",""
"","","","","","image-keyboard-response","207","112427","0.0-182.0","63d73ed8b1c15ff155c74597","665500ab8938657b03fbdba8","665792bb533974ece4058990","166","stimuli/21100102.jpg"," ","","feedback_trial","2","","","","","","","","","","","","","","","","","","","","",""
"","","","","","image-keyboard-response","208","112467","0.0-183.0","63d73ed8b1c15ff155c74597","665500ab8938657b03fbdba8","665792bb533974ece4058990","38","stimuli/0011101.jpg","1","","prediction_trial","0","","false","","0","false","false","true","true","false","false","[0]","011","101","0","","","","","","",""
"","","","","","image-keyboard-response","209","112708","0.0-184.0","63d73ed8b1c15ff155c74597","665500ab8938657b03fbdba8","665792bb533974ece4058990","240","stimuli/00111010.jpg"," ","","feedback_trial","0","","","","","","","","","","","","","","","","","","","","",""
"","","","","","image-keyboard-response","210","112828","0.0-185.0","63d73ed8b1c15ff155c74597","665500ab8938657b03fbdba8","665792bb533974ece4058990","119","stimuli/2000001.jpg","0","","prediction_trial","2","","false","","2","false","true","true","true","false","true","[2]","000","001","0","","","","","","",""
"","","","","","image-keyboard-response","211","112964","0.0-186.0","63d73ed8b1c15ff155c74597","665500ab8938657b03fbdba8","665792bb533974ece4058990","134","stimuli/20000012.jpg"," ","","feedback_trial","2","","","","","","","","","","","","","","","","","","","","",""
"","","","","","image-keyboard-response","212","113037","0.0-187.0","63d73ed8b1c15ff155c74597","665500ab8938657b03fbdba8","665792bb533974ece4058990","73","stimuli/0111000.jpg","0","","prediction_trial","0","","true","","0","true","true","false","false","false","false","[2,1,0]","111","000","1","","","","","","",""
"","","","","","image-keyboard-response","213","113236","0.0-188.0","63d73ed8b1c15ff155c74597","665500ab8938657b03fbdba8","665792bb533974ece4058990","197","stimuli/01110000.jpg"," ","","feedback_trial","2","","","","","","","","","","","","","","","","","","","","",""
"","","","","","image-keyboard-response","214","113239","0.0-189.0","63d73ed8b1c15ff155c74597","665500ab8938657b03fbdba8","665792bb533974ece4058990","3","stimuli/0100001.jpg","0","","prediction_trial","0","","true","","0","true","true","false","true","false","true","[0]","100","001","1","","","","","","",""
"","","","","","image-keyboard-response","215","113468","0.0-190.0","63d73ed8b1c15ff155c74597","665500ab8938657b03fbdba8","665792bb533974ece4058990","227","stimuli/01000010.jpg"," ","","feedback_trial","0","","","","","","","","","","","","","","","","","","","","",""
"","","","","","image-keyboard-response","216","113540","0.0-191.0","63d73ed8b1c15ff155c74597","665500ab8938657b03fbdba8","665792bb533974ece4058990","71","stimuli/1110100.jpg","0","","prediction_trial","1","","false","","1","true","true","false","false","false","false","[1,0]","110","100","0","","","","","","",""
"","","","","","image-keyboard-response","217","113715","0.0-192.0","63d73ed8b1c15ff155c74597","665500ab8938657b03fbdba8","665792bb533974ece4058990","174","stimuli/11101001.jpg"," ","","feedback_trial","1","","","","","","","","","","","","","","","","","","","","",""
"","","","","","image-keyboard-response","218","113836","0.0-193.0","63d73ed8b1c15ff155c74597","665500ab8938657b03fbdba8","665792bb533974ece4058990","119","stimuli/2111101.jpg","1","","prediction_trial","2","","false","","2","false","false","false","false","false","false","[2,1,0]","111","101","0","","","","","","",""
"","","","","","image-keyboard-response","219","113980","0.0-194.0","63d73ed8b1c15ff155c74597","665500ab8938657b03fbdba8","665792bb533974ece4058990","143","stimuli/21111012.jpg"," ","","feedback_trial","2","","","","","","","","","","","","","","","","","","","","",""
"","","","","","image-keyboard-response","220","114053","0.0-195.0","63d73ed8b1c15ff155c74597","665500ab8938657b03fbdba8","665792bb533974ece4058990","72","stimuli/1111110.jpg","1","","prediction_trial","1","","true","","1","false","false","false","false","false","false","[1,0,2]","111","110","1","","","","","","",""
"","","","","","image-keyboard-response","221","114252","0.0-196.0","63d73ed8b1c15ff155c74597","665500ab8938657b03fbdba8","665792bb533974ece4058990","198","stimuli/11111101.jpg"," ","","feedback_trial","1","","","","","","","","","","","","","","","","","","","","",""
"","","","","","image-keyboard-response","222","114255","0.0-197.0","63d73ed8b1c15ff155c74597","665500ab8938657b03fbdba8","665792bb533974ece4058990","2","stimuli/1111111.jpg","1","","prediction_trial","1","","true","","1","false","false","false","false","false","false","[1,0,2]","111","111","1","","","","","","",""
"","","","","","image-keyboard-response","223","114524","0.0-198.0","63d73ed8b1c15ff155c74597","665500ab8938657b03fbdba8","665792bb533974ece4058990","268","stimuli/11111111.jpg"," ","","feedback_trial","1","","","","","","","","","","","","","","","","","","","","",""
"","","","","","image-keyboard-response","224","114549","0.0-199.0","63d73ed8b1c15ff155c74597","665500ab8938657b03fbdba8","665792bb533974ece4058990","24","stimuli/1101010.jpg","1","","prediction_trial","1","","true","","1","false","true","true","true","false","true","[1]","101","010","1","","","","","","",""
"","","","","","image-keyboard-response","225","114780","0.0-200.0","63d73ed8b1c15ff155c74597","665500ab8938657b03fbdba8","665792bb533974ece4058990","229","stimuli/11010101.jpg"," ","","feedback_trial","1","","","","","","","","","","","","","","","","","","","","",""
"","","","","","image-keyboard-response","226","114845","0.0-201.0","63d73ed8b1c15ff155c74597","665500ab8938657b03fbdba8","665792bb533974ece4058990","65","stimuli/2110000.jpg","1","","prediction_trial","2","","false","","2","true","true","true","true","true","true","[2]","110","000","0","","","","","","",""
"","","","","","image-keyboard-response","227","115028","0.0-202.0","63d73ed8b1c15ff155c74597","665500ab8938657b03fbdba8","665792bb533974ece4058990","181","stimuli/21100002.jpg"," ","","feedback_trial","2","","","","","","","","","","","","","","","","","","","","",""
"","","","","","image-keyboard-response","228","115076","0.0-203.0","63d73ed8b1c15ff155c74597","665500ab8938657b03fbdba8","665792bb533974ece4058990","47","stimuli/1101101.jpg","1","","prediction_trial","1","","true","","1","true","true","true","true","true","true","[1]","101","101","1","","","","","","",""
"","","","","","image-keyboard-response","229","115283","0.0-204.0","63d73ed8b1c15ff155c74597","665500ab8938657b03fbdba8","665792bb533974ece4058990","206","stimuli/11011011.jpg"," ","","feedback_trial","1","","","","","","","","","","","","","","","","","","","","",""
"","","","","","image-keyboard-response","230","115321","0.0-205.0","63d73ed8b1c15ff155c74597","665500ab8938657b03fbdba8","665792bb533974ece4058990","36","stimuli/1101001.jpg","1","","prediction_trial","1","","true","","1","true","true","true","true","true","true","[1]","101","001","1","","","","","","",""
"","","","","","image-keyboard-response","231","115548","0.0-206.0","63d73ed8b1c15ff155c74597","665500ab8938657b03fbdba8","665792bb533974ece4058990","226","stimuli/11010011.jpg"," ","","feedback_trial","1","","","","","","","","","","","","","","","","","","","","",""
"","","","","","image-keyboard-response","232","115552","0.0-207.0","63d73ed8b1c15ff155c74597","665500ab8938657b03fbdba8","665792bb533974ece4058990","2","stimuli/1000110.jpg","2","","prediction_trial","1","","false","","1","false","false","true","true","false","false","[1]","000","110","0","","","","","","",""
"","","","","","image-keyboard-response","233","115764","0.0-208.0","63d73ed8b1c15ff155c74597","665500ab8938657b03fbdba8","665792bb533974ece4058990","211","stimuli/10001101.jpg"," ","","feedback_trial","1","","","","","","","","","","","","","","","","","","","","",""
"","","","","","image-keyboard-response","234","116068","0.0-209.0","63d73ed8b1c15ff155c74597","665500ab8938657b03fbdba8","665792bb533974ece4058990","303","stimuli/1010000.jpg","2","","prediction_trial","1","","false","","1","true","true","false","true","false","true","[1]","010","000","0","","","","","","",""
"","","","","","image-keyboard-response","235","116412","0.0-210.0","63d73ed8b1c15ff155c74597","665500ab8938657b03fbdba8","665792bb533974ece4058990","342","stimuli/10100001.jpg"," ","","feedback_trial","1","","","","","","","","","","","","","","","","","","","","",""
"","","","","","image-keyboard-response","236","116509","0.0-211.0","63d73ed8b1c15ff155c74597","665500ab8938657b03fbdba8","665792bb533974ece4058990","96","stimuli/2001000.jpg","0","","prediction_trial","2","","false","","2","true","true","false","true","false","true","[2]","001","000","0","","","","","","",""
"","","","","","image-keyboard-response","237","116708","0.0-212.0","63d73ed8b1c15ff155c74597","665500ab8938657b03fbdba8","665792bb533974ece4058990","197","stimuli/20010002.jpg"," ","","feedback_trial","2","","","","","","","","","","","","","","","","","","","","",""
"","","","","","image-keyboard-response","238","116711","0.0-213.0","63d73ed8b1c15ff155c74597","665500ab8938657b03fbdba8","665792bb533974ece4058990","2","stimuli/0010101.jpg","1","","prediction_trial","0","","false","","0","false","false","true","true","false","false","[0]","010","101","0","","","","","","",""
"","","","","","image-keyboard-response","239","116932","0.0-214.0","63d73ed8b1c15ff155c74597","665500ab8938657b03fbdba8","665792bb533974ece4058990","220","stimuli/00101010.jpg"," ","","feedback_trial","0","","","","","","","","","","","","","","","","","","","","",""
"","","","","","image-keyboard-response","240","116996","0.0-215.0","63d73ed8b1c15ff155c74597","665500ab8938657b03fbdba8","665792bb533974ece4058990","63","stimuli/1001101.jpg","1","","prediction_trial","1","","true","","1","true","true","true","true","true","true","[1]","001","101","1","","","","","","",""
"","","","","","image-keyboard-response","241","117172","0.0-216.0","63d73ed8b1c15ff155c74597","665500ab8938657b03fbdba8","665792bb533974ece4058990","174","stimuli/10011011.jpg"," ","","feedback_trial","1","","","","","","","","","","","","","","","","","","","","",""
"","","","","","image-keyboard-response","242","117212","0.0-217.0","63d73ed8b1c15ff155c74597","665500ab8938657b03fbdba8","665792bb533974ece4058990","39","stimuli/1010001.jpg","1","","prediction_trial","1","","true","","1","true","true","false","true","false","true","[1]","010","001","1","","","","","","",""
"","","","","","image-keyboard-response","243","117412","0.0-218.0","63d73ed8b1c15ff155c74597","665500ab8938657b03fbdba8","665792bb533974ece4058990","199","stimuli/10100011.jpg"," ","","feedback_trial","1","","","","","","","","","","","","","","","","","","","","",""
"","","","","","image-keyboard-response","244","117501","0.0-219.0","63d73ed8b1c15ff155c74597","665500ab8938657b03fbdba8","665792bb533974ece4058990","88","stimuli/2001111.jpg","0","","prediction_trial","2","","false","","2","false","false","false","true","false","false","[2]","001","111","0","","","","","","",""
"","","","","","image-keyboard-response","245","117681","0.0-220.0","63d73ed8b1c15ff155c74597","665500ab8938657b03fbdba8","665792bb533974ece4058990","179","stimuli/20011112.jpg"," ","","feedback_trial","2","","","","","","","","","","","","","","","","","","","","",""
"","","","","","image-keyboard-response","246","117944","0.0-221.0","63d73ed8b1c15ff155c74597","665500ab8938657b03fbdba8","665792bb533974ece4058990","262","stimuli/1011111.jpg","1","","prediction_trial","2","","false","","1","false","false","false","false","false","false","[1,2]","011","111","0","","","","","","",""
"","","","","","image-keyboard-response","247","118010","0.0-222.0","63d73ed8b1c15ff155c74597","665500ab8938657b03fbdba8","665792bb533974ece4058990","65","stimuli/10111112.jpg"," ","","feedback_trial","1","","","","","","","","","","","","","","","","","","","","",""
"","","","","","image-keyboard-response","248","118160","0.0-223.0","63d73ed8b1c15ff155c74597","665500ab8938657b03fbdba8","665792bb533974ece4058990","149","stimuli/2110100.jpg","1","","prediction_trial","2","","false","","2","true","true","true","true","true","true","[2]","110","100","0","","","","","","",""
"","","","","","image-keyboard-response","249","118297","0.0-224.0","63d73ed8b1c15ff155c74597","665500ab8938657b03fbdba8","665792bb533974ece4058990","136","stimuli/21101002.jpg"," ","","feedback_trial","2","","","","","","","","","","","","","","","","","","","","",""
"","","","","","image-keyboard-response","250","118379","0.0-225.0","63d73ed8b1c15ff155c74597","665500ab8938657b03fbdba8","665792bb533974ece4058990","81","stimuli/0111011.jpg","1","","prediction_trial","2","","false","","0","true","true","false","false","false","false","[1,0,2]","111","011","0","","","","","","",""
"","","","","","image-keyboard-response","251","118571","0.0-226.0","63d73ed8b1c15ff155c74597","665500ab8938657b03fbdba8","665792bb533974ece4058990","192","stimuli/01110112.jpg"," ","","feedback_trial","1","","","","","","","","","","","","","","","","","","","","",""
"","","","","","image-keyboard-response","252","118603","0.0-227.0","63d73ed8b1c15ff155c74597","665500ab8938657b03fbdba8","665792bb533974ece4058990","31","stimuli/1011011.jpg","1","","prediction_trial","2","","false","","1","false","false","false","false","false","false","[1,2]","011","011","0","","","","","","",""
"","","","","","image-keyboard-response","253","118912","0.0-228.0","63d73ed8b1c15ff155c74597","665500ab8938657b03fbdba8","665792bb533974ece4058990","308","stimuli/10110112.jpg"," ","","feedback_trial","1","","","","","","","","","","","","","","","","","","","","",""
"","","","","","image-keyboard-response","254","119002","0.0-229.0","63d73ed8b1c15ff155c74597","665500ab8938657b03fbdba8","665792bb533974ece4058990","89","stimuli/2101101.jpg","2","","prediction_trial","0","","false","","2","false","false","false","false","false","false","[2,0]","101","101","0","","","","","","",""
"","","","","","image-keyboard-response","255","119168","0.0-230.0","63d73ed8b1c15ff155c74597","665500ab8938657b03fbdba8","665792bb533974ece4058990","165","stimuli/21011010.jpg"," ","","feedback_trial","2","","","","","","","","","","","","","","","","","","","","",""
"","","","","","image-keyboard-response","256","119176","0.0-231.0","63d73ed8b1c15ff155c74597","665500ab8938657b03fbdba8","665792bb533974ece4058990","8","stimuli/2100110.jpg","2","","prediction_trial","2","","true","","2","true","true","true","true","true","true","[2]","100","110","1","","","","","","",""
"","","","","","image-keyboard-response","257","119475","0.0-232.0","63d73ed8b1c15ff155c74597","665500ab8938657b03fbdba8","665792bb533974ece4058990","299","stimuli/21001102.jpg"," ","","feedback_trial","2","","","","","","","","","","","","","","","","","","","","",""
"","","","","","image-keyboard-response","258","119569","0.0-233.0","63d73ed8b1c15ff155c74597","665500ab8938657b03fbdba8","665792bb533974ece4058990","92","stimuli/0011010.jpg","0","","prediction_trial","0","","true","","0","true","true","true","true","true","true","[0]","011","010","1","","","","","","",""
"","","","","","image-keyboard-response","259","119729","0.0-234.0","63d73ed8b1c15ff155c74597","665500ab8938657b03fbdba8","665792bb533974ece4058990","160","stimuli/00110100.jpg"," ","","feedback_trial","0","","","","","","","","","","","","","","","","","","","","",""
"","","","","","image-keyboard-response","260","119753","0.0-235.0","63d73ed8b1c15ff155c74597","665500ab8938657b03fbdba8","665792bb533974ece4058990","23","stimuli/2101110.jpg","0","","prediction_trial","2","","false","","2","true","true","false","false","false","false","[0,2]","101","110","0","","","","","","",""
"","","","","","image-keyboard-response","261","120088","0.0-236.0","63d73ed8b1c15ff155c74597","665500ab8938657b03fbdba8","665792bb533974ece4058990","334","stimuli/21011102.jpg"," ","","feedback_trial","0","","","","","","","","","","","","","","","","","","","","",""
"","","","","","image-keyboard-response","262","120193","0.0-237.0","63d73ed8b1c15ff155c74597","665500ab8938657b03fbdba8","665792bb533974ece4058990","104","stimuli/2010000.jpg","1","","prediction_trial","2","","false","","2","true","true","true","true","true","true","[2]","010","000","0","","","","","","",""
"","","","","","image-keyboard-response","263","120384","0.0-238.0","63d73ed8b1c15ff155c74597","665500ab8938657b03fbdba8","665792bb533974ece4058990","190","stimuli/20100002.jpg"," ","","feedback_trial","2","","","","","","","","","","","","","","","","","","","","",""
"","","","","","image-keyboard-response","264","120386","0.0-239.0","63d73ed8b1c15ff155c74597","665500ab8938657b03fbdba8","665792bb533974ece4058990","1","stimuli/2011100.jpg","1","","prediction_trial","1","","true","","2","true","true","false","false","false","false","[2,1]","011","100","1","","","","","","",""
"","","","","","image-keyboard-response","265","120699","0.0-240.0","63d73ed8b1c15ff155c74597","665500ab8938657b03fbdba8","665792bb533974ece4058990","312","stimuli/20111001.jpg"," ","","feedback_trial","2","","","","","","","","","","","","","","","","","","","","",""
"","","","","","image-keyboard-response","266","120773","0.0-241.0","63d73ed8b1c15ff155c74597","665500ab8938657b03fbdba8","665792bb533974ece4058990","73","stimuli/1101110.jpg","2","","prediction_trial","1","","false","","1","false","false","true","true","false","false","[1]","101","110","0","","","","","","",""
"","","","","","image-keyboard-response","267","120970","0.0-242.0","63d73ed8b1c15ff155c74597","665500ab8938657b03fbdba8","665792bb533974ece4058990","197","stimuli/11011101.jpg"," ","","feedback_trial","1","","","","","","","","","","","","","","","","","","","","",""
"","","","","","image-keyboard-response","268","120973","0.0-243.0","63d73ed8b1c15ff155c74597","665500ab8938657b03fbdba8","665792bb533974ece4058990","2","stimuli/1011000.jpg","2","","prediction_trial","2","","true","","1","true","true","false","false","false","false","[2,1]","011","000","1","","","","","","",""
"","","","","","image-keyboard-response","269","121353","0.0-244.0","63d73ed8b1c15ff155c74597","665500ab8938657b03fbdba8","665792bb533974ece4058990","378","stimuli/10110002.jpg"," ","","feedback_trial","2","","","","","","","","","","","","","","","","","","","","",""
"","","","","","image-keyboard-response","270","121400","0.0-245.0","63d73ed8b1c15ff155c74597","665500ab8938657b03fbdba8","665792bb533974ece4058990","47","stimuli/1110001.jpg","1","","prediction_trial","0","","false","","1","true","true","false","false","false","false","[0,1]","110","001","0","","","","","","",""
"","","","","","image-keyboard-response","271","121736","0.0-246.0","63d73ed8b1c15ff155c74597","665500ab8938657b03fbdba8","665792bb533974ece4058990","335","stimuli/11100010.jpg"," ","","feedback_trial","0","","","","","","","","","","","","","","","","","","","","",""
"","","","","","image-keyboard-response","272","121835","0.0-247.0","63d73ed8b1c15ff155c74597","665500ab8938657b03fbdba8","665792bb533974ece4058990","98","stimuli/0011011.jpg","1","","prediction_trial","0","","false","","0","true","true","true","true","true","true","[0]","011","011","0","","","","","","",""
"","","","","","image-keyboard-response","273","122051","0.0-248.0","63d73ed8b1c15ff155c74597","665500ab8938657b03fbdba8","665792bb533974ece4058990","215","stimuli/00110110.jpg"," ","","feedback_trial","0","","","","","","","","","","","","","","","","","","","","",""
"","","","","","image-keyboard-response","274","122115","0.0-249.0","63d73ed8b1c15ff155c74597","665500ab8938657b03fbdba8","665792bb533974ece4058990","63","stimuli/0010011.jpg","1","","prediction_trial","0","","false","","0","true","true","true","true","true","true","[0]","010","011","0","","","","","","",""
"","","","","","image-keyboard-response","275","122306","0.0-250.0","63d73ed8b1c15ff155c74597","665500ab8938657b03fbdba8","665792bb533974ece4058990","190","stimuli/00100110.jpg"," ","","feedback_trial","0","","","","","","","","","","","","","","","","","","","","",""
"","","","","","image-keyboard-response","276","122356","0.0-251.0","63d73ed8b1c15ff155c74597","665500ab8938657b03fbdba8","665792bb533974ece4058990","48","stimuli/0011110.jpg","1","","prediction_trial","0","","false","","0","false","false","true","true","false","false","[0]","011","110","0","","","","","","",""
"","","","","","image-keyboard-response","277","122690","0.0-252.0","63d73ed8b1c15ff155c74597","665500ab8938657b03fbdba8","665792bb533974ece4058990","334","stimuli/00111100.jpg"," ","","feedback_trial","0","","","","","","","","","","","","","","","","","","","","",""
"","","","","","image-keyboard-response","278","122796","0.0-253.0","63d73ed8b1c15ff155c74597","665500ab8938657b03fbdba8","665792bb533974ece4058990","104","stimuli/0001011.jpg","1","","prediction_trial","0","","false","","0","true","true","true","true","true","true","[0]","001","011","0","","","","","","",""
"","","","","","image-keyboard-response","279","123123","0.0-254.0","63d73ed8b1c15ff155c74597","665500ab8938657b03fbdba8","665792bb533974ece4058990","326","stimuli/00010110.jpg"," ","","feedback_trial","0","","","","","","","","","","","","","","","","","","","","",""
"","","","","","image-keyboard-response","280","123196","0.0-255.0","63d73ed8b1c15ff155c74597","665500ab8938657b03fbdba8","665792bb533974ece4058990","71","stimuli/2000101.jpg","2","","prediction_trial","2","","true","","2","false","false","true","true","false","false","[2]","000","101","1","","","","","","",""
"","","","","","image-keyboard-response","281","123427","0.0-256.0","63d73ed8b1c15ff155c74597","665500ab8938657b03fbdba8","665792bb533974ece4058990","230","stimuli/20001012.jpg"," ","","feedback_trial","2","","","","","","","","","","","","","","","","","","","","",""
"","","","","","image-keyboard-response","282","123571","0.0-257.0","63d73ed8b1c15ff155c74597","665500ab8938657b03fbdba8","665792bb533974ece4058990","143","stimuli/1101100.jpg","1","","prediction_trial","1","","true","","1","true","true","true","true","true","true","[1]","101","100","1","","","","","","",""
"","","","","","image-keyboard-response","283","123762","0.0-258.0","63d73ed8b1c15ff155c74597","665500ab8938657b03fbdba8","665792bb533974ece4058990","190","stimuli/11011001.jpg"," ","","feedback_trial","1","","","","","","","","","","","","","","","","","","","","",""
"","","","","","image-keyboard-response","284","123914","0.0-259.0","63d73ed8b1c15ff155c74597","665500ab8938657b03fbdba8","665792bb533974ece4058990","152","stimuli/1100010.jpg","2","","prediction_trial","1","","false","","1","false","true","true","true","false","true","[1]","100","010","0","","","","","","",""
"","","","","","image-keyboard-response","285","124066","0.0-260.0","63d73ed8b1c15ff155c74597","665500ab8938657b03fbdba8","665792bb533974ece4058990","150","stimuli/11000101.jpg"," ","","feedback_trial","1","","","","","","","","","","","","","","","","","","","","",""
"","","","","","image-keyboard-response","286","124115","0.0-261.0","63d73ed8b1c15ff155c74597","665500ab8938657b03fbdba8","665792bb533974ece4058990","48","stimuli/0111010.jpg","2","","prediction_trial","1","","false","","0","true","true","false","false","false","false","[2,1,0]","111","010","0","","","","","","",""
"","","","","","image-keyboard-response","287","124394","0.0-262.0","63d73ed8b1c15ff155c74597","665500ab8938657b03fbdba8","665792bb533974ece4058990","278","stimuli/01110101.jpg"," ","","feedback_trial","2","","","","","","","","","","","","","","","","","","","","",""
"","","","","","image-keyboard-response","288","124452","0.0-263.0","63d73ed8b1c15ff155c74597","665500ab8938657b03fbdba8","665792bb533974ece4058990","56","stimuli/1000100.jpg","1","","prediction_trial","1","","true","","1","true","true","true","true","true","true","[1]","000","100","1","","","","","","",""
"","","","","","image-keyboard-response","289","124715","0.0-264.0","63d73ed8b1c15ff155c74597","665500ab8938657b03fbdba8","665792bb533974ece4058990","262","stimuli/10001001.jpg"," ","","feedback_trial","1","","","","","","","","","","","","","","","","","","","","",""
"","","","","","image-keyboard-response","290","124811","0.0-265.0","63d73ed8b1c15ff155c74597","665500ab8938657b03fbdba8","665792bb533974ece4058990","95","stimuli/2110111.jpg","1","","prediction_trial","2","","false","","2","false","false","true","true","false","false","[2]","110","111","0","","","","","","",""
"","","","","","image-keyboard-response","291","125020","0.0-266.0","63d73ed8b1c15ff155c74597","665500ab8938657b03fbdba8","665792bb533974ece4058990","207","stimuli/21101112.jpg"," ","","feedback_trial","2","","","","","","","","","","","","","","","","","","","","",""
"","","","","","image-keyboard-response","292","125172","0.0-267.0","63d73ed8b1c15ff155c74597","665500ab8938657b03fbdba8","665792bb533974ece4058990","151","stimuli/1111011.jpg","1","","prediction_trial","1","","true","","1","false","false","false","false","false","false","[0,2,1]","111","011","1","","","","","","",""
"","","","","","image-keyboard-response","293","125330","0.0-268.0","63d73ed8b1c15ff155c74597","665500ab8938657b03fbdba8","665792bb533974ece4058990","157","stimuli/11110111.jpg"," ","","feedback_trial","0","","","","","","","","","","","","","","","","","","","","",""
"","","","","","image-keyboard-response","294","125388","0.0-269.0","63d73ed8b1c15ff155c74597","665500ab8938657b03fbdba8","665792bb533974ece4058990","57","stimuli/1110011.jpg","0","","prediction_trial","0","","true","","1","false","false","false","false","false","false","[0,1]","110","011","1","","","","","","",""
"","","","","","image-keyboard-response","295","125699","0.0-270.0","63d73ed8b1c15ff155c74597","665500ab8938657b03fbdba8","665792bb533974ece4058990","309","stimuli/11100110.jpg"," ","","feedback_trial","0","","","","","","","","","","","","","","","","","","","","",""
"","","","","","image-keyboard-response","296","125755","0.0-271.0","63d73ed8b1c15ff155c74597","665500ab8938657b03fbdba8","665792bb533974ece4058990","55","stimuli/2001010.jpg","1","","prediction_trial","2","","false","","2","true","true","false","true","false","true","[2]","001","010","0","","","","","","",""
"","","","","","image-keyboard-response","297","125971","0.0-272.0","63d73ed8b1c15ff155c74597","665500ab8938657b03fbdba8","665792bb533974ece4058990","216","stimuli/20010102.jpg"," ","","feedback_trial","2","","","","","","","","","","","","","","","","","","","","",""
"","","","","","image-keyboard-response","298","126107","0.0-273.0","63d73ed8b1c15ff155c74597","665500ab8938657b03fbdba8","665792bb533974ece4058990","135","stimuli/2010010.jpg","1","","prediction_trial","2","","false","","2","true","true","true","true","true","true","[2]","010","010","0","","","","","","",""
"","","","","","image-keyboard-response","299","126227","0.0-274.0","63d73ed8b1c15ff155c74597","665500ab8938657b03fbdba8","665792bb533974ece4058990","118","stimuli/20100102.jpg"," ","","feedback_trial","2","","","","","","","","","","","","","","","","","","","","",""
"","","","","","image-keyboard-response","300","126276","0.0-275.0","63d73ed8b1c15ff155c74597","665500ab8938657b03fbdba8","665792bb533974ece4058990","48","stimuli/0100010.jpg","1","","prediction_trial","0","","false","","0","true","true","false","true","false","true","[0]","100","010","0","","","","","","",""
"","","","","","image-keyboard-response","301","126523","0.0-276.0","63d73ed8b1c15ff155c74597","665500ab8938657b03fbdba8","665792bb533974ece4058990","246","stimuli/01000100.jpg"," ","","feedback_trial","0","","","","","","","","","","","","","","","","","","","","",""
"","","","","","image-keyboard-response","302","126635","0.0-277.0","63d73ed8b1c15ff155c74597","665500ab8938657b03fbdba8","665792bb533974ece4058990","110","stimuli/0000110.jpg","0","","prediction_trial","0","","true","","0","false","false","true","true","false","false","[0]","000","110","1","","","","","","",""
"","","","","","image-keyboard-response","303","126755","0.0-278.0","63d73ed8b1c15ff155c74597","665500ab8938657b03fbdba8","665792bb533974ece4058990","120","stimuli/00001100.jpg"," ","","feedback_trial","0","","","","","","","","","","","","","","","","","","","","",""
"","","","","","image-keyboard-response","304","126836","0.0-279.0","63d73ed8b1c15ff155c74597","665500ab8938657b03fbdba8","665792bb533974ece4058990","80","stimuli/2101111.jpg","0","","prediction_trial","2","","false","","2","false","false","false","false","false","false","[0,2]","101","111","0","","","","","","",""
"","","","","","image-keyboard-response","305","127027","0.0-280.0","63d73ed8b1c15ff155c74597","665500ab8938657b03fbdba8","665792bb533974ece4058990","190","stimuli/21011112.jpg"," ","","feedback_trial","0","","","","","","","","","","","","","","","","","","","","",""
"","","","","","image-keyboard-response","306","127204","0.0-281.0","63d73ed8b1c15ff155c74597","665500ab8938657b03fbdba8","665792bb533974ece4058990","176","stimuli/0101010.jpg","0","","prediction_trial","0","","true","","0","true","true","false","false","false","false","[2,0]","101","010","1","","","","","","",""
"","","","","","image-keyboard-response","307","127306","0.0-282.0","63d73ed8b1c15ff155c74597","665500ab8938657b03fbdba8","665792bb533974ece4058990","102","stimuli/01010100.jpg"," ","","feedback_trial","2","","","","","","","","","","","","","","","","","","","","",""
"","","","","","image-keyboard-response","308","127411","0.0-283.0","63d73ed8b1c15ff155c74597","665500ab8938657b03fbdba8","665792bb533974ece4058990","103","stimuli/0000001.jpg","0","","prediction_trial","0","","true","","0","true","true","true","true","true","true","[0]","000","001","1","","","","","","",""
"","","","","","image-keyboard-response","309","127579","0.0-284.0","63d73ed8b1c15ff155c74597","665500ab8938657b03fbdba8","665792bb533974ece4058990","167","stimuli/00000010.jpg"," ","","feedback_trial","0","","","","","","","","","","","","","","","","","","","","",""
"","","","","","image-keyboard-response","310","127756","0.0-285.0","63d73ed8b1c15ff155c74597","665500ab8938657b03fbdba8","665792bb533974ece4058990","176","stimuli/1011100.jpg","1","","prediction_trial","2","","false","","1","true","true","false","false","false","false","[2,1]","011","100","0","","","","","","",""
"","","","","","image-keyboard-response","311","127899","0.0-286.0","63d73ed8b1c15ff155c74597","665500ab8938657b03fbdba8","665792bb533974ece4058990","142","stimuli/10111002.jpg"," ","","feedback_trial","2","","","","","","","","","","","","","","","","","","","","",""
"","","","","","image-keyboard-response","312","127925","0.0-287.0","63d73ed8b1c15ff155c74597","665500ab8938657b03fbdba8","665792bb533974ece4058990","26","stimuli/0001100.jpg","1","","prediction_trial","0","","false","","0","false","true","true","true","false","true","[0]","001","100","0","","","","","","",""
"","","","","","image-keyboard-response","313","128188","0.0-288.0","63d73ed8b1c15ff155c74597","665500ab8938657b03fbdba8","665792bb533974ece4058990","262","stimuli/00011000.jpg"," ","","feedback_trial","0","","","","","","","","","","","","","","","","","","","","",""
"","","","","","image-keyboard-response","314","128283","0.0-289.0","63d73ed8b1c15ff155c74597","665500ab8938657b03fbdba8","665792bb533974ece4058990","94","stimuli/2001001.jpg","0","","prediction_trial","2","","false","","2","false","true","false","true","false","true","[2]","001","001","0","","","","","","",""
"","","","","","image-keyboard-response","315","128434","0.0-290.0","63d73ed8b1c15ff155c74597","665500ab8938657b03fbdba8","665792bb533974ece4058990","150","stimuli/20010012.jpg"," ","","feedback_trial","2","","","","","","","","","","","","","","","","","","","","",""
"","","","","","image-keyboard-response","316","128482","0.0-291.0","63d73ed8b1c15ff155c74597","665500ab8938657b03fbdba8","665792bb533974ece4058990","47","stimuli/1010100.jpg","0","","prediction_trial","1","","false","","1","true","true","false","true","false","true","[1]","010","100","0","","","","","","",""
"","","","","","image-keyboard-response","317","128723","0.0-292.0","63d73ed8b1c15ff155c74597","665500ab8938657b03fbdba8","665792bb533974ece4058990","239","stimuli/10101001.jpg"," ","","feedback_trial","1","","","","","","","","","","","","","","","","","","","","",""
"","","","","","survey-html-form","318","769024","0.0-293.0","63d73ed8b1c15ff155c74597","665500ab8938657b03fbdba8","665792bb533974ece4058990","640308","","{""feedback"":""i just went with whatever basket may be chosen. it is pretty hard to get every single one right, i just had to make an educated guess."",""age"":""25"",""gender"":""Male"",""other_gender"":"""",""race"":""Native Hawaiian/Pacific Islander"",""other_race"":"""",""ethnicity"":""Non-Hispanic""}","","exit_survey","","","","","","","","","","","","","","","","i just went with whatever basket may be chosen. it is pretty hard to get every single one right, i just had to make an educated guess.","25","Non-Hispanic","Male","Native Hawaiian/Pacific Islander","0.3194444444444444","0.3194444444444444"
