"success","timeout","failed_images","failed_audio","failed_video","trial_type","trial_index","time_elapsed","internal_node_id","prolific_id","prolific_study_id","prolific_session_id","rt","stimulus","response","view_history","trial","character_choice","stimulus_dict","accuracy","correct_response","ball_pos","ego_ball_visible","ego_can_infer","alter_ball_visible","alter_can_infer","collective_ball_visible","collective_can_infer","search_locations","alter_occluders","ego_occluders","accuracy_bool","feedback","age","ethnicity","gender","race","overall_accuracy","bonus"
"true","false","[]","[]","[]","preload","0","2680","0.0-0.0","63174b4e900ff6c7b0444f29","665500ab8938657b03fbdba8","665792411f5820de30e93e44","","","","","","","","","","","","","","","","","","","","","","","","","","",""
"true","","","","","fullscreen","1","7818","0.0-1.0","63174b4e900ff6c7b0444f29","665500ab8938657b03fbdba8","665792411f5820de30e93e44","","","","","","","","","","","","","","","","","","","","","","","","","","",""
"","","","","","html-button-response","2","57188","0.0-2.0","63174b4e900ff6c7b0444f29","665500ab8938657b03fbdba8","665792411f5820de30e93e44","49366","<p><b>Consent Form</b></p> <div style=""text-align:left;background-color:lightgrey; padding:20px; max-width:900px;""><p>Please consider this information carefully before deciding whether to participate in this research.</p> <p>The purpose of this research is to examine which factors influence social judgment and decision-making. You will be asked to make judgements about individuals and actions in social scenarios. We are simply interested in your judgement. The study will take less than 1 hour to complete, and you will receive less than $20 on Prolific. Your compensation and time commitment are specified in the study description. There are no anticipated risks associated with participating in this study. The effects of participating should be comparable to those you would ordinarily experience from viewing a computer monitor and using a mouse or keyboard for a similar amount of time. At the end of the study, we will provide an explanation of the questions that motivate this line of research and will describe the potential implications. </p><p> Your participation in this study is completely voluntary and you may refuse to participate or you may choose to withdraw at any time without penalty or loss of benefits to you which are otherwise entitled. Your participation in this study will remain confidential. No personally identifiable information will be associated with your data. Also, all analyses of the data will be averaged across all the participants, so your individual responses will never be specifically analyzed. </p><p> If you have questions or concerns about your participation or payment, or want to request a summary of research findings, please contact Dr. Jonathan Phillips at Jonathan.S.Phillips@dartmouth.edu. </p><p> Please save a copy of this form for your records. </p><p><b>Agreement: </b>The nature and purpose of this research have been sufficiently explained and I agree to participate in this study. I understand that I am free to withdraw at any time without incurring any penalty. Please consent by clicking the button below to continue. Otherwise, please exit the study at any time. </p>","0","","","","","","","","","","","","","","","","","","","","","","","",""
"","","","","","instructions","3","207333","0.0-3.0-0.0","63174b4e900ff6c7b0444f29","665500ab8938657b03fbdba8","665792411f5820de30e93e44","150151","","","[{""page_index"":0,""viewing_time"":4564},{""page_index"":1,""viewing_time"":7133},{""page_index"":2,""viewing_time"":7905},{""page_index"":3,""viewing_time"":8842},{""page_index"":4,""viewing_time"":8220},{""page_index"":5,""viewing_time"":9014},{""page_index"":6,""viewing_time"":9744},{""page_index"":7,""viewing_time"":7785},{""page_index"":8,""viewing_time"":8745},{""page_index"":9,""viewing_time"":7664},{""page_index"":10,""viewing_time"":30046},{""page_index"":11,""viewing_time"":18728},{""page_index"":12,""viewing_time"":18316},{""page_index"":13,""viewing_time"":3442}]","intro","","","","","","","","","","","","","","","","","","","","","",""
"","","","","","image-keyboard-response","4","210066","0.0-3.0-1.0","63174b4e900ff6c7b0444f29","665500ab8938657b03fbdba8","665792411f5820de30e93e44","2728","stimuli/1110111.jpg","0","","prediction_practice","1","{""filepath"":""stimuli/1110111.jpg"",""ball_pos"":1,""ego_ball_visible"":false,""ego_can_infer"":false,""alter_ball_visible"":false,""alter_can_infer"":false,""collective_ball_visible"":false,""collective_can_infer"":false,""search_locations"":[0,1],""alter_occluders"":""110"",""ego_occluders"":""111""}","false","","","","","","","","","","","","","","","","","","",""
"","","","","","image-keyboard-response","5","212594","0.0-3.0-2.0","63174b4e900ff6c7b0444f29","665500ab8938657b03fbdba8","665792411f5820de30e93e44","2524","stimuli/11101111.jpg"," ","","practrice_feedback","0","","","","","","","","","","","","","","","","","","","","",""
"","","","","","image-keyboard-response","6","216234","0.0-3.0-3.0","63174b4e900ff6c7b0444f29","665500ab8938657b03fbdba8","665792411f5820de30e93e44","3638","stimuli/2110000.jpg","1","","prediction_practice","2","{""filepath"":""stimuli/2110000.jpg"",""ball_pos"":2,""ego_ball_visible"":true,""ego_can_infer"":true,""alter_ball_visible"":true,""alter_can_infer"":true,""collective_ball_visible"":true,""collective_can_infer"":true,""search_locations"":[2],""alter_occluders"":""110"",""ego_occluders"":""000""}","false","","","","","","","","","","","","","","","","","","",""
"","","","","","image-keyboard-response","7","219889","0.0-3.0-4.0","63174b4e900ff6c7b0444f29","665500ab8938657b03fbdba8","665792411f5820de30e93e44","3652","stimuli/21100002.jpg"," ","","practrice_feedback","2","","","","","","","","","","","","","","","","","","","","",""
"","","","","","image-keyboard-response","8","222758","0.0-3.0-5.0","63174b4e900ff6c7b0444f29","665500ab8938657b03fbdba8","665792411f5820de30e93e44","2866","stimuli/1010110.jpg","0","","prediction_practice","1","{""filepath"":""stimuli/1010110.jpg"",""ball_pos"":1,""ego_ball_visible"":false,""ego_can_infer"":false,""alter_ball_visible"":false,""alter_can_infer"":true,""collective_ball_visible"":false,""collective_can_infer"":false,""search_locations"":[1],""alter_occluders"":""010"",""ego_occluders"":""110""}","false","","","","","","","","","","","","","","","","","","",""
"","","","","","image-keyboard-response","9","225272","0.0-3.0-6.0","63174b4e900ff6c7b0444f29","665500ab8938657b03fbdba8","665792411f5820de30e93e44","2511","stimuli/10101101.jpg"," ","","practrice_feedback","1","","","","","","","","","","","","","","","","","","","","",""
"","","","","","image-keyboard-response","10","228480","0.0-3.0-7.0","63174b4e900ff6c7b0444f29","665500ab8938657b03fbdba8","665792411f5820de30e93e44","3205","stimuli/2001110.jpg","2","","prediction_practice","2","{""filepath"":""stimuli/2001110.jpg"",""ball_pos"":2,""ego_ball_visible"":true,""ego_can_infer"":true,""alter_ball_visible"":false,""alter_can_infer"":true,""collective_ball_visible"":false,""collective_can_infer"":true,""search_locations"":[2],""alter_occluders"":""001"",""ego_occluders"":""110""}","true","","","","","","","","","","","","","","","","","","",""
"","","","","","image-keyboard-response","11","230503","0.0-3.0-8.0","63174b4e900ff6c7b0444f29","665500ab8938657b03fbdba8","665792411f5820de30e93e44","2021","stimuli/20011102.jpg"," ","","practrice_feedback","2","","","","","","","","","","","","","","","","","","","","",""
"","","","","","image-keyboard-response","12","232843","0.0-3.0-9.0","63174b4e900ff6c7b0444f29","665500ab8938657b03fbdba8","665792411f5820de30e93e44","2338","stimuli/2100111.jpg","1","","prediction_practice","2","{""filepath"":""stimuli/2100111.jpg"",""ball_pos"":2,""ego_ball_visible"":false,""ego_can_infer"":false,""alter_ball_visible"":true,""alter_can_infer"":true,""collective_ball_visible"":false,""collective_can_infer"":false,""search_locations"":[2],""alter_occluders"":""100"",""ego_occluders"":""111""}","false","","","","","","","","","","","","","","","","","","",""
"","","","","","image-keyboard-response","13","235243","0.0-3.0-10.0","63174b4e900ff6c7b0444f29","665500ab8938657b03fbdba8","665792411f5820de30e93e44","2397","stimuli/21001112.jpg"," ","","practrice_feedback","2","","","","","","","","","","","","","","","","","","","","",""
"","","","","","image-keyboard-response","14","238059","0.0-3.0-11.0","63174b4e900ff6c7b0444f29","665500ab8938657b03fbdba8","665792411f5820de30e93e44","2815","stimuli/2000101.jpg","0","","prediction_practice","2","{""filepath"":""stimuli/2000101.jpg"",""ball_pos"":2,""ego_ball_visible"":false,""ego_can_infer"":false,""alter_ball_visible"":true,""alter_can_infer"":true,""collective_ball_visible"":false,""collective_can_infer"":false,""search_locations"":[2],""alter_occluders"":""000"",""ego_occluders"":""101""}","false","","","","","","","","","","","","","","","","","","",""
"","","","","","image-keyboard-response","15","239737","0.0-3.0-12.0","63174b4e900ff6c7b0444f29","665500ab8938657b03fbdba8","665792411f5820de30e93e44","1675","stimuli/20001012.jpg"," ","","practrice_feedback","2","","","","","","","","","","","","","","","","","","","","",""
"","","","","","image-keyboard-response","16","241414","0.0-3.0-13.0","63174b4e900ff6c7b0444f29","665500ab8938657b03fbdba8","665792411f5820de30e93e44","1675","stimuli/2110100.jpg","2","","prediction_practice","2","{""filepath"":""stimuli/2110100.jpg"",""ball_pos"":2,""ego_ball_visible"":true,""ego_can_infer"":true,""alter_ball_visible"":true,""alter_can_infer"":true,""collective_ball_visible"":true,""collective_can_infer"":true,""search_locations"":[2],""alter_occluders"":""110"",""ego_occluders"":""100""}","true","","","","","","","","","","","","","","","","","","",""
"","","","","","image-keyboard-response","17","243222","0.0-3.0-14.0","63174b4e900ff6c7b0444f29","665500ab8938657b03fbdba8","665792411f5820de30e93e44","1805","stimuli/21101002.jpg"," ","","practrice_feedback","2","","","","","","","","","","","","","","","","","","","","",""
"","","","","","image-keyboard-response","18","245066","0.0-3.0-15.0","63174b4e900ff6c7b0444f29","665500ab8938657b03fbdba8","665792411f5820de30e93e44","1846","stimuli/0010111.jpg","2","","prediction_practice","0","{""filepath"":""stimuli/0010111.jpg"",""ball_pos"":0,""ego_ball_visible"":false,""ego_can_infer"":false,""alter_ball_visible"":true,""alter_can_infer"":true,""collective_ball_visible"":false,""collective_can_infer"":false,""search_locations"":[0],""alter_occluders"":""010"",""ego_occluders"":""111""}","false","","","","","","","","","","","","","","","","","","",""
"","","","","","image-keyboard-response","19","246972","0.0-3.0-16.0","63174b4e900ff6c7b0444f29","665500ab8938657b03fbdba8","665792411f5820de30e93e44","1904","stimuli/00101110.jpg"," ","","practrice_feedback","0","","","","","","","","","","","","","","","","","","","","",""
"","","","","","image-keyboard-response","20","249388","0.0-3.0-17.0","63174b4e900ff6c7b0444f29","665500ab8938657b03fbdba8","665792411f5820de30e93e44","2414","stimuli/2100101.jpg","2","","prediction_practice","2","{""filepath"":""stimuli/2100101.jpg"",""ball_pos"":2,""ego_ball_visible"":false,""ego_can_infer"":false,""alter_ball_visible"":true,""alter_can_infer"":true,""collective_ball_visible"":false,""collective_can_infer"":false,""search_locations"":[2],""alter_occluders"":""100"",""ego_occluders"":""101""}","true","","","","","","","","","","","","","","","","","","",""
"","","","","","image-keyboard-response","21","250747","0.0-3.0-18.0","63174b4e900ff6c7b0444f29","665500ab8938657b03fbdba8","665792411f5820de30e93e44","1357","stimuli/21001012.jpg"," ","","practrice_feedback","2","","","","","","","","","","","","","","","","","","","","",""
"","","","","","image-keyboard-response","22","254908","0.0-3.0-19.0","63174b4e900ff6c7b0444f29","665500ab8938657b03fbdba8","665792411f5820de30e93e44","4159","stimuli/0100111.jpg","1","","prediction_practice","0","{""filepath"":""stimuli/0100111.jpg"",""ball_pos"":0,""ego_ball_visible"":false,""ego_can_infer"":false,""alter_ball_visible"":false,""alter_can_infer"":true,""collective_ball_visible"":false,""collective_can_infer"":false,""search_locations"":[0],""alter_occluders"":""100"",""ego_occluders"":""111""}","false","","","","","","","","","","","","","","","","","","",""
"","","","","","image-keyboard-response","23","258287","0.0-3.0-20.0","63174b4e900ff6c7b0444f29","665500ab8938657b03fbdba8","665792411f5820de30e93e44","3376","stimuli/01001110.jpg"," ","","practrice_feedback","0","","","","","","","","","","","","","","","","","","","","",""
"","","","","","html-button-response","24","268260","0.0-3.0-21.0","63174b4e900ff6c7b0444f29","665500ab8938657b03fbdba8","665792411f5820de30e93e44","9971","Now that you've had some practice, you'll be tested with a couple of easy trials. If you correctly predict Sam's choice, you'll move on to complete the experiment!","0","","","","","","","","","","","","","","","","","","","","","","","",""
"","","","","","image-keyboard-response","25","270991","0.0-3.0-22.0-0.0","63174b4e900ff6c7b0444f29","665500ab8938657b03fbdba8","665792411f5820de30e93e44","2729","stimuli/0000011.jpg","arrowleft","","comprehension_quiz","","","true","arrowleft","","","","","","","","","","","","","","","","","",""
"","","","","","image-keyboard-response","26","272440","0.0-3.0-22.0-1.0","63174b4e900ff6c7b0444f29","665500ab8938657b03fbdba8","665792411f5820de30e93e44","1446","stimuli/00000110.jpg"," ","","comprehension_quiz","","","true"," ","","","","","","","","","","","","","","","","","",""
"","","","","","image-keyboard-response","27","276336","0.0-3.0-22.0-2.0","63174b4e900ff6c7b0444f29","665500ab8938657b03fbdba8","665792411f5820de30e93e44","3894","stimuli/1010010.jpg","arrowdown","","comprehension_quiz","","","true","arrowdown","","","","","","","","","","","","","","","","","",""
"","","","","","image-keyboard-response","28","278345","0.0-3.0-22.0-3.0","63174b4e900ff6c7b0444f29","665500ab8938657b03fbdba8","665792411f5820de30e93e44","2007","stimuli/10100101.jpg"," ","","comprehension_quiz","","","true"," ","","","","","","","","","","","","","","","","","",""
"","","","","","html-button-response","29","284039","0.0-4.0","63174b4e900ff6c7b0444f29","665500ab8938657b03fbdba8","665792411f5820de30e93e44","5690","The experiment will now begin.","0","","","","","","","","","","","","","","","","","","","","","","","",""
"","","","","","image-keyboard-response","30","286398","0.0-5.0","63174b4e900ff6c7b0444f29","665500ab8938657b03fbdba8","665792411f5820de30e93e44","2356","stimuli/1010010.jpg","1","","prediction_trial","1","","true","","1","false","true","false","true","false","true","[1]","010","010","1","","","","","","",""
"","","","","","image-keyboard-response","31","288012","0.0-6.0","63174b4e900ff6c7b0444f29","665500ab8938657b03fbdba8","665792411f5820de30e93e44","1611","stimuli/10100101.jpg"," ","","feedback_trial","1","","","","","","","","","","","","","","","","","","","","",""
"","","","","","image-keyboard-response","32","289869","0.0-7.0","63174b4e900ff6c7b0444f29","665500ab8938657b03fbdba8","665792411f5820de30e93e44","1855","stimuli/2100001.jpg","2","","prediction_trial","2","","true","","2","false","true","true","true","false","true","[2]","100","001","1","","","","","","",""
"","","","","","image-keyboard-response","33","291344","0.0-8.0","63174b4e900ff6c7b0444f29","665500ab8938657b03fbdba8","665792411f5820de30e93e44","1472","stimuli/21000012.jpg"," ","","feedback_trial","2","","","","","","","","","","","","","","","","","","","","",""
"","","","","","image-keyboard-response","34","292674","0.0-9.0","63174b4e900ff6c7b0444f29","665500ab8938657b03fbdba8","665792411f5820de30e93e44","1328","stimuli/2101110.jpg","2","","prediction_trial","0","","false","","2","true","true","false","false","false","false","[2,0]","101","110","0","","","","","","",""
"","","","","","image-keyboard-response","35","294588","0.0-10.0","63174b4e900ff6c7b0444f29","665500ab8938657b03fbdba8","665792411f5820de30e93e44","1912","stimuli/21011100.jpg"," ","","feedback_trial","2","","","","","","","","","","","","","","","","","","","","",""
"","","","","","image-keyboard-response","36","295864","0.0-11.0","63174b4e900ff6c7b0444f29","665500ab8938657b03fbdba8","665792411f5820de30e93e44","1274","stimuli/0001001.jpg","0","","prediction_trial","0","","true","","0","true","true","true","true","true","true","[0]","001","001","1","","","","","","",""
"","","","","","image-keyboard-response","37","297524","0.0-12.0","63174b4e900ff6c7b0444f29","665500ab8938657b03fbdba8","665792411f5820de30e93e44","1657","stimuli/00010010.jpg"," ","","feedback_trial","0","","","","","","","","","","","","","","","","","","","","",""
"","","","","","image-keyboard-response","38","299195","0.0-13.0","63174b4e900ff6c7b0444f29","665500ab8938657b03fbdba8","665792411f5820de30e93e44","1668","stimuli/0011010.jpg","0","","prediction_trial","0","","true","","0","true","true","true","true","true","true","[0]","011","010","1","","","","","","",""
"","","","","","image-keyboard-response","39","300106","0.0-14.0","63174b4e900ff6c7b0444f29","665500ab8938657b03fbdba8","665792411f5820de30e93e44","909","stimuli/00110100.jpg"," ","","feedback_trial","0","","","","","","","","","","","","","","","","","","","","",""
"","","","","","image-keyboard-response","40","302008","0.0-15.0","63174b4e900ff6c7b0444f29","665500ab8938657b03fbdba8","665792411f5820de30e93e44","1899","stimuli/0110011.jpg","0","","prediction_trial","0","","true","","0","true","true","false","false","false","false","[1,0]","110","011","1","","","","","","",""
"","","","","","image-keyboard-response","41","302981","0.0-16.0","63174b4e900ff6c7b0444f29","665500ab8938657b03fbdba8","665792411f5820de30e93e44","971","stimuli/01100110.jpg"," ","","feedback_trial","1","","","","","","","","","","","","","","","","","","","","",""
"","","","","","image-keyboard-response","42","304539","0.0-17.0","63174b4e900ff6c7b0444f29","665500ab8938657b03fbdba8","665792411f5820de30e93e44","1555","stimuli/0101001.jpg","0","","prediction_trial","0","","true","","0","true","true","false","false","false","false","[0,2]","101","001","1","","","","","","",""
"","","","","","image-keyboard-response","43","305559","0.0-18.0","63174b4e900ff6c7b0444f29","665500ab8938657b03fbdba8","665792411f5820de30e93e44","1013","stimuli/01010010.jpg"," ","","feedback_trial","0","","","","","","","","","","","","","","","","","","","","",""
"","","","","","image-keyboard-response","44","307331","0.0-19.0","63174b4e900ff6c7b0444f29","665500ab8938657b03fbdba8","665792411f5820de30e93e44","1770","stimuli/1010001.jpg","1","","prediction_trial","1","","true","","1","true","true","false","true","false","true","[1]","010","001","1","","","","","","",""
"","","","","","image-keyboard-response","45","308340","0.0-20.0","63174b4e900ff6c7b0444f29","665500ab8938657b03fbdba8","665792411f5820de30e93e44","1006","stimuli/10100011.jpg"," ","","feedback_trial","1","","","","","","","","","","","","","","","","","","","","",""
"","","","","","image-keyboard-response","46","309801","0.0-21.0","63174b4e900ff6c7b0444f29","665500ab8938657b03fbdba8","665792411f5820de30e93e44","1458","stimuli/0100101.jpg","0","","prediction_trial","0","","true","","0","false","false","false","true","false","false","[0]","100","101","1","","","","","","",""
"","","","","","image-keyboard-response","47","310836","0.0-22.0","63174b4e900ff6c7b0444f29","665500ab8938657b03fbdba8","665792411f5820de30e93e44","1033","stimuli/01001010.jpg"," ","","feedback_trial","0","","","","","","","","","","","","","","","","","","","","",""
"","","","","","image-keyboard-response","48","312217","0.0-23.0","63174b4e900ff6c7b0444f29","665500ab8938657b03fbdba8","665792411f5820de30e93e44","1379","stimuli/2000000.jpg","2","","prediction_trial","2","","true","","2","true","true","true","true","true","true","[2]","000","000","1","","","","","","",""
"","","","","","image-keyboard-response","49","313346","0.0-24.0","63174b4e900ff6c7b0444f29","665500ab8938657b03fbdba8","665792411f5820de30e93e44","1125","stimuli/20000002.jpg"," ","","feedback_trial","2","","","","","","","","","","","","","","","","","","","","",""
"","","","","","image-keyboard-response","50","315683","0.0-25.0","63174b4e900ff6c7b0444f29","665500ab8938657b03fbdba8","665792411f5820de30e93e44","2335","stimuli/2101111.jpg","1","","prediction_trial","2","","false","","2","false","false","false","false","false","false","[2,0]","101","111","0","","","","","","",""
"","","","","","image-keyboard-response","51","317103","0.0-26.0","63174b4e900ff6c7b0444f29","665500ab8938657b03fbdba8","665792411f5820de30e93e44","1417","stimuli/21011112.jpg"," ","","feedback_trial","2","","","","","","","","","","","","","","","","","","","","",""
"","","","","","image-keyboard-response","52","318223","0.0-27.0","63174b4e900ff6c7b0444f29","665500ab8938657b03fbdba8","665792411f5820de30e93e44","1118","stimuli/0000001.jpg","0","","prediction_trial","0","","true","","0","true","true","true","true","true","true","[0]","000","001","1","","","","","","",""
"","","","","","image-keyboard-response","53","319074","0.0-28.0","63174b4e900ff6c7b0444f29","665500ab8938657b03fbdba8","665792411f5820de30e93e44","848","stimuli/00000010.jpg"," ","","feedback_trial","0","","","","","","","","","","","","","","","","","","","","",""
"","","","","","image-keyboard-response","54","322264","0.0-29.0","63174b4e900ff6c7b0444f29","665500ab8938657b03fbdba8","665792411f5820de30e93e44","3186","stimuli/2000111.jpg","0","","prediction_trial","2","","false","","2","false","false","true","true","false","false","[2]","000","111","0","","","","","","",""
"","","","","","image-keyboard-response","55","323843","0.0-30.0","63174b4e900ff6c7b0444f29","665500ab8938657b03fbdba8","665792411f5820de30e93e44","1577","stimuli/20001112.jpg"," ","","feedback_trial","2","","","","","","","","","","","","","","","","","","","","",""
"","","","","","image-keyboard-response","56","324837","0.0-31.0","63174b4e900ff6c7b0444f29","665500ab8938657b03fbdba8","665792411f5820de30e93e44","992","stimuli/1011101.jpg","1","","prediction_trial","2","","false","","1","true","true","false","false","false","false","[1,2]","011","101","0","","","","","","",""
"","","","","","image-keyboard-response","57","326315","0.0-32.0","63174b4e900ff6c7b0444f29","665500ab8938657b03fbdba8","665792411f5820de30e93e44","1475","stimuli/10111012.jpg"," ","","feedback_trial","1","","","","","","","","","","","","","","","","","","","","",""
"","","","","","image-keyboard-response","58","329349","0.0-33.0","63174b4e900ff6c7b0444f29","665500ab8938657b03fbdba8","665792411f5820de30e93e44","3031","stimuli/1110110.jpg","1","","prediction_trial","0","","false","","1","false","false","false","false","false","false","[0,1]","110","110","0","","","","","","",""
"","","","","","image-keyboard-response","59","330171","0.0-34.0","63174b4e900ff6c7b0444f29","665500ab8938657b03fbdba8","665792411f5820de30e93e44","820","stimuli/11101100.jpg"," ","","feedback_trial","0","","","","","","","","","","","","","","","","","","","","",""
"","","","","","image-keyboard-response","60","331144","0.0-35.0","63174b4e900ff6c7b0444f29","665500ab8938657b03fbdba8","665792411f5820de30e93e44","970","stimuli/1001001.jpg","1","","prediction_trial","1","","true","","1","true","true","true","true","true","true","[1]","001","001","1","","","","","","",""
"","","","","","image-keyboard-response","61","331976","0.0-36.0","63174b4e900ff6c7b0444f29","665500ab8938657b03fbdba8","665792411f5820de30e93e44","829","stimuli/10010011.jpg"," ","","feedback_trial","1","","","","","","","","","","","","","","","","","","","","",""
"","","","","","image-keyboard-response","62","333344","0.0-37.0","63174b4e900ff6c7b0444f29","665500ab8938657b03fbdba8","665792411f5820de30e93e44","1367","stimuli/2010001.jpg","2","","prediction_trial","2","","true","","2","false","true","true","true","false","true","[2]","010","001","1","","","","","","",""
"","","","","","image-keyboard-response","63","334300","0.0-38.0","63174b4e900ff6c7b0444f29","665500ab8938657b03fbdba8","665792411f5820de30e93e44","954","stimuli/20100012.jpg"," ","","feedback_trial","2","","","","","","","","","","","","","","","","","","","","",""
"","","","","","image-keyboard-response","64","335879","0.0-39.0","63174b4e900ff6c7b0444f29","665500ab8938657b03fbdba8","665792411f5820de30e93e44","1576","stimuli/2011100.jpg","2","","prediction_trial","2","","true","","2","true","true","false","false","false","false","[1,2]","011","100","1","","","","","","",""
"","","","","","image-keyboard-response","65","336769","0.0-40.0","63174b4e900ff6c7b0444f29","665500ab8938657b03fbdba8","665792411f5820de30e93e44","888","stimuli/20111002.jpg"," ","","feedback_trial","1","","","","","","","","","","","","","","","","","","","","",""
"","","","","","image-keyboard-response","66","338593","0.0-41.0","63174b4e900ff6c7b0444f29","665500ab8938657b03fbdba8","665792411f5820de30e93e44","1821","stimuli/2000011.jpg","1","","prediction_trial","2","","false","","2","false","false","true","true","false","false","[2]","000","011","0","","","","","","",""
"","","","","","image-keyboard-response","67","339477","0.0-42.0","63174b4e900ff6c7b0444f29","665500ab8938657b03fbdba8","665792411f5820de30e93e44","882","stimuli/20000112.jpg"," ","","feedback_trial","2","","","","","","","","","","","","","","","","","","","","",""
"","","","","","image-keyboard-response","68","340796","0.0-43.0","63174b4e900ff6c7b0444f29","665500ab8938657b03fbdba8","665792411f5820de30e93e44","1316","stimuli/2011110.jpg","2","","prediction_trial","1","","false","","2","true","true","false","false","false","false","[1,2]","011","110","0","","","","","","",""
"","","","","","image-keyboard-response","69","341797","0.0-44.0","63174b4e900ff6c7b0444f29","665500ab8938657b03fbdba8","665792411f5820de30e93e44","999","stimuli/20111101.jpg"," ","","feedback_trial","1","","","","","","","","","","","","","","","","","","","","",""
"","","","","","image-keyboard-response","70","343922","0.0-45.0","63174b4e900ff6c7b0444f29","665500ab8938657b03fbdba8","665792411f5820de30e93e44","2122","stimuli/0010100.jpg","0","","prediction_trial","0","","true","","0","false","true","true","true","false","true","[0]","010","100","1","","","","","","",""
"","","","","","image-keyboard-response","71","344454","0.0-46.0","63174b4e900ff6c7b0444f29","665500ab8938657b03fbdba8","665792411f5820de30e93e44","530","stimuli/00101000.jpg"," ","","feedback_trial","0","","","","","","","","","","","","","","","","","","","","",""
"","","","","","image-keyboard-response","72","346133","0.0-47.0","63174b4e900ff6c7b0444f29","665500ab8938657b03fbdba8","665792411f5820de30e93e44","1675","stimuli/1000001.jpg","1","","prediction_trial","1","","true","","1","true","true","true","true","true","true","[1]","000","001","1","","","","","","",""
"","","","","","image-keyboard-response","73","346649","0.0-48.0","63174b4e900ff6c7b0444f29","665500ab8938657b03fbdba8","665792411f5820de30e93e44","514","stimuli/10000011.jpg"," ","","feedback_trial","1","","","","","","","","","","","","","","","","","","","","",""
"","","","","","image-keyboard-response","74","348778","0.0-49.0","63174b4e900ff6c7b0444f29","665500ab8938657b03fbdba8","665792411f5820de30e93e44","2127","stimuli/0011110.jpg","1","","prediction_trial","0","","false","","0","false","false","true","true","false","false","[0]","011","110","0","","","","","","",""
"","","","","","image-keyboard-response","75","349433","0.0-50.0","63174b4e900ff6c7b0444f29","665500ab8938657b03fbdba8","665792411f5820de30e93e44","652","stimuli/00111100.jpg"," ","","feedback_trial","0","","","","","","","","","","","","","","","","","","","","",""
"","","","","","image-keyboard-response","76","351598","0.0-51.0","63174b4e900ff6c7b0444f29","665500ab8938657b03fbdba8","665792411f5820de30e93e44","2163","stimuli/0001000.jpg","0","","prediction_trial","0","","true","","0","true","true","true","true","true","true","[0]","001","000","1","","","","","","",""
"","","","","","image-keyboard-response","77","352291","0.0-52.0","63174b4e900ff6c7b0444f29","665500ab8938657b03fbdba8","665792411f5820de30e93e44","690","stimuli/00010000.jpg"," ","","feedback_trial","0","","","","","","","","","","","","","","","","","","","","",""
"","","","","","image-keyboard-response","78","354201","0.0-53.0","63174b4e900ff6c7b0444f29","665500ab8938657b03fbdba8","665792411f5820de30e93e44","1908","stimuli/2110011.jpg","2","","prediction_trial","2","","true","","2","false","false","true","true","false","false","[2]","110","011","1","","","","","","",""
"","","","","","image-keyboard-response","79","355689","0.0-54.0","63174b4e900ff6c7b0444f29","665500ab8938657b03fbdba8","665792411f5820de30e93e44","1485","stimuli/21100112.jpg"," ","","feedback_trial","2","","","","","","","","","","","","","","","","","","","","",""
"","","","","","image-keyboard-response","80","357352","0.0-55.0","63174b4e900ff6c7b0444f29","665500ab8938657b03fbdba8","665792411f5820de30e93e44","1661","stimuli/2110010.jpg","2","","prediction_trial","2","","true","","2","true","true","true","true","true","true","[2]","110","010","1","","","","","","",""
"","","","","","image-keyboard-response","81","357853","0.0-56.0","63174b4e900ff6c7b0444f29","665500ab8938657b03fbdba8","665792411f5820de30e93e44","499","stimuli/21100102.jpg"," ","","feedback_trial","2","","","","","","","","","","","","","","","","","","","","",""
"","","","","","image-keyboard-response","82","361012","0.0-57.0","63174b4e900ff6c7b0444f29","665500ab8938657b03fbdba8","665792411f5820de30e93e44","3155","stimuli/1011111.jpg","0","","prediction_trial","1","","false","","1","false","false","false","false","false","false","[1,2]","011","111","0","","","","","","",""
"","","","","","image-keyboard-response","83","361827","0.0-58.0","63174b4e900ff6c7b0444f29","665500ab8938657b03fbdba8","665792411f5820de30e93e44","812","stimuli/10111111.jpg"," ","","feedback_trial","1","","","","","","","","","","","","","","","","","","","","",""
"","","","","","image-keyboard-response","84","363175","0.0-59.0","63174b4e900ff6c7b0444f29","665500ab8938657b03fbdba8","665792411f5820de30e93e44","1345","stimuli/1101011.jpg","1","","prediction_trial","1","","true","","1","false","false","true","true","false","false","[1]","101","011","1","","","","","","",""
"","","","","","image-keyboard-response","85","364091","0.0-60.0","63174b4e900ff6c7b0444f29","665500ab8938657b03fbdba8","665792411f5820de30e93e44","914","stimuli/11010111.jpg"," ","","feedback_trial","1","","","","","","","","","","","","","","","","","","","","",""
"","","","","","image-keyboard-response","86","365197","0.0-61.0","63174b4e900ff6c7b0444f29","665500ab8938657b03fbdba8","665792411f5820de30e93e44","1104","stimuli/0011001.jpg","0","","prediction_trial","0","","true","","0","true","true","true","true","true","true","[0]","011","001","1","","","","","","",""
"","","","","","image-keyboard-response","87","366848","0.0-62.0","63174b4e900ff6c7b0444f29","665500ab8938657b03fbdba8","665792411f5820de30e93e44","1655","stimuli/00110010.jpg"," ","","feedback_trial","0","","","","","","","","","","","","","","","","","","","","",""
"","","","","","image-keyboard-response","88","368329","0.0-63.0","63174b4e900ff6c7b0444f29","665500ab8938657b03fbdba8","665792411f5820de30e93e44","1479","stimuli/1100010.jpg","1","","prediction_trial","1","","true","","1","false","true","true","true","false","true","[1]","100","010","1","","","","","","",""
"","","","","","image-keyboard-response","89","370086","0.0-64.0","63174b4e900ff6c7b0444f29","665500ab8938657b03fbdba8","665792411f5820de30e93e44","1754","stimuli/11000101.jpg"," ","","feedback_trial","1","","","","","","","","","","","","","","","","","","","","",""
"","","","","","image-keyboard-response","90","372538","0.0-65.0","63174b4e900ff6c7b0444f29","665500ab8938657b03fbdba8","665792411f5820de30e93e44","2450","stimuli/1110001.jpg","1","","prediction_trial","1","","true","","1","true","true","false","false","false","false","[0,1]","110","001","1","","","","","","",""
"","","","","","image-keyboard-response","91","373337","0.0-66.0","63174b4e900ff6c7b0444f29","665500ab8938657b03fbdba8","665792411f5820de30e93e44","796","stimuli/11100011.jpg"," ","","feedback_trial","0","","","","","","","","","","","","","","","","","","","","",""
"","","","","","image-keyboard-response","92","375245","0.0-67.0","63174b4e900ff6c7b0444f29","665500ab8938657b03fbdba8","665792411f5820de30e93e44","1905","stimuli/1111110.jpg","1","","prediction_trial","2","","false","","1","false","false","false","false","false","false","[1,0,2]","111","110","0","","","","","","",""
"","","","","","image-keyboard-response","93","376144","0.0-68.0","63174b4e900ff6c7b0444f29","665500ab8938657b03fbdba8","665792411f5820de30e93e44","897","stimuli/11111102.jpg"," ","","feedback_trial","1","","","","","","","","","","","","","","","","","","","","",""
"","","","","","image-keyboard-response","94","377298","0.0-69.0","63174b4e900ff6c7b0444f29","665500ab8938657b03fbdba8","665792411f5820de30e93e44","1152","stimuli/0010001.jpg","0","","prediction_trial","0","","true","","0","true","true","true","true","true","true","[0]","010","001","1","","","","","","",""
"","","","","","image-keyboard-response","95","378898","0.0-70.0","63174b4e900ff6c7b0444f29","665500ab8938657b03fbdba8","665792411f5820de30e93e44","1597","stimuli/00100010.jpg"," ","","feedback_trial","0","","","","","","","","","","","","","","","","","","","","",""
"","","","","","image-keyboard-response","96","381801","0.0-71.0","63174b4e900ff6c7b0444f29","665500ab8938657b03fbdba8","665792411f5820de30e93e44","2901","stimuli/1100111.jpg","1","","prediction_trial","1","","true","","1","false","false","true","true","false","false","[1]","100","111","1","","","","","","",""
"","","","","","image-keyboard-response","97","382814","0.0-72.0","63174b4e900ff6c7b0444f29","665500ab8938657b03fbdba8","665792411f5820de30e93e44","1010","stimuli/11001111.jpg"," ","","feedback_trial","1","","","","","","","","","","","","","","","","","","","","",""
"","","","","","image-keyboard-response","98","385848","0.0-73.0","63174b4e900ff6c7b0444f29","665500ab8938657b03fbdba8","665792411f5820de30e93e44","3032","stimuli/1111101.jpg","1","","prediction_trial","0","","false","","1","true","true","false","false","false","false","[1,0,2]","111","101","0","","","","","","",""
"","","","","","image-keyboard-response","99","386679","0.0-74.0","63174b4e900ff6c7b0444f29","665500ab8938657b03fbdba8","665792411f5820de30e93e44","828","stimuli/11111010.jpg"," ","","feedback_trial","1","","","","","","","","","","","","","","","","","","","","",""
"","","","","","image-keyboard-response","100","388489","0.0-75.0","63174b4e900ff6c7b0444f29","665500ab8938657b03fbdba8","665792411f5820de30e93e44","1808","stimuli/1010000.jpg","1","","prediction_trial","1","","true","","1","true","true","false","true","false","true","[1]","010","000","1","","","","","","",""
"","","","","","image-keyboard-response","101","389085","0.0-76.0","63174b4e900ff6c7b0444f29","665500ab8938657b03fbdba8","665792411f5820de30e93e44","594","stimuli/10100001.jpg"," ","","feedback_trial","1","","","","","","","","","","","","","","","","","","","","",""
"","","","","","image-keyboard-response","102","390356","0.0-77.0","63174b4e900ff6c7b0444f29","665500ab8938657b03fbdba8","665792411f5820de30e93e44","1268","stimuli/1000101.jpg","1","","prediction_trial","1","","true","","1","true","true","true","true","true","true","[1]","000","101","1","","","","","","",""
"","","","","","image-keyboard-response","103","390772","0.0-78.0","63174b4e900ff6c7b0444f29","665500ab8938657b03fbdba8","665792411f5820de30e93e44","413","stimuli/10001011.jpg"," ","","feedback_trial","1","","","","","","","","","","","","","","","","","","","","",""
"","","","","","image-keyboard-response","104","392545","0.0-79.0","63174b4e900ff6c7b0444f29","665500ab8938657b03fbdba8","665792411f5820de30e93e44","1770","stimuli/0011111.jpg","0","","prediction_trial","0","","true","","0","false","false","true","true","false","false","[0]","011","111","1","","","","","","",""
"","","","","","image-keyboard-response","105","393074","0.0-80.0","63174b4e900ff6c7b0444f29","665500ab8938657b03fbdba8","665792411f5820de30e93e44","527","stimuli/00111110.jpg"," ","","feedback_trial","0","","","","","","","","","","","","","","","","","","","","",""
"","","","","","image-keyboard-response","106","394481","0.0-81.0","63174b4e900ff6c7b0444f29","665500ab8938657b03fbdba8","665792411f5820de30e93e44","1405","stimuli/1100101.jpg","1","","prediction_trial","1","","true","","1","true","true","true","true","true","true","[1]","100","101","1","","","","","","",""
"","","","","","image-keyboard-response","107","394950","0.0-82.0","63174b4e900ff6c7b0444f29","665500ab8938657b03fbdba8","665792411f5820de30e93e44","466","stimuli/11001011.jpg"," ","","feedback_trial","1","","","","","","","","","","","","","","","","","","","","",""
"","","","","","image-keyboard-response","108","396383","0.0-83.0","63174b4e900ff6c7b0444f29","665500ab8938657b03fbdba8","665792411f5820de30e93e44","1431","stimuli/2111001.jpg","2","","prediction_trial","1","","false","","2","false","true","false","false","false","false","[2,1,0]","111","001","0","","","","","","",""
"","","","","","image-keyboard-response","109","397009","0.0-84.0","63174b4e900ff6c7b0444f29","665500ab8938657b03fbdba8","665792411f5820de30e93e44","624","stimuli/21110011.jpg"," ","","feedback_trial","2","","","","","","","","","","","","","","","","","","","","",""
"","","","","","image-keyboard-response","110","398512","0.0-85.0","63174b4e900ff6c7b0444f29","665500ab8938657b03fbdba8","665792411f5820de30e93e44","1500","stimuli/0100000.jpg","0","","prediction_trial","0","","true","","0","true","true","false","true","false","true","[0]","100","000","1","","","","","","",""
"","","","","","image-keyboard-response","111","398966","0.0-86.0","63174b4e900ff6c7b0444f29","665500ab8938657b03fbdba8","665792411f5820de30e93e44","452","stimuli/01000000.jpg"," ","","feedback_trial","0","","","","","","","","","","","","","","","","","","","","",""
"","","","","","image-keyboard-response","112","401018","0.0-87.0","63174b4e900ff6c7b0444f29","665500ab8938657b03fbdba8","665792411f5820de30e93e44","2050","stimuli/2111111.jpg","0","","prediction_trial","2","","false","","2","false","false","false","false","false","false","[0,1,2]","111","111","0","","","","","","",""
"","","","","","image-keyboard-response","113","402709","0.0-88.0","63174b4e900ff6c7b0444f29","665500ab8938657b03fbdba8","665792411f5820de30e93e44","1689","stimuli/21111112.jpg"," ","","feedback_trial","0","","","","","","","","","","","","","","","","","","","","",""
"","","","","","image-keyboard-response","114","404219","0.0-89.0","63174b4e900ff6c7b0444f29","665500ab8938657b03fbdba8","665792411f5820de30e93e44","1507","stimuli/0101010.jpg","0","","prediction_trial","0","","true","","0","true","true","false","false","false","false","[2,0]","101","010","1","","","","","","",""
"","","","","","image-keyboard-response","115","405072","0.0-90.0","63174b4e900ff6c7b0444f29","665500ab8938657b03fbdba8","665792411f5820de30e93e44","851","stimuli/01010100.jpg"," ","","feedback_trial","2","","","","","","","","","","","","","","","","","","","","",""
"","","","","","image-keyboard-response","116","406091","0.0-91.0","63174b4e900ff6c7b0444f29","665500ab8938657b03fbdba8","665792411f5820de30e93e44","1017","stimuli/1111000.jpg","1","","prediction_trial","1","","true","","1","true","true","false","false","false","false","[1,0,2]","111","000","1","","","","","","",""
"","","","","","image-keyboard-response","117","406878","0.0-92.0","63174b4e900ff6c7b0444f29","665500ab8938657b03fbdba8","665792411f5820de30e93e44","785","stimuli/11110001.jpg"," ","","feedback_trial","1","","","","","","","","","","","","","","","","","","","","",""
"","","","","","image-keyboard-response","118","407803","0.0-93.0","63174b4e900ff6c7b0444f29","665500ab8938657b03fbdba8","665792411f5820de30e93e44","922","stimuli/1000100.jpg","1","","prediction_trial","1","","true","","1","true","true","true","true","true","true","[1]","000","100","1","","","","","","",""
"","","","","","image-keyboard-response","119","408284","0.0-94.0","63174b4e900ff6c7b0444f29","665500ab8938657b03fbdba8","665792411f5820de30e93e44","478","stimuli/10001001.jpg"," ","","feedback_trial","1","","","","","","","","","","","","","","","","","","","","",""
"","","","","","image-keyboard-response","120","409254","0.0-95.0","63174b4e900ff6c7b0444f29","665500ab8938657b03fbdba8","665792411f5820de30e93e44","968","stimuli/2010010.jpg","2","","prediction_trial","2","","true","","2","true","true","true","true","true","true","[2]","010","010","1","","","","","","",""
"","","","","","image-keyboard-response","121","409707","0.0-96.0","63174b4e900ff6c7b0444f29","665500ab8938657b03fbdba8","665792411f5820de30e93e44","451","stimuli/20100102.jpg"," ","","feedback_trial","2","","","","","","","","","","","","","","","","","","","","",""
"","","","","","image-keyboard-response","122","411570","0.0-97.0","63174b4e900ff6c7b0444f29","665500ab8938657b03fbdba8","665792411f5820de30e93e44","1861","stimuli/2110101.jpg","0","","prediction_trial","2","","false","","2","false","false","true","true","false","false","[2]","110","101","0","","","","","","",""
"","","","","","image-keyboard-response","123","412704","0.0-98.0","63174b4e900ff6c7b0444f29","665500ab8938657b03fbdba8","665792411f5820de30e93e44","1131","stimuli/21101012.jpg"," ","","feedback_trial","2","","","","","","","","","","","","","","","","","","","","",""
"","","","","","image-keyboard-response","124","413997","0.0-99.0","63174b4e900ff6c7b0444f29","665500ab8938657b03fbdba8","665792411f5820de30e93e44","1291","stimuli/1110100.jpg","1","","prediction_trial","1","","true","","1","true","true","false","false","false","false","[1,0]","110","100","1","","","","","","",""
"","","","","","image-keyboard-response","125","414510","0.0-100.0","63174b4e900ff6c7b0444f29","665500ab8938657b03fbdba8","665792411f5820de30e93e44","511","stimuli/11101001.jpg"," ","","feedback_trial","1","","","","","","","","","","","","","","","","","","","","",""
"","","","","","image-keyboard-response","126","415504","0.0-101.0","63174b4e900ff6c7b0444f29","665500ab8938657b03fbdba8","665792411f5820de30e93e44","992","stimuli/2101100.jpg","2","","prediction_trial","2","","true","","2","true","true","false","false","false","false","[0,2]","101","100","1","","","","","","",""
"","","","","","image-keyboard-response","127","415988","0.0-102.0","63174b4e900ff6c7b0444f29","665500ab8938657b03fbdba8","665792411f5820de30e93e44","481","stimuli/21011002.jpg"," ","","feedback_trial","0","","","","","","","","","","","","","","","","","","","","",""
"","","","","","image-keyboard-response","128","416919","0.0-103.0","63174b4e900ff6c7b0444f29","665500ab8938657b03fbdba8","665792411f5820de30e93e44","930","stimuli/1010100.jpg","1","","prediction_trial","1","","true","","1","true","true","false","true","false","true","[1]","010","100","1","","","","","","",""
"","","","","","image-keyboard-response","129","417368","0.0-104.0","63174b4e900ff6c7b0444f29","665500ab8938657b03fbdba8","665792411f5820de30e93e44","447","stimuli/10101001.jpg"," ","","feedback_trial","1","","","","","","","","","","","","","","","","","","","","",""
"","","","","","image-keyboard-response","130","419134","0.0-105.0","63174b4e900ff6c7b0444f29","665500ab8938657b03fbdba8","665792411f5820de30e93e44","1764","stimuli/0110100.jpg","0","","prediction_trial","0","","true","","0","false","true","false","false","false","false","[1,0]","110","100","1","","","","","","",""
"","","","","","image-keyboard-response","131","420015","0.0-106.0","63174b4e900ff6c7b0444f29","665500ab8938657b03fbdba8","665792411f5820de30e93e44","879","stimuli/01101000.jpg"," ","","feedback_trial","1","","","","","","","","","","","","","","","","","","","","",""
"","","","","","image-keyboard-response","132","420835","0.0-107.0","63174b4e900ff6c7b0444f29","665500ab8938657b03fbdba8","665792411f5820de30e93e44","818","stimuli/1011100.jpg","1","","prediction_trial","2","","false","","1","true","true","false","false","false","false","[2,1]","011","100","0","","","","","","",""
"","","","","","image-keyboard-response","133","422029","0.0-108.0","63174b4e900ff6c7b0444f29","665500ab8938657b03fbdba8","665792411f5820de30e93e44","1191","stimuli/10111002.jpg"," ","","feedback_trial","2","","","","","","","","","","","","","","","","","","","","",""
"","","","","","image-keyboard-response","134","422974","0.0-109.0","63174b4e900ff6c7b0444f29","665500ab8938657b03fbdba8","665792411f5820de30e93e44","943","stimuli/2101010.jpg","2","","prediction_trial","2","","true","","2","true","true","false","false","false","false","[2,0]","101","010","1","","","","","","",""
"","","","","","image-keyboard-response","135","423567","0.0-110.0","63174b4e900ff6c7b0444f29","665500ab8938657b03fbdba8","665792411f5820de30e93e44","591","stimuli/21010102.jpg"," ","","feedback_trial","2","","","","","","","","","","","","","","","","","","","","",""
"","","","","","image-keyboard-response","136","424361","0.0-111.0","63174b4e900ff6c7b0444f29","665500ab8938657b03fbdba8","665792411f5820de30e93e44","791","stimuli/1111100.jpg","1","","prediction_trial","2","","false","","1","true","true","false","false","false","false","[2,0,1]","111","100","0","","","","","","",""
"","","","","","image-keyboard-response","137","425280","0.0-112.0","63174b4e900ff6c7b0444f29","665500ab8938657b03fbdba8","665792411f5820de30e93e44","916","stimuli/11111002.jpg"," ","","feedback_trial","2","","","","","","","","","","","","","","","","","","","","",""
"","","","","","image-keyboard-response","138","426479","0.0-113.0","63174b4e900ff6c7b0444f29","665500ab8938657b03fbdba8","665792411f5820de30e93e44","1197","stimuli/2101101.jpg","2","","prediction_trial","0","","false","","2","false","false","false","false","false","false","[2,0]","101","101","0","","","","","","",""
"","","","","","image-keyboard-response","139","427087","0.0-114.0","63174b4e900ff6c7b0444f29","665500ab8938657b03fbdba8","665792411f5820de30e93e44","594","stimuli/21011010.jpg"," ","","feedback_trial","2","","","","","","","","","","","","","","","","","","","","",""
"","","","","","image-keyboard-response","140","427959","0.0-115.0","63174b4e900ff6c7b0444f29","665500ab8938657b03fbdba8","665792411f5820de30e93e44","870","stimuli/2001100.jpg","2","","prediction_trial","2","","true","","2","true","true","false","true","false","true","[2]","001","100","1","","","","","","",""
"","","","","","image-keyboard-response","141","428450","0.0-116.0","63174b4e900ff6c7b0444f29","665500ab8938657b03fbdba8","665792411f5820de30e93e44","487","stimuli/20011002.jpg"," ","","feedback_trial","2","","","","","","","","","","","","","","","","","","","","",""
"","","","","","image-keyboard-response","142","429449","0.0-117.0","63174b4e900ff6c7b0444f29","665500ab8938657b03fbdba8","665792411f5820de30e93e44","997","stimuli/2100000.jpg","2","","prediction_trial","2","","true","","2","true","true","true","true","true","true","[2]","100","000","1","","","","","","",""
"","","","","","image-keyboard-response","143","429905","0.0-118.0","63174b4e900ff6c7b0444f29","665500ab8938657b03fbdba8","665792411f5820de30e93e44","453","stimuli/21000002.jpg"," ","","feedback_trial","2","","","","","","","","","","","","","","","","","","","","",""
"","","","","","image-keyboard-response","144","431578","0.0-119.0","63174b4e900ff6c7b0444f29","665500ab8938657b03fbdba8","665792411f5820de30e93e44","1670","stimuli/0101111.jpg","1","","prediction_trial","2","","false","","0","false","false","false","false","false","false","[0,2]","101","111","0","","","","","","",""
"","","","","","image-keyboard-response","145","433012","0.0-120.0","63174b4e900ff6c7b0444f29","665500ab8938657b03fbdba8","665792411f5820de30e93e44","1432","stimuli/01011112.jpg"," ","","feedback_trial","0","","","","","","","","","","","","","","","","","","","","",""
"","","","","","image-keyboard-response","146","433821","0.0-121.0","63174b4e900ff6c7b0444f29","665500ab8938657b03fbdba8","665792411f5820de30e93e44","807","stimuli/2100110.jpg","2","","prediction_trial","2","","true","","2","true","true","true","true","true","true","[2]","100","110","1","","","","","","",""
"","","","","","image-keyboard-response","147","434224","0.0-122.0","63174b4e900ff6c7b0444f29","665500ab8938657b03fbdba8","665792411f5820de30e93e44","400","stimuli/21001102.jpg"," ","","feedback_trial","2","","","","","","","","","","","","","","","","","","","","",""
"","","","","","image-keyboard-response","148","435488","0.0-123.0","63174b4e900ff6c7b0444f29","665500ab8938657b03fbdba8","665792411f5820de30e93e44","1261","stimuli/2110000.jpg","2","","prediction_trial","2","","true","","2","true","true","true","true","true","true","[2]","110","000","1","","","","","","",""
"","","","","","image-keyboard-response","149","435896","0.0-124.0","63174b4e900ff6c7b0444f29","665500ab8938657b03fbdba8","665792411f5820de30e93e44","405","stimuli/21100002.jpg"," ","","feedback_trial","2","","","","","","","","","","","","","","","","","","","","",""
"","","","","","image-keyboard-response","150","437537","0.0-125.0","63174b4e900ff6c7b0444f29","665500ab8938657b03fbdba8","665792411f5820de30e93e44","1639","stimuli/2010111.jpg","0","","prediction_trial","2","","false","","2","false","false","true","true","false","false","[2]","010","111","0","","","","","","",""
"","","","","","image-keyboard-response","151","439031","0.0-126.0","63174b4e900ff6c7b0444f29","665500ab8938657b03fbdba8","665792411f5820de30e93e44","1492","stimuli/20101112.jpg"," ","","feedback_trial","2","","","","","","","","","","","","","","","","","","","","",""
"","","","","","image-keyboard-response","152","440630","0.0-127.0","63174b4e900ff6c7b0444f29","665500ab8938657b03fbdba8","665792411f5820de30e93e44","1596","stimuli/0001110.jpg","0","","prediction_trial","0","","true","","0","false","false","true","true","false","false","[0]","001","110","1","","","","","","",""
"","","","","","image-keyboard-response","153","441109","0.0-128.0","63174b4e900ff6c7b0444f29","665500ab8938657b03fbdba8","665792411f5820de30e93e44","477","stimuli/00011100.jpg"," ","","feedback_trial","0","","","","","","","","","","","","","","","","","","","","",""
"","","","","","image-keyboard-response","154","442470","0.0-129.0","63174b4e900ff6c7b0444f29","665500ab8938657b03fbdba8","665792411f5820de30e93e44","1359","stimuli/0111011.jpg","0","","prediction_trial","2","","false","","0","true","true","false","false","false","false","[1,0,2]","111","011","0","","","","","","",""
"","","","","","image-keyboard-response","155","443168","0.0-130.0","63174b4e900ff6c7b0444f29","665500ab8938657b03fbdba8","665792411f5820de30e93e44","696","stimuli/01110112.jpg"," ","","feedback_trial","1","","","","","","","","","","","","","","","","","","","","",""
"","","","","","image-keyboard-response","156","444220","0.0-131.0","63174b4e900ff6c7b0444f29","665500ab8938657b03fbdba8","665792411f5820de30e93e44","1049","stimuli/0010011.jpg","0","","prediction_trial","0","","true","","0","true","true","true","true","true","true","[0]","010","011","1","","","","","","",""
"","","","","","image-keyboard-response","157","445340","0.0-132.0","63174b4e900ff6c7b0444f29","665500ab8938657b03fbdba8","665792411f5820de30e93e44","1119","stimuli/00100110.jpg"," ","","feedback_trial","0","","","","","","","","","","","","","","","","","","","","",""
"","","","","","image-keyboard-response","158","446183","0.0-133.0","63174b4e900ff6c7b0444f29","665500ab8938657b03fbdba8","665792411f5820de30e93e44","841","stimuli/1111111.jpg","1","","prediction_trial","2","","false","","1","false","false","false","false","false","false","[0,2,1]","111","111","0","","","","","","",""
"","","","","","image-keyboard-response","159","446874","0.0-134.0","63174b4e900ff6c7b0444f29","665500ab8938657b03fbdba8","665792411f5820de30e93e44","689","stimuli/11111112.jpg"," ","","feedback_trial","0","","","","","","","","","","","","","","","","","","","","",""
"","","","","","image-keyboard-response","160","447858","0.0-135.0","63174b4e900ff6c7b0444f29","665500ab8938657b03fbdba8","665792411f5820de30e93e44","980","stimuli/1101111.jpg","1","","prediction_trial","1","","true","","1","false","false","true","true","false","false","[1]","101","111","1","","","","","","",""
"","","","","","image-keyboard-response","161","448314","0.0-136.0","63174b4e900ff6c7b0444f29","665500ab8938657b03fbdba8","665792411f5820de30e93e44","454","stimuli/11011111.jpg"," ","","feedback_trial","1","","","","","","","","","","","","","","","","","","","","",""
"","","","","","image-keyboard-response","162","449536","0.0-137.0","63174b4e900ff6c7b0444f29","665500ab8938657b03fbdba8","665792411f5820de30e93e44","1220","stimuli/2010110.jpg","2","","prediction_trial","2","","true","","2","true","true","true","true","true","true","[2]","010","110","1","","","","","","",""
"","","","","","image-keyboard-response","163","450003","0.0-138.0","63174b4e900ff6c7b0444f29","665500ab8938657b03fbdba8","665792411f5820de30e93e44","464","stimuli/20101102.jpg"," ","","feedback_trial","2","","","","","","","","","","","","","","","","","","","","",""
"","","","","","image-keyboard-response","164","451046","0.0-139.0","63174b4e900ff6c7b0444f29","665500ab8938657b03fbdba8","665792411f5820de30e93e44","1042","stimuli/0000011.jpg","0","","prediction_trial","0","","true","","0","true","true","true","true","true","true","[0]","000","011","1","","","","","","",""
"","","","","","image-keyboard-response","165","451433","0.0-140.0","63174b4e900ff6c7b0444f29","665500ab8938657b03fbdba8","665792411f5820de30e93e44","384","stimuli/00000110.jpg"," ","","feedback_trial","0","","","","","","","","","","","","","","","","","","","","",""
"","","","","","image-keyboard-response","166","453439","0.0-141.0","63174b4e900ff6c7b0444f29","665500ab8938657b03fbdba8","665792411f5820de30e93e44","2004","stimuli/0100010.jpg","0","","prediction_trial","0","","true","","0","true","true","false","true","false","true","[0]","100","010","1","","","","","","",""
"","","","","","image-keyboard-response","167","453778","0.0-142.0","63174b4e900ff6c7b0444f29","665500ab8938657b03fbdba8","665792411f5820de30e93e44","337","stimuli/01000100.jpg"," ","","feedback_trial","0","","","","","","","","","","","","","","","","","","","","",""
"","","","","","image-keyboard-response","168","455530","0.0-143.0","63174b4e900ff6c7b0444f29","665500ab8938657b03fbdba8","665792411f5820de30e93e44","1750","stimuli/1010111.jpg","2","","prediction_trial","1","","false","","1","false","false","false","true","false","false","[1]","010","111","0","","","","","","",""
"","","","","","image-keyboard-response","169","456107","0.0-144.0","63174b4e900ff6c7b0444f29","665500ab8938657b03fbdba8","665792411f5820de30e93e44","575","stimuli/10101111.jpg"," ","","feedback_trial","1","","","","","","","","","","","","","","","","","","","","",""
"","","","","","image-keyboard-response","170","457774","0.0-145.0","63174b4e900ff6c7b0444f29","665500ab8938657b03fbdba8","665792411f5820de30e93e44","1664","stimuli/2010011.jpg","2","","prediction_trial","2","","true","","2","false","false","true","true","false","false","[2]","010","011","1","","","","","","",""
"","","","","","image-keyboard-response","171","458153","0.0-146.0","63174b4e900ff6c7b0444f29","665500ab8938657b03fbdba8","665792411f5820de30e93e44","377","stimuli/20100112.jpg"," ","","feedback_trial","2","","","","","","","","","","","","","","","","","","","","",""
"","","","","","image-keyboard-response","172","460025","0.0-147.0","63174b4e900ff6c7b0444f29","665500ab8938657b03fbdba8","665792411f5820de30e93e44","1869","stimuli/0100011.jpg","0","","prediction_trial","0","","true","","0","true","true","false","true","false","true","[0]","100","011","1","","","","","","",""
"","","","","","image-keyboard-response","173","460316","0.0-148.0","63174b4e900ff6c7b0444f29","665500ab8938657b03fbdba8","665792411f5820de30e93e44","289","stimuli/01000110.jpg"," ","","feedback_trial","0","","","","","","","","","","","","","","","","","","","","",""
"","","","","","image-keyboard-response","174","462084","0.0-149.0","63174b4e900ff6c7b0444f29","665500ab8938657b03fbdba8","665792411f5820de30e93e44","1766","stimuli/0001011.jpg","0","","prediction_trial","0","","true","","0","true","true","true","true","true","true","[0]","001","011","1","","","","","","",""
"","","","","","image-keyboard-response","175","462476","0.0-150.0","63174b4e900ff6c7b0444f29","665500ab8938657b03fbdba8","665792411f5820de30e93e44","390","stimuli/00010110.jpg"," ","","feedback_trial","0","","","","","","","","","","","","","","","","","","","","",""
"","","","","","image-keyboard-response","176","463671","0.0-151.0","63174b4e900ff6c7b0444f29","665500ab8938657b03fbdba8","665792411f5820de30e93e44","1192","stimuli/2001101.jpg","2","","prediction_trial","2","","true","","2","false","false","false","true","false","false","[2]","001","101","1","","","","","","",""
"","","","","","image-keyboard-response","177","464074","0.0-152.0","63174b4e900ff6c7b0444f29","665500ab8938657b03fbdba8","665792411f5820de30e93e44","401","stimuli/20011012.jpg"," ","","feedback_trial","2","","","","","","","","","","","","","","","","","","","","",""
"","","","","","image-keyboard-response","178","465172","0.0-153.0","63174b4e900ff6c7b0444f29","665500ab8938657b03fbdba8","665792411f5820de30e93e44","1096","stimuli/2010101.jpg","0","","prediction_trial","2","","false","","2","false","false","true","true","false","false","[2]","010","101","0","","","","","","",""
"","","","","","image-keyboard-response","179","465712","0.0-154.0","63174b4e900ff6c7b0444f29","665500ab8938657b03fbdba8","665792411f5820de30e93e44","538","stimuli/20101012.jpg"," ","","feedback_trial","2","","","","","","","","","","","","","","","","","","","","",""
"","","","","","image-keyboard-response","180","467247","0.0-155.0","63174b4e900ff6c7b0444f29","665500ab8938657b03fbdba8","665792411f5820de30e93e44","1532","stimuli/2111110.jpg","2","","prediction_trial","2","","true","","2","true","true","false","false","false","false","[0,2,1]","111","110","1","","","","","","",""
"","","","","","image-keyboard-response","181","467647","0.0-156.0","63174b4e900ff6c7b0444f29","665500ab8938657b03fbdba8","665792411f5820de30e93e44","398","stimuli/21111102.jpg"," ","","feedback_trial","0","","","","","","","","","","","","","","","","","","","","",""
"","","","","","image-keyboard-response","182","468745","0.0-157.0","63174b4e900ff6c7b0444f29","665500ab8938657b03fbdba8","665792411f5820de30e93e44","1096","stimuli/2000110.jpg","2","","prediction_trial","2","","true","","2","true","true","true","true","true","true","[2]","000","110","1","","","","","","",""
"","","","","","image-keyboard-response","183","469079","0.0-158.0","63174b4e900ff6c7b0444f29","665500ab8938657b03fbdba8","665792411f5820de30e93e44","333","stimuli/20001102.jpg"," ","","feedback_trial","2","","","","","","","","","","","","","","","","","","","","",""
"","","","","","image-keyboard-response","184","470057","0.0-159.0","63174b4e900ff6c7b0444f29","665500ab8938657b03fbdba8","665792411f5820de30e93e44","977","stimuli/2000100.jpg","2","","prediction_trial","2","","true","","2","true","true","true","true","true","true","[2]","000","100","1","","","","","","",""
"","","","","","image-keyboard-response","185","470373","0.0-160.0","63174b4e900ff6c7b0444f29","665500ab8938657b03fbdba8","665792411f5820de30e93e44","312","stimuli/20001002.jpg"," ","","feedback_trial","2","","","","","","","","","","","","","","","","","","","","",""
"","","","","","image-keyboard-response","186","472219","0.0-161.0","63174b4e900ff6c7b0444f29","665500ab8938657b03fbdba8","665792411f5820de30e93e44","1844","stimuli/2110001.jpg","2","","prediction_trial","2","","true","","2","false","true","true","true","false","true","[2]","110","001","1","","","","","","",""
"","","","","","image-keyboard-response","187","472551","0.0-162.0","63174b4e900ff6c7b0444f29","665500ab8938657b03fbdba8","665792411f5820de30e93e44","330","stimuli/21100012.jpg"," ","","feedback_trial","2","","","","","","","","","","","","","","","","","","","","",""
"","","","","","image-keyboard-response","188","474024","0.0-163.0","63174b4e900ff6c7b0444f29","665500ab8938657b03fbdba8","665792411f5820de30e93e44","1469","stimuli/0011100.jpg","0","","prediction_trial","0","","true","","0","false","true","true","true","false","true","[0]","011","100","1","","","","","","",""
"","","","","","image-keyboard-response","189","474324","0.0-164.0","63174b4e900ff6c7b0444f29","665500ab8938657b03fbdba8","665792411f5820de30e93e44","298","stimuli/00111000.jpg"," ","","feedback_trial","0","","","","","","","","","","","","","","","","","","","","",""
"","","","","","image-keyboard-response","190","475609","0.0-165.0","63174b4e900ff6c7b0444f29","665500ab8938657b03fbdba8","665792411f5820de30e93e44","1283","stimuli/1101101.jpg","1","","prediction_trial","1","","true","","1","true","true","true","true","true","true","[1]","101","101","1","","","","","","",""
"","","","","","image-keyboard-response","191","475913","0.0-166.0","63174b4e900ff6c7b0444f29","665500ab8938657b03fbdba8","665792411f5820de30e93e44","302","stimuli/11011011.jpg"," ","","feedback_trial","1","","","","","","","","","","","","","","","","","","","","",""
"","","","","","image-keyboard-response","192","478915","0.0-167.0","63174b4e900ff6c7b0444f29","665500ab8938657b03fbdba8","665792411f5820de30e93e44","2999","stimuli/2011101.jpg","0","","prediction_trial","1","","false","","2","false","false","false","false","false","false","[2,1]","011","101","0","","","","","","",""
"","","","","","image-keyboard-response","193","479759","0.0-168.0","63174b4e900ff6c7b0444f29","665500ab8938657b03fbdba8","665792411f5820de30e93e44","841","stimuli/20111011.jpg"," ","","feedback_trial","2","","","","","","","","","","","","","","","","","","","","",""
"","","","","","image-keyboard-response","194","481314","0.0-169.0","63174b4e900ff6c7b0444f29","665500ab8938657b03fbdba8","665792411f5820de30e93e44","1554","stimuli/2011001.jpg","2","","prediction_trial","1","","false","","2","false","true","false","false","false","false","[1,2]","011","001","0","","","","","","",""
"","","","","","image-keyboard-response","195","481768","0.0-170.0","63174b4e900ff6c7b0444f29","665500ab8938657b03fbdba8","665792411f5820de30e93e44","451","stimuli/20110011.jpg"," ","","feedback_trial","1","","","","","","","","","","","","","","","","","","","","",""
"","","","","","image-keyboard-response","196","482729","0.0-171.0","63174b4e900ff6c7b0444f29","665500ab8938657b03fbdba8","665792411f5820de30e93e44","959","stimuli/1100001.jpg","1","","prediction_trial","1","","true","","1","true","true","true","true","true","true","[1]","100","001","1","","","","","","",""
"","","","","","image-keyboard-response","197","483087","0.0-172.0","63174b4e900ff6c7b0444f29","665500ab8938657b03fbdba8","665792411f5820de30e93e44","355","stimuli/11000011.jpg"," ","","feedback_trial","1","","","","","","","","","","","","","","","","","","","","",""
"","","","","","image-keyboard-response","198","483921","0.0-173.0","63174b4e900ff6c7b0444f29","665500ab8938657b03fbdba8","665792411f5820de30e93e44","832","stimuli/0010010.jpg","0","","prediction_trial","0","","true","","0","true","true","true","true","true","true","[0]","010","010","1","","","","","","",""
"","","","","","image-keyboard-response","199","484273","0.0-174.0","63174b4e900ff6c7b0444f29","665500ab8938657b03fbdba8","665792411f5820de30e93e44","350","stimuli/00100100.jpg"," ","","feedback_trial","0","","","","","","","","","","","","","","","","","","","","",""
"","","","","","image-keyboard-response","200","485656","0.0-175.0","63174b4e900ff6c7b0444f29","665500ab8938657b03fbdba8","665792411f5820de30e93e44","1380","stimuli/1100011.jpg","1","","prediction_trial","1","","true","","1","false","false","true","true","false","false","[1]","100","011","1","","","","","","",""
"","","","","","image-keyboard-response","201","485963","0.0-176.0","63174b4e900ff6c7b0444f29","665500ab8938657b03fbdba8","665792411f5820de30e93e44","305","stimuli/11000111.jpg"," ","","feedback_trial","1","","","","","","","","","","","","","","","","","","","","",""
"","","","","","image-keyboard-response","202","487587","0.0-177.0","63174b4e900ff6c7b0444f29","665500ab8938657b03fbdba8","665792411f5820de30e93e44","1627","stimuli/1101001.jpg","1","","prediction_trial","1","","true","","1","true","true","true","true","true","true","[1]","101","001","1","","","","","","",""
"","","","","","image-keyboard-response","203","487910","0.0-178.0","63174b4e900ff6c7b0444f29","665500ab8938657b03fbdba8","665792411f5820de30e93e44","322","stimuli/11010011.jpg"," ","","feedback_trial","1","","","","","","","","","","","","","","","","","","","","",""
"","","","","","image-keyboard-response","204","488758","0.0-179.0","63174b4e900ff6c7b0444f29","665500ab8938657b03fbdba8","665792411f5820de30e93e44","846","stimuli/1100000.jpg","1","","prediction_trial","1","","true","","1","true","true","true","true","true","true","[1]","100","000","1","","","","","","",""
"","","","","","image-keyboard-response","205","489065","0.0-180.0","63174b4e900ff6c7b0444f29","665500ab8938657b03fbdba8","665792411f5820de30e93e44","306","stimuli/11000001.jpg"," ","","feedback_trial","1","","","","","","","","","","","","","","","","","","","","",""
"","","","","","image-keyboard-response","206","489918","0.0-181.0","63174b4e900ff6c7b0444f29","665500ab8938657b03fbdba8","665792411f5820de30e93e44","851","stimuli/2100100.jpg","2","","prediction_trial","2","","true","","2","true","true","true","true","true","true","[2]","100","100","1","","","","","","",""
"","","","","","image-keyboard-response","207","490235","0.0-182.0","63174b4e900ff6c7b0444f29","665500ab8938657b03fbdba8","665792411f5820de30e93e44","314","stimuli/21001002.jpg"," ","","feedback_trial","2","","","","","","","","","","","","","","","","","","","","",""
"","","","","","image-keyboard-response","208","491233","0.0-183.0","63174b4e900ff6c7b0444f29","665500ab8938657b03fbdba8","665792411f5820de30e93e44","996","stimuli/0010000.jpg","0","","prediction_trial","0","","true","","0","true","true","true","true","true","true","[0]","010","000","1","","","","","","",""
"","","","","","image-keyboard-response","209","491551","0.0-184.0","63174b4e900ff6c7b0444f29","665500ab8938657b03fbdba8","665792411f5820de30e93e44","316","stimuli/00100000.jpg"," ","","feedback_trial","0","","","","","","","","","","","","","","","","","","","","",""
"","","","","","image-keyboard-response","210","492338","0.0-185.0","63174b4e900ff6c7b0444f29","665500ab8938657b03fbdba8","665792411f5820de30e93e44","784","stimuli/2001010.jpg","2","","prediction_trial","2","","true","","2","true","true","false","true","false","true","[2]","001","010","1","","","","","","",""
"","","","","","image-keyboard-response","211","492703","0.0-186.0","63174b4e900ff6c7b0444f29","665500ab8938657b03fbdba8","665792411f5820de30e93e44","362","stimuli/20010102.jpg"," ","","feedback_trial","2","","","","","","","","","","","","","","","","","","","","",""
"","","","","","image-keyboard-response","212","493870","0.0-187.0","63174b4e900ff6c7b0444f29","665500ab8938657b03fbdba8","665792411f5820de30e93e44","1166","stimuli/0001111.jpg","0","","prediction_trial","0","","true","","0","false","false","true","true","false","false","[0]","001","111","1","","","","","","",""
"","","","","","image-keyboard-response","213","494224","0.0-188.0","63174b4e900ff6c7b0444f29","665500ab8938657b03fbdba8","665792411f5820de30e93e44","352","stimuli/00011110.jpg"," ","","feedback_trial","0","","","","","","","","","","","","","","","","","","","","",""
"","","","","","image-keyboard-response","214","495753","0.0-189.0","63174b4e900ff6c7b0444f29","665500ab8938657b03fbdba8","665792411f5820de30e93e44","1527","stimuli/0110000.jpg","0","","prediction_trial","0","","true","","0","true","true","false","false","false","false","[0,1]","110","000","1","","","","","","",""
"","","","","","image-keyboard-response","215","496008","0.0-190.0","63174b4e900ff6c7b0444f29","665500ab8938657b03fbdba8","665792411f5820de30e93e44","251","stimuli/01100000.jpg"," ","","feedback_trial","0","","","","","","","","","","","","","","","","","","","","",""
"","","","","","image-keyboard-response","216","497551","0.0-191.0","63174b4e900ff6c7b0444f29","665500ab8938657b03fbdba8","665792411f5820de30e93e44","1540","stimuli/1111010.jpg","1","","prediction_trial","1","","true","","1","false","true","false","false","false","false","[1,2,0]","111","010","1","","","","","","",""
"","","","","","image-keyboard-response","217","498000","0.0-192.0","63174b4e900ff6c7b0444f29","665500ab8938657b03fbdba8","665792411f5820de30e93e44","447","stimuli/11110101.jpg"," ","","feedback_trial","1","","","","","","","","","","","","","","","","","","","","",""
"","","","","","image-keyboard-response","218","498890","0.0-193.0","63174b4e900ff6c7b0444f29","665500ab8938657b03fbdba8","665792411f5820de30e93e44","888","stimuli/1010101.jpg","1","","prediction_trial","1","","true","","1","true","true","false","true","false","true","[1]","010","101","1","","","","","","",""
"","","","","","image-keyboard-response","219","499267","0.0-194.0","63174b4e900ff6c7b0444f29","665500ab8938657b03fbdba8","665792411f5820de30e93e44","374","stimuli/10101011.jpg"," ","","feedback_trial","1","","","","","","","","","","","","","","","","","","","","",""
"","","","","","image-keyboard-response","220","500284","0.0-195.0","63174b4e900ff6c7b0444f29","665500ab8938657b03fbdba8","665792411f5820de30e93e44","1015","stimuli/2110111.jpg","2","","prediction_trial","2","","true","","2","false","false","true","true","false","false","[2]","110","111","1","","","","","","",""
"","","","","","image-keyboard-response","221","500692","0.0-196.0","63174b4e900ff6c7b0444f29","665500ab8938657b03fbdba8","665792411f5820de30e93e44","406","stimuli/21101112.jpg"," ","","feedback_trial","2","","","","","","","","","","","","","","","","","","","","",""
"","","","","","image-keyboard-response","222","502241","0.0-197.0","63174b4e900ff6c7b0444f29","665500ab8938657b03fbdba8","665792411f5820de30e93e44","1546","stimuli/0110111.jpg","0","","prediction_trial","0","","true","","0","false","false","false","false","false","false","[1,0]","110","111","1","","","","","","",""
"","","","","","image-keyboard-response","223","502528","0.0-198.0","63174b4e900ff6c7b0444f29","665500ab8938657b03fbdba8","665792411f5820de30e93e44","285","stimuli/01101110.jpg"," ","","feedback_trial","1","","","","","","","","","","","","","","","","","","","","",""
"","","","","","image-keyboard-response","224","503548","0.0-199.0","63174b4e900ff6c7b0444f29","665500ab8938657b03fbdba8","665792411f5820de30e93e44","1018","stimuli/1000111.jpg","1","","prediction_trial","1","","true","","1","false","false","true","true","false","false","[1]","000","111","1","","","","","","",""
"","","","","","image-keyboard-response","225","504003","0.0-200.0","63174b4e900ff6c7b0444f29","665500ab8938657b03fbdba8","665792411f5820de30e93e44","453","stimuli/10001111.jpg"," ","","feedback_trial","1","","","","","","","","","","","","","","","","","","","","",""
"","","","","","image-keyboard-response","226","504828","0.0-201.0","63174b4e900ff6c7b0444f29","665500ab8938657b03fbdba8","665792411f5820de30e93e44","823","stimuli/2111100.jpg","2","","prediction_trial","1","","false","","2","true","true","false","false","false","false","[1,2,0]","111","100","0","","","","","","",""
"","","","","","image-keyboard-response","227","505178","0.0-202.0","63174b4e900ff6c7b0444f29","665500ab8938657b03fbdba8","665792411f5820de30e93e44","348","stimuli/21111001.jpg"," ","","feedback_trial","1","","","","","","","","","","","","","","","","","","","","",""
"","","","","","image-keyboard-response","228","507278","0.0-203.0","63174b4e900ff6c7b0444f29","665500ab8938657b03fbdba8","665792411f5820de30e93e44","2097","stimuli/1110010.jpg","1","","prediction_trial","0","","false","","1","false","true","false","false","false","false","[0,1]","110","010","0","","","","","","",""
"","","","","","image-keyboard-response","229","507683","0.0-204.0","63174b4e900ff6c7b0444f29","665500ab8938657b03fbdba8","665792411f5820de30e93e44","403","stimuli/11100100.jpg"," ","","feedback_trial","0","","","","","","","","","","","","","","","","","","","","",""
"","","","","","image-keyboard-response","230","510714","0.0-205.0","63174b4e900ff6c7b0444f29","665500ab8938657b03fbdba8","665792411f5820de30e93e44","3027","stimuli/1101110.jpg","1","","prediction_trial","1","","true","","1","false","false","true","true","false","false","[1]","101","110","1","","","","","","",""
"","","","","","image-keyboard-response","231","511009","0.0-206.0","63174b4e900ff6c7b0444f29","665500ab8938657b03fbdba8","665792411f5820de30e93e44","293","stimuli/11011101.jpg"," ","","feedback_trial","1","","","","","","","","","","","","","","","","","","","","",""
"","","","","","image-keyboard-response","232","511813","0.0-207.0","63174b4e900ff6c7b0444f29","665500ab8938657b03fbdba8","665792411f5820de30e93e44","801","stimuli/2110100.jpg","2","","prediction_trial","2","","true","","2","true","true","true","true","true","true","[2]","110","100","1","","","","","","",""
"","","","","","image-keyboard-response","233","512165","0.0-208.0","63174b4e900ff6c7b0444f29","665500ab8938657b03fbdba8","665792411f5820de30e93e44","350","stimuli/21101002.jpg"," ","","feedback_trial","2","","","","","","","","","","","","","","","","","","","","",""
"","","","","","image-keyboard-response","234","514030","0.0-209.0","63174b4e900ff6c7b0444f29","665500ab8938657b03fbdba8","665792411f5820de30e93e44","1863","stimuli/0010110.jpg","0","","prediction_trial","0","","true","","0","false","false","true","true","false","false","[0]","010","110","1","","","","","","",""
"","","","","","image-keyboard-response","235","514314","0.0-210.0","63174b4e900ff6c7b0444f29","665500ab8938657b03fbdba8","665792411f5820de30e93e44","282","stimuli/00101100.jpg"," ","","feedback_trial","0","","","","","","","","","","","","","","","","","","","","",""
"","","","","","image-keyboard-response","236","515163","0.0-211.0","63174b4e900ff6c7b0444f29","665500ab8938657b03fbdba8","665792411f5820de30e93e44","846","stimuli/2111010.jpg","2","","prediction_trial","1","","false","","2","true","true","false","false","false","false","[0,1,2]","111","010","0","","","","","","",""
"","","","","","image-keyboard-response","237","515871","0.0-212.0","63174b4e900ff6c7b0444f29","665500ab8938657b03fbdba8","665792411f5820de30e93e44","706","stimuli/21110101.jpg"," ","","feedback_trial","0","","","","","","","","","","","","","","","","","","","","",""
"","","","","","image-keyboard-response","238","516773","0.0-213.0","63174b4e900ff6c7b0444f29","665500ab8938657b03fbdba8","665792411f5820de30e93e44","900","stimuli/1001000.jpg","1","","prediction_trial","1","","true","","1","true","true","true","true","true","true","[1]","001","000","1","","","","","","",""
"","","","","","image-keyboard-response","239","517155","0.0-214.0","63174b4e900ff6c7b0444f29","665500ab8938657b03fbdba8","665792411f5820de30e93e44","379","stimuli/10010001.jpg"," ","","feedback_trial","1","","","","","","","","","","","","","","","","","","","","",""
"","","","","","image-keyboard-response","240","518104","0.0-215.0","63174b4e900ff6c7b0444f29","665500ab8938657b03fbdba8","665792411f5820de30e93e44","946","stimuli/0000010.jpg","0","","prediction_trial","0","","true","","0","true","true","true","true","true","true","[0]","000","010","1","","","","","","",""
"","","","","","image-keyboard-response","241","518455","0.0-216.0","63174b4e900ff6c7b0444f29","665500ab8938657b03fbdba8","665792411f5820de30e93e44","348","stimuli/00000100.jpg"," ","","feedback_trial","0","","","","","","","","","","","","","","","","","","","","",""
"","","","","","image-keyboard-response","242","519615","0.0-217.0","63174b4e900ff6c7b0444f29","665500ab8938657b03fbdba8","665792411f5820de30e93e44","1157","stimuli/1010011.jpg","2","","prediction_trial","1","","false","","1","false","false","false","true","false","false","[1]","010","011","0","","","","","","",""
"","","","","","image-keyboard-response","243","520066","0.0-218.0","63174b4e900ff6c7b0444f29","665500ab8938657b03fbdba8","665792411f5820de30e93e44","449","stimuli/10100111.jpg"," ","","feedback_trial","1","","","","","","","","","","","","","","","","","","","","",""
"","","","","","image-keyboard-response","244","520911","0.0-219.0","63174b4e900ff6c7b0444f29","665500ab8938657b03fbdba8","665792411f5820de30e93e44","842","stimuli/0110010.jpg","0","","prediction_trial","0","","true","","0","true","true","false","false","false","false","[0,1]","110","010","1","","","","","","",""
"","","","","","image-keyboard-response","245","521252","0.0-220.0","63174b4e900ff6c7b0444f29","665500ab8938657b03fbdba8","665792411f5820de30e93e44","338","stimuli/01100100.jpg"," ","","feedback_trial","0","","","","","","","","","","","","","","","","","","","","",""
"","","","","","image-keyboard-response","246","522148","0.0-221.0","63174b4e900ff6c7b0444f29","665500ab8938657b03fbdba8","665792411f5820de30e93e44","894","stimuli/2100111.jpg","2","","prediction_trial","2","","true","","2","false","false","true","true","false","false","[2]","100","111","1","","","","","","",""
"","","","","","image-keyboard-response","247","522520","0.0-222.0","63174b4e900ff6c7b0444f29","665500ab8938657b03fbdba8","665792411f5820de30e93e44","371","stimuli/21001112.jpg"," ","","feedback_trial","2","","","","","","","","","","","","","","","","","","","","",""
"","","","","","image-keyboard-response","248","523596","0.0-223.0","63174b4e900ff6c7b0444f29","665500ab8938657b03fbdba8","665792411f5820de30e93e44","1072","stimuli/0111001.jpg","0","","prediction_trial","2","","false","","0","true","true","false","false","false","false","[0,1,2]","111","001","0","","","","","","",""
"","","","","","image-keyboard-response","249","526312","0.0-224.0","63174b4e900ff6c7b0444f29","665500ab8938657b03fbdba8","665792411f5820de30e93e44","2714","stimuli/01110012.jpg"," ","","feedback_trial","0","","","","","","","","","","","","","","","","","","","","",""
"","","","","","image-keyboard-response","250","527260","0.0-225.0","63174b4e900ff6c7b0444f29","665500ab8938657b03fbdba8","665792411f5820de30e93e44","946","stimuli/0000110.jpg","1","","prediction_trial","0","","false","","0","false","false","true","true","false","false","[0]","000","110","0","","","","","","",""
"","","","","","image-keyboard-response","251","527657","0.0-226.0","63174b4e900ff6c7b0444f29","665500ab8938657b03fbdba8","665792411f5820de30e93e44","396","stimuli/00001100.jpg"," ","","feedback_trial","0","","","","","","","","","","","","","","","","","","","","",""
"","","","","","image-keyboard-response","252","529891","0.0-227.0","63174b4e900ff6c7b0444f29","665500ab8938657b03fbdba8","665792411f5820de30e93e44","2231","stimuli/0100100.jpg","0","","prediction_trial","0","","true","","0","false","true","false","true","false","true","[0]","100","100","1","","","","","","",""
"","","","","","image-keyboard-response","253","530155","0.0-228.0","63174b4e900ff6c7b0444f29","665500ab8938657b03fbdba8","665792411f5820de30e93e44","262","stimuli/01001000.jpg"," ","","feedback_trial","0","","","","","","","","","","","","","","","","","","","","",""
"","","","","","image-keyboard-response","254","532097","0.0-229.0","63174b4e900ff6c7b0444f29","665500ab8938657b03fbdba8","665792411f5820de30e93e44","1940","stimuli/1001110.jpg","1","","prediction_trial","1","","true","","1","false","false","true","true","false","false","[1]","001","110","1","","","","","","",""
"","","","","","image-keyboard-response","255","532435","0.0-230.0","63174b4e900ff6c7b0444f29","665500ab8938657b03fbdba8","665792411f5820de30e93e44","336","stimuli/10011101.jpg"," ","","feedback_trial","1","","","","","","","","","","","","","","","","","","","","",""
"","","","","","image-keyboard-response","256","533290","0.0-231.0","63174b4e900ff6c7b0444f29","665500ab8938657b03fbdba8","665792411f5820de30e93e44","852","stimuli/0000000.jpg","0","","prediction_trial","0","","true","","0","true","true","true","true","true","true","[0]","000","000","1","","","","","","",""
"","","","","","image-keyboard-response","257","533616","0.0-232.0","63174b4e900ff6c7b0444f29","665500ab8938657b03fbdba8","665792411f5820de30e93e44","323","stimuli/00000000.jpg"," ","","feedback_trial","0","","","","","","","","","","","","","","","","","","","","",""
"","","","","","image-keyboard-response","258","535348","0.0-233.0","63174b4e900ff6c7b0444f29","665500ab8938657b03fbdba8","665792411f5820de30e93e44","1730","stimuli/2100011.jpg","2","","prediction_trial","2","","true","","2","false","false","true","true","false","false","[2]","100","011","1","","","","","","",""
"","","","","","image-keyboard-response","259","535722","0.0-234.0","63174b4e900ff6c7b0444f29","665500ab8938657b03fbdba8","665792411f5820de30e93e44","372","stimuli/21000112.jpg"," ","","feedback_trial","2","","","","","","","","","","","","","","","","","","","","",""
"","","","","","image-keyboard-response","260","538063","0.0-235.0","63174b4e900ff6c7b0444f29","665500ab8938657b03fbdba8","665792411f5820de30e93e44","2339","stimuli/1011110.jpg","0","","prediction_trial","2","","false","","1","false","false","false","false","false","false","[2,1]","011","110","0","","","","","","",""
"","","","","","image-keyboard-response","261","538656","0.0-236.0","63174b4e900ff6c7b0444f29","665500ab8938657b03fbdba8","665792411f5820de30e93e44","590","stimuli/10111102.jpg"," ","","feedback_trial","2","","","","","","","","","","","","","","","","","","","","",""
"","","","","","image-keyboard-response","262","540296","0.0-237.0","63174b4e900ff6c7b0444f29","665500ab8938657b03fbdba8","665792411f5820de30e93e44","1637","stimuli/0110101.jpg","0","","prediction_trial","1","","false","","0","false","false","false","false","false","false","[0,1]","110","101","0","","","","","","",""
"","","","","","image-keyboard-response","263","541232","0.0-238.0","63174b4e900ff6c7b0444f29","665500ab8938657b03fbdba8","665792411f5820de30e93e44","934","stimuli/01101011.jpg"," ","","feedback_trial","0","","","","","","","","","","","","","","","","","","","","",""
"","","","","","image-keyboard-response","264","542475","0.0-239.0","63174b4e900ff6c7b0444f29","665500ab8938657b03fbdba8","665792411f5820de30e93e44","1241","stimuli/2110110.jpg","2","","prediction_trial","2","","true","","2","true","true","true","true","true","true","[2]","110","110","1","","","","","","",""
"","","","","","image-keyboard-response","265","542728","0.0-240.0","63174b4e900ff6c7b0444f29","665500ab8938657b03fbdba8","665792411f5820de30e93e44","250","stimuli/21101102.jpg"," ","","feedback_trial","2","","","","","","","","","","","","","","","","","","","","",""
"","","","","","image-keyboard-response","266","544054","0.0-241.0","63174b4e900ff6c7b0444f29","665500ab8938657b03fbdba8","665792411f5820de30e93e44","1324","stimuli/1110000.jpg","1","","prediction_trial","0","","false","","1","true","true","false","false","false","false","[0,1]","110","000","0","","","","","","",""
"","","","","","image-keyboard-response","267","544327","0.0-242.0","63174b4e900ff6c7b0444f29","665500ab8938657b03fbdba8","665792411f5820de30e93e44","271","stimuli/11100000.jpg"," ","","feedback_trial","0","","","","","","","","","","","","","","","","","","","","",""
"","","","","","image-keyboard-response","268","546407","0.0-243.0","63174b4e900ff6c7b0444f29","665500ab8938657b03fbdba8","665792411f5820de30e93e44","2076","stimuli/2101011.jpg","1","","prediction_trial","0","","false","","2","false","false","false","false","false","false","[2,0]","101","011","0","","","","","","",""
"","","","","","image-keyboard-response","269","546741","0.0-244.0","63174b4e900ff6c7b0444f29","665500ab8938657b03fbdba8","665792411f5820de30e93e44","333","stimuli/21010110.jpg"," ","","feedback_trial","2","","","","","","","","","","","","","","","","","","","","",""
"","","","","","image-keyboard-response","270","548296","0.0-245.0","63174b4e900ff6c7b0444f29","665500ab8938657b03fbdba8","665792411f5820de30e93e44","1546","stimuli/1001010.jpg","1","","prediction_trial","1","","true","","1","false","true","true","true","false","true","[1]","001","010","1","","","","","","",""
"","","","","","image-keyboard-response","271","548567","0.0-246.0","63174b4e900ff6c7b0444f29","665500ab8938657b03fbdba8","665792411f5820de30e93e44","268","stimuli/10010101.jpg"," ","","feedback_trial","1","","","","","","","","","","","","","","","","","","","","",""
"","","","","","image-keyboard-response","272","549844","0.0-247.0","63174b4e900ff6c7b0444f29","665500ab8938657b03fbdba8","665792411f5820de30e93e44","1273","stimuli/1110011.jpg","2","","prediction_trial","1","","false","","1","false","false","false","false","false","false","[1,0]","110","011","0","","","","","","",""
"","","","","","image-keyboard-response","273","550148","0.0-248.0","63174b4e900ff6c7b0444f29","665500ab8938657b03fbdba8","665792411f5820de30e93e44","302","stimuli/11100111.jpg"," ","","feedback_trial","1","","","","","","","","","","","","","","","","","","","","",""
"","","","","","image-keyboard-response","274","553308","0.0-249.0","63174b4e900ff6c7b0444f29","665500ab8938657b03fbdba8","665792411f5820de30e93e44","3157","stimuli/1101010.jpg","1","","prediction_trial","1","","true","","1","false","true","true","true","false","true","[1]","101","010","1","","","","","","",""
"","","","","","image-keyboard-response","275","553803","0.0-250.0","63174b4e900ff6c7b0444f29","665500ab8938657b03fbdba8","665792411f5820de30e93e44","492","stimuli/11010101.jpg"," ","","feedback_trial","1","","","","","","","","","","","","","","","","","","","","",""
"","","","","","image-keyboard-response","276","556338","0.0-251.0","63174b4e900ff6c7b0444f29","665500ab8938657b03fbdba8","665792411f5820de30e93e44","2533","stimuli/2011011.jpg","2","","prediction_trial","1","","false","","2","false","false","false","false","false","false","[1,2]","011","011","0","","","","","","",""
"","","","","","image-keyboard-response","277","556812","0.0-252.0","63174b4e900ff6c7b0444f29","665500ab8938657b03fbdba8","665792411f5820de30e93e44","472","stimuli/20110111.jpg"," ","","feedback_trial","1","","","","","","","","","","","","","","","","","","","","",""
"","","","","","image-keyboard-response","278","558551","0.0-253.0","63174b4e900ff6c7b0444f29","665500ab8938657b03fbdba8","665792411f5820de30e93e44","1736","stimuli/1000011.jpg","2","","prediction_trial","1","","false","","1","false","false","true","true","false","false","[1]","000","011","0","","","","","","",""
"","","","","","image-keyboard-response","279","559046","0.0-254.0","63174b4e900ff6c7b0444f29","665500ab8938657b03fbdba8","665792411f5820de30e93e44","491","stimuli/10000111.jpg"," ","","feedback_trial","1","","","","","","","","","","","","","","","","","","","","",""
"","","","","","image-keyboard-response","280","561202","0.0-255.0","63174b4e900ff6c7b0444f29","665500ab8938657b03fbdba8","665792411f5820de30e93e44","2154","stimuli/2001011.jpg","2","","prediction_trial","2","","true","","2","false","false","false","true","false","false","[2]","001","011","1","","","","","","",""
"","","","","","image-keyboard-response","281","561464","0.0-256.0","63174b4e900ff6c7b0444f29","665500ab8938657b03fbdba8","665792411f5820de30e93e44","260","stimuli/20010112.jpg"," ","","feedback_trial","2","","","","","","","","","","","","","","","","","","","","",""
"","","","","","image-keyboard-response","282","562834","0.0-257.0","63174b4e900ff6c7b0444f29","665500ab8938657b03fbdba8","665792411f5820de30e93e44","1367","stimuli/1011010.jpg","1","","prediction_trial","1","","true","","1","false","true","false","false","false","false","[2,1]","011","010","1","","","","","","",""
"","","","","","image-keyboard-response","283","563178","0.0-258.0","63174b4e900ff6c7b0444f29","665500ab8938657b03fbdba8","665792411f5820de30e93e44","342","stimuli/10110101.jpg"," ","","feedback_trial","2","","","","","","","","","","","","","","","","","","","","",""
"","","","","","image-keyboard-response","284","564341","0.0-259.0","63174b4e900ff6c7b0444f29","665500ab8938657b03fbdba8","665792411f5820de30e93e44","1161","stimuli/2011111.jpg","0","","prediction_trial","2","","false","","2","false","false","false","false","false","false","[2,1]","011","111","0","","","","","","",""
"","","","","","image-keyboard-response","285","564669","0.0-260.0","63174b4e900ff6c7b0444f29","665500ab8938657b03fbdba8","665792411f5820de30e93e44","325","stimuli/20111112.jpg"," ","","feedback_trial","2","","","","","","","","","","","","","","","","","","","","",""
"","","","","","image-keyboard-response","286","565481","0.0-261.0","63174b4e900ff6c7b0444f29","665500ab8938657b03fbdba8","665792411f5820de30e93e44","809","stimuli/2000001.jpg","2","","prediction_trial","2","","true","","2","false","true","true","true","false","true","[2]","000","001","1","","","","","","",""
"","","","","","image-keyboard-response","287","565898","0.0-262.0","63174b4e900ff6c7b0444f29","665500ab8938657b03fbdba8","665792411f5820de30e93e44","414","stimuli/20000012.jpg"," ","","feedback_trial","2","","","","","","","","","","","","","","","","","","","","",""
"","","","","","image-keyboard-response","288","566674","0.0-263.0","63174b4e900ff6c7b0444f29","665500ab8938657b03fbdba8","665792411f5820de30e93e44","774","stimuli/0101101.jpg","1","","prediction_trial","2","","false","","0","false","false","false","false","false","false","[2,0]","101","101","0","","","","","","",""
"","","","","","image-keyboard-response","289","567155","0.0-264.0","63174b4e900ff6c7b0444f29","665500ab8938657b03fbdba8","665792411f5820de30e93e44","478","stimuli/01011012.jpg"," ","","feedback_trial","2","","","","","","","","","","","","","","","","","","","","",""
"","","","","","image-keyboard-response","290","567950","0.0-265.0","63174b4e900ff6c7b0444f29","665500ab8938657b03fbdba8","665792411f5820de30e93e44","793","stimuli/0001101.jpg","0","","prediction_trial","0","","true","","0","false","false","true","true","false","false","[0]","001","101","1","","","","","","",""
"","","","","","image-keyboard-response","291","568426","0.0-266.0","63174b4e900ff6c7b0444f29","665500ab8938657b03fbdba8","665792411f5820de30e93e44","472","stimuli/00011010.jpg"," ","","feedback_trial","0","","","","","","","","","","","","","","","","","","","","",""
"","","","","","image-keyboard-response","292","569072","0.0-267.0","63174b4e900ff6c7b0444f29","665500ab8938657b03fbdba8","665792411f5820de30e93e44","643","stimuli/2010100.jpg","2","","prediction_trial","2","","true","","2","true","true","true","true","true","true","[2]","010","100","1","","","","","","",""
"","","","","","image-keyboard-response","293","569462","0.0-268.0","63174b4e900ff6c7b0444f29","665500ab8938657b03fbdba8","665792411f5820de30e93e44","388","stimuli/20101002.jpg"," ","","feedback_trial","2","","","","","","","","","","","","","","","","","","","","",""
"","","","","","image-keyboard-response","294","570968","0.0-269.0","63174b4e900ff6c7b0444f29","665500ab8938657b03fbdba8","665792411f5820de30e93e44","1504","stimuli/0011011.jpg","0","","prediction_trial","0","","true","","0","true","true","true","true","true","true","[0]","011","011","1","","","","","","",""
"","","","","","image-keyboard-response","295","571257","0.0-270.0","63174b4e900ff6c7b0444f29","665500ab8938657b03fbdba8","665792411f5820de30e93e44","286","stimuli/00110110.jpg"," ","","feedback_trial","0","","","","","","","","","","","","","","","","","","","","",""
"","","","","","image-keyboard-response","296","573395","0.0-271.0","63174b4e900ff6c7b0444f29","665500ab8938657b03fbdba8","665792411f5820de30e93e44","2136","stimuli/1100110.jpg","2","","prediction_trial","1","","false","","1","false","false","true","true","false","false","[1]","100","110","0","","","","","","",""
"","","","","","image-keyboard-response","297","573851","0.0-272.0","63174b4e900ff6c7b0444f29","665500ab8938657b03fbdba8","665792411f5820de30e93e44","454","stimuli/11001101.jpg"," ","","feedback_trial","1","","","","","","","","","","","","","","","","","","","","",""
"","","","","","image-keyboard-response","298","574895","0.0-273.0","63174b4e900ff6c7b0444f29","665500ab8938657b03fbdba8","665792411f5820de30e93e44","1042","stimuli/1000000.jpg","1","","prediction_trial","1","","true","","1","true","true","true","true","true","true","[1]","000","000","1","","","","","","",""
"","","","","","image-keyboard-response","299","575336","0.0-274.0","63174b4e900ff6c7b0444f29","665500ab8938657b03fbdba8","665792411f5820de30e93e44","440","stimuli/10000001.jpg"," ","","feedback_trial","1","","","","","","","","","","","","","","","","","","","","",""
"","","","","","image-keyboard-response","300","579575","0.0-275.0","63174b4e900ff6c7b0444f29","665500ab8938657b03fbdba8","665792411f5820de30e93e44","4237","stimuli/0011101.jpg","2","","prediction_trial","0","","false","","0","false","false","true","true","false","false","[0]","011","101","0","","","","","","",""
"","","","","","image-keyboard-response","301","580189","0.0-276.0","63174b4e900ff6c7b0444f29","665500ab8938657b03fbdba8","665792411f5820de30e93e44","611","stimuli/00111010.jpg"," ","","feedback_trial","0","","","","","","","","","","","","","","","","","","","","",""
"","","","","","image-keyboard-response","302","581033","0.0-277.0","63174b4e900ff6c7b0444f29","665500ab8938657b03fbdba8","665792411f5820de30e93e44","842","stimuli/2111000.jpg","2","","prediction_trial","1","","false","","2","true","true","false","false","false","false","[0,2,1]","111","000","0","","","","","","",""
"","","","","","image-keyboard-response","303","581503","0.0-278.0","63174b4e900ff6c7b0444f29","665500ab8938657b03fbdba8","665792411f5820de30e93e44","468","stimuli/21110001.jpg"," ","","feedback_trial","0","","","","","","","","","","","","","","","","","","","","",""
"","","","","","image-keyboard-response","304","583415","0.0-279.0","63174b4e900ff6c7b0444f29","665500ab8938657b03fbdba8","665792411f5820de30e93e44","1910","stimuli/0100111.jpg","2","","prediction_trial","0","","false","","0","false","false","false","true","false","false","[0]","100","111","0","","","","","","",""
"","","","","","image-keyboard-response","305","583895","0.0-280.0","63174b4e900ff6c7b0444f29","665500ab8938657b03fbdba8","665792411f5820de30e93e44","477","stimuli/01001110.jpg"," ","","feedback_trial","0","","","","","","","","","","","","","","","","","","","","",""
"","","","","","image-keyboard-response","306","584923","0.0-281.0","63174b4e900ff6c7b0444f29","665500ab8938657b03fbdba8","665792411f5820de30e93e44","1026","stimuli/2101001.jpg","2","","prediction_trial","0","","false","","2","false","true","false","false","false","false","[0,2]","101","001","0","","","","","","",""
"","","","","","image-keyboard-response","307","585371","0.0-282.0","63174b4e900ff6c7b0444f29","665500ab8938657b03fbdba8","665792411f5820de30e93e44","445","stimuli/21010010.jpg"," ","","feedback_trial","0","","","","","","","","","","","","","","","","","","","","",""
"","","","","","image-keyboard-response","308","585903","0.0-283.0","63174b4e900ff6c7b0444f29","665500ab8938657b03fbdba8","665792411f5820de30e93e44","530","stimuli/1110101.jpg","1","","prediction_trial","0","","false","","1","true","true","false","false","false","false","[0,1]","110","101","0","","","","","","",""
"","","","","","image-keyboard-response","309","586275","0.0-284.0","63174b4e900ff6c7b0444f29","665500ab8938657b03fbdba8","665792411f5820de30e93e44","370","stimuli/11101010.jpg"," ","","feedback_trial","0","","","","","","","","","","","","","","","","","","","","",""
"","","","","","image-keyboard-response","310","587238","0.0-285.0","63174b4e900ff6c7b0444f29","665500ab8938657b03fbdba8","665792411f5820de30e93e44","960","stimuli/0111010.jpg","0","","prediction_trial","1","","false","","0","true","true","false","false","false","false","[0,1,2]","111","010","0","","","","","","",""
"","","","","","image-keyboard-response","311","587614","0.0-286.0","63174b4e900ff6c7b0444f29","665500ab8938657b03fbdba8","665792411f5820de30e93e44","374","stimuli/01110101.jpg"," ","","feedback_trial","0","","","","","","","","","","","","","","","","","","","","",""
"","","","","","image-keyboard-response","312","588441","0.0-287.0","63174b4e900ff6c7b0444f29","665500ab8938657b03fbdba8","665792411f5820de30e93e44","824","stimuli/1010110.jpg","2","","prediction_trial","1","","false","","1","false","false","false","true","false","false","[1]","010","110","0","","","","","","",""
"","","","","","image-keyboard-response","313","588878","0.0-288.0","63174b4e900ff6c7b0444f29","665500ab8938657b03fbdba8","665792411f5820de30e93e44","435","stimuli/10101101.jpg"," ","","feedback_trial","1","","","","","","","","","","","","","","","","","","","","",""
"","","","","","image-keyboard-response","314","589647","0.0-289.0","63174b4e900ff6c7b0444f29","665500ab8938657b03fbdba8","665792411f5820de30e93e44","766","stimuli/0111100.jpg","0","","prediction_trial","1","","false","","0","false","true","false","false","false","false","[0,1,2]","111","100","0","","","","","","",""
"","","","","","image-keyboard-response","315","590100","0.0-290.0","63174b4e900ff6c7b0444f29","665500ab8938657b03fbdba8","665792411f5820de30e93e44","451","stimuli/01111001.jpg"," ","","feedback_trial","0","","","","","","","","","","","","","","","","","","","","",""
"","","","","","image-keyboard-response","316","590686","0.0-291.0","63174b4e900ff6c7b0444f29","665500ab8938657b03fbdba8","665792411f5820de30e93e44","584","stimuli/2011010.jpg","2","","prediction_trial","1","","false","","2","true","true","false","false","false","false","[2,1]","011","010","0","","","","","","",""
"","","","","","image-keyboard-response","317","591131","0.0-292.0","63174b4e900ff6c7b0444f29","665500ab8938657b03fbdba8","665792411f5820de30e93e44","442","stimuli/20110101.jpg"," ","","feedback_trial","2","","","","","","","","","","","","","","","","","","","","",""
"","","","","","survey-html-form","318","605481","0.0-293.0","63174b4e900ff6c7b0444f29","665500ab8938657b03fbdba8","665792411f5820de30e93e44","14346","","{""feedback"":"""",""age"":""49"",""gender"":""Female"",""other_gender"":"""",""race"":""Black/African American"",""other_race"":"""",""ethnicity"":""Non-Hispanic""}","","exit_survey","","","","","","","","","","","","","","","","","49","Non-Hispanic","Female","Black/African American","0.6527777777777778","0.6527777777777778"
