"success","timeout","failed_images","failed_audio","failed_video","trial_type","trial_index","time_elapsed","internal_node_id","prolific_id","prolific_study_id","prolific_session_id","rt","stimulus","response","view_history","trial","character_choice","stimulus_dict","accuracy","correct_response","ball_pos","ego_ball_visible","ego_can_infer","alter_ball_visible","alter_can_infer","collective_ball_visible","collective_can_infer","search_locations","alter_occluders","ego_occluders","accuracy_bool","feedback","age","ethnicity","gender","race","overall_accuracy","bonus"
"true","false","[]","[]","[]","preload","0","10559","0.0-0.0","648786bd2c580f666fb051cd","665500ab8938657b03fbdba8","665780ef04e3a81685187a50","","","","","","","","","","","","","","","","","","","","","","","","","","",""
"true","","","","","fullscreen","1","17544","0.0-1.0","648786bd2c580f666fb051cd","665500ab8938657b03fbdba8","665780ef04e3a81685187a50","","","","","","","","","","","","","","","","","","","","","","","","","","",""
"","","","","","html-button-response","2","53313","0.0-2.0","648786bd2c580f666fb051cd","665500ab8938657b03fbdba8","665780ef04e3a81685187a50","35756","<p><b>Consent Form</b></p> <div style=""text-align:left;background-color:lightgrey; padding:20px; max-width:900px;""><p>Please consider this information carefully before deciding whether to participate in this research.</p> <p>The purpose of this research is to examine which factors influence social judgment and decision-making. You will be asked to make judgements about individuals and actions in social scenarios. We are simply interested in your judgement. The study will take less than 1 hour to complete, and you will receive less than $20 on Prolific. Your compensation and time commitment are specified in the study description. There are no anticipated risks associated with participating in this study. The effects of participating should be comparable to those you would ordinarily experience from viewing a computer monitor and using a mouse or keyboard for a similar amount of time. At the end of the study, we will provide an explanation of the questions that motivate this line of research and will describe the potential implications. </p><p> Your participation in this study is completely voluntary and you may refuse to participate or you may choose to withdraw at any time without penalty or loss of benefits to you which are otherwise entitled. Your participation in this study will remain confidential. No personally identifiable information will be associated with your data. Also, all analyses of the data will be averaged across all the participants, so your individual responses will never be specifically analyzed. </p><p> If you have questions or concerns about your participation or payment, or want to request a summary of research findings, please contact Dr. Jonathan Phillips at Jonathan.S.Phillips@dartmouth.edu. </p><p> Please save a copy of this form for your records. </p><p><b>Agreement: </b>The nature and purpose of this research have been sufficiently explained and I agree to participate in this study. I understand that I am free to withdraw at any time without incurring any penalty. Please consent by clicking the button below to continue. Otherwise, please exit the study at any time. </p>","0","","","","","","","","","","","","","","","","","","","","","","","",""
"","","","","","instructions","3","193183","0.0-3.0-0.0","648786bd2c580f666fb051cd","665500ab8938657b03fbdba8","665780ef04e3a81685187a50","139865","","","[{""page_index"":0,""viewing_time"":4397},{""page_index"":1,""viewing_time"":4073},{""page_index"":2,""viewing_time"":4196},{""page_index"":3,""viewing_time"":13851},{""page_index"":4,""viewing_time"":6441},{""page_index"":5,""viewing_time"":4267},{""page_index"":6,""viewing_time"":6861},{""page_index"":7,""viewing_time"":6888},{""page_index"":8,""viewing_time"":7793},{""page_index"":9,""viewing_time"":3482},{""page_index"":10,""viewing_time"":32532},{""page_index"":11,""viewing_time"":25180},{""page_index"":12,""viewing_time"":12539},{""page_index"":13,""viewing_time"":7358}]","intro","","","","","","","","","","","","","","","","","","","","","",""
"","","","","","image-keyboard-response","4","199124","0.0-3.0-1.0","648786bd2c580f666fb051cd","665500ab8938657b03fbdba8","665780ef04e3a81685187a50","5905","stimuli/2100101.jpg","2","","prediction_practice","2","{""filepath"":""stimuli/2100101.jpg"",""ball_pos"":2,""ego_ball_visible"":false,""ego_can_infer"":false,""alter_ball_visible"":true,""alter_can_infer"":true,""collective_ball_visible"":false,""collective_can_infer"":false,""search_locations"":[2],""alter_occluders"":""100"",""ego_occluders"":""101""}","true","","","","","","","","","","","","","","","","","","",""
"","","","","","image-keyboard-response","5","202729","0.0-3.0-2.0","648786bd2c580f666fb051cd","665500ab8938657b03fbdba8","665780ef04e3a81685187a50","3596","stimuli/21001012.jpg"," ","","practrice_feedback","2","","","","","","","","","","","","","","","","","","","","",""
"","","","","","image-keyboard-response","6","205747","0.0-3.0-3.0","648786bd2c580f666fb051cd","665500ab8938657b03fbdba8","665780ef04e3a81685187a50","3011","stimuli/2001010.jpg","2","","prediction_practice","2","{""filepath"":""stimuli/2001010.jpg"",""ball_pos"":2,""ego_ball_visible"":true,""ego_can_infer"":true,""alter_ball_visible"":false,""alter_can_infer"":true,""collective_ball_visible"":false,""collective_can_infer"":true,""search_locations"":[2],""alter_occluders"":""001"",""ego_occluders"":""010""}","true","","","","","","","","","","","","","","","","","","",""
"","","","","","image-keyboard-response","7","207576","0.0-3.0-4.0","648786bd2c580f666fb051cd","665500ab8938657b03fbdba8","665780ef04e3a81685187a50","1801","stimuli/20010102.jpg"," ","","practrice_feedback","2","","","","","","","","","","","","","","","","","","","","",""
"","","","","","image-keyboard-response","8","209692","0.0-3.0-5.0","648786bd2c580f666fb051cd","665500ab8938657b03fbdba8","665780ef04e3a81685187a50","2110","stimuli/1000001.jpg","1","","prediction_practice","1","{""filepath"":""stimuli/1000001.jpg"",""ball_pos"":1,""ego_ball_visible"":true,""ego_can_infer"":true,""alter_ball_visible"":true,""alter_can_infer"":true,""collective_ball_visible"":true,""collective_can_infer"":true,""search_locations"":[1],""alter_occluders"":""000"",""ego_occluders"":""001""}","true","","","","","","","","","","","","","","","","","","",""
"","","","","","image-keyboard-response","9","212184","0.0-3.0-6.0","648786bd2c580f666fb051cd","665500ab8938657b03fbdba8","665780ef04e3a81685187a50","2483","stimuli/10000011.jpg"," ","","practrice_feedback","1","","","","","","","","","","","","","","","","","","","","",""
"","","","","","image-keyboard-response","10","213583","0.0-3.0-7.0","648786bd2c580f666fb051cd","665500ab8938657b03fbdba8","665780ef04e3a81685187a50","1395","stimuli/0000010.jpg","0","","prediction_practice","0","{""filepath"":""stimuli/0000010.jpg"",""ball_pos"":0,""ego_ball_visible"":true,""ego_can_infer"":true,""alter_ball_visible"":true,""alter_can_infer"":true,""collective_ball_visible"":true,""collective_can_infer"":true,""search_locations"":[0],""alter_occluders"":""000"",""ego_occluders"":""010""}","true","","","","","","","","","","","","","","","","","","",""
"","","","","","image-keyboard-response","11","216079","0.0-3.0-8.0","648786bd2c580f666fb051cd","665500ab8938657b03fbdba8","665780ef04e3a81685187a50","2490","stimuli/00000100.jpg"," ","","practrice_feedback","0","","","","","","","","","","","","","","","","","","","","",""
"","","","","","image-keyboard-response","12","219829","0.0-3.0-9.0","648786bd2c580f666fb051cd","665500ab8938657b03fbdba8","665780ef04e3a81685187a50","3743","stimuli/1100110.jpg","1","","prediction_practice","1","{""filepath"":""stimuli/1100110.jpg"",""ball_pos"":1,""ego_ball_visible"":false,""ego_can_infer"":false,""alter_ball_visible"":true,""alter_can_infer"":true,""collective_ball_visible"":false,""collective_can_infer"":false,""search_locations"":[1],""alter_occluders"":""100"",""ego_occluders"":""110""}","true","","","","","","","","","","","","","","","","","","",""
"","","","","","image-keyboard-response","13","221568","0.0-3.0-10.0","648786bd2c580f666fb051cd","665500ab8938657b03fbdba8","665780ef04e3a81685187a50","1733","stimuli/11001101.jpg"," ","","practrice_feedback","1","","","","","","","","","","","","","","","","","","","","",""
"","","","","","image-keyboard-response","14","226827","0.0-3.0-11.0","648786bd2c580f666fb051cd","665500ab8938657b03fbdba8","665780ef04e3a81685187a50","5253","stimuli/1000101.jpg","2","","prediction_practice","1","{""filepath"":""stimuli/1000101.jpg"",""ball_pos"":1,""ego_ball_visible"":true,""ego_can_infer"":true,""alter_ball_visible"":true,""alter_can_infer"":true,""collective_ball_visible"":true,""collective_can_infer"":true,""search_locations"":[1],""alter_occluders"":""000"",""ego_occluders"":""101""}","false","","","","","","","","","","","","","","","","","","",""
"","","","","","image-keyboard-response","15","230862","0.0-3.0-12.0","648786bd2c580f666fb051cd","665500ab8938657b03fbdba8","665780ef04e3a81685187a50","4029","stimuli/10001011.jpg"," ","","practrice_feedback","1","","","","","","","","","","","","","","","","","","","","",""
"","","","","","image-keyboard-response","16","233067","0.0-3.0-13.0","648786bd2c580f666fb051cd","665500ab8938657b03fbdba8","665780ef04e3a81685187a50","2200","stimuli/0110000.jpg","0","","prediction_practice","1","{""filepath"":""stimuli/0110000.jpg"",""ball_pos"":0,""ego_ball_visible"":true,""ego_can_infer"":true,""alter_ball_visible"":false,""alter_can_infer"":false,""collective_ball_visible"":false,""collective_can_infer"":false,""search_locations"":[1,0],""alter_occluders"":""110"",""ego_occluders"":""000""}","false","","","","","","","","","","","","","","","","","","",""
"","","","","","image-keyboard-response","17","237075","0.0-3.0-14.0","648786bd2c580f666fb051cd","665500ab8938657b03fbdba8","665780ef04e3a81685187a50","4002","stimuli/01100001.jpg"," ","","practrice_feedback","1","","","","","","","","","","","","","","","","","","","","",""
"","","","","","image-keyboard-response","18","240768","0.0-3.0-15.0","648786bd2c580f666fb051cd","665500ab8938657b03fbdba8","665780ef04e3a81685187a50","3634","stimuli/0111010.jpg","0","","prediction_practice","2","{""filepath"":""stimuli/0111010.jpg"",""ball_pos"":0,""ego_ball_visible"":true,""ego_can_infer"":true,""alter_ball_visible"":false,""alter_can_infer"":false,""collective_ball_visible"":false,""collective_can_infer"":false,""search_locations"":[2,0,1],""alter_occluders"":""111"",""ego_occluders"":""010""}","false","","","","","","","","","","","","","","","","","","",""
"","","","","","image-keyboard-response","19","244580","0.0-3.0-16.0","648786bd2c580f666fb051cd","665500ab8938657b03fbdba8","665780ef04e3a81685187a50","3806","stimuli/01110102.jpg"," ","","practrice_feedback","2","","","","","","","","","","","","","","","","","","","","",""
"","","","","","image-keyboard-response","20","249194","0.0-3.0-17.0","648786bd2c580f666fb051cd","665500ab8938657b03fbdba8","665780ef04e3a81685187a50","4605","stimuli/2010111.jpg","1","","prediction_practice","2","{""filepath"":""stimuli/2010111.jpg"",""ball_pos"":2,""ego_ball_visible"":false,""ego_can_infer"":false,""alter_ball_visible"":true,""alter_can_infer"":true,""collective_ball_visible"":false,""collective_can_infer"":false,""search_locations"":[2],""alter_occluders"":""010"",""ego_occluders"":""111""}","false","","","","","","","","","","","","","","","","","","",""
"","","","","","image-keyboard-response","21","252083","0.0-3.0-18.0","648786bd2c580f666fb051cd","665500ab8938657b03fbdba8","665780ef04e3a81685187a50","2881","stimuli/20101112.jpg"," ","","practrice_feedback","2","","","","","","","","","","","","","","","","","","","","",""
"","","","","","image-keyboard-response","22","253983","0.0-3.0-19.0","648786bd2c580f666fb051cd","665500ab8938657b03fbdba8","665780ef04e3a81685187a50","1895","stimuli/0001011.jpg","0","","prediction_practice","0","{""filepath"":""stimuli/0001011.jpg"",""ball_pos"":0,""ego_ball_visible"":true,""ego_can_infer"":true,""alter_ball_visible"":true,""alter_can_infer"":true,""collective_ball_visible"":true,""collective_can_infer"":true,""search_locations"":[0],""alter_occluders"":""001"",""ego_occluders"":""011""}","true","","","","","","","","","","","","","","","","","","",""
"","","","","","image-keyboard-response","23","256206","0.0-3.0-20.0","648786bd2c580f666fb051cd","665500ab8938657b03fbdba8","665780ef04e3a81685187a50","2217","stimuli/00010110.jpg"," ","","practrice_feedback","0","","","","","","","","","","","","","","","","","","","","",""
"","","","","","html-button-response","24","269398","0.0-3.0-21.0","648786bd2c580f666fb051cd","665500ab8938657b03fbdba8","665780ef04e3a81685187a50","13176","Now that you've had some practice, you'll be tested with a couple of easy trials. If you correctly predict Sam's choice, you'll move on to complete the experiment!","0","","","","","","","","","","","","","","","","","","","","","","","",""
"","","","","","image-keyboard-response","25","271776","0.0-3.0-22.0-0.0","648786bd2c580f666fb051cd","665500ab8938657b03fbdba8","665780ef04e3a81685187a50","2373","stimuli/0000011.jpg","arrowleft","","comprehension_quiz","","","true","arrowleft","","","","","","","","","","","","","","","","","",""
"","","","","","image-keyboard-response","26","274895","0.0-3.0-22.0-1.0","648786bd2c580f666fb051cd","665500ab8938657b03fbdba8","665780ef04e3a81685187a50","3109","stimuli/00000110.jpg"," ","","comprehension_quiz","","","true"," ","","","","","","","","","","","","","","","","","",""
"","","","","","image-keyboard-response","27","277512","0.0-3.0-22.0-2.0","648786bd2c580f666fb051cd","665500ab8938657b03fbdba8","665780ef04e3a81685187a50","2565","stimuli/1010010.jpg","arrowdown","","comprehension_quiz","","","true","arrowdown","","","","","","","","","","","","","","","","","",""
"","","","","","image-keyboard-response","28","279448","0.0-3.0-22.0-3.0","648786bd2c580f666fb051cd","665500ab8938657b03fbdba8","665780ef04e3a81685187a50","1926","stimuli/10100101.jpg"," ","","comprehension_quiz","","","true"," ","","","","","","","","","","","","","","","","","",""
"","","","","","html-button-response","29","283075","0.0-4.0","648786bd2c580f666fb051cd","665500ab8938657b03fbdba8","665780ef04e3a81685187a50","3621","The experiment will now begin.","0","","","","","","","","","","","","","","","","","","","","","","","",""
"","","","","","image-keyboard-response","30","285857","0.0-5.0","648786bd2c580f666fb051cd","665500ab8938657b03fbdba8","665780ef04e3a81685187a50","2777","stimuli/1010010.jpg","1","","prediction_trial","1","","true","","1","false","true","false","true","false","true","[1]","010","010","1","","","","","","",""
"","","","","","image-keyboard-response","31","287661","0.0-6.0","648786bd2c580f666fb051cd","665500ab8938657b03fbdba8","665780ef04e3a81685187a50","1796","stimuli/10100101.jpg"," ","","feedback_trial","1","","","","","","","","","","","","","","","","","","","","",""
"","","","","","image-keyboard-response","32","289127","0.0-7.0","648786bd2c580f666fb051cd","665500ab8938657b03fbdba8","665780ef04e3a81685187a50","1458","stimuli/0100001.jpg","0","","prediction_trial","0","","true","","0","true","true","false","true","false","true","[0]","100","001","1","","","","","","",""
"","","","","","image-keyboard-response","33","290512","0.0-8.0","648786bd2c580f666fb051cd","665500ab8938657b03fbdba8","665780ef04e3a81685187a50","1377","stimuli/01000010.jpg"," ","","feedback_trial","0","","","","","","","","","","","","","","","","","","","","",""
"","","","","","image-keyboard-response","34","292313","0.0-9.0","648786bd2c580f666fb051cd","665500ab8938657b03fbdba8","665780ef04e3a81685187a50","1793","stimuli/1010100.jpg","1","","prediction_trial","1","","true","","1","true","true","false","true","false","true","[1]","010","100","1","","","","","","",""
"","","","","","image-keyboard-response","35","293536","0.0-10.0","648786bd2c580f666fb051cd","665500ab8938657b03fbdba8","665780ef04e3a81685187a50","1217","stimuli/10101001.jpg"," ","","feedback_trial","1","","","","","","","","","","","","","","","","","","","","",""
"","","","","","image-keyboard-response","36","294972","0.0-11.0","648786bd2c580f666fb051cd","665500ab8938657b03fbdba8","665780ef04e3a81685187a50","1428","stimuli/1110001.jpg","0","","prediction_trial","0","","true","","1","true","true","false","false","false","false","[0,1]","110","001","1","","","","","","",""
"","","","","","image-keyboard-response","37","299066","0.0-12.0","648786bd2c580f666fb051cd","665500ab8938657b03fbdba8","665780ef04e3a81685187a50","4086","stimuli/11100010.jpg"," ","","feedback_trial","0","","","","","","","","","","","","","","","","","","","","",""
"","","","","","image-keyboard-response","38","300376","0.0-13.0","648786bd2c580f666fb051cd","665500ab8938657b03fbdba8","665780ef04e3a81685187a50","1303","stimuli/1001100.jpg","1","","prediction_trial","1","","true","","1","true","true","true","true","true","true","[1]","001","100","1","","","","","","",""
"","","","","","image-keyboard-response","39","301774","0.0-14.0","648786bd2c580f666fb051cd","665500ab8938657b03fbdba8","665780ef04e3a81685187a50","1346","stimuli/10011001.jpg"," ","","feedback_trial","1","","","","","","","","","","","","","","","","","","","","",""
"","","","","","image-keyboard-response","40","303125","0.0-15.0","648786bd2c580f666fb051cd","665500ab8938657b03fbdba8","665780ef04e3a81685187a50","1345","stimuli/0000000.jpg","0","","prediction_trial","0","","true","","0","true","true","true","true","true","true","[0]","000","000","1","","","","","","",""
"","","","","","image-keyboard-response","41","305484","0.0-16.0","648786bd2c580f666fb051cd","665500ab8938657b03fbdba8","665780ef04e3a81685187a50","2349","stimuli/00000000.jpg"," ","","feedback_trial","0","","","","","","","","","","","","","","","","","","","","",""
"","","","","","image-keyboard-response","42","307139","0.0-17.0","648786bd2c580f666fb051cd","665500ab8938657b03fbdba8","665780ef04e3a81685187a50","1652","stimuli/0100111.jpg","1","","prediction_trial","0","","false","","0","false","false","false","true","false","false","[0]","100","111","0","","","","","","",""
"","","","","","image-keyboard-response","43","308931","0.0-18.0","648786bd2c580f666fb051cd","665500ab8938657b03fbdba8","665780ef04e3a81685187a50","1788","stimuli/01001110.jpg"," ","","feedback_trial","0","","","","","","","","","","","","","","","","","","","","",""
"","","","","","image-keyboard-response","44","310445","0.0-19.0","648786bd2c580f666fb051cd","665500ab8938657b03fbdba8","665780ef04e3a81685187a50","1508","stimuli/2101010.jpg","2","","prediction_trial","0","","false","","2","true","true","false","false","false","false","[2,0]","101","010","0","","","","","","",""
"","","","","","image-keyboard-response","45","314198","0.0-20.0","648786bd2c580f666fb051cd","665500ab8938657b03fbdba8","665780ef04e3a81685187a50","3745","stimuli/21010100.jpg"," ","","feedback_trial","2","","","","","","","","","","","","","","","","","","","","",""
"","","","","","image-keyboard-response","46","316428","0.0-21.0","648786bd2c580f666fb051cd","665500ab8938657b03fbdba8","665780ef04e3a81685187a50","2225","stimuli/2001111.jpg","1","","prediction_trial","2","","false","","2","false","false","false","true","false","false","[2]","001","111","0","","","","","","",""
"","","","","","image-keyboard-response","47","321359","0.0-22.0","648786bd2c580f666fb051cd","665500ab8938657b03fbdba8","665780ef04e3a81685187a50","4920","stimuli/20011112.jpg"," ","","feedback_trial","2","","","","","","","","","","","","","","","","","","","","",""
"","","","","","image-keyboard-response","48","323058","0.0-23.0","648786bd2c580f666fb051cd","665500ab8938657b03fbdba8","665780ef04e3a81685187a50","1692","stimuli/0111001.jpg","0","","prediction_trial","0","","true","","0","true","true","false","false","false","false","[1,0,2]","111","001","1","","","","","","",""
"","","","","","image-keyboard-response","49","325058","0.0-24.0","648786bd2c580f666fb051cd","665500ab8938657b03fbdba8","665780ef04e3a81685187a50","1992","stimuli/01110010.jpg"," ","","feedback_trial","1","","","","","","","","","","","","","","","","","","","","",""
"","","","","","image-keyboard-response","50","327828","0.0-25.0","648786bd2c580f666fb051cd","665500ab8938657b03fbdba8","665780ef04e3a81685187a50","2721","stimuli/2111001.jpg","2","","prediction_trial","2","","true","","2","false","true","false","false","false","false","[2,0,1]","111","001","1","","","","","","",""
"","","","","","image-keyboard-response","51","330248","0.0-26.0","648786bd2c580f666fb051cd","665500ab8938657b03fbdba8","665780ef04e3a81685187a50","2414","stimuli/21110012.jpg"," ","","feedback_trial","2","","","","","","","","","","","","","","","","","","","","",""
"","","","","","image-keyboard-response","52","331834","0.0-27.0","648786bd2c580f666fb051cd","665500ab8938657b03fbdba8","665780ef04e3a81685187a50","1575","stimuli/1101010.jpg","1","","prediction_trial","1","","true","","1","false","true","true","true","false","true","[1]","101","010","1","","","","","","",""
"","","","","","image-keyboard-response","53","334042","0.0-28.0","648786bd2c580f666fb051cd","665500ab8938657b03fbdba8","665780ef04e3a81685187a50","2202","stimuli/11010101.jpg"," ","","feedback_trial","1","","","","","","","","","","","","","","","","","","","","",""
"","","","","","image-keyboard-response","54","336885","0.0-29.0","648786bd2c580f666fb051cd","665500ab8938657b03fbdba8","665780ef04e3a81685187a50","2835","stimuli/0010011.jpg","1","","prediction_trial","0","","false","","0","true","true","true","true","true","true","[0]","010","011","0","","","","","","",""
"","","","","","image-keyboard-response","55","340216","0.0-30.0","648786bd2c580f666fb051cd","665500ab8938657b03fbdba8","665780ef04e3a81685187a50","3327","stimuli/00100110.jpg"," ","","feedback_trial","0","","","","","","","","","","","","","","","","","","","","",""
"","","","","","image-keyboard-response","56","342248","0.0-31.0","648786bd2c580f666fb051cd","665500ab8938657b03fbdba8","665780ef04e3a81685187a50","2026","stimuli/2010011.jpg","1","","prediction_trial","2","","false","","2","false","false","true","true","false","false","[2]","010","011","0","","","","","","",""
"","","","","","image-keyboard-response","57","343968","0.0-32.0","648786bd2c580f666fb051cd","665500ab8938657b03fbdba8","665780ef04e3a81685187a50","1710","stimuli/20100112.jpg"," ","","feedback_trial","2","","","","","","","","","","","","","","","","","","","","",""
"","","","","","image-keyboard-response","58","345972","0.0-33.0","648786bd2c580f666fb051cd","665500ab8938657b03fbdba8","665780ef04e3a81685187a50","1998","stimuli/1110111.jpg","1","","prediction_trial","1","","true","","1","false","false","false","false","false","false","[0,1]","110","111","1","","","","","","",""
"","","","","","image-keyboard-response","59","347650","0.0-34.0","648786bd2c580f666fb051cd","665500ab8938657b03fbdba8","665780ef04e3a81685187a50","1672","stimuli/11101111.jpg"," ","","feedback_trial","0","","","","","","","","","","","","","","","","","","","","",""
"","","","","","image-keyboard-response","60","349411","0.0-35.0","648786bd2c580f666fb051cd","665500ab8938657b03fbdba8","665780ef04e3a81685187a50","1758","stimuli/2101001.jpg","2","","prediction_trial","2","","true","","2","false","true","false","false","false","false","[0,2]","101","001","1","","","","","","",""
"","","","","","image-keyboard-response","61","351154","0.0-36.0","648786bd2c580f666fb051cd","665500ab8938657b03fbdba8","665780ef04e3a81685187a50","1739","stimuli/21010012.jpg"," ","","feedback_trial","0","","","","","","","","","","","","","","","","","","","","",""
"","","","","","image-keyboard-response","62","353118","0.0-37.0","648786bd2c580f666fb051cd","665500ab8938657b03fbdba8","665780ef04e3a81685187a50","1961","stimuli/2011111.jpg","2","","prediction_trial","2","","true","","2","false","false","false","false","false","false","[1,2]","011","111","1","","","","","","",""
"","","","","","image-keyboard-response","63","354558","0.0-38.0","648786bd2c580f666fb051cd","665500ab8938657b03fbdba8","665780ef04e3a81685187a50","1433","stimuli/20111112.jpg"," ","","feedback_trial","1","","","","","","","","","","","","","","","","","","","","",""
"","","","","","image-keyboard-response","64","356752","0.0-39.0","648786bd2c580f666fb051cd","665500ab8938657b03fbdba8","665780ef04e3a81685187a50","2187","stimuli/0010100.jpg","0","","prediction_trial","0","","true","","0","false","true","true","true","false","true","[0]","010","100","1","","","","","","",""
"","","","","","image-keyboard-response","65","358288","0.0-40.0","648786bd2c580f666fb051cd","665500ab8938657b03fbdba8","665780ef04e3a81685187a50","1528","stimuli/00101000.jpg"," ","","feedback_trial","0","","","","","","","","","","","","","","","","","","","","",""
"","","","","","image-keyboard-response","66","360208","0.0-41.0","648786bd2c580f666fb051cd","665500ab8938657b03fbdba8","665780ef04e3a81685187a50","1916","stimuli/2100001.jpg","2","","prediction_trial","2","","true","","2","false","true","true","true","false","true","[2]","100","001","1","","","","","","",""
"","","","","","image-keyboard-response","67","361341","0.0-42.0","648786bd2c580f666fb051cd","665500ab8938657b03fbdba8","665780ef04e3a81685187a50","1125","stimuli/21000012.jpg"," ","","feedback_trial","2","","","","","","","","","","","","","","","","","","","","",""
"","","","","","image-keyboard-response","68","363155","0.0-43.0","648786bd2c580f666fb051cd","665500ab8938657b03fbdba8","665780ef04e3a81685187a50","1745","stimuli/0111111.jpg","2","","prediction_trial","1","","false","","0","false","false","false","false","false","false","[1,2,0]","111","111","0","","","","","","",""
"","","","","","image-keyboard-response","69","364294","0.0-44.0","648786bd2c580f666fb051cd","665500ab8938657b03fbdba8","665780ef04e3a81685187a50","1133","stimuli/01111111.jpg"," ","","feedback_trial","1","","","","","","","","","","","","","","","","","","","","",""
"","","","","","image-keyboard-response","70","366625","0.0-45.0","648786bd2c580f666fb051cd","665500ab8938657b03fbdba8","665780ef04e3a81685187a50","2324","stimuli/1000110.jpg","1","","prediction_trial","1","","true","","1","false","false","true","true","false","false","[1]","000","110","1","","","","","","",""
"","","","","","image-keyboard-response","71","368560","0.0-46.0","648786bd2c580f666fb051cd","665500ab8938657b03fbdba8","665780ef04e3a81685187a50","1927","stimuli/10001101.jpg"," ","","feedback_trial","1","","","","","","","","","","","","","","","","","","","","",""
"","","","","","image-keyboard-response","72","369946","0.0-47.0","648786bd2c580f666fb051cd","665500ab8938657b03fbdba8","665780ef04e3a81685187a50","1381","stimuli/2100100.jpg","2","","prediction_trial","2","","true","","2","true","true","true","true","true","true","[2]","100","100","1","","","","","","",""
"","","","","","image-keyboard-response","73","370993","0.0-48.0","648786bd2c580f666fb051cd","665500ab8938657b03fbdba8","665780ef04e3a81685187a50","1038","stimuli/21001002.jpg"," ","","feedback_trial","2","","","","","","","","","","","","","","","","","","","","",""
"","","","","","image-keyboard-response","74","372224","0.0-49.0","648786bd2c580f666fb051cd","665500ab8938657b03fbdba8","665780ef04e3a81685187a50","1223","stimuli/2000110.jpg","2","","prediction_trial","2","","true","","2","true","true","true","true","true","true","[2]","000","110","1","","","","","","",""
"","","","","","image-keyboard-response","75","373288","0.0-50.0","648786bd2c580f666fb051cd","665500ab8938657b03fbdba8","665780ef04e3a81685187a50","1055","stimuli/20001102.jpg"," ","","feedback_trial","2","","","","","","","","","","","","","","","","","","","","",""
"","","","","","image-keyboard-response","76","374599","0.0-51.0","648786bd2c580f666fb051cd","665500ab8938657b03fbdba8","665780ef04e3a81685187a50","1303","stimuli/1110101.jpg","1","","prediction_trial","1","","true","","1","true","true","false","false","false","false","[1,0]","110","101","1","","","","","","",""
"","","","","","image-keyboard-response","77","375489","0.0-52.0","648786bd2c580f666fb051cd","665500ab8938657b03fbdba8","665780ef04e3a81685187a50","881","stimuli/11101011.jpg"," ","","feedback_trial","1","","","","","","","","","","","","","","","","","","","","",""
"","","","","","image-keyboard-response","78","376678","0.0-53.0","648786bd2c580f666fb051cd","665500ab8938657b03fbdba8","665780ef04e3a81685187a50","1181","stimuli/0101000.jpg","0","","prediction_trial","0","","true","","0","true","true","false","false","false","false","[0,2]","101","000","1","","","","","","",""
"","","","","","image-keyboard-response","79","377457","0.0-54.0","648786bd2c580f666fb051cd","665500ab8938657b03fbdba8","665780ef04e3a81685187a50","775","stimuli/01010000.jpg"," ","","feedback_trial","0","","","","","","","","","","","","","","","","","","","","",""
"","","","","","image-keyboard-response","80","379727","0.0-55.0","648786bd2c580f666fb051cd","665500ab8938657b03fbdba8","665780ef04e3a81685187a50","2264","stimuli/2100011.jpg","1","","prediction_trial","2","","false","","2","false","false","true","true","false","false","[2]","100","011","0","","","","","","",""
"","","","","","image-keyboard-response","81","381035","0.0-56.0","648786bd2c580f666fb051cd","665500ab8938657b03fbdba8","665780ef04e3a81685187a50","1303","stimuli/21000112.jpg"," ","","feedback_trial","2","","","","","","","","","","","","","","","","","","","","",""
"","","","","","image-keyboard-response","82","382525","0.0-57.0","648786bd2c580f666fb051cd","665500ab8938657b03fbdba8","665780ef04e3a81685187a50","1483","stimuli/1011101.jpg","1","","prediction_trial","1","","true","","1","true","true","false","false","false","false","[1,2]","011","101","1","","","","","","",""
"","","","","","image-keyboard-response","83","383765","0.0-58.0","648786bd2c580f666fb051cd","665500ab8938657b03fbdba8","665780ef04e3a81685187a50","1233","stimuli/10111011.jpg"," ","","feedback_trial","1","","","","","","","","","","","","","","","","","","","","",""
"","","","","","image-keyboard-response","84","385352","0.0-59.0","648786bd2c580f666fb051cd","665500ab8938657b03fbdba8","665780ef04e3a81685187a50","1581","stimuli/0101110.jpg","1","","prediction_trial","2","","false","","0","false","false","false","false","false","false","[0,2]","101","110","0","","","","","","",""
"","","","","","image-keyboard-response","85","387274","0.0-60.0","648786bd2c580f666fb051cd","665500ab8938657b03fbdba8","665780ef04e3a81685187a50","1915","stimuli/01011102.jpg"," ","","feedback_trial","0","","","","","","","","","","","","","","","","","","","","",""
"","","","","","image-keyboard-response","86","388735","0.0-61.0","648786bd2c580f666fb051cd","665500ab8938657b03fbdba8","665780ef04e3a81685187a50","1456","stimuli/1110000.jpg","1","","prediction_trial","1","","true","","1","true","true","false","false","false","false","[1,0]","110","000","1","","","","","","",""
"","","","","","image-keyboard-response","87","390019","0.0-62.0","648786bd2c580f666fb051cd","665500ab8938657b03fbdba8","665780ef04e3a81685187a50","1275","stimuli/11100001.jpg"," ","","feedback_trial","1","","","","","","","","","","","","","","","","","","","","",""
"","","","","","image-keyboard-response","88","391622","0.0-63.0","648786bd2c580f666fb051cd","665500ab8938657b03fbdba8","665780ef04e3a81685187a50","1596","stimuli/1000100.jpg","1","","prediction_trial","1","","true","","1","true","true","true","true","true","true","[1]","000","100","1","","","","","","",""
"","","","","","image-keyboard-response","89","392742","0.0-64.0","648786bd2c580f666fb051cd","665500ab8938657b03fbdba8","665780ef04e3a81685187a50","1114","stimuli/10001001.jpg"," ","","feedback_trial","1","","","","","","","","","","","","","","","","","","","","",""
"","","","","","image-keyboard-response","90","394124","0.0-65.0","648786bd2c580f666fb051cd","665500ab8938657b03fbdba8","665780ef04e3a81685187a50","1373","stimuli/0000001.jpg","0","","prediction_trial","0","","true","","0","true","true","true","true","true","true","[0]","000","001","1","","","","","","",""
"","","","","","image-keyboard-response","91","395350","0.0-66.0","648786bd2c580f666fb051cd","665500ab8938657b03fbdba8","665780ef04e3a81685187a50","1218","stimuli/00000010.jpg"," ","","feedback_trial","0","","","","","","","","","","","","","","","","","","","","",""
"","","","","","image-keyboard-response","92","398072","0.0-67.0","648786bd2c580f666fb051cd","665500ab8938657b03fbdba8","665780ef04e3a81685187a50","2714","stimuli/1001110.jpg","0","","prediction_trial","1","","false","","1","false","false","true","true","false","false","[1]","001","110","0","","","","","","",""
"","","","","","image-keyboard-response","93","399159","0.0-68.0","648786bd2c580f666fb051cd","665500ab8938657b03fbdba8","665780ef04e3a81685187a50","1080","stimuli/10011101.jpg"," ","","feedback_trial","1","","","","","","","","","","","","","","","","","","","","",""
"","","","","","image-keyboard-response","94","401271","0.0-69.0","648786bd2c580f666fb051cd","665500ab8938657b03fbdba8","665780ef04e3a81685187a50","2108","stimuli/2101011.jpg","1","","prediction_trial","2","","false","","2","false","false","false","false","false","false","[2,0]","101","011","0","","","","","","",""
"","","","","","image-keyboard-response","95","403147","0.0-70.0","648786bd2c580f666fb051cd","665500ab8938657b03fbdba8","665780ef04e3a81685187a50","1871","stimuli/21010112.jpg"," ","","feedback_trial","2","","","","","","","","","","","","","","","","","","","","",""
"","","","","","image-keyboard-response","96","404515","0.0-71.0","648786bd2c580f666fb051cd","665500ab8938657b03fbdba8","665780ef04e3a81685187a50","1361","stimuli/1100100.jpg","1","","prediction_trial","1","","true","","1","true","true","true","true","true","true","[1]","100","100","1","","","","","","",""
"","","","","","image-keyboard-response","97","406036","0.0-72.0","648786bd2c580f666fb051cd","665500ab8938657b03fbdba8","665780ef04e3a81685187a50","1512","stimuli/11001001.jpg"," ","","feedback_trial","1","","","","","","","","","","","","","","","","","","","","",""
"","","","","","image-keyboard-response","98","408264","0.0-73.0","648786bd2c580f666fb051cd","665500ab8938657b03fbdba8","665780ef04e3a81685187a50","2173","stimuli/2011100.jpg","2","","prediction_trial","1","","false","","2","true","true","false","false","false","false","[1,2]","011","100","0","","","","","","",""
"","","","","","image-keyboard-response","99","410539","0.0-74.0","648786bd2c580f666fb051cd","665500ab8938657b03fbdba8","665780ef04e3a81685187a50","2267","stimuli/20111001.jpg"," ","","feedback_trial","1","","","","","","","","","","","","","","","","","","","","",""
"","","","","","image-keyboard-response","100","412263","0.0-75.0","648786bd2c580f666fb051cd","665500ab8938657b03fbdba8","665780ef04e3a81685187a50","1717","stimuli/2011011.jpg","2","","prediction_trial","1","","false","","2","false","false","false","false","false","false","[2,1]","011","011","0","","","","","","",""
"","","","","","image-keyboard-response","101","413577","0.0-76.0","648786bd2c580f666fb051cd","665500ab8938657b03fbdba8","665780ef04e3a81685187a50","1309","stimuli/20110111.jpg"," ","","feedback_trial","2","","","","","","","","","","","","","","","","","","","","",""
"","","","","","image-keyboard-response","102","415243","0.0-77.0","648786bd2c580f666fb051cd","665500ab8938657b03fbdba8","665780ef04e3a81685187a50","1660","stimuli/0111010.jpg","0","","prediction_trial","1","","false","","0","true","true","false","false","false","false","[2,0,1]","111","010","0","","","","","","",""
"","","","","","image-keyboard-response","103","416817","0.0-78.0","648786bd2c580f666fb051cd","665500ab8938657b03fbdba8","665780ef04e3a81685187a50","1565","stimuli/01110101.jpg"," ","","feedback_trial","2","","","","","","","","","","","","","","","","","","","","",""
"","","","","","image-keyboard-response","104","419262","0.0-79.0","648786bd2c580f666fb051cd","665500ab8938657b03fbdba8","665780ef04e3a81685187a50","2438","stimuli/0001101.jpg","2","","prediction_trial","0","","false","","0","false","false","true","true","false","false","[0]","001","101","0","","","","","","",""
"","","","","","image-keyboard-response","105","420931","0.0-80.0","648786bd2c580f666fb051cd","665500ab8938657b03fbdba8","665780ef04e3a81685187a50","1663","stimuli/00011010.jpg"," ","","feedback_trial","0","","","","","","","","","","","","","","","","","","","","",""
"","","","","","image-keyboard-response","106","422206","0.0-81.0","648786bd2c580f666fb051cd","665500ab8938657b03fbdba8","665780ef04e3a81685187a50","1269","stimuli/0110000.jpg","0","","prediction_trial","1","","false","","0","true","true","false","false","false","false","[1,0]","110","000","0","","","","","","",""
"","","","","","image-keyboard-response","107","423785","0.0-82.0","648786bd2c580f666fb051cd","665500ab8938657b03fbdba8","665780ef04e3a81685187a50","1573","stimuli/01100001.jpg"," ","","feedback_trial","1","","","","","","","","","","","","","","","","","","","","",""
"","","","","","image-keyboard-response","108","425278","0.0-83.0","648786bd2c580f666fb051cd","665500ab8938657b03fbdba8","665780ef04e3a81685187a50","1488","stimuli/1000000.jpg","1","","prediction_trial","1","","true","","1","true","true","true","true","true","true","[1]","000","000","1","","","","","","",""
"","","","","","image-keyboard-response","109","426788","0.0-84.0","648786bd2c580f666fb051cd","665500ab8938657b03fbdba8","665780ef04e3a81685187a50","1456","stimuli/10000001.jpg"," ","","feedback_trial","1","","","","","","","","","","","","","","","","","","","","",""
"","","","","","image-keyboard-response","110","428254","0.0-85.0","648786bd2c580f666fb051cd","665500ab8938657b03fbdba8","665780ef04e3a81685187a50","1462","stimuli/1000001.jpg","1","","prediction_trial","1","","true","","1","true","true","true","true","true","true","[1]","000","001","1","","","","","","",""
"","","","","","image-keyboard-response","111","429347","0.0-86.0","648786bd2c580f666fb051cd","665500ab8938657b03fbdba8","665780ef04e3a81685187a50","1089","stimuli/10000011.jpg"," ","","feedback_trial","1","","","","","","","","","","","","","","","","","","","","",""
"","","","","","image-keyboard-response","112","431504","0.0-87.0","648786bd2c580f666fb051cd","665500ab8938657b03fbdba8","665780ef04e3a81685187a50","2152","stimuli/0100010.jpg","0","","prediction_trial","0","","true","","0","true","true","false","true","false","true","[0]","100","010","1","","","","","","",""
"","","","","","image-keyboard-response","113","432654","0.0-88.0","648786bd2c580f666fb051cd","665500ab8938657b03fbdba8","665780ef04e3a81685187a50","1143","stimuli/01000100.jpg"," ","","feedback_trial","0","","","","","","","","","","","","","","","","","","","","",""
"","","","","","image-keyboard-response","114","434044","0.0-89.0","648786bd2c580f666fb051cd","665500ab8938657b03fbdba8","665780ef04e3a81685187a50","1384","stimuli/2100110.jpg","2","","prediction_trial","2","","true","","2","true","true","true","true","true","true","[2]","100","110","1","","","","","","",""
"","","","","","image-keyboard-response","115","435032","0.0-90.0","648786bd2c580f666fb051cd","665500ab8938657b03fbdba8","665780ef04e3a81685187a50","984","stimuli/21001102.jpg"," ","","feedback_trial","2","","","","","","","","","","","","","","","","","","","","",""
"","","","","","image-keyboard-response","116","436538","0.0-91.0","648786bd2c580f666fb051cd","665500ab8938657b03fbdba8","665780ef04e3a81685187a50","1501","stimuli/1011011.jpg","2","","prediction_trial","2","","true","","1","false","false","false","false","false","false","[1,2]","011","011","1","","","","","","",""
"","","","","","image-keyboard-response","117","437881","0.0-92.0","648786bd2c580f666fb051cd","665500ab8938657b03fbdba8","665780ef04e3a81685187a50","1337","stimuli/10110112.jpg"," ","","feedback_trial","1","","","","","","","","","","","","","","","","","","","","",""
"","","","","","image-keyboard-response","118","439351","0.0-93.0","648786bd2c580f666fb051cd","665500ab8938657b03fbdba8","665780ef04e3a81685187a50","1465","stimuli/2111110.jpg","2","","prediction_trial","1","","false","","2","true","true","false","false","false","false","[0,1,2]","111","110","0","","","","","","",""
"","","","","","image-keyboard-response","119","440679","0.0-94.0","648786bd2c580f666fb051cd","665500ab8938657b03fbdba8","665780ef04e3a81685187a50","1320","stimuli/21111101.jpg"," ","","feedback_trial","0","","","","","","","","","","","","","","","","","","","","",""
"","","","","","image-keyboard-response","120","443517","0.0-95.0","648786bd2c580f666fb051cd","665500ab8938657b03fbdba8","665780ef04e3a81685187a50","2832","stimuli/2000000.jpg","2","","prediction_trial","2","","true","","2","true","true","true","true","true","true","[2]","000","000","1","","","","","","",""
"","","","","","image-keyboard-response","121","444369","0.0-96.0","648786bd2c580f666fb051cd","665500ab8938657b03fbdba8","665780ef04e3a81685187a50","844","stimuli/20000002.jpg"," ","","feedback_trial","2","","","","","","","","","","","","","","","","","","","","",""
"","","","","","image-keyboard-response","122","445785","0.0-97.0","648786bd2c580f666fb051cd","665500ab8938657b03fbdba8","665780ef04e3a81685187a50","1412","stimuli/0010001.jpg","0","","prediction_trial","0","","true","","0","true","true","true","true","true","true","[0]","010","001","1","","","","","","",""
"","","","","","image-keyboard-response","123","446668","0.0-98.0","648786bd2c580f666fb051cd","665500ab8938657b03fbdba8","665780ef04e3a81685187a50","874","stimuli/00100010.jpg"," ","","feedback_trial","0","","","","","","","","","","","","","","","","","","","","",""
"","","","","","image-keyboard-response","124","447898","0.0-99.0","648786bd2c580f666fb051cd","665500ab8938657b03fbdba8","665780ef04e3a81685187a50","1223","stimuli/2111000.jpg","2","","prediction_trial","1","","false","","2","true","true","false","false","false","false","[1,0,2]","111","000","0","","","","","","",""
"","","","","","image-keyboard-response","125","449844","0.0-100.0","648786bd2c580f666fb051cd","665500ab8938657b03fbdba8","665780ef04e3a81685187a50","1942","stimuli/21110001.jpg"," ","","feedback_trial","1","","","","","","","","","","","","","","","","","","","","",""
"","","","","","image-keyboard-response","126","452451","0.0-101.0","648786bd2c580f666fb051cd","665500ab8938657b03fbdba8","665780ef04e3a81685187a50","2601","stimuli/2000001.jpg","2","","prediction_trial","2","","true","","2","false","true","true","true","false","true","[2]","000","001","1","","","","","","",""
"","","","","","image-keyboard-response","127","453655","0.0-102.0","648786bd2c580f666fb051cd","665500ab8938657b03fbdba8","665780ef04e3a81685187a50","1176","stimuli/20000012.jpg"," ","","feedback_trial","2","","","","","","","","","","","","","","","","","","","","",""
"","","","","","image-keyboard-response","128","456722","0.0-103.0","648786bd2c580f666fb051cd","665500ab8938657b03fbdba8","665780ef04e3a81685187a50","3055","stimuli/1101110.jpg","1","","prediction_trial","1","","true","","1","false","false","true","true","false","false","[1]","101","110","1","","","","","","",""
"","","","","","image-keyboard-response","129","457925","0.0-104.0","648786bd2c580f666fb051cd","665500ab8938657b03fbdba8","665780ef04e3a81685187a50","1198","stimuli/11011101.jpg"," ","","feedback_trial","1","","","","","","","","","","","","","","","","","","","","",""
"","","","","","image-keyboard-response","130","459542","0.0-105.0","648786bd2c580f666fb051cd","665500ab8938657b03fbdba8","665780ef04e3a81685187a50","1609","stimuli/2010110.jpg","2","","prediction_trial","2","","true","","2","true","true","true","true","true","true","[2]","010","110","1","","","","","","",""
"","","","","","image-keyboard-response","131","460545","0.0-106.0","648786bd2c580f666fb051cd","665500ab8938657b03fbdba8","665780ef04e3a81685187a50","993","stimuli/20101102.jpg"," ","","feedback_trial","2","","","","","","","","","","","","","","","","","","","","",""
"","","","","","image-keyboard-response","132","462379","0.0-107.0","648786bd2c580f666fb051cd","665500ab8938657b03fbdba8","665780ef04e3a81685187a50","1828","stimuli/1111101.jpg","1","","prediction_trial","0","","false","","1","true","true","false","false","false","false","[0,2,1]","111","101","0","","","","","","",""
"","","","","","image-keyboard-response","133","463701","0.0-108.0","648786bd2c580f666fb051cd","665500ab8938657b03fbdba8","665780ef04e3a81685187a50","1314","stimuli/11111010.jpg"," ","","feedback_trial","0","","","","","","","","","","","","","","","","","","","","",""
"","","","","","image-keyboard-response","134","465291","0.0-109.0","648786bd2c580f666fb051cd","665500ab8938657b03fbdba8","665780ef04e3a81685187a50","1584","stimuli/1011000.jpg","1","","prediction_trial","1","","true","","1","true","true","false","false","false","false","[2,1]","011","000","1","","","","","","",""
"","","","","","image-keyboard-response","135","466199","0.0-110.0","648786bd2c580f666fb051cd","665500ab8938657b03fbdba8","665780ef04e3a81685187a50","900","stimuli/10110001.jpg"," ","","feedback_trial","2","","","","","","","","","","","","","","","","","","","","",""
"","","","","","image-keyboard-response","136","467438","0.0-111.0","648786bd2c580f666fb051cd","665500ab8938657b03fbdba8","665780ef04e3a81685187a50","1234","stimuli/2011000.jpg","2","","prediction_trial","1","","false","","2","true","true","false","false","false","false","[2,1]","011","000","0","","","","","","",""
"","","","","","image-keyboard-response","137","468367","0.0-112.0","648786bd2c580f666fb051cd","665500ab8938657b03fbdba8","665780ef04e3a81685187a50","924","stimuli/20110001.jpg"," ","","feedback_trial","2","","","","","","","","","","","","","","","","","","","","",""
"","","","","","image-keyboard-response","138","469745","0.0-113.0","648786bd2c580f666fb051cd","665500ab8938657b03fbdba8","665780ef04e3a81685187a50","1321","stimuli/1001101.jpg","1","","prediction_trial","1","","true","","1","true","true","true","true","true","true","[1]","001","101","1","","","","","","",""
"","","","","","image-keyboard-response","139","470760","0.0-114.0","648786bd2c580f666fb051cd","665500ab8938657b03fbdba8","665780ef04e3a81685187a50","1010","stimuli/10011011.jpg"," ","","feedback_trial","1","","","","","","","","","","","","","","","","","","","","",""
"","","","","","image-keyboard-response","140","472027","0.0-115.0","648786bd2c580f666fb051cd","665500ab8938657b03fbdba8","665780ef04e3a81685187a50","1262","stimuli/2000100.jpg","2","","prediction_trial","2","","true","","2","true","true","true","true","true","true","[2]","000","100","1","","","","","","",""
"","","","","","image-keyboard-response","141","472898","0.0-116.0","648786bd2c580f666fb051cd","665500ab8938657b03fbdba8","665780ef04e3a81685187a50","864","stimuli/20001002.jpg"," ","","feedback_trial","2","","","","","","","","","","","","","","","","","","","","",""
"","","","","","image-keyboard-response","142","475068","0.0-117.0","648786bd2c580f666fb051cd","665500ab8938657b03fbdba8","665780ef04e3a81685187a50","2165","stimuli/2000111.jpg","1","","prediction_trial","2","","false","","2","false","false","true","true","false","false","[2]","000","111","0","","","","","","",""
"","","","","","image-keyboard-response","143","476325","0.0-118.0","648786bd2c580f666fb051cd","665500ab8938657b03fbdba8","665780ef04e3a81685187a50","1250","stimuli/20001112.jpg"," ","","feedback_trial","2","","","","","","","","","","","","","","","","","","","","",""
"","","","","","image-keyboard-response","144","479980","0.0-119.0","648786bd2c580f666fb051cd","665500ab8938657b03fbdba8","665780ef04e3a81685187a50","3649","stimuli/1011111.jpg","0","","prediction_trial","2","","false","","1","false","false","false","false","false","false","[2,1]","011","111","0","","","","","","",""
"","","","","","image-keyboard-response","145","481156","0.0-120.0","648786bd2c580f666fb051cd","665500ab8938657b03fbdba8","665780ef04e3a81685187a50","1170","stimuli/10111112.jpg"," ","","feedback_trial","2","","","","","","","","","","","","","","","","","","","","",""
"","","","","","image-keyboard-response","146","482900","0.0-121.0","648786bd2c580f666fb051cd","665500ab8938657b03fbdba8","665780ef04e3a81685187a50","1739","stimuli/1011001.jpg","1","","prediction_trial","2","","false","","1","true","true","false","false","false","false","[1,2]","011","001","0","","","","","","",""
"","","","","","image-keyboard-response","147","483999","0.0-122.0","648786bd2c580f666fb051cd","665500ab8938657b03fbdba8","665780ef04e3a81685187a50","1093","stimuli/10110012.jpg"," ","","feedback_trial","1","","","","","","","","","","","","","","","","","","","","",""
"","","","","","image-keyboard-response","148","486021","0.0-123.0","648786bd2c580f666fb051cd","665500ab8938657b03fbdba8","665780ef04e3a81685187a50","2013","stimuli/0100100.jpg","0","","prediction_trial","0","","true","","0","false","true","false","true","false","true","[0]","100","100","1","","","","","","",""
"","","","","","image-keyboard-response","149","487240","0.0-124.0","648786bd2c580f666fb051cd","665500ab8938657b03fbdba8","665780ef04e3a81685187a50","1213","stimuli/01001000.jpg"," ","","feedback_trial","0","","","","","","","","","","","","","","","","","","","","",""
"","","","","","image-keyboard-response","150","489366","0.0-125.0","648786bd2c580f666fb051cd","665500ab8938657b03fbdba8","665780ef04e3a81685187a50","2120","stimuli/1011100.jpg","1","","prediction_trial","1","","true","","1","true","true","false","false","false","false","[2,1]","011","100","1","","","","","","",""
"","","","","","image-keyboard-response","151","490102","0.0-126.0","648786bd2c580f666fb051cd","665500ab8938657b03fbdba8","665780ef04e3a81685187a50","732","stimuli/10111001.jpg"," ","","feedback_trial","2","","","","","","","","","","","","","","","","","","","","",""
"","","","","","image-keyboard-response","152","491443","0.0-127.0","648786bd2c580f666fb051cd","665500ab8938657b03fbdba8","665780ef04e3a81685187a50","1336","stimuli/2111010.jpg","2","","prediction_trial","1","","false","","2","true","true","false","false","false","false","[1,0,2]","111","010","0","","","","","","",""
"","","","","","image-keyboard-response","153","492019","0.0-128.0","648786bd2c580f666fb051cd","665500ab8938657b03fbdba8","665780ef04e3a81685187a50","571","stimuli/21110101.jpg"," ","","feedback_trial","1","","","","","","","","","","","","","","","","","","","","",""
"","","","","","image-keyboard-response","154","494080","0.0-129.0","648786bd2c580f666fb051cd","665500ab8938657b03fbdba8","665780ef04e3a81685187a50","2057","stimuli/0010110.jpg","1","","prediction_trial","0","","false","","0","false","false","true","true","false","false","[0]","010","110","0","","","","","","",""
"","","","","","image-keyboard-response","155","494759","0.0-130.0","648786bd2c580f666fb051cd","665500ab8938657b03fbdba8","665780ef04e3a81685187a50","675","stimuli/00101100.jpg"," ","","feedback_trial","0","","","","","","","","","","","","","","","","","","","","",""
"","","","","","image-keyboard-response","156","497049","0.0-131.0","648786bd2c580f666fb051cd","665500ab8938657b03fbdba8","665780ef04e3a81685187a50","2286","stimuli/0100101.jpg","0","","prediction_trial","0","","true","","0","false","false","false","true","false","false","[0]","100","101","1","","","","","","",""
"","","","","","image-keyboard-response","157","497778","0.0-132.0","648786bd2c580f666fb051cd","665500ab8938657b03fbdba8","665780ef04e3a81685187a50","724","stimuli/01001010.jpg"," ","","feedback_trial","0","","","","","","","","","","","","","","","","","","","","",""
"","","","","","image-keyboard-response","158","499292","0.0-133.0","648786bd2c580f666fb051cd","665500ab8938657b03fbdba8","665780ef04e3a81685187a50","1506","stimuli/1100001.jpg","1","","prediction_trial","1","","true","","1","true","true","true","true","true","true","[1]","100","001","1","","","","","","",""
"","","","","","image-keyboard-response","159","499970","0.0-134.0","648786bd2c580f666fb051cd","665500ab8938657b03fbdba8","665780ef04e3a81685187a50","672","stimuli/11000011.jpg"," ","","feedback_trial","1","","","","","","","","","","","","","","","","","","","","",""
"","","","","","image-keyboard-response","160","501601","0.0-135.0","648786bd2c580f666fb051cd","665500ab8938657b03fbdba8","665780ef04e3a81685187a50","1626","stimuli/1111111.jpg","1","","prediction_trial","0","","false","","1","false","false","false","false","false","false","[0,1,2]","111","111","0","","","","","","",""
"","","","","","image-keyboard-response","161","502308","0.0-136.0","648786bd2c580f666fb051cd","665500ab8938657b03fbdba8","665780ef04e3a81685187a50","702","stimuli/11111110.jpg"," ","","feedback_trial","0","","","","","","","","","","","","","","","","","","","","",""
"","","","","","image-keyboard-response","162","504310","0.0-137.0","648786bd2c580f666fb051cd","665500ab8938657b03fbdba8","665780ef04e3a81685187a50","1995","stimuli/2111111.jpg","2","","prediction_trial","0","","false","","2","false","false","false","false","false","false","[0,1,2]","111","111","0","","","","","","",""
"","","","","","image-keyboard-response","163","505102","0.0-138.0","648786bd2c580f666fb051cd","665500ab8938657b03fbdba8","665780ef04e3a81685187a50","785","stimuli/21111110.jpg"," ","","feedback_trial","0","","","","","","","","","","","","","","","","","","","","",""
"","","","","","image-keyboard-response","164","506141","0.0-139.0","648786bd2c580f666fb051cd","665500ab8938657b03fbdba8","665780ef04e3a81685187a50","1031","stimuli/2001000.jpg","2","","prediction_trial","2","","true","","2","true","true","false","true","false","true","[2]","001","000","1","","","","","","",""
"","","","","","image-keyboard-response","165","506916","0.0-140.0","648786bd2c580f666fb051cd","665500ab8938657b03fbdba8","665780ef04e3a81685187a50","768","stimuli/20010002.jpg"," ","","feedback_trial","2","","","","","","","","","","","","","","","","","","","","",""
"","","","","","image-keyboard-response","166","508105","0.0-141.0","648786bd2c580f666fb051cd","665500ab8938657b03fbdba8","665780ef04e3a81685187a50","1182","stimuli/2110110.jpg","2","","prediction_trial","2","","true","","2","true","true","true","true","true","true","[2]","110","110","1","","","","","","",""
"","","","","","image-keyboard-response","167","508830","0.0-142.0","648786bd2c580f666fb051cd","665500ab8938657b03fbdba8","665780ef04e3a81685187a50","719","stimuli/21101102.jpg"," ","","feedback_trial","2","","","","","","","","","","","","","","","","","","","","",""
"","","","","","image-keyboard-response","168","509867","0.0-143.0","648786bd2c580f666fb051cd","665500ab8938657b03fbdba8","665780ef04e3a81685187a50","987","stimuli/2110100.jpg","2","","prediction_trial","2","","true","","2","true","true","true","true","true","true","[2]","110","100","1","","","","","","",""
"","","","","","image-keyboard-response","169","510535","0.0-144.0","648786bd2c580f666fb051cd","665500ab8938657b03fbdba8","665780ef04e3a81685187a50","662","stimuli/21101002.jpg"," ","","feedback_trial","2","","","","","","","","","","","","","","","","","","","","",""
"","","","","","image-keyboard-response","170","511859","0.0-145.0","648786bd2c580f666fb051cd","665500ab8938657b03fbdba8","665780ef04e3a81685187a50","1318","stimuli/1111001.jpg","1","","prediction_trial","0","","false","","1","true","true","false","false","false","false","[1,0,2]","111","001","0","","","","","","",""
"","","","","","image-keyboard-response","171","512661","0.0-146.0","648786bd2c580f666fb051cd","665500ab8938657b03fbdba8","665780ef04e3a81685187a50","796","stimuli/11110010.jpg"," ","","feedback_trial","1","","","","","","","","","","","","","","","","","","","","",""
"","","","","","image-keyboard-response","172","516860","0.0-147.0","648786bd2c580f666fb051cd","665500ab8938657b03fbdba8","665780ef04e3a81685187a50","4196","stimuli/1100011.jpg","1","","prediction_trial","1","","true","","1","false","false","true","true","false","false","[1]","100","011","1","","","","","","",""
"","","","","","image-keyboard-response","173","517422","0.0-148.0","648786bd2c580f666fb051cd","665500ab8938657b03fbdba8","665780ef04e3a81685187a50","553","stimuli/11000111.jpg"," ","","feedback_trial","1","","","","","","","","","","","","","","","","","","","","",""
"","","","","","image-keyboard-response","174","518964","0.0-149.0","648786bd2c580f666fb051cd","665500ab8938657b03fbdba8","665780ef04e3a81685187a50","1537","stimuli/0101101.jpg","2","","prediction_trial","2","","true","","0","false","false","false","false","false","false","[0,2]","101","101","1","","","","","","",""
"","","","","","image-keyboard-response","175","519564","0.0-150.0","648786bd2c580f666fb051cd","665500ab8938657b03fbdba8","665780ef04e3a81685187a50","592","stimuli/01011012.jpg"," ","","feedback_trial","0","","","","","","","","","","","","","","","","","","","","",""
"","","","","","image-keyboard-response","176","521582","0.0-151.0","648786bd2c580f666fb051cd","665500ab8938657b03fbdba8","665780ef04e3a81685187a50","2012","stimuli/0011111.jpg","2","","prediction_trial","0","","false","","0","false","false","true","true","false","false","[0]","011","111","0","","","","","","",""
"","","","","","image-keyboard-response","177","522424","0.0-152.0","648786bd2c580f666fb051cd","665500ab8938657b03fbdba8","665780ef04e3a81685187a50","838","stimuli/00111110.jpg"," ","","feedback_trial","0","","","","","","","","","","","","","","","","","","","","",""
"","","","","","image-keyboard-response","178","524262","0.0-153.0","648786bd2c580f666fb051cd","665500ab8938657b03fbdba8","665780ef04e3a81685187a50","1833","stimuli/2110001.jpg","2","","prediction_trial","2","","true","","2","false","true","true","true","false","true","[2]","110","001","1","","","","","","",""
"","","","","","image-keyboard-response","179","524925","0.0-154.0","648786bd2c580f666fb051cd","665500ab8938657b03fbdba8","665780ef04e3a81685187a50","656","stimuli/21100012.jpg"," ","","feedback_trial","2","","","","","","","","","","","","","","","","","","","","",""
"","","","","","image-keyboard-response","180","527884","0.0-155.0","648786bd2c580f666fb051cd","665500ab8938657b03fbdba8","665780ef04e3a81685187a50","2952","stimuli/1001001.jpg","1","","prediction_trial","1","","true","","1","true","true","true","true","true","true","[1]","001","001","1","","","","","","",""
"","","","","","image-keyboard-response","181","528621","0.0-156.0","648786bd2c580f666fb051cd","665500ab8938657b03fbdba8","665780ef04e3a81685187a50","733","stimuli/10010011.jpg"," ","","feedback_trial","1","","","","","","","","","","","","","","","","","","","","",""
"","","","","","image-keyboard-response","182","530795","0.0-157.0","648786bd2c580f666fb051cd","665500ab8938657b03fbdba8","665780ef04e3a81685187a50","2169","stimuli/1001010.jpg","1","","prediction_trial","1","","true","","1","false","true","true","true","false","true","[1]","001","010","1","","","","","","",""
"","","","","","image-keyboard-response","183","531446","0.0-158.0","648786bd2c580f666fb051cd","665500ab8938657b03fbdba8","665780ef04e3a81685187a50","648","stimuli/10010101.jpg"," ","","feedback_trial","1","","","","","","","","","","","","","","","","","","","","",""
"","","","","","image-keyboard-response","184","533319","0.0-159.0","648786bd2c580f666fb051cd","665500ab8938657b03fbdba8","665780ef04e3a81685187a50","1870","stimuli/0111000.jpg","0","","prediction_trial","1","","false","","0","true","true","false","false","false","false","[2,0,1]","111","000","0","","","","","","",""
"","","","","","image-keyboard-response","185","535202","0.0-160.0","648786bd2c580f666fb051cd","665500ab8938657b03fbdba8","665780ef04e3a81685187a50","1880","stimuli/01110001.jpg"," ","","feedback_trial","2","","","","","","","","","","","","","","","","","","","","",""
"","","","","","image-keyboard-response","186","537981","0.0-161.0","648786bd2c580f666fb051cd","665500ab8938657b03fbdba8","665780ef04e3a81685187a50","2773","stimuli/0010111.jpg","1","","prediction_trial","0","","false","","0","false","false","true","true","false","false","[0]","010","111","0","","","","","","",""
"","","","","","image-keyboard-response","187","539008","0.0-162.0","648786bd2c580f666fb051cd","665500ab8938657b03fbdba8","665780ef04e3a81685187a50","973","stimuli/00101110.jpg"," ","","feedback_trial","0","","","","","","","","","","","","","","","","","","","","",""
"","","","","","image-keyboard-response","188","540637","0.0-163.0","648786bd2c580f666fb051cd","665500ab8938657b03fbdba8","665780ef04e3a81685187a50","1618","stimuli/1101000.jpg","1","","prediction_trial","1","","true","","1","true","true","true","true","true","true","[1]","101","000","1","","","","","","",""
"","","","","","image-keyboard-response","189","541431","0.0-164.0","648786bd2c580f666fb051cd","665500ab8938657b03fbdba8","665780ef04e3a81685187a50","786","stimuli/11010001.jpg"," ","","feedback_trial","1","","","","","","","","","","","","","","","","","","","","",""
"","","","","","image-keyboard-response","190","543204","0.0-165.0","648786bd2c580f666fb051cd","665500ab8938657b03fbdba8","665780ef04e3a81685187a50","1763","stimuli/1010111.jpg","2","","prediction_trial","1","","false","","1","false","false","false","true","false","false","[1]","010","111","0","","","","","","",""
"","","","","","image-keyboard-response","191","544332","0.0-166.0","648786bd2c580f666fb051cd","665500ab8938657b03fbdba8","665780ef04e3a81685187a50","1122","stimuli/10101111.jpg"," ","","feedback_trial","1","","","","","","","","","","","","","","","","","","","","",""
"","","","","","image-keyboard-response","192","546374","0.0-167.0","648786bd2c580f666fb051cd","665500ab8938657b03fbdba8","665780ef04e3a81685187a50","2038","stimuli/0001110.jpg","1","","prediction_trial","0","","false","","0","false","false","true","true","false","false","[0]","001","110","0","","","","","","",""
"","","","","","image-keyboard-response","193","547203","0.0-168.0","648786bd2c580f666fb051cd","665500ab8938657b03fbdba8","665780ef04e3a81685187a50","825","stimuli/00011100.jpg"," ","","feedback_trial","0","","","","","","","","","","","","","","","","","","","","",""
"","","","","","image-keyboard-response","194","549138","0.0-169.0","648786bd2c580f666fb051cd","665500ab8938657b03fbdba8","665780ef04e3a81685187a50","1928","stimuli/0110100.jpg","0","","prediction_trial","1","","false","","0","false","true","false","false","false","false","[1,0]","110","100","0","","","","","","",""
"","","","","","image-keyboard-response","195","550669","0.0-170.0","648786bd2c580f666fb051cd","665500ab8938657b03fbdba8","665780ef04e3a81685187a50","1522","stimuli/01101001.jpg"," ","","feedback_trial","1","","","","","","","","","","","","","","","","","","","","",""
"","","","","","image-keyboard-response","196","554050","0.0-171.0","648786bd2c580f666fb051cd","665500ab8938657b03fbdba8","665780ef04e3a81685187a50","3375","stimuli/1100111.jpg","0","","prediction_trial","1","","false","","1","false","false","true","true","false","false","[1]","100","111","0","","","","","","",""
"","","","","","image-keyboard-response","197","556135","0.0-172.0","648786bd2c580f666fb051cd","665500ab8938657b03fbdba8","665780ef04e3a81685187a50","2081","stimuli/11001111.jpg"," ","","feedback_trial","1","","","","","","","","","","","","","","","","","","","","",""
"","","","","","image-keyboard-response","198","557692","0.0-173.0","648786bd2c580f666fb051cd","665500ab8938657b03fbdba8","665780ef04e3a81685187a50","1504","stimuli/0011000.jpg","0","","prediction_trial","0","","true","","0","true","true","true","true","true","true","[0]","011","000","1","","","","","","",""
"","","","","","image-keyboard-response","199","558464","0.0-174.0","648786bd2c580f666fb051cd","665500ab8938657b03fbdba8","665780ef04e3a81685187a50","766","stimuli/00110000.jpg"," ","","feedback_trial","0","","","","","","","","","","","","","","","","","","","","",""
"","","","","","image-keyboard-response","200","559720","0.0-175.0","648786bd2c580f666fb051cd","665500ab8938657b03fbdba8","665780ef04e3a81685187a50","1250","stimuli/2110010.jpg","2","","prediction_trial","2","","true","","2","true","true","true","true","true","true","[2]","110","010","1","","","","","","",""
"","","","","","image-keyboard-response","201","560477","0.0-176.0","648786bd2c580f666fb051cd","665500ab8938657b03fbdba8","665780ef04e3a81685187a50","751","stimuli/21100102.jpg"," ","","feedback_trial","2","","","","","","","","","","","","","","","","","","","","",""
"","","","","","image-keyboard-response","202","561693","0.0-177.0","648786bd2c580f666fb051cd","665500ab8938657b03fbdba8","665780ef04e3a81685187a50","1208","stimuli/2011010.jpg","2","","prediction_trial","1","","false","","2","true","true","false","false","false","false","[1,2]","011","010","0","","","","","","",""
"","","","","","image-keyboard-response","203","562754","0.0-178.0","648786bd2c580f666fb051cd","665500ab8938657b03fbdba8","665780ef04e3a81685187a50","1053","stimuli/20110101.jpg"," ","","feedback_trial","1","","","","","","","","","","","","","","","","","","","","",""
"","","","","","image-keyboard-response","204","565582","0.0-179.0","648786bd2c580f666fb051cd","665500ab8938657b03fbdba8","665780ef04e3a81685187a50","2822","stimuli/0101100.jpg","0","","prediction_trial","2","","false","","0","false","true","false","false","false","false","[2,0]","101","100","0","","","","","","",""
"","","","","","image-keyboard-response","205","567109","0.0-180.0","648786bd2c580f666fb051cd","665500ab8938657b03fbdba8","665780ef04e3a81685187a50","1522","stimuli/01011002.jpg"," ","","feedback_trial","2","","","","","","","","","","","","","","","","","","","","",""
"","","","","","image-keyboard-response","206","569409","0.0-181.0","648786bd2c580f666fb051cd","665500ab8938657b03fbdba8","665780ef04e3a81685187a50","2295","stimuli/0000111.jpg","0","","prediction_trial","0","","true","","0","false","false","true","true","false","false","[0]","000","111","1","","","","","","",""
"","","","","","image-keyboard-response","207","569879","0.0-182.0","648786bd2c580f666fb051cd","665500ab8938657b03fbdba8","665780ef04e3a81685187a50","464","stimuli/00001110.jpg"," ","","feedback_trial","0","","","","","","","","","","","","","","","","","","","","",""
"","","","","","image-keyboard-response","208","571567","0.0-183.0","648786bd2c580f666fb051cd","665500ab8938657b03fbdba8","665780ef04e3a81685187a50","1680","stimuli/2011001.jpg","2","","prediction_trial","2","","true","","2","false","true","false","false","false","false","[2,1]","011","001","1","","","","","","",""
"","","","","","image-keyboard-response","209","572239","0.0-184.0","648786bd2c580f666fb051cd","665500ab8938657b03fbdba8","665780ef04e3a81685187a50","611","stimuli/20110012.jpg"," ","","feedback_trial","2","","","","","","","","","","","","","","","","","","","","",""
"","","","","","image-keyboard-response","210","575041","0.0-185.0","648786bd2c580f666fb051cd","665500ab8938657b03fbdba8","665780ef04e3a81685187a50","2797","stimuli/2000101.jpg","2","","prediction_trial","2","","true","","2","false","false","true","true","false","false","[2]","000","101","1","","","","","","",""
"","","","","","image-keyboard-response","211","576180","0.0-186.0","648786bd2c580f666fb051cd","665500ab8938657b03fbdba8","665780ef04e3a81685187a50","1134","stimuli/20001012.jpg"," ","","feedback_trial","2","","","","","","","","","","","","","","","","","","","","",""
"","","","","","image-keyboard-response","212","577833","0.0-187.0","648786bd2c580f666fb051cd","665500ab8938657b03fbdba8","665780ef04e3a81685187a50","1645","stimuli/0001001.jpg","0","","prediction_trial","0","","true","","0","true","true","true","true","true","true","[0]","001","001","1","","","","","","",""
"","","","","","image-keyboard-response","213","578699","0.0-188.0","648786bd2c580f666fb051cd","665500ab8938657b03fbdba8","665780ef04e3a81685187a50","859","stimuli/00010010.jpg"," ","","feedback_trial","0","","","","","","","","","","","","","","","","","","","","",""
"","","","","","image-keyboard-response","214","581600","0.0-189.0","648786bd2c580f666fb051cd","665500ab8938657b03fbdba8","665780ef04e3a81685187a50","2896","stimuli/0011110.jpg","1","","prediction_trial","0","","false","","0","false","false","true","true","false","false","[0]","011","110","0","","","","","","",""
"","","","","","image-keyboard-response","215","582450","0.0-190.0","648786bd2c580f666fb051cd","665500ab8938657b03fbdba8","665780ef04e3a81685187a50","845","stimuli/00111100.jpg"," ","","feedback_trial","0","","","","","","","","","","","","","","","","","","","","",""
"","","","","","image-keyboard-response","216","587125","0.0-191.0","648786bd2c580f666fb051cd","665500ab8938657b03fbdba8","665780ef04e3a81685187a50","4668","stimuli/0001111.jpg","1","","prediction_trial","0","","false","","0","false","false","true","true","false","false","[0]","001","111","0","","","","","","",""
"","","","","","image-keyboard-response","217","587899","0.0-192.0","648786bd2c580f666fb051cd","665500ab8938657b03fbdba8","665780ef04e3a81685187a50","766","stimuli/00011110.jpg"," ","","feedback_trial","0","","","","","","","","","","","","","","","","","","","","",""
"","","","","","image-keyboard-response","218","589959","0.0-193.0","648786bd2c580f666fb051cd","665500ab8938657b03fbdba8","665780ef04e3a81685187a50","2056","stimuli/2110111.jpg","2","","prediction_trial","2","","true","","2","false","false","true","true","false","false","[2]","110","111","1","","","","","","",""
"","","","","","image-keyboard-response","219","590457","0.0-194.0","648786bd2c580f666fb051cd","665500ab8938657b03fbdba8","665780ef04e3a81685187a50","489","stimuli/21101112.jpg"," ","","feedback_trial","2","","","","","","","","","","","","","","","","","","","","",""
"","","","","","image-keyboard-response","220","591779","0.0-195.0","648786bd2c580f666fb051cd","665500ab8938657b03fbdba8","665780ef04e3a81685187a50","1314","stimuli/0011101.jpg","2","","prediction_trial","0","","false","","0","false","false","true","true","false","false","[0]","011","101","0","","","","","","",""
"","","","","","image-keyboard-response","221","592385","0.0-196.0","648786bd2c580f666fb051cd","665500ab8938657b03fbdba8","665780ef04e3a81685187a50","599","stimuli/00111010.jpg"," ","","feedback_trial","0","","","","","","","","","","","","","","","","","","","","",""
"","","","","","image-keyboard-response","222","593399","0.0-197.0","648786bd2c580f666fb051cd","665500ab8938657b03fbdba8","665780ef04e3a81685187a50","1005","stimuli/2101000.jpg","2","","prediction_trial","0","","false","","2","true","true","false","false","false","false","[0,2]","101","000","0","","","","","","",""
"","","","","","image-keyboard-response","223","594792","0.0-198.0","648786bd2c580f666fb051cd","665500ab8938657b03fbdba8","665780ef04e3a81685187a50","1336","stimuli/21010000.jpg"," ","","feedback_trial","0","","","","","","","","","","","","","","","","","","","","",""
"","","","","","image-keyboard-response","224","599343","0.0-199.0","648786bd2c580f666fb051cd","665500ab8938657b03fbdba8","665780ef04e3a81685187a50","4544","stimuli/0011100.jpg","0","","prediction_trial","0","","true","","0","false","true","true","true","false","true","[0]","011","100","1","","","","","","",""
"","","","","","image-keyboard-response","225","600100","0.0-200.0","648786bd2c580f666fb051cd","665500ab8938657b03fbdba8","665780ef04e3a81685187a50","752","stimuli/00111000.jpg"," ","","feedback_trial","0","","","","","","","","","","","","","","","","","","","","",""
"","","","","","image-keyboard-response","226","601798","0.0-201.0","648786bd2c580f666fb051cd","665500ab8938657b03fbdba8","665780ef04e3a81685187a50","1689","stimuli/1101100.jpg","1","","prediction_trial","1","","true","","1","true","true","true","true","true","true","[1]","101","100","1","","","","","","",""
"","","","","","image-keyboard-response","227","602460","0.0-202.0","648786bd2c580f666fb051cd","665500ab8938657b03fbdba8","665780ef04e3a81685187a50","656","stimuli/11011001.jpg"," ","","feedback_trial","1","","","","","","","","","","","","","","","","","","","","",""
"","","","","","image-keyboard-response","228","604996","0.0-203.0","648786bd2c580f666fb051cd","665500ab8938657b03fbdba8","665780ef04e3a81685187a50","2528","stimuli/1100110.jpg","1","","prediction_trial","1","","true","","1","false","false","true","true","false","false","[1]","100","110","1","","","","","","",""
"","","","","","image-keyboard-response","229","605686","0.0-204.0","648786bd2c580f666fb051cd","665500ab8938657b03fbdba8","665780ef04e3a81685187a50","682","stimuli/11001101.jpg"," ","","feedback_trial","1","","","","","","","","","","","","","","","","","","","","",""
"","","","","","image-keyboard-response","230","608313","0.0-205.0","648786bd2c580f666fb051cd","665500ab8938657b03fbdba8","665780ef04e3a81685187a50","2619","stimuli/1101001.jpg","1","","prediction_trial","1","","true","","1","true","true","true","true","true","true","[1]","101","001","1","","","","","","",""
"","","","","","image-keyboard-response","231","609012","0.0-206.0","648786bd2c580f666fb051cd","665500ab8938657b03fbdba8","665780ef04e3a81685187a50","693","stimuli/11010011.jpg"," ","","feedback_trial","1","","","","","","","","","","","","","","","","","","","","",""
"","","","","","image-keyboard-response","232","612101","0.0-207.0","648786bd2c580f666fb051cd","665500ab8938657b03fbdba8","665780ef04e3a81685187a50","3081","stimuli/0001100.jpg","0","","prediction_trial","0","","true","","0","false","true","true","true","false","true","[0]","001","100","1","","","","","","",""
"","","","","","image-keyboard-response","233","612824","0.0-208.0","648786bd2c580f666fb051cd","665500ab8938657b03fbdba8","665780ef04e3a81685187a50","718","stimuli/00011000.jpg"," ","","feedback_trial","0","","","","","","","","","","","","","","","","","","","","",""
"","","","","","image-keyboard-response","234","615708","0.0-209.0","648786bd2c580f666fb051cd","665500ab8938657b03fbdba8","665780ef04e3a81685187a50","2878","stimuli/0110111.jpg","2","","prediction_trial","0","","false","","0","false","false","false","false","false","false","[1,0]","110","111","0","","","","","","",""
"","","","","","image-keyboard-response","235","616686","0.0-210.0","648786bd2c580f666fb051cd","665500ab8938657b03fbdba8","665780ef04e3a81685187a50","969","stimuli/01101110.jpg"," ","","feedback_trial","1","","","","","","","","","","","","","","","","","","","","",""
"","","","","","image-keyboard-response","236","618284","0.0-211.0","648786bd2c580f666fb051cd","665500ab8938657b03fbdba8","665780ef04e3a81685187a50","1588","stimuli/1101101.jpg","1","","prediction_trial","1","","true","","1","true","true","true","true","true","true","[1]","101","101","1","","","","","","",""
"","","","","","image-keyboard-response","237","618986","0.0-212.0","648786bd2c580f666fb051cd","665500ab8938657b03fbdba8","665780ef04e3a81685187a50","697","stimuli/11011011.jpg"," ","","feedback_trial","1","","","","","","","","","","","","","","","","","","","","",""
"","","","","","image-keyboard-response","238","621568","0.0-213.0","648786bd2c580f666fb051cd","665500ab8938657b03fbdba8","665780ef04e3a81685187a50","2575","stimuli/2001101.jpg","0","","prediction_trial","2","","false","","2","false","false","false","true","false","false","[2]","001","101","0","","","","","","",""
"","","","","","image-keyboard-response","239","622644","0.0-214.0","648786bd2c580f666fb051cd","665500ab8938657b03fbdba8","665780ef04e3a81685187a50","1066","stimuli/20011012.jpg"," ","","feedback_trial","2","","","","","","","","","","","","","","","","","","","","",""
"","","","","","image-keyboard-response","240","624459","0.0-215.0","648786bd2c580f666fb051cd","665500ab8938657b03fbdba8","665780ef04e3a81685187a50","1810","stimuli/2001011.jpg","2","","prediction_trial","2","","true","","2","false","false","false","true","false","false","[2]","001","011","1","","","","","","",""
"","","","","","image-keyboard-response","241","624997","0.0-216.0","648786bd2c580f666fb051cd","665500ab8938657b03fbdba8","665780ef04e3a81685187a50","531","stimuli/20010112.jpg"," ","","feedback_trial","2","","","","","","","","","","","","","","","","","","","","",""
"","","","","","image-keyboard-response","242","626787","0.0-217.0","648786bd2c580f666fb051cd","665500ab8938657b03fbdba8","665780ef04e3a81685187a50","1784","stimuli/1001111.jpg","2","","prediction_trial","1","","false","","1","false","false","true","true","false","false","[1]","001","111","0","","","","","","",""
"","","","","","image-keyboard-response","243","627333","0.0-218.0","648786bd2c580f666fb051cd","665500ab8938657b03fbdba8","665780ef04e3a81685187a50","536","stimuli/10011111.jpg"," ","","feedback_trial","1","","","","","","","","","","","","","","","","","","","","",""
"","","","","","image-keyboard-response","244","628732","0.0-219.0","648786bd2c580f666fb051cd","665500ab8938657b03fbdba8","665780ef04e3a81685187a50","1349","stimuli/2001100.jpg","2","","prediction_trial","2","","true","","2","true","true","false","true","false","true","[2]","001","100","1","","","","","","",""
"","","","","","image-keyboard-response","245","629294","0.0-220.0","648786bd2c580f666fb051cd","665500ab8938657b03fbdba8","665780ef04e3a81685187a50","552","stimuli/20011002.jpg"," ","","feedback_trial","2","","","","","","","","","","","","","","","","","","","","",""
"","","","","","image-keyboard-response","246","631230","0.0-221.0","648786bd2c580f666fb051cd","665500ab8938657b03fbdba8","665780ef04e3a81685187a50","1932","stimuli/1011110.jpg","1","","prediction_trial","2","","false","","1","false","false","false","false","false","false","[2,1]","011","110","0","","","","","","",""
"","","","","","image-keyboard-response","247","632154","0.0-222.0","648786bd2c580f666fb051cd","665500ab8938657b03fbdba8","665780ef04e3a81685187a50","915","stimuli/10111102.jpg"," ","","feedback_trial","2","","","","","","","","","","","","","","","","","","","","",""
"","","","","","image-keyboard-response","248","633607","0.0-223.0","648786bd2c580f666fb051cd","665500ab8938657b03fbdba8","665780ef04e3a81685187a50","1450","stimuli/0100011.jpg","0","","prediction_trial","0","","true","","0","true","true","false","true","false","true","[0]","100","011","1","","","","","","",""
"","","","","","image-keyboard-response","249","634309","0.0-224.0","648786bd2c580f666fb051cd","665500ab8938657b03fbdba8","665780ef04e3a81685187a50","697","stimuli/01000110.jpg"," ","","feedback_trial","0","","","","","","","","","","","","","","","","","","","","",""
"","","","","","image-keyboard-response","250","635741","0.0-225.0","648786bd2c580f666fb051cd","665500ab8938657b03fbdba8","665780ef04e3a81685187a50","1427","stimuli/0101001.jpg","0","","prediction_trial","2","","false","","0","true","true","false","false","false","false","[0,2]","101","001","0","","","","","","",""
"","","","","","image-keyboard-response","251","637036","0.0-226.0","648786bd2c580f666fb051cd","665500ab8938657b03fbdba8","665780ef04e3a81685187a50","1285","stimuli/01010012.jpg"," ","","feedback_trial","0","","","","","","","","","","","","","","","","","","","","",""
"","","","","","image-keyboard-response","252","639441","0.0-227.0","648786bd2c580f666fb051cd","665500ab8938657b03fbdba8","665780ef04e3a81685187a50","2401","stimuli/2100010.jpg","2","","prediction_trial","2","","true","","2","true","true","true","true","true","true","[2]","100","010","1","","","","","","",""
"","","","","","image-keyboard-response","253","639960","0.0-228.0","648786bd2c580f666fb051cd","665500ab8938657b03fbdba8","665780ef04e3a81685187a50","508","stimuli/21000102.jpg"," ","","feedback_trial","2","","","","","","","","","","","","","","","","","","","","",""
"","","","","","image-keyboard-response","254","641200","0.0-229.0","648786bd2c580f666fb051cd","665500ab8938657b03fbdba8","665780ef04e3a81685187a50","1234","stimuli/2001001.jpg","2","","prediction_trial","2","","true","","2","false","true","false","true","false","true","[2]","001","001","1","","","","","","",""
"","","","","","image-keyboard-response","255","641841","0.0-230.0","648786bd2c580f666fb051cd","665500ab8938657b03fbdba8","665780ef04e3a81685187a50","621","stimuli/20010012.jpg"," ","","feedback_trial","2","","","","","","","","","","","","","","","","","","","","",""
"","","","","","image-keyboard-response","256","643553","0.0-231.0","648786bd2c580f666fb051cd","665500ab8938657b03fbdba8","665780ef04e3a81685187a50","1702","stimuli/2110101.jpg","2","","prediction_trial","2","","true","","2","false","false","true","true","false","false","[2]","110","101","1","","","","","","",""
"","","","","","image-keyboard-response","257","644227","0.0-232.0","648786bd2c580f666fb051cd","665500ab8938657b03fbdba8","665780ef04e3a81685187a50","667","stimuli/21101012.jpg"," ","","feedback_trial","2","","","","","","","","","","","","","","","","","","","","",""
"","","","","","image-keyboard-response","258","646893","0.0-233.0","648786bd2c580f666fb051cd","665500ab8938657b03fbdba8","665780ef04e3a81685187a50","2660","stimuli/2001010.jpg","2","","prediction_trial","2","","true","","2","true","true","false","true","false","true","[2]","001","010","1","","","","","","",""
"","","","","","image-keyboard-response","259","647572","0.0-234.0","648786bd2c580f666fb051cd","665500ab8938657b03fbdba8","665780ef04e3a81685187a50","670","stimuli/20010102.jpg"," ","","feedback_trial","2","","","","","","","","","","","","","","","","","","","","",""
"","","","","","image-keyboard-response","260","648883","0.0-235.0","648786bd2c580f666fb051cd","665500ab8938657b03fbdba8","665780ef04e3a81685187a50","1305","stimuli/2010000.jpg","2","","prediction_trial","2","","true","","2","true","true","true","true","true","true","[2]","010","000","1","","","","","","",""
"","","","","","image-keyboard-response","261","649595","0.0-236.0","648786bd2c580f666fb051cd","665500ab8938657b03fbdba8","665780ef04e3a81685187a50","701","stimuli/20100002.jpg"," ","","feedback_trial","2","","","","","","","","","","","","","","","","","","","","",""
"","","","","","image-keyboard-response","262","651025","0.0-237.0","648786bd2c580f666fb051cd","665500ab8938657b03fbdba8","665780ef04e3a81685187a50","1425","stimuli/2111101.jpg","2","","prediction_trial","1","","false","","2","false","false","false","false","false","false","[2,0,1]","111","101","0","","","","","","",""
"","","","","","image-keyboard-response","263","652353","0.0-238.0","648786bd2c580f666fb051cd","665500ab8938657b03fbdba8","665780ef04e3a81685187a50","1320","stimuli/21111011.jpg"," ","","feedback_trial","2","","","","","","","","","","","","","","","","","","","","",""
"","","","","","image-keyboard-response","264","655467","0.0-239.0","648786bd2c580f666fb051cd","665500ab8938657b03fbdba8","665780ef04e3a81685187a50","3109","stimuli/2101111.jpg","1","","prediction_trial","0","","false","","2","false","false","false","false","false","false","[2,0]","101","111","0","","","","","","",""
"","","","","","image-keyboard-response","265","656340","0.0-240.0","648786bd2c580f666fb051cd","665500ab8938657b03fbdba8","665780ef04e3a81685187a50","867","stimuli/21011110.jpg"," ","","feedback_trial","2","","","","","","","","","","","","","","","","","","","","",""
"","","","","","image-keyboard-response","266","657928","0.0-241.0","648786bd2c580f666fb051cd","665500ab8938657b03fbdba8","665780ef04e3a81685187a50","1564","stimuli/1010000.jpg","1","","prediction_trial","1","","true","","1","true","true","false","true","false","true","[1]","010","000","1","","","","","","",""
"","","","","","image-keyboard-response","267","658725","0.0-242.0","648786bd2c580f666fb051cd","665500ab8938657b03fbdba8","665780ef04e3a81685187a50","791","stimuli/10100001.jpg"," ","","feedback_trial","1","","","","","","","","","","","","","","","","","","","","",""
"","","","","","image-keyboard-response","268","660240","0.0-243.0","648786bd2c580f666fb051cd","665500ab8938657b03fbdba8","665780ef04e3a81685187a50","1508","stimuli/1110110.jpg","1","","prediction_trial","1","","true","","1","false","false","false","false","false","false","[0,1]","110","110","1","","","","","","",""
"","","","","","image-keyboard-response","269","660965","0.0-244.0","648786bd2c580f666fb051cd","665500ab8938657b03fbdba8","665780ef04e3a81685187a50","721","stimuli/11101101.jpg"," ","","feedback_trial","0","","","","","","","","","","","","","","","","","","","","",""
"","","","","","image-keyboard-response","270","662047","0.0-245.0","648786bd2c580f666fb051cd","665500ab8938657b03fbdba8","665780ef04e3a81685187a50","1073","stimuli/1001000.jpg","1","","prediction_trial","1","","true","","1","true","true","true","true","true","true","[1]","001","000","1","","","","","","",""
"","","","","","image-keyboard-response","271","662643","0.0-246.0","648786bd2c580f666fb051cd","665500ab8938657b03fbdba8","665780ef04e3a81685187a50","587","stimuli/10010001.jpg"," ","","feedback_trial","1","","","","","","","","","","","","","","","","","","","","",""
"","","","","","image-keyboard-response","272","664142","0.0-247.0","648786bd2c580f666fb051cd","665500ab8938657b03fbdba8","665780ef04e3a81685187a50","1495","stimuli/0001011.jpg","0","","prediction_trial","0","","true","","0","true","true","true","true","true","true","[0]","001","011","1","","","","","","",""
"","","","","","image-keyboard-response","273","664788","0.0-248.0","648786bd2c580f666fb051cd","665500ab8938657b03fbdba8","665780ef04e3a81685187a50","641","stimuli/00010110.jpg"," ","","feedback_trial","0","","","","","","","","","","","","","","","","","","","","",""
"","","","","","image-keyboard-response","274","666018","0.0-249.0","648786bd2c580f666fb051cd","665500ab8938657b03fbdba8","665780ef04e3a81685187a50","1225","stimuli/2101110.jpg","2","","prediction_trial","2","","true","","2","true","true","false","false","false","false","[0,2]","101","110","1","","","","","","",""
"","","","","","image-keyboard-response","275","666632","0.0-250.0","648786bd2c580f666fb051cd","665500ab8938657b03fbdba8","665780ef04e3a81685187a50","607","stimuli/21011102.jpg"," ","","feedback_trial","0","","","","","","","","","","","","","","","","","","","","",""
"","","","","","image-keyboard-response","276","668214","0.0-251.0","648786bd2c580f666fb051cd","665500ab8938657b03fbdba8","665780ef04e3a81685187a50","1576","stimuli/1000101.jpg","1","","prediction_trial","1","","true","","1","true","true","true","true","true","true","[1]","000","101","1","","","","","","",""
"","","","","","image-keyboard-response","277","668863","0.0-252.0","648786bd2c580f666fb051cd","665500ab8938657b03fbdba8","665780ef04e3a81685187a50","588","stimuli/10001011.jpg"," ","","feedback_trial","1","","","","","","","","","","","","","","","","","","","","",""
"","","","","","image-keyboard-response","278","670860","0.0-253.0","648786bd2c580f666fb051cd","665500ab8938657b03fbdba8","665780ef04e3a81685187a50","1990","stimuli/1110010.jpg","1","","prediction_trial","1","","true","","1","false","true","false","false","false","false","[1,0]","110","010","1","","","","","","",""
"","","","","","image-keyboard-response","279","671463","0.0-254.0","648786bd2c580f666fb051cd","665500ab8938657b03fbdba8","665780ef04e3a81685187a50","598","stimuli/11100101.jpg"," ","","feedback_trial","1","","","","","","","","","","","","","","","","","","","","",""
"","","","","","image-keyboard-response","280","673246","0.0-255.0","648786bd2c580f666fb051cd","665500ab8938657b03fbdba8","665780ef04e3a81685187a50","1780","stimuli/0110011.jpg","0","","prediction_trial","1","","false","","0","true","true","false","false","false","false","[1,0]","110","011","0","","","","","","",""
"","","","","","image-keyboard-response","281","674597","0.0-256.0","648786bd2c580f666fb051cd","665500ab8938657b03fbdba8","665780ef04e3a81685187a50","1343","stimuli/01100111.jpg"," ","","feedback_trial","1","","","","","","","","","","","","","","","","","","","","",""
"","","","","","image-keyboard-response","282","677119","0.0-257.0","648786bd2c580f666fb051cd","665500ab8938657b03fbdba8","665780ef04e3a81685187a50","2512","stimuli/1010011.jpg","1","","prediction_trial","1","","true","","1","false","false","false","true","false","false","[1]","010","011","1","","","","","","",""
"","","","","","image-keyboard-response","283","677959","0.0-258.0","648786bd2c580f666fb051cd","665500ab8938657b03fbdba8","665780ef04e3a81685187a50","835","stimuli/10100111.jpg"," ","","feedback_trial","1","","","","","","","","","","","","","","","","","","","","",""
"","","","","","image-keyboard-response","284","680273","0.0-259.0","648786bd2c580f666fb051cd","665500ab8938657b03fbdba8","665780ef04e3a81685187a50","2307","stimuli/0111100.jpg","0","","prediction_trial","0","","true","","0","false","true","false","false","false","false","[2,0,1]","111","100","1","","","","","","",""
"","","","","","image-keyboard-response","285","680974","0.0-260.0","648786bd2c580f666fb051cd","665500ab8938657b03fbdba8","665780ef04e3a81685187a50","695","stimuli/01111000.jpg"," ","","feedback_trial","2","","","","","","","","","","","","","","","","","","","","",""
"","","","","","image-keyboard-response","286","682821","0.0-261.0","648786bd2c580f666fb051cd","665500ab8938657b03fbdba8","665780ef04e3a81685187a50","1839","stimuli/1100010.jpg","1","","prediction_trial","1","","true","","1","false","true","true","true","false","true","[1]","100","010","1","","","","","","",""
"","","","","","image-keyboard-response","287","683586","0.0-262.0","648786bd2c580f666fb051cd","665500ab8938657b03fbdba8","665780ef04e3a81685187a50","758","stimuli/11000101.jpg"," ","","feedback_trial","1","","","","","","","","","","","","","","","","","","","","",""
"","","","","","image-keyboard-response","288","686343","0.0-263.0","648786bd2c580f666fb051cd","665500ab8938657b03fbdba8","665780ef04e3a81685187a50","2695","stimuli/1101111.jpg","2","","prediction_trial","1","","false","","1","false","false","true","true","false","false","[1]","101","111","0","","","","","","",""
"","","","","","image-keyboard-response","289","687185","0.0-264.0","648786bd2c580f666fb051cd","665500ab8938657b03fbdba8","665780ef04e3a81685187a50","834","stimuli/11011111.jpg"," ","","feedback_trial","1","","","","","","","","","","","","","","","","","","","","",""
"","","","","","image-keyboard-response","290","689145","0.0-265.0","648786bd2c580f666fb051cd","665500ab8938657b03fbdba8","665780ef04e3a81685187a50","1953","stimuli/2100111.jpg","2","","prediction_trial","2","","true","","2","false","false","true","true","false","false","[2]","100","111","1","","","","","","",""
"","","","","","image-keyboard-response","291","689809","0.0-266.0","648786bd2c580f666fb051cd","665500ab8938657b03fbdba8","665780ef04e3a81685187a50","659","stimuli/21001112.jpg"," ","","feedback_trial","2","","","","","","","","","","","","","","","","","","","","",""
"","","","","","image-keyboard-response","292","690998","0.0-267.0","648786bd2c580f666fb051cd","665500ab8938657b03fbdba8","665780ef04e3a81685187a50","1180","stimuli/2110000.jpg","2","","prediction_trial","2","","true","","2","true","true","true","true","true","true","[2]","110","000","1","","","","","","",""
"","","","","","image-keyboard-response","293","691637","0.0-268.0","648786bd2c580f666fb051cd","665500ab8938657b03fbdba8","665780ef04e3a81685187a50","628","stimuli/21100002.jpg"," ","","feedback_trial","2","","","","","","","","","","","","","","","","","","","","",""
"","","","","","image-keyboard-response","294","692600","0.0-269.0","648786bd2c580f666fb051cd","665500ab8938657b03fbdba8","665780ef04e3a81685187a50","955","stimuli/2010010.jpg","2","","prediction_trial","2","","true","","2","true","true","true","true","true","true","[2]","010","010","1","","","","","","",""
"","","","","","image-keyboard-response","295","693281","0.0-270.0","648786bd2c580f666fb051cd","665500ab8938657b03fbdba8","665780ef04e3a81685187a50","673","stimuli/20100102.jpg"," ","","feedback_trial","2","","","","","","","","","","","","","","","","","","","","",""
"","","","","","image-keyboard-response","296","694195","0.0-271.0","648786bd2c580f666fb051cd","665500ab8938657b03fbdba8","665780ef04e3a81685187a50","906","stimuli/2111100.jpg","2","","prediction_trial","1","","false","","2","true","true","false","false","false","false","[0,2,1]","111","100","0","","","","","","",""
"","","","","","image-keyboard-response","297","695009","0.0-272.0","648786bd2c580f666fb051cd","665500ab8938657b03fbdba8","665780ef04e3a81685187a50","805","stimuli/21111001.jpg"," ","","feedback_trial","0","","","","","","","","","","","","","","","","","","","","",""
"","","","","","image-keyboard-response","298","696147","0.0-273.0","648786bd2c580f666fb051cd","665500ab8938657b03fbdba8","665780ef04e3a81685187a50","1132","stimuli/1110100.jpg","1","","prediction_trial","1","","true","","1","true","true","false","false","false","false","[0,1]","110","100","1","","","","","","",""
"","","","","","image-keyboard-response","299","697066","0.0-274.0","648786bd2c580f666fb051cd","665500ab8938657b03fbdba8","665780ef04e3a81685187a50","910","stimuli/11101001.jpg"," ","","feedback_trial","0","","","","","","","","","","","","","","","","","","","","",""
"","","","","","image-keyboard-response","300","698864","0.0-275.0","648786bd2c580f666fb051cd","665500ab8938657b03fbdba8","665780ef04e3a81685187a50","1790","stimuli/0110110.jpg","1","","prediction_trial","1","","true","","0","false","false","false","false","false","false","[1,0]","110","110","1","","","","","","",""
"","","","","","image-keyboard-response","301","699484","0.0-276.0","648786bd2c580f666fb051cd","665500ab8938657b03fbdba8","665780ef04e3a81685187a50","608","stimuli/01101101.jpg"," ","","feedback_trial","1","","","","","","","","","","","","","","","","","","","","",""
"","","","","","image-keyboard-response","302","700965","0.0-277.0","648786bd2c580f666fb051cd","665500ab8938657b03fbdba8","665780ef04e3a81685187a50","1478","stimuli/0000011.jpg","0","","prediction_trial","0","","true","","0","true","true","true","true","true","true","[0]","000","011","1","","","","","","",""
"","","","","","image-keyboard-response","303","701617","0.0-278.0","648786bd2c580f666fb051cd","665500ab8938657b03fbdba8","665780ef04e3a81685187a50","645","stimuli/00000110.jpg"," ","","feedback_trial","0","","","","","","","","","","","","","","","","","","","","",""
"","","","","","image-keyboard-response","304","702984","0.0-279.0","648786bd2c580f666fb051cd","665500ab8938657b03fbdba8","665780ef04e3a81685187a50","1358","stimuli/1010101.jpg","1","","prediction_trial","1","","true","","1","true","true","false","true","false","true","[1]","010","101","1","","","","","","",""
"","","","","","image-keyboard-response","305","703613","0.0-280.0","648786bd2c580f666fb051cd","665500ab8938657b03fbdba8","665780ef04e3a81685187a50","622","stimuli/10101011.jpg"," ","","feedback_trial","1","","","","","","","","","","","","","","","","","","","","",""
"","","","","","image-keyboard-response","306","704687","0.0-281.0","648786bd2c580f666fb051cd","665500ab8938657b03fbdba8","665780ef04e3a81685187a50","1069","stimuli/0101011.jpg","0","","prediction_trial","0","","true","","0","true","true","false","false","false","false","[2,0]","101","011","1","","","","","","",""
"","","","","","image-keyboard-response","307","705129","0.0-282.0","648786bd2c580f666fb051cd","665500ab8938657b03fbdba8","665780ef04e3a81685187a50","433","stimuli/01010110.jpg"," ","","feedback_trial","2","","","","","","","","","","","","","","","","","","","","",""
"","","","","","image-keyboard-response","308","706706","0.0-283.0","648786bd2c580f666fb051cd","665500ab8938657b03fbdba8","665780ef04e3a81685187a50","1568","stimuli/2110011.jpg","1","","prediction_trial","2","","false","","2","false","false","true","true","false","false","[2]","110","011","0","","","","","","",""
"","","","","","image-keyboard-response","309","707229","0.0-284.0","648786bd2c580f666fb051cd","665500ab8938657b03fbdba8","665780ef04e3a81685187a50","517","stimuli/21100112.jpg"," ","","feedback_trial","2","","","","","","","","","","","","","","","","","","","","",""
"","","","","","image-keyboard-response","310","708633","0.0-285.0","648786bd2c580f666fb051cd","665500ab8938657b03fbdba8","665780ef04e3a81685187a50","1396","stimuli/2100000.jpg","2","","prediction_trial","2","","true","","2","true","true","true","true","true","true","[2]","100","000","1","","","","","","",""
"","","","","","image-keyboard-response","311","709130","0.0-286.0","648786bd2c580f666fb051cd","665500ab8938657b03fbdba8","665780ef04e3a81685187a50","486","stimuli/21000002.jpg"," ","","feedback_trial","2","","","","","","","","","","","","","","","","","","","","",""
"","","","","","image-keyboard-response","312","710287","0.0-287.0","648786bd2c580f666fb051cd","665500ab8938657b03fbdba8","665780ef04e3a81685187a50","1151","stimuli/2101101.jpg","2","","prediction_trial","2","","true","","2","false","false","false","false","false","false","[2,0]","101","101","1","","","","","","",""
"","","","","","image-keyboard-response","313","710824","0.0-288.0","648786bd2c580f666fb051cd","665500ab8938657b03fbdba8","665780ef04e3a81685187a50","530","stimuli/21011012.jpg"," ","","feedback_trial","2","","","","","","","","","","","","","","","","","","","","",""
"","","","","","image-keyboard-response","314","712047","0.0-289.0","648786bd2c580f666fb051cd","665500ab8938657b03fbdba8","665780ef04e3a81685187a50","1171","stimuli/1111000.jpg","1","","prediction_trial","2","","false","","1","true","true","false","false","false","false","[0,2,1]","111","000","0","","","","","","",""
"","","","","","image-keyboard-response","315","713469","0.0-290.0","648786bd2c580f666fb051cd","665500ab8938657b03fbdba8","665780ef04e3a81685187a50","1416","stimuli/11110002.jpg"," ","","feedback_trial","0","","","","","","","","","","","","","","","","","","","","",""
"","","","","","image-keyboard-response","316","714462","0.0-291.0","648786bd2c580f666fb051cd","665500ab8938657b03fbdba8","665780ef04e3a81685187a50","985","stimuli/1000111.jpg","1","","prediction_trial","1","","true","","1","false","false","true","true","false","false","[1]","000","111","1","","","","","","",""
"","","","","","image-keyboard-response","317","715178","0.0-292.0","648786bd2c580f666fb051cd","665500ab8938657b03fbdba8","665780ef04e3a81685187a50","712","stimuli/10001111.jpg"," ","","feedback_trial","1","","","","","","","","","","","","","","","","","","","","",""
"","","","","","survey-html-form","318","752397","0.0-293.0","648786bd2c580f666fb051cd","665500ab8938657b03fbdba8","665780ef04e3a81685187a50","37208","","{""feedback"":""just guess"",""age"":""49"",""gender"":""Female"",""other_gender"":"""",""race"":""Black/African American"",""other_race"":"""",""ethnicity"":""Non-Hispanic""}","","exit_survey","","","","","","","","","","","","","","","","just guess","49","Non-Hispanic","Female","Black/African American","0.6388888888888888","0.6388888888888888"
