"success","timeout","failed_images","failed_audio","failed_video","trial_type","trial_index","time_elapsed","internal_node_id","prolific_id","prolific_study_id","prolific_session_id","rt","stimulus","response","view_history","trial","character_choice","stimulus_dict","accuracy","correct_response","ball_pos","ego_ball_visible","ego_can_infer","alter_ball_visible","alter_can_infer","collective_ball_visible","collective_can_infer","search_locations","alter_occluders","ego_occluders","accuracy_bool","feedback","age","ethnicity","gender","race","overall_accuracy","bonus"
"true","false","[]","[]","[]","preload","0","22100","0.0-0.0","60fcd9699c3def3068403b90","665500ab8938657b03fbdba8","665792b41522714ef7571bbd","","","","","","","","","","","","","","","","","","","","","","","","","","",""
"true","","","","","fullscreen","1","25492","0.0-1.0","60fcd9699c3def3068403b90","665500ab8938657b03fbdba8","665792b41522714ef7571bbd","","","","","","","","","","","","","","","","","","","","","","","","","","",""
"","","","","","html-button-response","2","40056","0.0-2.0","60fcd9699c3def3068403b90","665500ab8938657b03fbdba8","665792b41522714ef7571bbd","14549","<p><b>Consent Form</b></p> <div style=""text-align:left;background-color:lightgrey; padding:20px; max-width:900px;""><p>Please consider this information carefully before deciding whether to participate in this research.</p> <p>The purpose of this research is to examine which factors influence social judgment and decision-making. You will be asked to make judgements about individuals and actions in social scenarios. We are simply interested in your judgement. The study will take less than 1 hour to complete, and you will receive less than $20 on Prolific. Your compensation and time commitment are specified in the study description. There are no anticipated risks associated with participating in this study. The effects of participating should be comparable to those you would ordinarily experience from viewing a computer monitor and using a mouse or keyboard for a similar amount of time. At the end of the study, we will provide an explanation of the questions that motivate this line of research and will describe the potential implications. </p><p> Your participation in this study is completely voluntary and you may refuse to participate or you may choose to withdraw at any time without penalty or loss of benefits to you which are otherwise entitled. Your participation in this study will remain confidential. No personally identifiable information will be associated with your data. Also, all analyses of the data will be averaged across all the participants, so your individual responses will never be specifically analyzed. </p><p> If you have questions or concerns about your participation or payment, or want to request a summary of research findings, please contact Dr. Jonathan Phillips at Jonathan.S.Phillips@dartmouth.edu. </p><p> Please save a copy of this form for your records. </p><p><b>Agreement: </b>The nature and purpose of this research have been sufficiently explained and I agree to participate in this study. I understand that I am free to withdraw at any time without incurring any penalty. Please consent by clicking the button below to continue. Otherwise, please exit the study at any time. </p>","0","","","","","","","","","","","","","","","","","","","","","","","",""
"","","","","","instructions","3","90260","0.0-3.0-0.0","60fcd9699c3def3068403b90","665500ab8938657b03fbdba8","665792b41522714ef7571bbd","50201","","","[{""page_index"":0,""viewing_time"":2194},{""page_index"":1,""viewing_time"":2784},{""page_index"":2,""viewing_time"":1649},{""page_index"":3,""viewing_time"":5607},{""page_index"":4,""viewing_time"":2153},{""page_index"":5,""viewing_time"":1852},{""page_index"":6,""viewing_time"":3394},{""page_index"":7,""viewing_time"":3073},{""page_index"":8,""viewing_time"":3019},{""page_index"":9,""viewing_time"":2176},{""page_index"":10,""viewing_time"":12076},{""page_index"":11,""viewing_time"":5374},{""page_index"":12,""viewing_time"":3284},{""page_index"":13,""viewing_time"":1563}]","intro","","","","","","","","","","","","","","","","","","","","","",""
"","","","","","image-keyboard-response","4","93687","0.0-3.0-1.0","60fcd9699c3def3068403b90","665500ab8938657b03fbdba8","665792b41522714ef7571bbd","3354","stimuli/0100100.jpg","0","","prediction_practice","0","{""filepath"":""stimuli/0100100.jpg"",""ball_pos"":0,""ego_ball_visible"":false,""ego_can_infer"":true,""alter_ball_visible"":false,""alter_can_infer"":true,""collective_ball_visible"":false,""collective_can_infer"":true,""search_locations"":[0],""alter_occluders"":""100"",""ego_occluders"":""100""}","true","","","","","","","","","","","","","","","","","","",""
"","","","","","image-keyboard-response","5","96344","0.0-3.0-2.0","60fcd9699c3def3068403b90","665500ab8938657b03fbdba8","665792b41522714ef7571bbd","2642","stimuli/01001000.jpg"," ","","practrice_feedback","0","","","","","","","","","","","","","","","","","","","","",""
"","","","","","image-keyboard-response","6","101153","0.0-3.0-3.0","60fcd9699c3def3068403b90","665500ab8938657b03fbdba8","665792b41522714ef7571bbd","4803","stimuli/0110000.jpg","1","","prediction_practice","1","{""filepath"":""stimuli/0110000.jpg"",""ball_pos"":0,""ego_ball_visible"":true,""ego_can_infer"":true,""alter_ball_visible"":false,""alter_can_infer"":false,""collective_ball_visible"":false,""collective_can_infer"":false,""search_locations"":[0,1],""alter_occluders"":""110"",""ego_occluders"":""000""}","true","","","","","","","","","","","","","","","","","","",""
"","","","","","image-keyboard-response","7","102610","0.0-3.0-4.0","60fcd9699c3def3068403b90","665500ab8938657b03fbdba8","665792b41522714ef7571bbd","1440","stimuli/01100001.jpg"," ","","practrice_feedback","0","","","","","","","","","","","","","","","","","","","","",""
"","","","","","image-keyboard-response","8","108882","0.0-3.0-5.0","60fcd9699c3def3068403b90","665500ab8938657b03fbdba8","665792b41522714ef7571bbd","6266","stimuli/2001100.jpg","2","","prediction_practice","2","{""filepath"":""stimuli/2001100.jpg"",""ball_pos"":2,""ego_ball_visible"":true,""ego_can_infer"":true,""alter_ball_visible"":false,""alter_can_infer"":true,""collective_ball_visible"":false,""collective_can_infer"":true,""search_locations"":[2],""alter_occluders"":""001"",""ego_occluders"":""100""}","true","","","","","","","","","","","","","","","","","","",""
"","","","","","image-keyboard-response","9","110105","0.0-3.0-6.0","60fcd9699c3def3068403b90","665500ab8938657b03fbdba8","665792b41522714ef7571bbd","1219","stimuli/20011002.jpg"," ","","practrice_feedback","2","","","","","","","","","","","","","","","","","","","","",""
"","","","","","image-keyboard-response","10","111810","0.0-3.0-7.0","60fcd9699c3def3068403b90","665500ab8938657b03fbdba8","665792b41522714ef7571bbd","1691","stimuli/2000010.jpg","2","","prediction_practice","2","{""filepath"":""stimuli/2000010.jpg"",""ball_pos"":2,""ego_ball_visible"":true,""ego_can_infer"":true,""alter_ball_visible"":true,""alter_can_infer"":true,""collective_ball_visible"":true,""collective_can_infer"":true,""search_locations"":[2],""alter_occluders"":""000"",""ego_occluders"":""010""}","true","","","","","","","","","","","","","","","","","","",""
"","","","","","image-keyboard-response","11","112844","0.0-3.0-8.0","60fcd9699c3def3068403b90","665500ab8938657b03fbdba8","665792b41522714ef7571bbd","1031","stimuli/20000102.jpg"," ","","practrice_feedback","2","","","","","","","","","","","","","","","","","","","","",""
"","","","","","image-keyboard-response","12","116491","0.0-3.0-9.0","60fcd9699c3def3068403b90","665500ab8938657b03fbdba8","665792b41522714ef7571bbd","3642","stimuli/2000101.jpg","2","","prediction_practice","2","{""filepath"":""stimuli/2000101.jpg"",""ball_pos"":2,""ego_ball_visible"":false,""ego_can_infer"":false,""alter_ball_visible"":true,""alter_can_infer"":true,""collective_ball_visible"":false,""collective_can_infer"":false,""search_locations"":[2],""alter_occluders"":""000"",""ego_occluders"":""101""}","true","","","","","","","","","","","","","","","","","","",""
"","","","","","image-keyboard-response","13","117559","0.0-3.0-10.0","60fcd9699c3def3068403b90","665500ab8938657b03fbdba8","665792b41522714ef7571bbd","1062","stimuli/20001012.jpg"," ","","practrice_feedback","2","","","","","","","","","","","","","","","","","","","","",""
"","","","","","image-keyboard-response","14","119702","0.0-3.0-11.0","60fcd9699c3def3068403b90","665500ab8938657b03fbdba8","665792b41522714ef7571bbd","2138","stimuli/2100111.jpg","0","","prediction_practice","2","{""filepath"":""stimuli/2100111.jpg"",""ball_pos"":2,""ego_ball_visible"":false,""ego_can_infer"":false,""alter_ball_visible"":true,""alter_can_infer"":true,""collective_ball_visible"":false,""collective_can_infer"":false,""search_locations"":[2],""alter_occluders"":""100"",""ego_occluders"":""111""}","false","","","","","","","","","","","","","","","","","","",""
"","","","","","image-keyboard-response","15","121014","0.0-3.0-12.0","60fcd9699c3def3068403b90","665500ab8938657b03fbdba8","665792b41522714ef7571bbd","1308","stimuli/21001112.jpg"," ","","practrice_feedback","2","","","","","","","","","","","","","","","","","","","","",""
"","","","","","image-keyboard-response","16","123824","0.0-3.0-13.0","60fcd9699c3def3068403b90","665500ab8938657b03fbdba8","665792b41522714ef7571bbd","2799","stimuli/0101100.jpg","2","","prediction_practice","0","{""filepath"":""stimuli/0101100.jpg"",""ball_pos"":0,""ego_ball_visible"":false,""ego_can_infer"":true,""alter_ball_visible"":false,""alter_can_infer"":false,""collective_ball_visible"":false,""collective_can_infer"":false,""search_locations"":[0,2],""alter_occluders"":""101"",""ego_occluders"":""100""}","false","","","","","","","","","","","","","","","","","","",""
"","","","","","image-keyboard-response","17","124773","0.0-3.0-14.0","60fcd9699c3def3068403b90","665500ab8938657b03fbdba8","665792b41522714ef7571bbd","942","stimuli/01011000.jpg"," ","","practrice_feedback","0","","","","","","","","","","","","","","","","","","","","",""
"","","","","","image-keyboard-response","18","128162","0.0-3.0-15.0","60fcd9699c3def3068403b90","665500ab8938657b03fbdba8","665792b41522714ef7571bbd","3386","stimuli/0100001.jpg","0","","prediction_practice","0","{""filepath"":""stimuli/0100001.jpg"",""ball_pos"":0,""ego_ball_visible"":true,""ego_can_infer"":true,""alter_ball_visible"":false,""alter_can_infer"":true,""collective_ball_visible"":false,""collective_can_infer"":true,""search_locations"":[0],""alter_occluders"":""100"",""ego_occluders"":""001""}","true","","","","","","","","","","","","","","","","","","",""
"","","","","","image-keyboard-response","19","129356","0.0-3.0-16.0","60fcd9699c3def3068403b90","665500ab8938657b03fbdba8","665792b41522714ef7571bbd","1184","stimuli/01000010.jpg"," ","","practrice_feedback","0","","","","","","","","","","","","","","","","","","","","",""
"","","","","","image-keyboard-response","20","131609","0.0-3.0-17.0","60fcd9699c3def3068403b90","665500ab8938657b03fbdba8","665792b41522714ef7571bbd","2250","stimuli/0000001.jpg","0","","prediction_practice","0","{""filepath"":""stimuli/0000001.jpg"",""ball_pos"":0,""ego_ball_visible"":true,""ego_can_infer"":true,""alter_ball_visible"":true,""alter_can_infer"":true,""collective_ball_visible"":true,""collective_can_infer"":true,""search_locations"":[0],""alter_occluders"":""000"",""ego_occluders"":""001""}","true","","","","","","","","","","","","","","","","","","",""
"","","","","","image-keyboard-response","21","132461","0.0-3.0-18.0","60fcd9699c3def3068403b90","665500ab8938657b03fbdba8","665792b41522714ef7571bbd","846","stimuli/00000010.jpg"," ","","practrice_feedback","0","","","","","","","","","","","","","","","","","","","","",""
"","","","","","image-keyboard-response","22","134526","0.0-3.0-19.0","60fcd9699c3def3068403b90","665500ab8938657b03fbdba8","665792b41522714ef7571bbd","2048","stimuli/2001000.jpg","2","","prediction_practice","2","{""filepath"":""stimuli/2001000.jpg"",""ball_pos"":2,""ego_ball_visible"":true,""ego_can_infer"":true,""alter_ball_visible"":false,""alter_can_infer"":true,""collective_ball_visible"":false,""collective_can_infer"":true,""search_locations"":[2],""alter_occluders"":""001"",""ego_occluders"":""000""}","true","","","","","","","","","","","","","","","","","","",""
"","","","","","image-keyboard-response","23","135360","0.0-3.0-20.0","60fcd9699c3def3068403b90","665500ab8938657b03fbdba8","665792b41522714ef7571bbd","829","stimuli/20010002.jpg"," ","","practrice_feedback","2","","","","","","","","","","","","","","","","","","","","",""
"","","","","","html-button-response","24","139478","0.0-3.0-21.0","60fcd9699c3def3068403b90","665500ab8938657b03fbdba8","665792b41522714ef7571bbd","4112","Now that you've had some practice, you'll be tested with a couple of easy trials. If you correctly predict Sam's choice, you'll move on to complete the experiment!","0","","","","","","","","","","","","","","","","","","","","","","","",""
"","","","","","image-keyboard-response","25","140754","0.0-3.0-22.0-0.0","60fcd9699c3def3068403b90","665500ab8938657b03fbdba8","665792b41522714ef7571bbd","1272","stimuli/0000011.jpg","arrowleft","","comprehension_quiz","","","true","arrowleft","","","","","","","","","","","","","","","","","",""
"","","","","","image-keyboard-response","26","141760","0.0-3.0-22.0-1.0","60fcd9699c3def3068403b90","665500ab8938657b03fbdba8","665792b41522714ef7571bbd","993","stimuli/00000110.jpg"," ","","comprehension_quiz","","","true"," ","","","","","","","","","","","","","","","","","",""
"","","","","","image-keyboard-response","27","143486","0.0-3.0-22.0-2.0","60fcd9699c3def3068403b90","665500ab8938657b03fbdba8","665792b41522714ef7571bbd","1720","stimuli/1010010.jpg","arrowdown","","comprehension_quiz","","","true","arrowdown","","","","","","","","","","","","","","","","","",""
"","","","","","image-keyboard-response","28","144207","0.0-3.0-22.0-3.0","60fcd9699c3def3068403b90","665500ab8938657b03fbdba8","665792b41522714ef7571bbd","717","stimuli/10100101.jpg"," ","","comprehension_quiz","","","true"," ","","","","","","","","","","","","","","","","","",""
"","","","","","html-button-response","29","147772","0.0-4.0","60fcd9699c3def3068403b90","665500ab8938657b03fbdba8","665792b41522714ef7571bbd","3556","The experiment will now begin.","0","","","","","","","","","","","","","","","","","","","","","","","",""
"","","","","","image-keyboard-response","30","151108","0.0-5.0","60fcd9699c3def3068403b90","665500ab8938657b03fbdba8","665792b41522714ef7571bbd","3329","stimuli/2001110.jpg","2","","prediction_trial","2","","true","","2","true","true","false","true","false","true","[2]","001","110","1","","","","","","",""
"","","","","","image-keyboard-response","31","152076","0.0-6.0","60fcd9699c3def3068403b90","665500ab8938657b03fbdba8","665792b41522714ef7571bbd","961","stimuli/20011102.jpg"," ","","feedback_trial","2","","","","","","","","","","","","","","","","","","","","",""
"","","","","","image-keyboard-response","32","154441","0.0-7.0","60fcd9699c3def3068403b90","665500ab8938657b03fbdba8","665792b41522714ef7571bbd","2359","stimuli/0101111.jpg","0","","prediction_trial","0","","true","","0","false","false","false","false","false","false","[0,2]","101","111","1","","","","","","",""
"","","","","","image-keyboard-response","33","155232","0.0-8.0","60fcd9699c3def3068403b90","665500ab8938657b03fbdba8","665792b41522714ef7571bbd","786","stimuli/01011110.jpg"," ","","feedback_trial","0","","","","","","","","","","","","","","","","","","","","",""
"","","","","","image-keyboard-response","34","157343","0.0-9.0","60fcd9699c3def3068403b90","665500ab8938657b03fbdba8","665792b41522714ef7571bbd","2106","stimuli/1010000.jpg","1","","prediction_trial","1","","true","","1","true","true","false","true","false","true","[1]","010","000","1","","","","","","",""
"","","","","","image-keyboard-response","35","158026","0.0-10.0","60fcd9699c3def3068403b90","665500ab8938657b03fbdba8","665792b41522714ef7571bbd","678","stimuli/10100001.jpg"," ","","feedback_trial","1","","","","","","","","","","","","","","","","","","","","",""
"","","","","","image-keyboard-response","36","159853","0.0-11.0","60fcd9699c3def3068403b90","665500ab8938657b03fbdba8","665792b41522714ef7571bbd","1822","stimuli/1100111.jpg","2","","prediction_trial","1","","false","","1","false","false","true","true","false","false","[1]","100","111","0","","","","","","",""
"","","","","","image-keyboard-response","37","160794","0.0-12.0","60fcd9699c3def3068403b90","665500ab8938657b03fbdba8","665792b41522714ef7571bbd","937","stimuli/11001111.jpg"," ","","feedback_trial","1","","","","","","","","","","","","","","","","","","","","",""
"","","","","","image-keyboard-response","38","164474","0.0-13.0","60fcd9699c3def3068403b90","665500ab8938657b03fbdba8","665792b41522714ef7571bbd","3656","stimuli/0011110.jpg","2","","prediction_trial","0","","false","","0","false","false","true","true","false","false","[0]","011","110","0","","","","","","",""
"","","","","","image-keyboard-response","39","165435","0.0-14.0","60fcd9699c3def3068403b90","665500ab8938657b03fbdba8","665792b41522714ef7571bbd","958","stimuli/00111100.jpg"," ","","feedback_trial","0","","","","","","","","","","","","","","","","","","","","",""
"","","","","","image-keyboard-response","40","171576","0.0-15.0","60fcd9699c3def3068403b90","665500ab8938657b03fbdba8","665792b41522714ef7571bbd","6136","stimuli/1010100.jpg","1","","prediction_trial","1","","true","","1","true","true","false","true","false","true","[1]","010","100","1","","","","","","",""
"","","","","","image-keyboard-response","41","172453","0.0-16.0","60fcd9699c3def3068403b90","665500ab8938657b03fbdba8","665792b41522714ef7571bbd","875","stimuli/10101001.jpg"," ","","feedback_trial","1","","","","","","","","","","","","","","","","","","","","",""
"","","","","","image-keyboard-response","42","176272","0.0-17.0","60fcd9699c3def3068403b90","665500ab8938657b03fbdba8","665792b41522714ef7571bbd","3815","stimuli/1110001.jpg","1","","prediction_trial","0","","false","","1","true","true","false","false","false","false","[0,1]","110","001","0","","","","","","",""
"","","","","","image-keyboard-response","43","177244","0.0-18.0","60fcd9699c3def3068403b90","665500ab8938657b03fbdba8","665792b41522714ef7571bbd","966","stimuli/11100010.jpg"," ","","feedback_trial","0","","","","","","","","","","","","","","","","","","","","",""
"","","","","","image-keyboard-response","44","178402","0.0-19.0","60fcd9699c3def3068403b90","665500ab8938657b03fbdba8","665792b41522714ef7571bbd","1154","stimuli/1100001.jpg","1","","prediction_trial","1","","true","","1","true","true","true","true","true","true","[1]","100","001","1","","","","","","",""
"","","","","","image-keyboard-response","45","179157","0.0-20.0","60fcd9699c3def3068403b90","665500ab8938657b03fbdba8","665792b41522714ef7571bbd","751","stimuli/11000011.jpg"," ","","feedback_trial","1","","","","","","","","","","","","","","","","","","","","",""
"","","","","","image-keyboard-response","46","181696","0.0-21.0","60fcd9699c3def3068403b90","665500ab8938657b03fbdba8","665792b41522714ef7571bbd","2534","stimuli/1101011.jpg","1","","prediction_trial","1","","true","","1","false","false","true","true","false","false","[1]","101","011","1","","","","","","",""
"","","","","","image-keyboard-response","47","182592","0.0-22.0","60fcd9699c3def3068403b90","665500ab8938657b03fbdba8","665792b41522714ef7571bbd","892","stimuli/11010111.jpg"," ","","feedback_trial","1","","","","","","","","","","","","","","","","","","","","",""
"","","","","","image-keyboard-response","48","185602","0.0-23.0","60fcd9699c3def3068403b90","665500ab8938657b03fbdba8","665792b41522714ef7571bbd","3006","stimuli/1110010.jpg","1","","prediction_trial","1","","true","","1","false","true","false","false","false","false","[0,1]","110","010","1","","","","","","",""
"","","","","","image-keyboard-response","49","186563","0.0-24.0","60fcd9699c3def3068403b90","665500ab8938657b03fbdba8","665792b41522714ef7571bbd","957","stimuli/11100101.jpg"," ","","feedback_trial","0","","","","","","","","","","","","","","","","","","","","",""
"","","","","","image-keyboard-response","50","193288","0.0-25.0","60fcd9699c3def3068403b90","665500ab8938657b03fbdba8","665792b41522714ef7571bbd","6721","stimuli/2101011.jpg","1","","prediction_trial","0","","false","","2","false","false","false","false","false","false","[0,2]","101","011","0","","","","","","",""
"","","","","","image-keyboard-response","51","194271","0.0-26.0","60fcd9699c3def3068403b90","665500ab8938657b03fbdba8","665792b41522714ef7571bbd","978","stimuli/21010110.jpg"," ","","feedback_trial","0","","","","","","","","","","","","","","","","","","","","",""
"","","","","","image-keyboard-response","52","196855","0.0-27.0","60fcd9699c3def3068403b90","665500ab8938657b03fbdba8","665792b41522714ef7571bbd","2580","stimuli/2111100.jpg","2","","prediction_trial","1","","false","","2","true","true","false","false","false","false","[0,1,2]","111","100","0","","","","","","",""
"","","","","","image-keyboard-response","53","197898","0.0-28.0","60fcd9699c3def3068403b90","665500ab8938657b03fbdba8","665792b41522714ef7571bbd","1039","stimuli/21111001.jpg"," ","","feedback_trial","0","","","","","","","","","","","","","","","","","","","","",""
"","","","","","image-keyboard-response","54","199442","0.0-29.0","60fcd9699c3def3068403b90","665500ab8938657b03fbdba8","665792b41522714ef7571bbd","1529","stimuli/2011010.jpg","2","","prediction_trial","2","","true","","2","true","true","false","false","false","false","[1,2]","011","010","1","","","","","","",""
"","","","","","image-keyboard-response","55","200398","0.0-30.0","60fcd9699c3def3068403b90","665500ab8938657b03fbdba8","665792b41522714ef7571bbd","951","stimuli/20110102.jpg"," ","","feedback_trial","1","","","","","","","","","","","","","","","","","","","","",""
"","","","","","image-keyboard-response","56","201544","0.0-31.0","60fcd9699c3def3068403b90","665500ab8938657b03fbdba8","665792b41522714ef7571bbd","1142","stimuli/2100000.jpg","2","","prediction_trial","2","","true","","2","true","true","true","true","true","true","[2]","100","000","1","","","","","","",""
"","","","","","image-keyboard-response","57","202400","0.0-32.0","60fcd9699c3def3068403b90","665500ab8938657b03fbdba8","665792b41522714ef7571bbd","849","stimuli/21000002.jpg"," ","","feedback_trial","2","","","","","","","","","","","","","","","","","","","","",""
"","","","","","image-keyboard-response","58","205118","0.0-33.0","60fcd9699c3def3068403b90","665500ab8938657b03fbdba8","665792b41522714ef7571bbd","2714","stimuli/2101101.jpg","0","","prediction_trial","2","","false","","2","false","false","false","false","false","false","[0,2]","101","101","0","","","","","","",""
"","","","","","image-keyboard-response","59","206080","0.0-34.0","60fcd9699c3def3068403b90","665500ab8938657b03fbdba8","665792b41522714ef7571bbd","956","stimuli/21011012.jpg"," ","","feedback_trial","0","","","","","","","","","","","","","","","","","","","","",""
"","","","","","image-keyboard-response","60","207798","0.0-35.0","60fcd9699c3def3068403b90","665500ab8938657b03fbdba8","665792b41522714ef7571bbd","1712","stimuli/2001011.jpg","1","","prediction_trial","2","","false","","2","false","false","false","true","false","false","[2]","001","011","0","","","","","","",""
"","","","","","image-keyboard-response","61","208841","0.0-36.0","60fcd9699c3def3068403b90","665500ab8938657b03fbdba8","665792b41522714ef7571bbd","1039","stimuli/20010112.jpg"," ","","feedback_trial","2","","","","","","","","","","","","","","","","","","","","",""
"","","","","","image-keyboard-response","62","210253","0.0-37.0","60fcd9699c3def3068403b90","665500ab8938657b03fbdba8","665792b41522714ef7571bbd","1407","stimuli/1010111.jpg","2","","prediction_trial","1","","false","","1","false","false","false","true","false","false","[1]","010","111","0","","","","","","",""
"","","","","","image-keyboard-response","63","211222","0.0-38.0","60fcd9699c3def3068403b90","665500ab8938657b03fbdba8","665792b41522714ef7571bbd","963","stimuli/10101111.jpg"," ","","feedback_trial","1","","","","","","","","","","","","","","","","","","","","",""
"","","","","","image-keyboard-response","64","213631","0.0-39.0","60fcd9699c3def3068403b90","665500ab8938657b03fbdba8","665792b41522714ef7571bbd","2405","stimuli/0110010.jpg","0","","prediction_trial","0","","true","","0","true","true","false","false","false","false","[1,0]","110","010","1","","","","","","",""
"","","","","","image-keyboard-response","65","214536","0.0-40.0","60fcd9699c3def3068403b90","665500ab8938657b03fbdba8","665792b41522714ef7571bbd","899","stimuli/01100100.jpg"," ","","feedback_trial","1","","","","","","","","","","","","","","","","","","","","",""
"","","","","","image-keyboard-response","66","215676","0.0-41.0","60fcd9699c3def3068403b90","665500ab8938657b03fbdba8","665792b41522714ef7571bbd","1135","stimuli/0001001.jpg","0","","prediction_trial","0","","true","","0","true","true","true","true","true","true","[0]","001","001","1","","","","","","",""
"","","","","","image-keyboard-response","67","216449","0.0-42.0","60fcd9699c3def3068403b90","665500ab8938657b03fbdba8","665792b41522714ef7571bbd","768","stimuli/00010010.jpg"," ","","feedback_trial","0","","","","","","","","","","","","","","","","","","","","",""
"","","","","","image-keyboard-response","68","218307","0.0-43.0","60fcd9699c3def3068403b90","665500ab8938657b03fbdba8","665792b41522714ef7571bbd","1851","stimuli/2111010.jpg","2","","prediction_trial","2","","true","","2","true","true","false","false","false","false","[2,0,1]","111","010","1","","","","","","",""
"","","","","","image-keyboard-response","69","219239","0.0-44.0","60fcd9699c3def3068403b90","665500ab8938657b03fbdba8","665792b41522714ef7571bbd","923","stimuli/21110102.jpg"," ","","feedback_trial","2","","","","","","","","","","","","","","","","","","","","",""
"","","","","","image-keyboard-response","70","221645","0.0-45.0","60fcd9699c3def3068403b90","665500ab8938657b03fbdba8","665792b41522714ef7571bbd","2404","stimuli/2110101.jpg","2","","prediction_trial","2","","true","","2","false","false","true","true","false","false","[2]","110","101","1","","","","","","",""
"","","","","","image-keyboard-response","71","222528","0.0-46.0","60fcd9699c3def3068403b90","665500ab8938657b03fbdba8","665792b41522714ef7571bbd","878","stimuli/21101012.jpg"," ","","feedback_trial","2","","","","","","","","","","","","","","","","","","","","",""
"","","","","","image-keyboard-response","72","223592","0.0-47.0","60fcd9699c3def3068403b90","665500ab8938657b03fbdba8","665792b41522714ef7571bbd","1060","stimuli/0001011.jpg","0","","prediction_trial","0","","true","","0","true","true","true","true","true","true","[0]","001","011","1","","","","","","",""
"","","","","","image-keyboard-response","73","224366","0.0-48.0","60fcd9699c3def3068403b90","665500ab8938657b03fbdba8","665792b41522714ef7571bbd","758","stimuli/00010110.jpg"," ","","feedback_trial","0","","","","","","","","","","","","","","","","","","","","",""
"","","","","","image-keyboard-response","74","225348","0.0-49.0","60fcd9699c3def3068403b90","665500ab8938657b03fbdba8","665792b41522714ef7571bbd","978","stimuli/1001100.jpg","1","","prediction_trial","1","","true","","1","true","true","true","true","true","true","[1]","001","100","1","","","","","","",""
"","","","","","image-keyboard-response","75","226067","0.0-50.0","60fcd9699c3def3068403b90","665500ab8938657b03fbdba8","665792b41522714ef7571bbd","713","stimuli/10011001.jpg"," ","","feedback_trial","1","","","","","","","","","","","","","","","","","","","","",""
"","","","","","image-keyboard-response","76","230904","0.0-51.0","60fcd9699c3def3068403b90","665500ab8938657b03fbdba8","665792b41522714ef7571bbd","4816","stimuli/1000011.jpg","2","","prediction_trial","1","","false","","1","false","false","true","true","false","false","[1]","000","011","0","","","","","","",""
"","","","","","image-keyboard-response","77","231726","0.0-52.0","60fcd9699c3def3068403b90","665500ab8938657b03fbdba8","665792b41522714ef7571bbd","819","stimuli/10000111.jpg"," ","","feedback_trial","1","","","","","","","","","","","","","","","","","","","","",""
"","","","","","image-keyboard-response","78","236438","0.0-53.0","60fcd9699c3def3068403b90","665500ab8938657b03fbdba8","665792b41522714ef7571bbd","4707","stimuli/0111101.jpg","2","","prediction_trial","2","","true","","0","false","false","false","false","false","false","[0,2,1]","111","101","1","","","","","","",""
"","","","","","image-keyboard-response","79","237448","0.0-54.0","60fcd9699c3def3068403b90","665500ab8938657b03fbdba8","665792b41522714ef7571bbd","1000","stimuli/01111012.jpg"," ","","feedback_trial","0","","","","","","","","","","","","","","","","","","","","",""
"","","","","","image-keyboard-response","80","240999","0.0-55.0","60fcd9699c3def3068403b90","665500ab8938657b03fbdba8","665792b41522714ef7571bbd","3543","stimuli/2010101.jpg","0","","prediction_trial","2","","false","","2","false","false","true","true","false","false","[2]","010","101","0","","","","","","",""
"","","","","","image-keyboard-response","81","241949","0.0-56.0","60fcd9699c3def3068403b90","665500ab8938657b03fbdba8","665792b41522714ef7571bbd","944","stimuli/20101012.jpg"," ","","feedback_trial","2","","","","","","","","","","","","","","","","","","","","",""
"","","","","","image-keyboard-response","82","247371","0.0-57.0","60fcd9699c3def3068403b90","665500ab8938657b03fbdba8","665792b41522714ef7571bbd","5417","stimuli/1110101.jpg","1","","prediction_trial","1","","true","","1","true","true","false","false","false","false","[0,1]","110","101","1","","","","","","",""
"","","","","","image-keyboard-response","83","248219","0.0-58.0","60fcd9699c3def3068403b90","665500ab8938657b03fbdba8","665792b41522714ef7571bbd","844","stimuli/11101011.jpg"," ","","feedback_trial","0","","","","","","","","","","","","","","","","","","","","",""
"","","","","","image-keyboard-response","84","250950","0.0-59.0","60fcd9699c3def3068403b90","665500ab8938657b03fbdba8","665792b41522714ef7571bbd","2726","stimuli/0101100.jpg","2","","prediction_trial","2","","true","","0","false","true","false","false","false","false","[0,2]","101","100","1","","","","","","",""
"","","","","","image-keyboard-response","85","251905","0.0-60.0","60fcd9699c3def3068403b90","665500ab8938657b03fbdba8","665792b41522714ef7571bbd","942","stimuli/01011002.jpg"," ","","feedback_trial","0","","","","","","","","","","","","","","","","","","","","",""
"","","","","","image-keyboard-response","86","253198","0.0-61.0","60fcd9699c3def3068403b90","665500ab8938657b03fbdba8","665792b41522714ef7571bbd","1289","stimuli/0111111.jpg","0","","prediction_trial","2","","false","","0","false","false","false","false","false","false","[1,0,2]","111","111","0","","","","","","",""
"","","","","","image-keyboard-response","87","253927","0.0-62.0","60fcd9699c3def3068403b90","665500ab8938657b03fbdba8","665792b41522714ef7571bbd","724","stimuli/01111112.jpg"," ","","feedback_trial","1","","","","","","","","","","","","","","","","","","","","",""
"","","","","","image-keyboard-response","88","257111","0.0-63.0","60fcd9699c3def3068403b90","665500ab8938657b03fbdba8","665792b41522714ef7571bbd","3179","stimuli/2100011.jpg","2","","prediction_trial","2","","true","","2","false","false","true","true","false","false","[2]","100","011","1","","","","","","",""
"","","","","","image-keyboard-response","89","258011","0.0-64.0","60fcd9699c3def3068403b90","665500ab8938657b03fbdba8","665792b41522714ef7571bbd","897","stimuli/21000112.jpg"," ","","feedback_trial","2","","","","","","","","","","","","","","","","","","","","",""
"","","","","","image-keyboard-response","90","261534","0.0-65.0","60fcd9699c3def3068403b90","665500ab8938657b03fbdba8","665792b41522714ef7571bbd","3518","stimuli/1011100.jpg","1","","prediction_trial","1","","true","","1","true","true","false","false","false","false","[2,1]","011","100","1","","","","","","",""
"","","","","","image-keyboard-response","91","262309","0.0-66.0","60fcd9699c3def3068403b90","665500ab8938657b03fbdba8","665792b41522714ef7571bbd","764","stimuli/10111001.jpg"," ","","feedback_trial","2","","","","","","","","","","","","","","","","","","","","",""
"","","","","","image-keyboard-response","92","263384","0.0-67.0","60fcd9699c3def3068403b90","665500ab8938657b03fbdba8","665792b41522714ef7571bbd","1072","stimuli/0011011.jpg","0","","prediction_trial","0","","true","","0","true","true","true","true","true","true","[0]","011","011","1","","","","","","",""
"","","","","","image-keyboard-response","93","264089","0.0-68.0","60fcd9699c3def3068403b90","665500ab8938657b03fbdba8","665792b41522714ef7571bbd","700","stimuli/00110110.jpg"," ","","feedback_trial","0","","","","","","","","","","","","","","","","","","","","",""
"","","","","","image-keyboard-response","94","265079","0.0-69.0","60fcd9699c3def3068403b90","665500ab8938657b03fbdba8","665792b41522714ef7571bbd","981","stimuli/1000100.jpg","1","","prediction_trial","1","","true","","1","true","true","true","true","true","true","[1]","000","100","1","","","","","","",""
"","","","","","image-keyboard-response","95","265815","0.0-70.0","60fcd9699c3def3068403b90","665500ab8938657b03fbdba8","665792b41522714ef7571bbd","732","stimuli/10001001.jpg"," ","","feedback_trial","1","","","","","","","","","","","","","","","","","","","","",""
"","","","","","image-keyboard-response","96","272126","0.0-71.0","60fcd9699c3def3068403b90","665500ab8938657b03fbdba8","665792b41522714ef7571bbd","6306","stimuli/1010101.jpg","1","","prediction_trial","1","","true","","1","true","true","false","true","false","true","[1]","010","101","1","","","","","","",""
"","","","","","image-keyboard-response","97","272942","0.0-72.0","60fcd9699c3def3068403b90","665500ab8938657b03fbdba8","665792b41522714ef7571bbd","803","stimuli/10101011.jpg"," ","","feedback_trial","1","","","","","","","","","","","","","","","","","","","","",""
"","","","","","image-keyboard-response","98","274899","0.0-73.0","60fcd9699c3def3068403b90","665500ab8938657b03fbdba8","665792b41522714ef7571bbd","1953","stimuli/1111100.jpg","1","","prediction_trial","0","","false","","1","true","true","false","false","false","false","[1,2,0]","111","100","0","","","","","","",""
"","","","","","image-keyboard-response","99","275608","0.0-74.0","60fcd9699c3def3068403b90","665500ab8938657b03fbdba8","665792b41522714ef7571bbd","704","stimuli/11111000.jpg"," ","","feedback_trial","1","","","","","","","","","","","","","","","","","","","","",""
"","","","","","image-keyboard-response","100","276571","0.0-75.0","60fcd9699c3def3068403b90","665500ab8938657b03fbdba8","665792b41522714ef7571bbd","960","stimuli/2000000.jpg","2","","prediction_trial","2","","true","","2","true","true","true","true","true","true","[2]","000","000","1","","","","","","",""
"","","","","","image-keyboard-response","101","277329","0.0-76.0","60fcd9699c3def3068403b90","665500ab8938657b03fbdba8","665792b41522714ef7571bbd","753","stimuli/20000002.jpg"," ","","feedback_trial","2","","","","","","","","","","","","","","","","","","","","",""
"","","","","","image-keyboard-response","102","279730","0.0-77.0","60fcd9699c3def3068403b90","665500ab8938657b03fbdba8","665792b41522714ef7571bbd","2392","stimuli/1001101.jpg","1","","prediction_trial","1","","true","","1","true","true","true","true","true","true","[1]","001","101","1","","","","","","",""
"","","","","","image-keyboard-response","103","280513","0.0-78.0","60fcd9699c3def3068403b90","665500ab8938657b03fbdba8","665792b41522714ef7571bbd","780","stimuli/10011011.jpg"," ","","feedback_trial","1","","","","","","","","","","","","","","","","","","","","",""
"","","","","","image-keyboard-response","104","283045","0.0-79.0","60fcd9699c3def3068403b90","665500ab8938657b03fbdba8","665792b41522714ef7571bbd","2528","stimuli/2001100.jpg","0","","prediction_trial","2","","false","","2","true","true","false","true","false","true","[2]","001","100","0","","","","","","",""
"","","","","","image-keyboard-response","105","283808","0.0-80.0","60fcd9699c3def3068403b90","665500ab8938657b03fbdba8","665792b41522714ef7571bbd","758","stimuli/20011002.jpg"," ","","feedback_trial","2","","","","","","","","","","","","","","","","","","","","",""
"","","","","","image-keyboard-response","106","286293","0.0-81.0","60fcd9699c3def3068403b90","665500ab8938657b03fbdba8","665792b41522714ef7571bbd","2481","stimuli/0101110.jpg","2","","prediction_trial","2","","true","","0","false","false","false","false","false","false","[0,2]","101","110","1","","","","","","",""
"","","","","","image-keyboard-response","107","287321","0.0-82.0","60fcd9699c3def3068403b90","665500ab8938657b03fbdba8","665792b41522714ef7571bbd","1014","stimuli/01011102.jpg"," ","","feedback_trial","0","","","","","","","","","","","","","","","","","","","","",""
"","","","","","image-keyboard-response","108","288943","0.0-83.0","60fcd9699c3def3068403b90","665500ab8938657b03fbdba8","665792b41522714ef7571bbd","1616","stimuli/1111011.jpg","2","","prediction_trial","2","","true","","1","false","false","false","false","false","false","[1,0,2]","111","011","1","","","","","","",""
"","","","","","image-keyboard-response","109","289856","0.0-84.0","60fcd9699c3def3068403b90","665500ab8938657b03fbdba8","665792b41522714ef7571bbd","909","stimuli/11110112.jpg"," ","","feedback_trial","1","","","","","","","","","","","","","","","","","","","","",""
"","","","","","image-keyboard-response","110","290870","0.0-85.0","60fcd9699c3def3068403b90","665500ab8938657b03fbdba8","665792b41522714ef7571bbd","1004","stimuli/2010110.jpg","2","","prediction_trial","2","","true","","2","true","true","true","true","true","true","[2]","010","110","1","","","","","","",""
"","","","","","image-keyboard-response","111","291636","0.0-86.0","60fcd9699c3def3068403b90","665500ab8938657b03fbdba8","665792b41522714ef7571bbd","762","stimuli/20101102.jpg"," ","","feedback_trial","2","","","","","","","","","","","","","","","","","","","","",""
"","","","","","image-keyboard-response","112","294336","0.0-87.0","60fcd9699c3def3068403b90","665500ab8938657b03fbdba8","665792b41522714ef7571bbd","2696","stimuli/1001010.jpg","1","","prediction_trial","1","","true","","1","false","true","true","true","false","true","[1]","001","010","1","","","","","","",""
"","","","","","image-keyboard-response","113","295246","0.0-88.0","60fcd9699c3def3068403b90","665500ab8938657b03fbdba8","665792b41522714ef7571bbd","896","stimuli/10010101.jpg"," ","","feedback_trial","1","","","","","","","","","","","","","","","","","","","","",""
"","","","","","image-keyboard-response","114","296974","0.0-89.0","60fcd9699c3def3068403b90","665500ab8938657b03fbdba8","665792b41522714ef7571bbd","1725","stimuli/1111000.jpg","1","","prediction_trial","0","","false","","1","true","true","false","false","false","false","[2,0,1]","111","000","0","","","","","","",""
"","","","","","image-keyboard-response","115","297898","0.0-90.0","60fcd9699c3def3068403b90","665500ab8938657b03fbdba8","665792b41522714ef7571bbd","919","stimuli/11110000.jpg"," ","","feedback_trial","2","","","","","","","","","","","","","","","","","","","","",""
"","","","","","image-keyboard-response","116","299464","0.0-91.0","60fcd9699c3def3068403b90","665500ab8938657b03fbdba8","665792b41522714ef7571bbd","1557","stimuli/2000111.jpg","2","","prediction_trial","2","","true","","2","false","false","true","true","false","false","[2]","000","111","1","","","","","","",""
"","","","","","image-keyboard-response","117","300457","0.0-92.0","60fcd9699c3def3068403b90","665500ab8938657b03fbdba8","665792b41522714ef7571bbd","988","stimuli/20001112.jpg"," ","","feedback_trial","2","","","","","","","","","","","","","","","","","","","","",""
"","","","","","image-keyboard-response","118","301761","0.0-93.0","60fcd9699c3def3068403b90","665500ab8938657b03fbdba8","665792b41522714ef7571bbd","1300","stimuli/2011111.jpg","0","","prediction_trial","1","","false","","2","false","false","false","false","false","false","[2,1]","011","111","0","","","","","","",""
"","","","","","image-keyboard-response","119","302661","0.0-94.0","60fcd9699c3def3068403b90","665500ab8938657b03fbdba8","665792b41522714ef7571bbd","888","stimuli/20111111.jpg"," ","","feedback_trial","2","","","","","","","","","","","","","","","","","","","","",""
"","","","","","image-keyboard-response","120","304874","0.0-95.0","60fcd9699c3def3068403b90","665500ab8938657b03fbdba8","665792b41522714ef7571bbd","2206","stimuli/2000001.jpg","2","","prediction_trial","2","","true","","2","false","true","true","true","false","true","[2]","000","001","1","","","","","","",""
"","","","","","image-keyboard-response","121","305781","0.0-96.0","60fcd9699c3def3068403b90","665500ab8938657b03fbdba8","665792b41522714ef7571bbd","903","stimuli/20000012.jpg"," ","","feedback_trial","2","","","","","","","","","","","","","","","","","","","","",""
"","","","","","image-keyboard-response","122","308900","0.0-97.0","60fcd9699c3def3068403b90","665500ab8938657b03fbdba8","665792b41522714ef7571bbd","3100","stimuli/2100101.jpg","2","","prediction_trial","2","","true","","2","false","false","true","true","false","false","[2]","100","101","1","","","","","","",""
"","","","","","image-keyboard-response","123","310226","0.0-98.0","60fcd9699c3def3068403b90","665500ab8938657b03fbdba8","665792b41522714ef7571bbd","1322","stimuli/21001012.jpg"," ","","feedback_trial","2","","","","","","","","","","","","","","","","","","","","",""
"","","","","","image-keyboard-response","124","311830","0.0-99.0","60fcd9699c3def3068403b90","665500ab8938657b03fbdba8","665792b41522714ef7571bbd","1597","stimuli/0111100.jpg","0","","prediction_trial","1","","false","","0","false","true","false","false","false","false","[1,0,2]","111","100","0","","","","","","",""
"","","","","","image-keyboard-response","125","312569","0.0-100.0","60fcd9699c3def3068403b90","665500ab8938657b03fbdba8","665792b41522714ef7571bbd","734","stimuli/01111001.jpg"," ","","feedback_trial","1","","","","","","","","","","","","","","","","","","","","",""
"","","","","","image-keyboard-response","126","313895","0.0-101.0","60fcd9699c3def3068403b90","665500ab8938657b03fbdba8","665792b41522714ef7571bbd","1321","stimuli/2100111.jpg","1","","prediction_trial","2","","false","","2","false","false","true","true","false","false","[2]","100","111","0","","","","","","",""
"","","","","","image-keyboard-response","127","315069","0.0-102.0","60fcd9699c3def3068403b90","665500ab8938657b03fbdba8","665792b41522714ef7571bbd","1168","stimuli/21001112.jpg"," ","","feedback_trial","2","","","","","","","","","","","","","","","","","","","","",""
"","","","","","image-keyboard-response","128","316020","0.0-103.0","60fcd9699c3def3068403b90","665500ab8938657b03fbdba8","665792b41522714ef7571bbd","943","stimuli/2100110.jpg","2","","prediction_trial","2","","true","","2","true","true","true","true","true","true","[2]","100","110","1","","","","","","",""
"","","","","","image-keyboard-response","129","316809","0.0-104.0","60fcd9699c3def3068403b90","665500ab8938657b03fbdba8","665792b41522714ef7571bbd","783","stimuli/21001102.jpg"," ","","feedback_trial","2","","","","","","","","","","","","","","","","","","","","",""
"","","","","","image-keyboard-response","130","322036","0.0-105.0","60fcd9699c3def3068403b90","665500ab8938657b03fbdba8","665792b41522714ef7571bbd","5222","stimuli/2000110.jpg","2","","prediction_trial","2","","true","","2","true","true","true","true","true","true","[2]","000","110","1","","","","","","",""
"","","","","","image-keyboard-response","131","322883","0.0-106.0","60fcd9699c3def3068403b90","665500ab8938657b03fbdba8","665792b41522714ef7571bbd","842","stimuli/20001102.jpg"," ","","feedback_trial","2","","","","","","","","","","","","","","","","","","","","",""
"","","","","","image-keyboard-response","132","323852","0.0-107.0","60fcd9699c3def3068403b90","665500ab8938657b03fbdba8","665792b41522714ef7571bbd","965","stimuli/2110010.jpg","2","","prediction_trial","2","","true","","2","true","true","true","true","true","true","[2]","110","010","1","","","","","","",""
"","","","","","image-keyboard-response","133","324483","0.0-108.0","60fcd9699c3def3068403b90","665500ab8938657b03fbdba8","665792b41522714ef7571bbd","620","stimuli/21100102.jpg"," ","","feedback_trial","2","","","","","","","","","","","","","","","","","","","","",""
"","","","","","image-keyboard-response","134","325264","0.0-109.0","60fcd9699c3def3068403b90","665500ab8938657b03fbdba8","665792b41522714ef7571bbd","775","stimuli/2010000.jpg","2","","prediction_trial","2","","true","","2","true","true","true","true","true","true","[2]","010","000","1","","","","","","",""
"","","","","","image-keyboard-response","135","325878","0.0-110.0","60fcd9699c3def3068403b90","665500ab8938657b03fbdba8","665792b41522714ef7571bbd","609","stimuli/20100002.jpg"," ","","feedback_trial","2","","","","","","","","","","","","","","","","","","","","",""
"","","","","","image-keyboard-response","136","327882","0.0-111.0","60fcd9699c3def3068403b90","665500ab8938657b03fbdba8","665792b41522714ef7571bbd","2000","stimuli/1000111.jpg","0","","prediction_trial","1","","false","","1","false","false","true","true","false","false","[1]","000","111","0","","","","","","",""
"","","","","","image-keyboard-response","137","328621","0.0-112.0","60fcd9699c3def3068403b90","665500ab8938657b03fbdba8","665792b41522714ef7571bbd","734","stimuli/10001111.jpg"," ","","feedback_trial","1","","","","","","","","","","","","","","","","","","","","",""
"","","","","","image-keyboard-response","138","332086","0.0-113.0","60fcd9699c3def3068403b90","665500ab8938657b03fbdba8","665792b41522714ef7571bbd","3448","stimuli/1110100.jpg","1","","prediction_trial","1","","true","","1","true","true","false","false","false","false","[1,0]","110","100","1","","","","","","",""
"","","","","","image-keyboard-response","139","332756","0.0-114.0","60fcd9699c3def3068403b90","665500ab8938657b03fbdba8","665792b41522714ef7571bbd","665","stimuli/11101001.jpg"," ","","feedback_trial","1","","","","","","","","","","","","","","","","","","","","",""
"","","","","","image-keyboard-response","140","334043","0.0-115.0","60fcd9699c3def3068403b90","665500ab8938657b03fbdba8","665792b41522714ef7571bbd","1283","stimuli/2111001.jpg","2","","prediction_trial","1","","false","","2","false","true","false","false","false","false","[2,0,1]","111","001","0","","","","","","",""
"","","","","","image-keyboard-response","141","334971","0.0-116.0","60fcd9699c3def3068403b90","665500ab8938657b03fbdba8","665792b41522714ef7571bbd","915","stimuli/21110011.jpg"," ","","feedback_trial","2","","","","","","","","","","","","","","","","","","","","",""
"","","","","","image-keyboard-response","142","336209","0.0-117.0","60fcd9699c3def3068403b90","665500ab8938657b03fbdba8","665792b41522714ef7571bbd","1234","stimuli/2100010.jpg","2","","prediction_trial","2","","true","","2","true","true","true","true","true","true","[2]","100","010","1","","","","","","",""
"","","","","","image-keyboard-response","143","336907","0.0-118.0","60fcd9699c3def3068403b90","665500ab8938657b03fbdba8","665792b41522714ef7571bbd","694","stimuli/21000102.jpg"," ","","feedback_trial","2","","","","","","","","","","","","","","","","","","","","",""
"","","","","","image-keyboard-response","144","337992","0.0-119.0","60fcd9699c3def3068403b90","665500ab8938657b03fbdba8","665792b41522714ef7571bbd","1078","stimuli/0000011.jpg","0","","prediction_trial","0","","true","","0","true","true","true","true","true","true","[0]","000","011","1","","","","","","",""
"","","","","","image-keyboard-response","145","338690","0.0-120.0","60fcd9699c3def3068403b90","665500ab8938657b03fbdba8","665792b41522714ef7571bbd","692","stimuli/00000110.jpg"," ","","feedback_trial","0","","","","","","","","","","","","","","","","","","","","",""
"","","","","","image-keyboard-response","146","339543","0.0-121.0","60fcd9699c3def3068403b90","665500ab8938657b03fbdba8","665792b41522714ef7571bbd","849","stimuli/2010010.jpg","2","","prediction_trial","2","","true","","2","true","true","true","true","true","true","[2]","010","010","1","","","","","","",""
"","","","","","image-keyboard-response","147","340168","0.0-122.0","60fcd9699c3def3068403b90","665500ab8938657b03fbdba8","665792b41522714ef7571bbd","621","stimuli/20100102.jpg"," ","","feedback_trial","2","","","","","","","","","","","","","","","","","","","","",""
"","","","","","image-keyboard-response","148","342796","0.0-123.0","60fcd9699c3def3068403b90","665500ab8938657b03fbdba8","665792b41522714ef7571bbd","2623","stimuli/1100010.jpg","1","","prediction_trial","1","","true","","1","false","true","true","true","false","true","[1]","100","010","1","","","","","","",""
"","","","","","image-keyboard-response","149","344038","0.0-124.0","60fcd9699c3def3068403b90","665500ab8938657b03fbdba8","665792b41522714ef7571bbd","1236","stimuli/11000101.jpg"," ","","feedback_trial","1","","","","","","","","","","","","","","","","","","","","",""
"","","","","","image-keyboard-response","150","345814","0.0-125.0","60fcd9699c3def3068403b90","665500ab8938657b03fbdba8","665792b41522714ef7571bbd","1772","stimuli/0111010.jpg","0","","prediction_trial","1","","false","","0","true","true","false","false","false","false","[0,2,1]","111","010","0","","","","","","",""
"","","","","","image-keyboard-response","151","346694","0.0-126.0","60fcd9699c3def3068403b90","665500ab8938657b03fbdba8","665792b41522714ef7571bbd","874","stimuli/01110101.jpg"," ","","feedback_trial","0","","","","","","","","","","","","","","","","","","","","",""
"","","","","","image-keyboard-response","152","348185","0.0-127.0","60fcd9699c3def3068403b90","665500ab8938657b03fbdba8","665792b41522714ef7571bbd","1480","stimuli/1100011.jpg","2","","prediction_trial","1","","false","","1","false","false","true","true","false","false","[1]","100","011","0","","","","","","",""
"","","","","","image-keyboard-response","153","348936","0.0-128.0","60fcd9699c3def3068403b90","665500ab8938657b03fbdba8","665792b41522714ef7571bbd","748","stimuli/11000111.jpg"," ","","feedback_trial","1","","","","","","","","","","","","","","","","","","","","",""
"","","","","","image-keyboard-response","154","351391","0.0-129.0","60fcd9699c3def3068403b90","665500ab8938657b03fbdba8","665792b41522714ef7571bbd","2450","stimuli/1001011.jpg","2","","prediction_trial","1","","false","","1","false","false","true","true","false","false","[1]","001","011","0","","","","","","",""
"","","","","","image-keyboard-response","155","352170","0.0-130.0","60fcd9699c3def3068403b90","665500ab8938657b03fbdba8","665792b41522714ef7571bbd","773","stimuli/10010111.jpg"," ","","feedback_trial","1","","","","","","","","","","","","","","","","","","","","",""
"","","","","","image-keyboard-response","156","353597","0.0-131.0","60fcd9699c3def3068403b90","665500ab8938657b03fbdba8","665792b41522714ef7571bbd","1423","stimuli/0000100.jpg","0","","prediction_trial","0","","true","","0","false","true","true","true","false","true","[0]","000","100","1","","","","","","",""
"","","","","","image-keyboard-response","157","354452","0.0-132.0","60fcd9699c3def3068403b90","665500ab8938657b03fbdba8","665792b41522714ef7571bbd","850","stimuli/00001000.jpg"," ","","feedback_trial","0","","","","","","","","","","","","","","","","","","","","",""
"","","","","","image-keyboard-response","158","356809","0.0-133.0","60fcd9699c3def3068403b90","665500ab8938657b03fbdba8","665792b41522714ef7571bbd","2352","stimuli/1100110.jpg","1","","prediction_trial","1","","true","","1","false","false","true","true","false","false","[1]","100","110","1","","","","","","",""
"","","","","","image-keyboard-response","159","357477","0.0-134.0","60fcd9699c3def3068403b90","665500ab8938657b03fbdba8","665792b41522714ef7571bbd","663","stimuli/11001101.jpg"," ","","feedback_trial","1","","","","","","","","","","","","","","","","","","","","",""
"","","","","","image-keyboard-response","160","359281","0.0-135.0","60fcd9699c3def3068403b90","665500ab8938657b03fbdba8","665792b41522714ef7571bbd","1799","stimuli/0100010.jpg","0","","prediction_trial","0","","true","","0","true","true","false","true","false","true","[0]","100","010","1","","","","","","",""
"","","","","","image-keyboard-response","161","359926","0.0-136.0","60fcd9699c3def3068403b90","665500ab8938657b03fbdba8","665792b41522714ef7571bbd","637","stimuli/01000100.jpg"," ","","feedback_trial","0","","","","","","","","","","","","","","","","","","","","",""
"","","","","","image-keyboard-response","162","365638","0.0-137.0","60fcd9699c3def3068403b90","665500ab8938657b03fbdba8","665792b41522714ef7571bbd","5707","stimuli/1011110.jpg","0","","prediction_trial","1","","false","","1","false","false","false","false","false","false","[1,2]","011","110","0","","","","","","",""
"","","","","","image-keyboard-response","163","366387","0.0-138.0","60fcd9699c3def3068403b90","665500ab8938657b03fbdba8","665792b41522714ef7571bbd","743","stimuli/10111101.jpg"," ","","feedback_trial","1","","","","","","","","","","","","","","","","","","","","",""
"","","","","","image-keyboard-response","164","369412","0.0-139.0","60fcd9699c3def3068403b90","665500ab8938657b03fbdba8","665792b41522714ef7571bbd","3016","stimuli/0100111.jpg","1","","prediction_trial","0","","false","","0","false","false","false","true","false","false","[0]","100","111","0","","","","","","",""
"","","","","","image-keyboard-response","165","370378","0.0-140.0","60fcd9699c3def3068403b90","665500ab8938657b03fbdba8","665792b41522714ef7571bbd","955","stimuli/01001110.jpg"," ","","feedback_trial","0","","","","","","","","","","","","","","","","","","","","",""
"","","","","","image-keyboard-response","166","371496","0.0-141.0","60fcd9699c3def3068403b90","665500ab8938657b03fbdba8","665792b41522714ef7571bbd","1115","stimuli/0001111.jpg","1","","prediction_trial","0","","false","","0","false","false","true","true","false","false","[0]","001","111","0","","","","","","",""
"","","","","","image-keyboard-response","167","372172","0.0-142.0","60fcd9699c3def3068403b90","665500ab8938657b03fbdba8","665792b41522714ef7571bbd","665","stimuli/00011110.jpg"," ","","feedback_trial","0","","","","","","","","","","","","","","","","","","","","",""
"","","","","","image-keyboard-response","168","373314","0.0-143.0","60fcd9699c3def3068403b90","665500ab8938657b03fbdba8","665792b41522714ef7571bbd","1137","stimuli/1100100.jpg","1","","prediction_trial","1","","true","","1","true","true","true","true","true","true","[1]","100","100","1","","","","","","",""
"","","","","","image-keyboard-response","169","373932","0.0-144.0","60fcd9699c3def3068403b90","665500ab8938657b03fbdba8","665792b41522714ef7571bbd","613","stimuli/11001001.jpg"," ","","feedback_trial","1","","","","","","","","","","","","","","","","","","","","",""
"","","","","","image-keyboard-response","170","374743","0.0-145.0","60fcd9699c3def3068403b90","665500ab8938657b03fbdba8","665792b41522714ef7571bbd","807","stimuli/1000001.jpg","1","","prediction_trial","1","","true","","1","true","true","true","true","true","true","[1]","000","001","1","","","","","","",""
"","","","","","image-keyboard-response","171","375375","0.0-146.0","60fcd9699c3def3068403b90","665500ab8938657b03fbdba8","665792b41522714ef7571bbd","627","stimuli/10000011.jpg"," ","","feedback_trial","1","","","","","","","","","","","","","","","","","","","","",""
"","","","","","image-keyboard-response","172","377561","0.0-147.0","60fcd9699c3def3068403b90","665500ab8938657b03fbdba8","665792b41522714ef7571bbd","2180","stimuli/0110011.jpg","0","","prediction_trial","0","","true","","0","true","true","false","false","false","false","[1,0]","110","011","1","","","","","","",""
"","","","","","image-keyboard-response","173","378247","0.0-148.0","60fcd9699c3def3068403b90","665500ab8938657b03fbdba8","665792b41522714ef7571bbd","678","stimuli/01100110.jpg"," ","","feedback_trial","1","","","","","","","","","","","","","","","","","","","","",""
"","","","","","image-keyboard-response","174","379923","0.0-149.0","60fcd9699c3def3068403b90","665500ab8938657b03fbdba8","665792b41522714ef7571bbd","1673","stimuli/1110011.jpg","2","","prediction_trial","1","","false","","1","false","false","false","false","false","false","[0,1]","110","011","0","","","","","","",""
"","","","","","image-keyboard-response","175","381035","0.0-150.0","60fcd9699c3def3068403b90","665500ab8938657b03fbdba8","665792b41522714ef7571bbd","1109","stimuli/11100111.jpg"," ","","feedback_trial","0","","","","","","","","","","","","","","","","","","","","",""
"","","","","","image-keyboard-response","176","382042","0.0-151.0","60fcd9699c3def3068403b90","665500ab8938657b03fbdba8","665792b41522714ef7571bbd","1003","stimuli/0010000.jpg","0","","prediction_trial","0","","true","","0","true","true","true","true","true","true","[0]","010","000","1","","","","","","",""
"","","","","","image-keyboard-response","177","382682","0.0-152.0","60fcd9699c3def3068403b90","665500ab8938657b03fbdba8","665792b41522714ef7571bbd","635","stimuli/00100000.jpg"," ","","feedback_trial","0","","","","","","","","","","","","","","","","","","","","",""
"","","","","","image-keyboard-response","178","383955","0.0-153.0","60fcd9699c3def3068403b90","665500ab8938657b03fbdba8","665792b41522714ef7571bbd","1267","stimuli/0111001.jpg","0","","prediction_trial","2","","false","","0","true","true","false","false","false","false","[1,2,0]","111","001","0","","","","","","",""
"","","","","","image-keyboard-response","179","384582","0.0-154.0","60fcd9699c3def3068403b90","665500ab8938657b03fbdba8","665792b41522714ef7571bbd","623","stimuli/01110012.jpg"," ","","feedback_trial","1","","","","","","","","","","","","","","","","","","","","",""
"","","","","","image-keyboard-response","180","385833","0.0-155.0","60fcd9699c3def3068403b90","665500ab8938657b03fbdba8","665792b41522714ef7571bbd","1247","stimuli/2011100.jpg","2","","prediction_trial","1","","false","","2","true","true","false","false","false","false","[1,2]","011","100","0","","","","","","",""
"","","","","","image-keyboard-response","181","386704","0.0-156.0","60fcd9699c3def3068403b90","665500ab8938657b03fbdba8","665792b41522714ef7571bbd","863","stimuli/20111001.jpg"," ","","feedback_trial","1","","","","","","","","","","","","","","","","","","","","",""
"","","","","","image-keyboard-response","182","388734","0.0-157.0","60fcd9699c3def3068403b90","665500ab8938657b03fbdba8","665792b41522714ef7571bbd","2023","stimuli/1101110.jpg","1","","prediction_trial","1","","true","","1","false","false","true","true","false","false","[1]","101","110","1","","","","","","",""
"","","","","","image-keyboard-response","183","389708","0.0-158.0","60fcd9699c3def3068403b90","665500ab8938657b03fbdba8","665792b41522714ef7571bbd","968","stimuli/11011101.jpg"," ","","feedback_trial","1","","","","","","","","","","","","","","","","","","","","",""
"","","","","","image-keyboard-response","184","390825","0.0-159.0","60fcd9699c3def3068403b90","665500ab8938657b03fbdba8","665792b41522714ef7571bbd","1110","stimuli/2111000.jpg","2","","prediction_trial","0","","false","","2","true","true","false","false","false","false","[2,0,1]","111","000","0","","","","","","",""
"","","","","","image-keyboard-response","185","391563","0.0-160.0","60fcd9699c3def3068403b90","665500ab8938657b03fbdba8","665792b41522714ef7571bbd","733","stimuli/21110000.jpg"," ","","feedback_trial","2","","","","","","","","","","","","","","","","","","","","",""
"","","","","","image-keyboard-response","186","392561","0.0-161.0","60fcd9699c3def3068403b90","665500ab8938657b03fbdba8","665792b41522714ef7571bbd","993","stimuli/2111111.jpg","1","","prediction_trial","2","","false","","2","false","false","false","false","false","false","[1,0,2]","111","111","0","","","","","","",""
"","","","","","image-keyboard-response","187","393276","0.0-162.0","60fcd9699c3def3068403b90","665500ab8938657b03fbdba8","665792b41522714ef7571bbd","709","stimuli/21111112.jpg"," ","","feedback_trial","1","","","","","","","","","","","","","","","","","","","","",""
"","","","","","image-keyboard-response","188","394205","0.0-163.0","60fcd9699c3def3068403b90","665500ab8938657b03fbdba8","665792b41522714ef7571bbd","925","stimuli/0011001.jpg","0","","prediction_trial","0","","true","","0","true","true","true","true","true","true","[0]","011","001","1","","","","","","",""
"","","","","","image-keyboard-response","189","394779","0.0-164.0","60fcd9699c3def3068403b90","665500ab8938657b03fbdba8","665792b41522714ef7571bbd","569","stimuli/00110010.jpg"," ","","feedback_trial","0","","","","","","","","","","","","","","","","","","","","",""
"","","","","","image-keyboard-response","190","395916","0.0-165.0","60fcd9699c3def3068403b90","665500ab8938657b03fbdba8","665792b41522714ef7571bbd","1128","stimuli/1111101.jpg","1","","prediction_trial","1","","true","","1","true","true","false","false","false","false","[0,1,2]","111","101","1","","","","","","",""
"","","","","","image-keyboard-response","191","396566","0.0-166.0","60fcd9699c3def3068403b90","665500ab8938657b03fbdba8","665792b41522714ef7571bbd","644","stimuli/11111011.jpg"," ","","feedback_trial","0","","","","","","","","","","","","","","","","","","","","",""
"","","","","","image-keyboard-response","192","397530","0.0-167.0","60fcd9699c3def3068403b90","665500ab8938657b03fbdba8","665792b41522714ef7571bbd","961","stimuli/2001001.jpg","2","","prediction_trial","2","","true","","2","false","true","false","true","false","true","[2]","001","001","1","","","","","","",""
"","","","","","image-keyboard-response","193","398214","0.0-168.0","60fcd9699c3def3068403b90","665500ab8938657b03fbdba8","665792b41522714ef7571bbd","680","stimuli/20010012.jpg"," ","","feedback_trial","2","","","","","","","","","","","","","","","","","","","","",""
"","","","","","image-keyboard-response","194","400488","0.0-169.0","60fcd9699c3def3068403b90","665500ab8938657b03fbdba8","665792b41522714ef7571bbd","2267","stimuli/0001110.jpg","1","","prediction_trial","0","","false","","0","false","false","true","true","false","false","[0]","001","110","0","","","","","","",""
"","","","","","image-keyboard-response","195","401161","0.0-170.0","60fcd9699c3def3068403b90","665500ab8938657b03fbdba8","665792b41522714ef7571bbd","670","stimuli/00011100.jpg"," ","","feedback_trial","0","","","","","","","","","","","","","","","","","","","","",""
"","","","","","image-keyboard-response","196","404200","0.0-171.0","60fcd9699c3def3068403b90","665500ab8938657b03fbdba8","665792b41522714ef7571bbd","3034","stimuli/0100110.jpg","1","","prediction_trial","0","","false","","0","false","false","false","true","false","false","[0]","100","110","0","","","","","","",""
"","","","","","image-keyboard-response","197","404960","0.0-172.0","60fcd9699c3def3068403b90","665500ab8938657b03fbdba8","665792b41522714ef7571bbd","747","stimuli/01001100.jpg"," ","","feedback_trial","0","","","","","","","","","","","","","","","","","","","","",""
"","","","","","image-keyboard-response","198","406268","0.0-173.0","60fcd9699c3def3068403b90","665500ab8938657b03fbdba8","665792b41522714ef7571bbd","1305","stimuli/1101100.jpg","1","","prediction_trial","1","","true","","1","true","true","true","true","true","true","[1]","101","100","1","","","","","","",""
"","","","","","image-keyboard-response","199","407185","0.0-174.0","60fcd9699c3def3068403b90","665500ab8938657b03fbdba8","665792b41522714ef7571bbd","912","stimuli/11011001.jpg"," ","","feedback_trial","1","","","","","","","","","","","","","","","","","","","","",""
"","","","","","image-keyboard-response","200","408661","0.0-175.0","60fcd9699c3def3068403b90","665500ab8938657b03fbdba8","665792b41522714ef7571bbd","1472","stimuli/2000101.jpg","0","","prediction_trial","2","","false","","2","false","false","true","true","false","false","[2]","000","101","0","","","","","","",""
"","","","","","image-keyboard-response","201","409313","0.0-176.0","60fcd9699c3def3068403b90","665500ab8938657b03fbdba8","665792b41522714ef7571bbd","649","stimuli/20001012.jpg"," ","","feedback_trial","2","","","","","","","","","","","","","","","","","","","","",""
"","","","","","image-keyboard-response","202","410386","0.0-177.0","60fcd9699c3def3068403b90","665500ab8938657b03fbdba8","665792b41522714ef7571bbd","1067","stimuli/0101011.jpg","0","","prediction_trial","0","","true","","0","true","true","false","false","false","false","[0,2]","101","011","1","","","","","","",""
"","","","","","image-keyboard-response","203","411077","0.0-178.0","60fcd9699c3def3068403b90","665500ab8938657b03fbdba8","665792b41522714ef7571bbd","677","stimuli/01010110.jpg"," ","","feedback_trial","0","","","","","","","","","","","","","","","","","","","","",""
"","","","","","image-keyboard-response","204","412148","0.0-179.0","60fcd9699c3def3068403b90","665500ab8938657b03fbdba8","665792b41522714ef7571bbd","1067","stimuli/0110001.jpg","0","","prediction_trial","0","","true","","0","true","true","false","false","false","false","[1,0]","110","001","1","","","","","","",""
"","","","","","image-keyboard-response","205","412850","0.0-180.0","60fcd9699c3def3068403b90","665500ab8938657b03fbdba8","665792b41522714ef7571bbd","696","stimuli/01100010.jpg"," ","","feedback_trial","1","","","","","","","","","","","","","","","","","","","","",""
"","","","","","image-keyboard-response","206","414346","0.0-181.0","60fcd9699c3def3068403b90","665500ab8938657b03fbdba8","665792b41522714ef7571bbd","1485","stimuli/2011101.jpg","2","","prediction_trial","2","","true","","2","false","false","false","false","false","false","[2,1]","011","101","1","","","","","","",""
"","","","","","image-keyboard-response","207","415106","0.0-182.0","60fcd9699c3def3068403b90","665500ab8938657b03fbdba8","665792b41522714ef7571bbd","755","stimuli/20111012.jpg"," ","","feedback_trial","2","","","","","","","","","","","","","","","","","","","","",""
"","","","","","image-keyboard-response","208","418303","0.0-183.0","60fcd9699c3def3068403b90","665500ab8938657b03fbdba8","665792b41522714ef7571bbd","3192","stimuli/0110101.jpg","0","","prediction_trial","0","","true","","0","false","false","false","false","false","false","[1,0]","110","101","1","","","","","","",""
"","","","","","image-keyboard-response","209","419018","0.0-184.0","60fcd9699c3def3068403b90","665500ab8938657b03fbdba8","665792b41522714ef7571bbd","703","stimuli/01101010.jpg"," ","","feedback_trial","1","","","","","","","","","","","","","","","","","","","","",""
"","","","","","image-keyboard-response","210","421740","0.0-185.0","60fcd9699c3def3068403b90","665500ab8938657b03fbdba8","665792b41522714ef7571bbd","2716","stimuli/0101010.jpg","0","","prediction_trial","0","","true","","0","true","true","false","false","false","false","[0,2]","101","010","1","","","","","","",""
"","","","","","image-keyboard-response","211","422827","0.0-186.0","60fcd9699c3def3068403b90","665500ab8938657b03fbdba8","665792b41522714ef7571bbd","1082","stimuli/01010100.jpg"," ","","feedback_trial","0","","","","","","","","","","","","","","","","","","","","",""
"","","","","","image-keyboard-response","212","424871","0.0-187.0","60fcd9699c3def3068403b90","665500ab8938657b03fbdba8","665792b41522714ef7571bbd","2040","stimuli/2110001.jpg","2","","prediction_trial","2","","true","","2","false","true","true","true","false","true","[2]","110","001","1","","","","","","",""
"","","","","","image-keyboard-response","213","425818","0.0-188.0","60fcd9699c3def3068403b90","665500ab8938657b03fbdba8","665792b41522714ef7571bbd","942","stimuli/21100012.jpg"," ","","feedback_trial","2","","","","","","","","","","","","","","","","","","","","",""
"","","","","","image-keyboard-response","214","427893","0.0-189.0","60fcd9699c3def3068403b90","665500ab8938657b03fbdba8","665792b41522714ef7571bbd","2070","stimuli/0101001.jpg","0","","prediction_trial","0","","true","","0","true","true","false","false","false","false","[0,2]","101","001","1","","","","","","",""
"","","","","","image-keyboard-response","215","428563","0.0-190.0","60fcd9699c3def3068403b90","665500ab8938657b03fbdba8","665792b41522714ef7571bbd","666","stimuli/01010010.jpg"," ","","feedback_trial","0","","","","","","","","","","","","","","","","","","","","",""
"","","","","","image-keyboard-response","216","429669","0.0-191.0","60fcd9699c3def3068403b90","665500ab8938657b03fbdba8","665792b41522714ef7571bbd","1095","stimuli/2111110.jpg","2","","prediction_trial","0","","false","","2","true","true","false","false","false","false","[2,0,1]","111","110","0","","","","","","",""
"","","","","","image-keyboard-response","217","430398","0.0-192.0","60fcd9699c3def3068403b90","665500ab8938657b03fbdba8","665792b41522714ef7571bbd","726","stimuli/21111100.jpg"," ","","feedback_trial","2","","","","","","","","","","","","","","","","","","","","",""
"","","","","","image-keyboard-response","218","432795","0.0-193.0","60fcd9699c3def3068403b90","665500ab8938657b03fbdba8","665792b41522714ef7571bbd","2394","stimuli/2100001.jpg","2","","prediction_trial","2","","true","","2","false","true","true","true","false","true","[2]","100","001","1","","","","","","",""
"","","","","","image-keyboard-response","219","433526","0.0-194.0","60fcd9699c3def3068403b90","665500ab8938657b03fbdba8","665792b41522714ef7571bbd","721","stimuli/21000012.jpg"," ","","feedback_trial","2","","","","","","","","","","","","","","","","","","","","",""
"","","","","","image-keyboard-response","220","435476","0.0-195.0","60fcd9699c3def3068403b90","665500ab8938657b03fbdba8","665792b41522714ef7571bbd","1945","stimuli/0110000.jpg","0","","prediction_trial","0","","true","","0","true","true","false","false","false","false","[0,1]","110","000","1","","","","","","",""
"","","","","","image-keyboard-response","221","436227","0.0-196.0","60fcd9699c3def3068403b90","665500ab8938657b03fbdba8","665792b41522714ef7571bbd","747","stimuli/01100000.jpg"," ","","feedback_trial","0","","","","","","","","","","","","","","","","","","","","",""
"","","","","","image-keyboard-response","222","438730","0.0-197.0","60fcd9699c3def3068403b90","665500ab8938657b03fbdba8","665792b41522714ef7571bbd","2484","stimuli/2101111.jpg","1","","prediction_trial","2","","false","","2","false","false","false","false","false","false","[2,0]","101","111","0","","","","","","",""
"","","","","","image-keyboard-response","223","439465","0.0-198.0","60fcd9699c3def3068403b90","665500ab8938657b03fbdba8","665792b41522714ef7571bbd","731","stimuli/21011112.jpg"," ","","feedback_trial","2","","","","","","","","","","","","","","","","","","","","",""
"","","","","","image-keyboard-response","224","440692","0.0-199.0","60fcd9699c3def3068403b90","665500ab8938657b03fbdba8","665792b41522714ef7571bbd","1222","stimuli/0011101.jpg","0","","prediction_trial","0","","true","","0","false","false","true","true","false","false","[0]","011","101","1","","","","","","",""
"","","","","","image-keyboard-response","225","441251","0.0-200.0","60fcd9699c3def3068403b90","665500ab8938657b03fbdba8","665792b41522714ef7571bbd","554","stimuli/00111010.jpg"," ","","feedback_trial","0","","","","","","","","","","","","","","","","","","","","",""
"","","","","","image-keyboard-response","226","442268","0.0-201.0","60fcd9699c3def3068403b90","665500ab8938657b03fbdba8","665792b41522714ef7571bbd","1013","stimuli/1100101.jpg","1","","prediction_trial","1","","true","","1","true","true","true","true","true","true","[1]","100","101","1","","","","","","",""
"","","","","","image-keyboard-response","227","442842","0.0-202.0","60fcd9699c3def3068403b90","665500ab8938657b03fbdba8","665792b41522714ef7571bbd","570","stimuli/11001011.jpg"," ","","feedback_trial","1","","","","","","","","","","","","","","","","","","","","",""
"","","","","","image-keyboard-response","228","444711","0.0-203.0","60fcd9699c3def3068403b90","665500ab8938657b03fbdba8","665792b41522714ef7571bbd","1863","stimuli/2010001.jpg","2","","prediction_trial","2","","true","","2","false","true","true","true","false","true","[2]","010","001","1","","","","","","",""
"","","","","","image-keyboard-response","229","445752","0.0-204.0","60fcd9699c3def3068403b90","665500ab8938657b03fbdba8","665792b41522714ef7571bbd","1038","stimuli/20100012.jpg"," ","","feedback_trial","2","","","","","","","","","","","","","","","","","","","","",""
"","","","","","image-keyboard-response","230","450512","0.0-205.0","60fcd9699c3def3068403b90","665500ab8938657b03fbdba8","665792b41522714ef7571bbd","4756","stimuli/2000011.jpg","1","","prediction_trial","2","","false","","2","false","false","true","true","false","false","[2]","000","011","0","","","","","","",""
"","","","","","image-keyboard-response","231","451255","0.0-206.0","60fcd9699c3def3068403b90","665500ab8938657b03fbdba8","665792b41522714ef7571bbd","739","stimuli/20000112.jpg"," ","","feedback_trial","2","","","","","","","","","","","","","","","","","","","","",""
"","","","","","image-keyboard-response","232","452324","0.0-207.0","60fcd9699c3def3068403b90","665500ab8938657b03fbdba8","665792b41522714ef7571bbd","1065","stimuli/0011111.jpg","0","","prediction_trial","0","","true","","0","false","false","true","true","false","false","[0]","011","111","1","","","","","","",""
"","","","","","image-keyboard-response","233","452950","0.0-208.0","60fcd9699c3def3068403b90","665500ab8938657b03fbdba8","665792b41522714ef7571bbd","618","stimuli/00111110.jpg"," ","","feedback_trial","0","","","","","","","","","","","","","","","","","","","","",""
"","","","","","image-keyboard-response","234","456561","0.0-209.0","60fcd9699c3def3068403b90","665500ab8938657b03fbdba8","665792b41522714ef7571bbd","3608","stimuli/0111000.jpg","0","","prediction_trial","1","","false","","0","true","true","false","false","false","false","[1,0,2]","111","000","0","","","","","","",""
"","","","","","image-keyboard-response","235","457368","0.0-210.0","60fcd9699c3def3068403b90","665500ab8938657b03fbdba8","665792b41522714ef7571bbd","801","stimuli/01110001.jpg"," ","","feedback_trial","1","","","","","","","","","","","","","","","","","","","","",""
"","","","","","image-keyboard-response","236","459771","0.0-211.0","60fcd9699c3def3068403b90","665500ab8938657b03fbdba8","665792b41522714ef7571bbd","2396","stimuli/1010110.jpg","1","","prediction_trial","1","","true","","1","false","false","false","true","false","false","[1]","010","110","1","","","","","","",""
"","","","","","image-keyboard-response","237","460597","0.0-212.0","60fcd9699c3def3068403b90","665500ab8938657b03fbdba8","665792b41522714ef7571bbd","820","stimuli/10101101.jpg"," ","","feedback_trial","1","","","","","","","","","","","","","","","","","","","","",""
"","","","","","image-keyboard-response","238","462610","0.0-213.0","60fcd9699c3def3068403b90","665500ab8938657b03fbdba8","665792b41522714ef7571bbd","2008","stimuli/2001111.jpg","0","","prediction_trial","2","","false","","2","false","false","false","true","false","false","[2]","001","111","0","","","","","","",""
"","","","","","image-keyboard-response","239","463496","0.0-214.0","60fcd9699c3def3068403b90","665500ab8938657b03fbdba8","665792b41522714ef7571bbd","863","stimuli/20011112.jpg"," ","","feedback_trial","2","","","","","","","","","","","","","","","","","","","","",""
"","","","","","image-keyboard-response","240","464840","0.0-215.0","60fcd9699c3def3068403b90","665500ab8938657b03fbdba8","665792b41522714ef7571bbd","1341","stimuli/1010010.jpg","1","","prediction_trial","1","","true","","1","false","true","false","true","false","true","[1]","010","010","1","","","","","","",""
"","","","","","image-keyboard-response","241","465705","0.0-216.0","60fcd9699c3def3068403b90","665500ab8938657b03fbdba8","665792b41522714ef7571bbd","859","stimuli/10100101.jpg"," ","","feedback_trial","1","","","","","","","","","","","","","","","","","","","","",""
"","","","","","image-keyboard-response","242","466932","0.0-217.0","60fcd9699c3def3068403b90","665500ab8938657b03fbdba8","665792b41522714ef7571bbd","1218","stimuli/2110100.jpg","2","","prediction_trial","2","","true","","2","true","true","true","true","true","true","[2]","110","100","1","","","","","","",""
"","","","","","image-keyboard-response","243","467875","0.0-218.0","60fcd9699c3def3068403b90","665500ab8938657b03fbdba8","665792b41522714ef7571bbd","936","stimuli/21101002.jpg"," ","","feedback_trial","2","","","","","","","","","","","","","","","","","","","","",""
"","","","","","image-keyboard-response","244","469064","0.0-219.0","60fcd9699c3def3068403b90","665500ab8938657b03fbdba8","665792b41522714ef7571bbd","1184","stimuli/1011011.jpg","1","","prediction_trial","2","","false","","1","false","false","false","false","false","false","[2,1]","011","011","0","","","","","","",""
"","","","","","image-keyboard-response","245","469777","0.0-220.0","60fcd9699c3def3068403b90","665500ab8938657b03fbdba8","665792b41522714ef7571bbd","709","stimuli/10110112.jpg"," ","","feedback_trial","2","","","","","","","","","","","","","","","","","","","","",""
"","","","","","image-keyboard-response","246","471144","0.0-221.0","60fcd9699c3def3068403b90","665500ab8938657b03fbdba8","665792b41522714ef7571bbd","1359","stimuli/0010110.jpg","0","","prediction_trial","0","","true","","0","false","false","true","true","false","false","[0]","010","110","1","","","","","","",""
"","","","","","image-keyboard-response","247","471861","0.0-222.0","60fcd9699c3def3068403b90","665500ab8938657b03fbdba8","665792b41522714ef7571bbd","712","stimuli/00101100.jpg"," ","","feedback_trial","0","","","","","","","","","","","","","","","","","","","","",""
"","","","","","image-keyboard-response","248","472893","0.0-223.0","60fcd9699c3def3068403b90","665500ab8938657b03fbdba8","665792b41522714ef7571bbd","1028","stimuli/0000110.jpg","1","","prediction_trial","0","","false","","0","false","false","true","true","false","false","[0]","000","110","0","","","","","","",""
"","","","","","image-keyboard-response","249","473539","0.0-224.0","60fcd9699c3def3068403b90","665500ab8938657b03fbdba8","665792b41522714ef7571bbd","637","stimuli/00001100.jpg"," ","","feedback_trial","0","","","","","","","","","","","","","","","","","","","","",""
"","","","","","image-keyboard-response","250","475229","0.0-225.0","60fcd9699c3def3068403b90","665500ab8938657b03fbdba8","665792b41522714ef7571bbd","1687","stimuli/2110011.jpg","2","","prediction_trial","2","","true","","2","false","false","true","true","false","false","[2]","110","011","1","","","","","","",""
"","","","","","image-keyboard-response","251","476118","0.0-226.0","60fcd9699c3def3068403b90","665500ab8938657b03fbdba8","665792b41522714ef7571bbd","885","stimuli/21100112.jpg"," ","","feedback_trial","2","","","","","","","","","","","","","","","","","","","","",""
"","","","","","image-keyboard-response","252","477959","0.0-227.0","60fcd9699c3def3068403b90","665500ab8938657b03fbdba8","665792b41522714ef7571bbd","1837","stimuli/2101100.jpg","2","","prediction_trial","2","","true","","2","true","true","false","false","false","false","[2,0]","101","100","1","","","","","","",""
"","","","","","image-keyboard-response","253","478842","0.0-228.0","60fcd9699c3def3068403b90","665500ab8938657b03fbdba8","665792b41522714ef7571bbd","878","stimuli/21011002.jpg"," ","","feedback_trial","2","","","","","","","","","","","","","","","","","","","","",""
"","","","","","image-keyboard-response","254","479804","0.0-229.0","60fcd9699c3def3068403b90","665500ab8938657b03fbdba8","665792b41522714ef7571bbd","955","stimuli/1111001.jpg","1","","prediction_trial","2","","false","","1","true","true","false","false","false","false","[2,1,0]","111","001","0","","","","","","",""
"","","","","","image-keyboard-response","255","480430","0.0-230.0","60fcd9699c3def3068403b90","665500ab8938657b03fbdba8","665792b41522714ef7571bbd","621","stimuli/11110012.jpg"," ","","feedback_trial","2","","","","","","","","","","","","","","","","","","","","",""
"","","","","","image-keyboard-response","256","482123","0.0-231.0","60fcd9699c3def3068403b90","665500ab8938657b03fbdba8","665792b41522714ef7571bbd","1688","stimuli/0011100.jpg","0","","prediction_trial","0","","true","","0","false","true","true","true","false","true","[0]","011","100","1","","","","","","",""
"","","","","","image-keyboard-response","257","482784","0.0-232.0","60fcd9699c3def3068403b90","665500ab8938657b03fbdba8","665792b41522714ef7571bbd","656","stimuli/00111000.jpg"," ","","feedback_trial","0","","","","","","","","","","","","","","","","","","","","",""
"","","","","","image-keyboard-response","258","483737","0.0-233.0","60fcd9699c3def3068403b90","665500ab8938657b03fbdba8","665792b41522714ef7571bbd","948","stimuli/1000000.jpg","1","","prediction_trial","1","","true","","1","true","true","true","true","true","true","[1]","000","000","1","","","","","","",""
"","","","","","image-keyboard-response","259","484368","0.0-234.0","60fcd9699c3def3068403b90","665500ab8938657b03fbdba8","665792b41522714ef7571bbd","625","stimuli/10000001.jpg"," ","","feedback_trial","1","","","","","","","","","","","","","","","","","","","","",""
"","","","","","image-keyboard-response","260","485408","0.0-235.0","60fcd9699c3def3068403b90","665500ab8938657b03fbdba8","665792b41522714ef7571bbd","1036","stimuli/0010001.jpg","0","","prediction_trial","0","","true","","0","true","true","true","true","true","true","[0]","010","001","1","","","","","","",""
"","","","","","image-keyboard-response","261","486024","0.0-236.0","60fcd9699c3def3068403b90","665500ab8938657b03fbdba8","665792b41522714ef7571bbd","612","stimuli/00100010.jpg"," ","","feedback_trial","0","","","","","","","","","","","","","","","","","","","","",""
"","","","","","image-keyboard-response","262","487118","0.0-237.0","60fcd9699c3def3068403b90","665500ab8938657b03fbdba8","665792b41522714ef7571bbd","1087","stimuli/2101000.jpg","2","","prediction_trial","0","","false","","2","true","true","false","false","false","false","[0,2]","101","000","0","","","","","","",""
"","","","","","image-keyboard-response","263","487743","0.0-238.0","60fcd9699c3def3068403b90","665500ab8938657b03fbdba8","665792b41522714ef7571bbd","614","stimuli/21010000.jpg"," ","","feedback_trial","0","","","","","","","","","","","","","","","","","","","","",""
"","","","","","image-keyboard-response","264","488618","0.0-239.0","60fcd9699c3def3068403b90","665500ab8938657b03fbdba8","665792b41522714ef7571bbd","871","stimuli/0000010.jpg","0","","prediction_trial","0","","true","","0","true","true","true","true","true","true","[0]","000","010","1","","","","","","",""
"","","","","","image-keyboard-response","265","489287","0.0-240.0","60fcd9699c3def3068403b90","665500ab8938657b03fbdba8","665792b41522714ef7571bbd","665","stimuli/00000100.jpg"," ","","feedback_trial","0","","","","","","","","","","","","","","","","","","","","",""
"","","","","","image-keyboard-response","266","490455","0.0-241.0","60fcd9699c3def3068403b90","665500ab8938657b03fbdba8","665792b41522714ef7571bbd","1164","stimuli/2110111.jpg","2","","prediction_trial","2","","true","","2","false","false","true","true","false","false","[2]","110","111","1","","","","","","",""
"","","","","","image-keyboard-response","267","491267","0.0-242.0","60fcd9699c3def3068403b90","665500ab8938657b03fbdba8","665792b41522714ef7571bbd","809","stimuli/21101112.jpg"," ","","feedback_trial","2","","","","","","","","","","","","","","","","","","","","",""
"","","","","","image-keyboard-response","268","492365","0.0-243.0","60fcd9699c3def3068403b90","665500ab8938657b03fbdba8","665792b41522714ef7571bbd","1093","stimuli/2000010.jpg","2","","prediction_trial","2","","true","","2","true","true","true","true","true","true","[2]","000","010","1","","","","","","",""
"","","","","","image-keyboard-response","269","493236","0.0-244.0","60fcd9699c3def3068403b90","665500ab8938657b03fbdba8","665792b41522714ef7571bbd","865","stimuli/20000102.jpg"," ","","feedback_trial","2","","","","","","","","","","","","","","","","","","","","",""
"","","","","","image-keyboard-response","270","494545","0.0-245.0","60fcd9699c3def3068403b90","665500ab8938657b03fbdba8","665792b41522714ef7571bbd","1297","stimuli/2011000.jpg","2","","prediction_trial","1","","false","","2","true","true","false","false","false","false","[1,2]","011","000","0","","","","","","",""
"","","","","","image-keyboard-response","271","495327","0.0-246.0","60fcd9699c3def3068403b90","665500ab8938657b03fbdba8","665792b41522714ef7571bbd","776","stimuli/20110001.jpg"," ","","feedback_trial","1","","","","","","","","","","","","","","","","","","","","",""
"","","","","","image-keyboard-response","272","496392","0.0-247.0","60fcd9699c3def3068403b90","665500ab8938657b03fbdba8","665792b41522714ef7571bbd","1057","stimuli/1111010.jpg","1","","prediction_trial","0","","false","","1","false","true","false","false","false","false","[1,2,0]","111","010","0","","","","","","",""
"","","","","","image-keyboard-response","273","497044","0.0-248.0","60fcd9699c3def3068403b90","665500ab8938657b03fbdba8","665792b41522714ef7571bbd","648","stimuli/11110100.jpg"," ","","feedback_trial","1","","","","","","","","","","","","","","","","","","","","",""
"","","","","","image-keyboard-response","274","499166","0.0-249.0","60fcd9699c3def3068403b90","665500ab8938657b03fbdba8","665792b41522714ef7571bbd","2117","stimuli/2101001.jpg","2","","prediction_trial","2","","true","","2","false","true","false","false","false","false","[2,0]","101","001","1","","","","","","",""
"","","","","","image-keyboard-response","275","500025","0.0-250.0","60fcd9699c3def3068403b90","665500ab8938657b03fbdba8","665792b41522714ef7571bbd","844","stimuli/21010012.jpg"," ","","feedback_trial","2","","","","","","","","","","","","","","","","","","","","",""
"","","","","","image-keyboard-response","276","501000","0.0-251.0","60fcd9699c3def3068403b90","665500ab8938657b03fbdba8","665792b41522714ef7571bbd","970","stimuli/1011101.jpg","1","","prediction_trial","2","","false","","1","true","true","false","false","false","false","[1,2]","011","101","0","","","","","","",""
"","","","","","image-keyboard-response","277","502011","0.0-252.0","60fcd9699c3def3068403b90","665500ab8938657b03fbdba8","665792b41522714ef7571bbd","1006","stimuli/10111012.jpg"," ","","feedback_trial","1","","","","","","","","","","","","","","","","","","","","",""
"","","","","","image-keyboard-response","278","503331","0.0-253.0","60fcd9699c3def3068403b90","665500ab8938657b03fbdba8","665792b41522714ef7571bbd","1316","stimuli/1101001.jpg","1","","prediction_trial","1","","true","","1","true","true","true","true","true","true","[1]","101","001","1","","","","","","",""
"","","","","","image-keyboard-response","279","504063","0.0-254.0","60fcd9699c3def3068403b90","665500ab8938657b03fbdba8","665792b41522714ef7571bbd","728","stimuli/11010011.jpg"," ","","feedback_trial","1","","","","","","","","","","","","","","","","","","","","",""
"","","","","","image-keyboard-response","280","505410","0.0-255.0","60fcd9699c3def3068403b90","665500ab8938657b03fbdba8","665792b41522714ef7571bbd","1342","stimuli/2001010.jpg","2","","prediction_trial","2","","true","","2","true","true","false","true","false","true","[2]","001","010","1","","","","","","",""
"","","","","","image-keyboard-response","281","506359","0.0-256.0","60fcd9699c3def3068403b90","665500ab8938657b03fbdba8","665792b41522714ef7571bbd","944","stimuli/20010102.jpg"," ","","feedback_trial","2","","","","","","","","","","","","","","","","","","","","",""
"","","","","","image-keyboard-response","282","507472","0.0-257.0","60fcd9699c3def3068403b90","665500ab8938657b03fbdba8","665792b41522714ef7571bbd","1109","stimuli/0001101.jpg","0","","prediction_trial","0","","true","","0","false","false","true","true","false","false","[0]","001","101","1","","","","","","",""
"","","","","","image-keyboard-response","283","508317","0.0-258.0","60fcd9699c3def3068403b90","665500ab8938657b03fbdba8","665792b41522714ef7571bbd","841","stimuli/00011010.jpg"," ","","feedback_trial","0","","","","","","","","","","","","","","","","","","","","",""
"","","","","","image-keyboard-response","284","509414","0.0-259.0","60fcd9699c3def3068403b90","665500ab8938657b03fbdba8","665792b41522714ef7571bbd","1093","stimuli/2100100.jpg","2","","prediction_trial","2","","true","","2","true","true","true","true","true","true","[2]","100","100","1","","","","","","",""
"","","","","","image-keyboard-response","285","510475","0.0-260.0","60fcd9699c3def3068403b90","665500ab8938657b03fbdba8","665792b41522714ef7571bbd","1057","stimuli/21001002.jpg"," ","","feedback_trial","2","","","","","","","","","","","","","","","","","","","","",""
"","","","","","image-keyboard-response","286","511346","0.0-261.0","60fcd9699c3def3068403b90","665500ab8938657b03fbdba8","665792b41522714ef7571bbd","867","stimuli/0000000.jpg","0","","prediction_trial","0","","true","","0","true","true","true","true","true","true","[0]","000","000","1","","","","","","",""
"","","","","","image-keyboard-response","287","512050","0.0-262.0","60fcd9699c3def3068403b90","665500ab8938657b03fbdba8","665792b41522714ef7571bbd","699","stimuli/00000000.jpg"," ","","feedback_trial","0","","","","","","","","","","","","","","","","","","","","",""
"","","","","","image-keyboard-response","288","513066","0.0-263.0","60fcd9699c3def3068403b90","665500ab8938657b03fbdba8","665792b41522714ef7571bbd","1010","stimuli/0010111.jpg","2","","prediction_trial","0","","false","","0","false","false","true","true","false","false","[0]","010","111","0","","","","","","",""
"","","","","","image-keyboard-response","289","513965","0.0-264.0","60fcd9699c3def3068403b90","665500ab8938657b03fbdba8","665792b41522714ef7571bbd","886","stimuli/00101110.jpg"," ","","feedback_trial","0","","","","","","","","","","","","","","","","","","","","",""
"","","","","","image-keyboard-response","290","515109","0.0-265.0","60fcd9699c3def3068403b90","665500ab8938657b03fbdba8","665792b41522714ef7571bbd","1139","stimuli/0001100.jpg","0","","prediction_trial","0","","true","","0","false","true","true","true","false","true","[0]","001","100","1","","","","","","",""
"","","","","","image-keyboard-response","291","515852","0.0-266.0","60fcd9699c3def3068403b90","665500ab8938657b03fbdba8","665792b41522714ef7571bbd","738","stimuli/00011000.jpg"," ","","feedback_trial","0","","","","","","","","","","","","","","","","","","","","",""
"","","","","","image-keyboard-response","292","517254","0.0-267.0","60fcd9699c3def3068403b90","665500ab8938657b03fbdba8","665792b41522714ef7571bbd","1387","stimuli/0100100.jpg","0","","prediction_trial","0","","true","","0","false","true","false","true","false","true","[0]","100","100","1","","","","","","",""
"","","","","","image-keyboard-response","293","517878","0.0-268.0","60fcd9699c3def3068403b90","665500ab8938657b03fbdba8","665792b41522714ef7571bbd","617","stimuli/01001000.jpg"," ","","feedback_trial","0","","","","","","","","","","","","","","","","","","","","",""
"","","","","","image-keyboard-response","294","519036","0.0-269.0","60fcd9699c3def3068403b90","665500ab8938657b03fbdba8","665792b41522714ef7571bbd","1153","stimuli/0100011.jpg","0","","prediction_trial","0","","true","","0","true","true","false","true","false","true","[0]","100","011","1","","","","","","",""
"","","","","","image-keyboard-response","295","519705","0.0-270.0","60fcd9699c3def3068403b90","665500ab8938657b03fbdba8","665792b41522714ef7571bbd","658","stimuli/01000110.jpg"," ","","feedback_trial","0","","","","","","","","","","","","","","","","","","","","",""
"","","","","","image-keyboard-response","296","520982","0.0-271.0","60fcd9699c3def3068403b90","665500ab8938657b03fbdba8","665792b41522714ef7571bbd","1273","stimuli/0010011.jpg","0","","prediction_trial","0","","true","","0","true","true","true","true","true","true","[0]","010","011","1","","","","","","",""
"","","","","","image-keyboard-response","297","521701","0.0-272.0","60fcd9699c3def3068403b90","665500ab8938657b03fbdba8","665792b41522714ef7571bbd","714","stimuli/00100110.jpg"," ","","feedback_trial","0","","","","","","","","","","","","","","","","","","","","",""
"","","","","","image-keyboard-response","298","522728","0.0-273.0","60fcd9699c3def3068403b90","665500ab8938657b03fbdba8","665792b41522714ef7571bbd","1014","stimuli/0010101.jpg","2","","prediction_trial","0","","false","","0","false","false","true","true","false","false","[0]","010","101","0","","","","","","",""
"","","","","","image-keyboard-response","299","523731","0.0-274.0","60fcd9699c3def3068403b90","665500ab8938657b03fbdba8","665792b41522714ef7571bbd","995","stimuli/00101010.jpg"," ","","feedback_trial","0","","","","","","","","","","","","","","","","","","","","",""
"","","","","","image-keyboard-response","300","524835","0.0-275.0","60fcd9699c3def3068403b90","665500ab8938657b03fbdba8","665792b41522714ef7571bbd","1099","stimuli/0010010.jpg","0","","prediction_trial","0","","true","","0","true","true","true","true","true","true","[0]","010","010","1","","","","","","",""
"","","","","","image-keyboard-response","301","525575","0.0-276.0","60fcd9699c3def3068403b90","665500ab8938657b03fbdba8","665792b41522714ef7571bbd","735","stimuli/00100100.jpg"," ","","feedback_trial","0","","","","","","","","","","","","","","","","","","","","",""
"","","","","","image-keyboard-response","302","526872","0.0-277.0","60fcd9699c3def3068403b90","665500ab8938657b03fbdba8","665792b41522714ef7571bbd","1290","stimuli/2110000.jpg","2","","prediction_trial","2","","true","","2","true","true","true","true","true","true","[2]","110","000","1","","","","","","",""
"","","","","","image-keyboard-response","303","527578","0.0-278.0","60fcd9699c3def3068403b90","665500ab8938657b03fbdba8","665792b41522714ef7571bbd","702","stimuli/21100002.jpg"," ","","feedback_trial","2","","","","","","","","","","","","","","","","","","","","",""
"","","","","","image-keyboard-response","304","528778","0.0-279.0","60fcd9699c3def3068403b90","665500ab8938657b03fbdba8","665792b41522714ef7571bbd","1195","stimuli/2011011.jpg","2","","prediction_trial","2","","true","","2","false","false","false","false","false","false","[1,2]","011","011","1","","","","","","",""
"","","","","","image-keyboard-response","305","529596","0.0-280.0","60fcd9699c3def3068403b90","665500ab8938657b03fbdba8","665792b41522714ef7571bbd","812","stimuli/20110112.jpg"," ","","feedback_trial","1","","","","","","","","","","","","","","","","","","","","",""
"","","","","","image-keyboard-response","306","534338","0.0-281.0","60fcd9699c3def3068403b90","665500ab8938657b03fbdba8","665792b41522714ef7571bbd","4737","stimuli/2010111.jpg","1","","prediction_trial","2","","false","","2","false","false","true","true","false","false","[2]","010","111","0","","","","","","",""
"","","","","","image-keyboard-response","307","535070","0.0-282.0","60fcd9699c3def3068403b90","665500ab8938657b03fbdba8","665792b41522714ef7571bbd","717","stimuli/20101112.jpg"," ","","feedback_trial","2","","","","","","","","","","","","","","","","","","","","",""
"","","","","","image-keyboard-response","308","536045","0.0-283.0","60fcd9699c3def3068403b90","665500ab8938657b03fbdba8","665792b41522714ef7571bbd","970","stimuli/1001110.jpg","0","","prediction_trial","1","","false","","1","false","false","true","true","false","false","[1]","001","110","0","","","","","","",""
"","","","","","image-keyboard-response","309","536719","0.0-284.0","60fcd9699c3def3068403b90","665500ab8938657b03fbdba8","665792b41522714ef7571bbd","669","stimuli/10011101.jpg"," ","","feedback_trial","1","","","","","","","","","","","","","","","","","","","","",""
"","","","","","image-keyboard-response","310","537653","0.0-285.0","60fcd9699c3def3068403b90","665500ab8938657b03fbdba8","665792b41522714ef7571bbd","925","stimuli/1110111.jpg","2","","prediction_trial","0","","false","","1","false","false","false","false","false","false","[0,1]","110","111","0","","","","","","",""
"","","","","","image-keyboard-response","311","539201","0.0-286.0","60fcd9699c3def3068403b90","665500ab8938657b03fbdba8","665792b41522714ef7571bbd","1546","stimuli/11101110.jpg"," ","","feedback_trial","0","","","","","","","","","","","","","","","","","","","","",""
"","","","","","image-keyboard-response","312","541285","0.0-287.0","60fcd9699c3def3068403b90","665500ab8938657b03fbdba8","665792b41522714ef7571bbd","2080","stimuli/2001101.jpg","0","","prediction_trial","2","","false","","2","false","false","false","true","false","false","[2]","001","101","0","","","","","","",""
"","","","","","image-keyboard-response","313","541861","0.0-288.0","60fcd9699c3def3068403b90","665500ab8938657b03fbdba8","665792b41522714ef7571bbd","569","stimuli/20011012.jpg"," ","","feedback_trial","2","","","","","","","","","","","","","","","","","","","","",""
"","","","","","image-keyboard-response","314","543115","0.0-289.0","60fcd9699c3def3068403b90","665500ab8938657b03fbdba8","665792b41522714ef7571bbd","1250","stimuli/1101101.jpg","1","","prediction_trial","1","","true","","1","true","true","true","true","true","true","[1]","101","101","1","","","","","","",""
"","","","","","image-keyboard-response","315","543549","0.0-290.0","60fcd9699c3def3068403b90","665500ab8938657b03fbdba8","665792b41522714ef7571bbd","429","stimuli/11011011.jpg"," ","","feedback_trial","1","","","","","","","","","","","","","","","","","","","","",""
"","","","","","image-keyboard-response","316","544356","0.0-291.0","60fcd9699c3def3068403b90","665500ab8938657b03fbdba8","665792b41522714ef7571bbd","796","stimuli/1111111.jpg","2","","prediction_trial","1","","false","","1","false","false","false","false","false","false","[0,2,1]","111","111","0","","","","","","",""
"","","","","","image-keyboard-response","317","544841","0.0-292.0","60fcd9699c3def3068403b90","665500ab8938657b03fbdba8","665792b41522714ef7571bbd","479","stimuli/11111111.jpg"," ","","feedback_trial","0","","","","","","","","","","","","","","","","","","","","",""
"","","","","","survey-html-form","318","641610","0.0-293.0","60fcd9699c3def3068403b90","665500ab8938657b03fbdba8","665792b41522714ef7571bbd","96734","","{""feedback"":""I chose my boxes based upon whether or not any of the three choices had the ball distinctly visible for either of us.\n\nI do not have any questions nor any comments about the experiment."",""age"":""36"",""gender"":""Male"",""other_gender"":"""",""race"":""White"",""other_race"":"""",""ethnicity"":""Non-Hispanic""}","","exit_survey","","","","","","","","","","","","","","","","I chose my boxes based upon whether or not any of the three choices had the ball distinctly visible for either of us.

I do not have any questions nor any comments about the experiment.","36","Non-Hispanic","Male","White","0.6388888888888888","0.6388888888888888"
