"success","timeout","failed_images","failed_audio","failed_video","trial_type","trial_index","time_elapsed","internal_node_id","prolific_id","prolific_study_id","prolific_session_id","rt","stimulus","response","view_history","trial","character_choice","stimulus_dict","accuracy","correct_response","ball_pos","ego_ball_visible","ego_can_infer","alter_ball_visible","alter_can_infer","collective_ball_visible","collective_can_infer","search_locations","alter_occluders","ego_occluders","accuracy_bool","feedback","age","ethnicity","gender","race","overall_accuracy","bonus"
"true","false","[]","[]","[]","preload","0","15929","0.0-0.0","594d4f0aa186be000114ce1d","665500ab8938657b03fbdba8","6657791423c656a2f6ae177e","","","","","","","","","","","","","","","","","","","","","","","","","","",""
"true","","","","","fullscreen","1","151576","0.0-1.0","594d4f0aa186be000114ce1d","665500ab8938657b03fbdba8","6657791423c656a2f6ae177e","","","","","","","","","","","","","","","","","","","","","","","","","","",""
"","","","","","html-button-response","2","159272","0.0-2.0","594d4f0aa186be000114ce1d","665500ab8938657b03fbdba8","6657791423c656a2f6ae177e","7672","<p><b>Consent Form</b></p> <div style=""text-align:left;background-color:lightgrey; padding:20px; max-width:900px;""><p>Please consider this information carefully before deciding whether to participate in this research.</p> <p>The purpose of this research is to examine which factors influence social judgment and decision-making. You will be asked to make judgements about individuals and actions in social scenarios. We are simply interested in your judgement. The study will take less than 1 hour to complete, and you will receive less than $20 on Prolific. Your compensation and time commitment are specified in the study description. There are no anticipated risks associated with participating in this study. The effects of participating should be comparable to those you would ordinarily experience from viewing a computer monitor and using a mouse or keyboard for a similar amount of time. At the end of the study, we will provide an explanation of the questions that motivate this line of research and will describe the potential implications. </p><p> Your participation in this study is completely voluntary and you may refuse to participate or you may choose to withdraw at any time without penalty or loss of benefits to you which are otherwise entitled. Your participation in this study will remain confidential. No personally identifiable information will be associated with your data. Also, all analyses of the data will be averaged across all the participants, so your individual responses will never be specifically analyzed. </p><p> If you have questions or concerns about your participation or payment, or want to request a summary of research findings, please contact Dr. Jonathan Phillips at Jonathan.S.Phillips@dartmouth.edu. </p><p> Please save a copy of this form for your records. </p><p><b>Agreement: </b>The nature and purpose of this research have been sufficiently explained and I agree to participate in this study. I understand that I am free to withdraw at any time without incurring any penalty. Please consent by clicking the button below to continue. Otherwise, please exit the study at any time. </p>","0","","","","","","","","","","","","","","","","","","","","","","","",""
"","","","","","instructions","3","225480","0.0-3.0-0.0","594d4f0aa186be000114ce1d","665500ab8938657b03fbdba8","6657791423c656a2f6ae177e","66199","","","[{""page_index"":0,""viewing_time"":2015},{""page_index"":1,""viewing_time"":2598},{""page_index"":2,""viewing_time"":2055},{""page_index"":3,""viewing_time"":5216},{""page_index"":4,""viewing_time"":3178},{""page_index"":5,""viewing_time"":3739},{""page_index"":6,""viewing_time"":3222},{""page_index"":7,""viewing_time"":3249},{""page_index"":8,""viewing_time"":3020},{""page_index"":9,""viewing_time"":7991},{""page_index"":10,""viewing_time"":13770},{""page_index"":11,""viewing_time"":9018},{""page_index"":12,""viewing_time"":5596},{""page_index"":13,""viewing_time"":1531}]","intro","","","","","","","","","","","","","","","","","","","","","",""
"","","","","","image-keyboard-response","4","230092","0.0-3.0-1.0","594d4f0aa186be000114ce1d","665500ab8938657b03fbdba8","6657791423c656a2f6ae177e","4494","stimuli/0101011.jpg","0","","prediction_practice","0","{""filepath"":""stimuli/0101011.jpg"",""ball_pos"":0,""ego_ball_visible"":true,""ego_can_infer"":true,""alter_ball_visible"":false,""alter_can_infer"":false,""collective_ball_visible"":false,""collective_can_infer"":false,""search_locations"":[2,0],""alter_occluders"":""101"",""ego_occluders"":""011""}","true","","","","","","","","","","","","","","","","","","",""
"","","","","","image-keyboard-response","5","231712","0.0-3.0-2.0","594d4f0aa186be000114ce1d","665500ab8938657b03fbdba8","6657791423c656a2f6ae177e","1586","stimuli/01010110.jpg"," ","","practrice_feedback","2","","","","","","","","","","","","","","","","","","","","",""
"","","","","","image-keyboard-response","6","233979","0.0-3.0-3.0","594d4f0aa186be000114ce1d","665500ab8938657b03fbdba8","6657791423c656a2f6ae177e","2214","stimuli/2010100.jpg","2","","prediction_practice","2","{""filepath"":""stimuli/2010100.jpg"",""ball_pos"":2,""ego_ball_visible"":true,""ego_can_infer"":true,""alter_ball_visible"":true,""alter_can_infer"":true,""collective_ball_visible"":true,""collective_can_infer"":true,""search_locations"":[2],""alter_occluders"":""010"",""ego_occluders"":""100""}","true","","","","","","","","","","","","","","","","","","",""
"","","","","","image-keyboard-response","7","234737","0.0-3.0-4.0","594d4f0aa186be000114ce1d","665500ab8938657b03fbdba8","6657791423c656a2f6ae177e","736","stimuli/20101002.jpg"," ","","practrice_feedback","2","","","","","","","","","","","","","","","","","","","","",""
"","","","","","image-keyboard-response","8","236889","0.0-3.0-5.0","594d4f0aa186be000114ce1d","665500ab8938657b03fbdba8","6657791423c656a2f6ae177e","2097","stimuli/0110001.jpg","0","","prediction_practice","1","{""filepath"":""stimuli/0110001.jpg"",""ball_pos"":0,""ego_ball_visible"":true,""ego_can_infer"":true,""alter_ball_visible"":false,""alter_can_infer"":false,""collective_ball_visible"":false,""collective_can_infer"":false,""search_locations"":[0,1],""alter_occluders"":""110"",""ego_occluders"":""001""}","false","","","","","","","","","","","","","","","","","","",""
"","","","","","image-keyboard-response","9","241784","0.0-3.0-6.0","594d4f0aa186be000114ce1d","665500ab8938657b03fbdba8","6657791423c656a2f6ae177e","4836","stimuli/01100011.jpg"," ","","practrice_feedback","0","","","","","","","","","","","","","","","","","","","","",""
"","","","","","image-keyboard-response","10","245766","0.0-3.0-7.0","594d4f0aa186be000114ce1d","665500ab8938657b03fbdba8","6657791423c656a2f6ae177e","3928","stimuli/1010011.jpg","1","","prediction_practice","1","{""filepath"":""stimuli/1010011.jpg"",""ball_pos"":1,""ego_ball_visible"":false,""ego_can_infer"":false,""alter_ball_visible"":false,""alter_can_infer"":true,""collective_ball_visible"":false,""collective_can_infer"":false,""search_locations"":[1],""alter_occluders"":""010"",""ego_occluders"":""011""}","true","","","","","","","","","","","","","","","","","","",""
"","","","","","image-keyboard-response","11","248847","0.0-3.0-8.0","594d4f0aa186be000114ce1d","665500ab8938657b03fbdba8","6657791423c656a2f6ae177e","3028","stimuli/10100111.jpg"," ","","practrice_feedback","1","","","","","","","","","","","","","","","","","","","","",""
"","","","","","image-keyboard-response","12","250382","0.0-3.0-9.0","594d4f0aa186be000114ce1d","665500ab8938657b03fbdba8","6657791423c656a2f6ae177e","1485","stimuli/2100100.jpg","2","","prediction_practice","2","{""filepath"":""stimuli/2100100.jpg"",""ball_pos"":2,""ego_ball_visible"":true,""ego_can_infer"":true,""alter_ball_visible"":true,""alter_can_infer"":true,""collective_ball_visible"":true,""collective_can_infer"":true,""search_locations"":[2],""alter_occluders"":""100"",""ego_occluders"":""100""}","true","","","","","","","","","","","","","","","","","","",""
"","","","","","image-keyboard-response","13","251863","0.0-3.0-10.0","594d4f0aa186be000114ce1d","665500ab8938657b03fbdba8","6657791423c656a2f6ae177e","1429","stimuli/21001002.jpg"," ","","practrice_feedback","2","","","","","","","","","","","","","","","","","","","","",""
"","","","","","image-keyboard-response","14","253870","0.0-3.0-11.0","594d4f0aa186be000114ce1d","665500ab8938657b03fbdba8","6657791423c656a2f6ae177e","1955","stimuli/1010010.jpg","1","","prediction_practice","1","{""filepath"":""stimuli/1010010.jpg"",""ball_pos"":1,""ego_ball_visible"":false,""ego_can_infer"":true,""alter_ball_visible"":false,""alter_can_infer"":true,""collective_ball_visible"":false,""collective_can_infer"":true,""search_locations"":[1],""alter_occluders"":""010"",""ego_occluders"":""010""}","true","","","","","","","","","","","","","","","","","","",""
"","","","","","image-keyboard-response","15","254545","0.0-3.0-12.0","594d4f0aa186be000114ce1d","665500ab8938657b03fbdba8","6657791423c656a2f6ae177e","639","stimuli/10100101.jpg"," ","","practrice_feedback","1","","","","","","","","","","","","","","","","","","","","",""
"","","","","","image-keyboard-response","16","257618","0.0-3.0-13.0","594d4f0aa186be000114ce1d","665500ab8938657b03fbdba8","6657791423c656a2f6ae177e","3042","stimuli/0000110.jpg","1","","prediction_practice","0","{""filepath"":""stimuli/0000110.jpg"",""ball_pos"":0,""ego_ball_visible"":false,""ego_can_infer"":false,""alter_ball_visible"":true,""alter_can_infer"":true,""collective_ball_visible"":false,""collective_can_infer"":false,""search_locations"":[0],""alter_occluders"":""000"",""ego_occluders"":""110""}","false","","","","","","","","","","","","","","","","","","",""
"","","","","","image-keyboard-response","17","258451","0.0-3.0-14.0","594d4f0aa186be000114ce1d","665500ab8938657b03fbdba8","6657791423c656a2f6ae177e","821","stimuli/00001100.jpg"," ","","practrice_feedback","0","","","","","","","","","","","","","","","","","","","","",""
"","","","","","image-keyboard-response","18","260420","0.0-3.0-15.0","594d4f0aa186be000114ce1d","665500ab8938657b03fbdba8","6657791423c656a2f6ae177e","1955","stimuli/1001111.jpg","0","","prediction_practice","1","{""filepath"":""stimuli/1001111.jpg"",""ball_pos"":1,""ego_ball_visible"":false,""ego_can_infer"":false,""alter_ball_visible"":true,""alter_can_infer"":true,""collective_ball_visible"":false,""collective_can_infer"":false,""search_locations"":[1],""alter_occluders"":""001"",""ego_occluders"":""111""}","false","","","","","","","","","","","","","","","","","","",""
"","","","","","image-keyboard-response","19","261010","0.0-3.0-16.0","594d4f0aa186be000114ce1d","665500ab8938657b03fbdba8","6657791423c656a2f6ae177e","573","stimuli/10011111.jpg"," ","","practrice_feedback","1","","","","","","","","","","","","","","","","","","","","",""
"","","","","","image-keyboard-response","20","262380","0.0-3.0-17.0","594d4f0aa186be000114ce1d","665500ab8938657b03fbdba8","6657791423c656a2f6ae177e","1318","stimuli/2010110.jpg","2","","prediction_practice","2","{""filepath"":""stimuli/2010110.jpg"",""ball_pos"":2,""ego_ball_visible"":true,""ego_can_infer"":true,""alter_ball_visible"":true,""alter_can_infer"":true,""collective_ball_visible"":true,""collective_can_infer"":true,""search_locations"":[2],""alter_occluders"":""010"",""ego_occluders"":""110""}","true","","","","","","","","","","","","","","","","","","",""
"","","","","","image-keyboard-response","21","262846","0.0-3.0-18.0","594d4f0aa186be000114ce1d","665500ab8938657b03fbdba8","6657791423c656a2f6ae177e","446","stimuli/20101102.jpg"," ","","practrice_feedback","2","","","","","","","","","","","","","","","","","","","","",""
"","","","","","image-keyboard-response","22","264796","0.0-3.0-19.0","594d4f0aa186be000114ce1d","665500ab8938657b03fbdba8","6657791423c656a2f6ae177e","1926","stimuli/1100110.jpg","1","","prediction_practice","1","{""filepath"":""stimuli/1100110.jpg"",""ball_pos"":1,""ego_ball_visible"":false,""ego_can_infer"":false,""alter_ball_visible"":true,""alter_can_infer"":true,""collective_ball_visible"":false,""collective_can_infer"":false,""search_locations"":[1],""alter_occluders"":""100"",""ego_occluders"":""110""}","true","","","","","","","","","","","","","","","","","","",""
"","","","","","image-keyboard-response","23","266211","0.0-3.0-20.0","594d4f0aa186be000114ce1d","665500ab8938657b03fbdba8","6657791423c656a2f6ae177e","1403","stimuli/11001101.jpg"," ","","practrice_feedback","1","","","","","","","","","","","","","","","","","","","","",""
"","","","","","html-button-response","24","270931","0.0-3.0-21.0","594d4f0aa186be000114ce1d","665500ab8938657b03fbdba8","6657791423c656a2f6ae177e","4717","Now that you've had some practice, you'll be tested with a couple of easy trials. If you correctly predict Sam's choice, you'll move on to complete the experiment!","0","","","","","","","","","","","","","","","","","","","","","","","",""
"","","","","","image-keyboard-response","25","273375","0.0-3.0-22.0-0.0","594d4f0aa186be000114ce1d","665500ab8938657b03fbdba8","6657791423c656a2f6ae177e","2379","stimuli/0000011.jpg","arrowleft","","comprehension_quiz","","","true","arrowleft","","","","","","","","","","","","","","","","","",""
"","","","","","image-keyboard-response","26","274303","0.0-3.0-22.0-1.0","594d4f0aa186be000114ce1d","665500ab8938657b03fbdba8","6657791423c656a2f6ae177e","878","stimuli/00000110.jpg"," ","","comprehension_quiz","","","true"," ","","","","","","","","","","","","","","","","","",""
"","","","","","image-keyboard-response","27","275801","0.0-3.0-22.0-2.0","594d4f0aa186be000114ce1d","665500ab8938657b03fbdba8","6657791423c656a2f6ae177e","1493","stimuli/1010010.jpg","arrowdown","","comprehension_quiz","","","true","arrowdown","","","","","","","","","","","","","","","","","",""
"","","","","","image-keyboard-response","28","277254","0.0-3.0-22.0-3.0","594d4f0aa186be000114ce1d","665500ab8938657b03fbdba8","6657791423c656a2f6ae177e","1447","stimuli/10100101.jpg"," ","","comprehension_quiz","","","true"," ","","","","","","","","","","","","","","","","","",""
"","","","","","html-button-response","29","279737","0.0-4.0","594d4f0aa186be000114ce1d","665500ab8938657b03fbdba8","6657791423c656a2f6ae177e","2479","The experiment will now begin.","0","","","","","","","","","","","","","","","","","","","","","","","",""
"","","","","","image-keyboard-response","30","283014","0.0-5.0","594d4f0aa186be000114ce1d","665500ab8938657b03fbdba8","6657791423c656a2f6ae177e","3214","stimuli/0101111.jpg","1","","prediction_trial","0","","false","","0","false","false","false","false","false","false","[0,2]","101","111","0","","","","","","",""
"","","","","","image-keyboard-response","31","285174","0.0-6.0","594d4f0aa186be000114ce1d","665500ab8938657b03fbdba8","6657791423c656a2f6ae177e","2147","stimuli/01011110.jpg"," ","","feedback_trial","0","","","","","","","","","","","","","","","","","","","","",""
"","","","","","image-keyboard-response","32","286624","0.0-7.0","594d4f0aa186be000114ce1d","665500ab8938657b03fbdba8","6657791423c656a2f6ae177e","1396","stimuli/2011110.jpg","2","","prediction_trial","2","","true","","2","true","true","false","false","false","false","[2,1]","011","110","1","","","","","","",""
"","","","","","image-keyboard-response","33","287673","0.0-8.0","594d4f0aa186be000114ce1d","665500ab8938657b03fbdba8","6657791423c656a2f6ae177e","998","stimuli/20111102.jpg"," ","","feedback_trial","2","","","","","","","","","","","","","","","","","","","","",""
"","","","","","image-keyboard-response","34","289241","0.0-9.0","594d4f0aa186be000114ce1d","665500ab8938657b03fbdba8","6657791423c656a2f6ae177e","1515","stimuli/0101000.jpg","0","","prediction_trial","2","","false","","0","true","true","false","false","false","false","[2,0]","101","000","0","","","","","","",""
"","","","","","image-keyboard-response","35","293779","0.0-10.0","594d4f0aa186be000114ce1d","665500ab8938657b03fbdba8","6657791423c656a2f6ae177e","4494","stimuli/01010002.jpg"," ","","feedback_trial","2","","","","","","","","","","","","","","","","","","","","",""
"","","","","","image-keyboard-response","36","294857","0.0-11.0","594d4f0aa186be000114ce1d","665500ab8938657b03fbdba8","6657791423c656a2f6ae177e","1065","stimuli/0000011.jpg","0","","prediction_trial","0","","true","","0","true","true","true","true","true","true","[0]","000","011","1","","","","","","",""
"","","","","","image-keyboard-response","37","296291","0.0-12.0","594d4f0aa186be000114ce1d","665500ab8938657b03fbdba8","6657791423c656a2f6ae177e","1427","stimuli/00000110.jpg"," ","","feedback_trial","0","","","","","","","","","","","","","","","","","","","","",""
"","","","","","image-keyboard-response","38","297824","0.0-13.0","594d4f0aa186be000114ce1d","665500ab8938657b03fbdba8","6657791423c656a2f6ae177e","1464","stimuli/1111010.jpg","1","","prediction_trial","1","","true","","1","false","true","false","false","false","false","[0,1,2]","111","010","1","","","","","","",""
"","","","","","image-keyboard-response","39","298790","0.0-14.0","594d4f0aa186be000114ce1d","665500ab8938657b03fbdba8","6657791423c656a2f6ae177e","915","stimuli/11110101.jpg"," ","","feedback_trial","0","","","","","","","","","","","","","","","","","","","","",""
"","","","","","image-keyboard-response","40","300240","0.0-15.0","594d4f0aa186be000114ce1d","665500ab8938657b03fbdba8","6657791423c656a2f6ae177e","1398","stimuli/2101000.jpg","2","","prediction_trial","0","","false","","2","true","true","false","false","false","false","[0,2]","101","000","0","","","","","","",""
"","","","","","image-keyboard-response","41","304820","0.0-16.0","594d4f0aa186be000114ce1d","665500ab8938657b03fbdba8","6657791423c656a2f6ae177e","4532","stimuli/21010000.jpg"," ","","feedback_trial","0","","","","","","","","","","","","","","","","","","","","",""
"","","","","","image-keyboard-response","42","307924","0.0-17.0","594d4f0aa186be000114ce1d","665500ab8938657b03fbdba8","6657791423c656a2f6ae177e","3093","stimuli/2001000.jpg","2","","prediction_trial","2","","true","","2","true","true","false","true","false","true","[2]","001","000","1","","","","","","",""
"","","","","","image-keyboard-response","43","309070","0.0-18.0","594d4f0aa186be000114ce1d","665500ab8938657b03fbdba8","6657791423c656a2f6ae177e","1134","stimuli/20010002.jpg"," ","","feedback_trial","2","","","","","","","","","","","","","","","","","","","","",""
"","","","","","image-keyboard-response","44","311157","0.0-19.0","594d4f0aa186be000114ce1d","665500ab8938657b03fbdba8","6657791423c656a2f6ae177e","2076","stimuli/2100011.jpg","1","","prediction_trial","2","","false","","2","false","false","true","true","false","false","[2]","100","011","0","","","","","","",""
"","","","","","image-keyboard-response","45","313403","0.0-20.0","594d4f0aa186be000114ce1d","665500ab8938657b03fbdba8","6657791423c656a2f6ae177e","2234","stimuli/21000112.jpg"," ","","feedback_trial","2","","","","","","","","","","","","","","","","","","","","",""
"","","","","","image-keyboard-response","46","315166","0.0-21.0","594d4f0aa186be000114ce1d","665500ab8938657b03fbdba8","6657791423c656a2f6ae177e","1716","stimuli/2000001.jpg","2","","prediction_trial","2","","true","","2","false","true","true","true","false","true","[2]","000","001","1","","","","","","",""
"","","","","","image-keyboard-response","47","317245","0.0-22.0","594d4f0aa186be000114ce1d","665500ab8938657b03fbdba8","6657791423c656a2f6ae177e","2045","stimuli/20000012.jpg"," ","","feedback_trial","2","","","","","","","","","","","","","","","","","","","","",""
"","","","","","image-keyboard-response","48","321181","0.0-23.0","594d4f0aa186be000114ce1d","665500ab8938657b03fbdba8","6657791423c656a2f6ae177e","3914","stimuli/0000101.jpg","0","","prediction_trial","0","","true","","0","false","false","true","true","false","false","[0]","000","101","1","","","","","","",""
"","","","","","image-keyboard-response","49","322316","0.0-24.0","594d4f0aa186be000114ce1d","665500ab8938657b03fbdba8","6657791423c656a2f6ae177e","1071","stimuli/00001010.jpg"," ","","feedback_trial","0","","","","","","","","","","","","","","","","","","","","",""
"","","","","","image-keyboard-response","50","324050","0.0-25.0","594d4f0aa186be000114ce1d","665500ab8938657b03fbdba8","6657791423c656a2f6ae177e","1690","stimuli/2111011.jpg","1","","prediction_trial","0","","false","","2","false","false","false","false","false","false","[0,2,1]","111","011","0","","","","","","",""
"","","","","","image-keyboard-response","51","326767","0.0-26.0","594d4f0aa186be000114ce1d","665500ab8938657b03fbdba8","6657791423c656a2f6ae177e","2663","stimuli/21110110.jpg"," ","","feedback_trial","0","","","","","","","","","","","","","","","","","","","","",""
"","","","","","image-keyboard-response","52","330145","0.0-27.0","594d4f0aa186be000114ce1d","665500ab8938657b03fbdba8","6657791423c656a2f6ae177e","3351","stimuli/2010000.jpg","2","","prediction_trial","2","","true","","2","true","true","true","true","true","true","[2]","010","000","1","","","","","","",""
"","","","","","image-keyboard-response","53","331186","0.0-28.0","594d4f0aa186be000114ce1d","665500ab8938657b03fbdba8","6657791423c656a2f6ae177e","1007","stimuli/20100002.jpg"," ","","feedback_trial","2","","","","","","","","","","","","","","","","","","","","",""
"","","","","","image-keyboard-response","54","333291","0.0-29.0","594d4f0aa186be000114ce1d","665500ab8938657b03fbdba8","6657791423c656a2f6ae177e","2051","stimuli/0001001.jpg","0","","prediction_trial","0","","true","","0","true","true","true","true","true","true","[0]","001","001","1","","","","","","",""
"","","","","","image-keyboard-response","55","334138","0.0-30.0","594d4f0aa186be000114ce1d","665500ab8938657b03fbdba8","6657791423c656a2f6ae177e","797","stimuli/00010010.jpg"," ","","feedback_trial","0","","","","","","","","","","","","","","","","","","","","",""
"","","","","","image-keyboard-response","56","335527","0.0-31.0","594d4f0aa186be000114ce1d","665500ab8938657b03fbdba8","6657791423c656a2f6ae177e","1337","stimuli/1100100.jpg","1","","prediction_trial","1","","true","","1","true","true","true","true","true","true","[1]","100","100","1","","","","","","",""
"","","","","","image-keyboard-response","57","336741","0.0-32.0","594d4f0aa186be000114ce1d","665500ab8938657b03fbdba8","6657791423c656a2f6ae177e","1178","stimuli/11001001.jpg"," ","","feedback_trial","1","","","","","","","","","","","","","","","","","","","","",""
"","","","","","image-keyboard-response","58","339819","0.0-33.0","594d4f0aa186be000114ce1d","665500ab8938657b03fbdba8","6657791423c656a2f6ae177e","3020","stimuli/2001110.jpg","2","","prediction_trial","2","","true","","2","true","true","false","true","false","true","[2]","001","110","1","","","","","","",""
"","","","","","image-keyboard-response","59","340766","0.0-34.0","594d4f0aa186be000114ce1d","665500ab8938657b03fbdba8","6657791423c656a2f6ae177e","882","stimuli/20011102.jpg"," ","","feedback_trial","2","","","","","","","","","","","","","","","","","","","","",""
"","","","","","image-keyboard-response","60","345881","0.0-35.0","594d4f0aa186be000114ce1d","665500ab8938657b03fbdba8","6657791423c656a2f6ae177e","5054","stimuli/2101111.jpg","1","","prediction_trial","0","","false","","2","false","false","false","false","false","false","[2,0]","101","111","0","","","","","","",""
"","","","","","image-keyboard-response","61","346982","0.0-36.0","594d4f0aa186be000114ce1d","665500ab8938657b03fbdba8","6657791423c656a2f6ae177e","1067","stimuli/21011110.jpg"," ","","feedback_trial","2","","","","","","","","","","","","","","","","","","","","",""
"","","","","","image-keyboard-response","62","352915","0.0-37.0","594d4f0aa186be000114ce1d","665500ab8938657b03fbdba8","6657791423c656a2f6ae177e","5910","stimuli/0111100.jpg","0","","prediction_trial","0","","true","","0","false","true","false","false","false","false","[2,1,0]","111","100","1","","","","","","",""
"","","","","","image-keyboard-response","63","354242","0.0-38.0","594d4f0aa186be000114ce1d","665500ab8938657b03fbdba8","6657791423c656a2f6ae177e","1288","stimuli/01111000.jpg"," ","","feedback_trial","2","","","","","","","","","","","","","","","","","","","","",""
"","","","","","image-keyboard-response","64","356167","0.0-39.0","594d4f0aa186be000114ce1d","665500ab8938657b03fbdba8","6657791423c656a2f6ae177e","1873","stimuli/0000010.jpg","0","","prediction_trial","0","","true","","0","true","true","true","true","true","true","[0]","000","010","1","","","","","","",""
"","","","","","image-keyboard-response","65","357023","0.0-40.0","594d4f0aa186be000114ce1d","665500ab8938657b03fbdba8","6657791423c656a2f6ae177e","832","stimuli/00000100.jpg"," ","","feedback_trial","0","","","","","","","","","","","","","","","","","","","","",""
"","","","","","image-keyboard-response","66","360796","0.0-41.0","594d4f0aa186be000114ce1d","665500ab8938657b03fbdba8","6657791423c656a2f6ae177e","3722","stimuli/2110111.jpg","2","","prediction_trial","2","","true","","2","false","false","true","true","false","false","[2]","110","111","1","","","","","","",""
"","","","","","image-keyboard-response","67","361771","0.0-42.0","594d4f0aa186be000114ce1d","665500ab8938657b03fbdba8","6657791423c656a2f6ae177e","919","stimuli/21101112.jpg"," ","","feedback_trial","2","","","","","","","","","","","","","","","","","","","","",""
"","","","","","image-keyboard-response","68","366604","0.0-43.0","594d4f0aa186be000114ce1d","665500ab8938657b03fbdba8","6657791423c656a2f6ae177e","4784","stimuli/0001101.jpg","0","","prediction_trial","0","","true","","0","false","false","true","true","false","false","[0]","001","101","1","","","","","","",""
"","","","","","image-keyboard-response","69","367627","0.0-44.0","594d4f0aa186be000114ce1d","665500ab8938657b03fbdba8","6657791423c656a2f6ae177e","974","stimuli/00011010.jpg"," ","","feedback_trial","0","","","","","","","","","","","","","","","","","","","","",""
"","","","","","image-keyboard-response","70","369810","0.0-45.0","594d4f0aa186be000114ce1d","665500ab8938657b03fbdba8","6657791423c656a2f6ae177e","2135","stimuli/1110100.jpg","1","","prediction_trial","0","","false","","1","true","true","false","false","false","false","[0,1]","110","100","0","","","","","","",""
"","","","","","image-keyboard-response","71","370827","0.0-46.0","594d4f0aa186be000114ce1d","665500ab8938657b03fbdba8","6657791423c656a2f6ae177e","958","stimuli/11101000.jpg"," ","","feedback_trial","0","","","","","","","","","","","","","","","","","","","","",""
"","","","","","image-keyboard-response","72","373724","0.0-47.0","594d4f0aa186be000114ce1d","665500ab8938657b03fbdba8","6657791423c656a2f6ae177e","2845","stimuli/0010001.jpg","0","","prediction_trial","0","","true","","0","true","true","true","true","true","true","[0]","010","001","1","","","","","","",""
"","","","","","image-keyboard-response","73","374579","0.0-48.0","594d4f0aa186be000114ce1d","665500ab8938657b03fbdba8","6657791423c656a2f6ae177e","805","stimuli/00100010.jpg"," ","","feedback_trial","0","","","","","","","","","","","","","","","","","","","","",""
"","","","","","image-keyboard-response","74","379909","0.0-49.0","594d4f0aa186be000114ce1d","665500ab8938657b03fbdba8","6657791423c656a2f6ae177e","5283","stimuli/0111110.jpg","1","","prediction_trial","1","","true","","0","false","false","false","false","false","false","[0,1,2]","111","110","1","","","","","","",""
"","","","","","image-keyboard-response","75","380722","0.0-50.0","594d4f0aa186be000114ce1d","665500ab8938657b03fbdba8","6657791423c656a2f6ae177e","755","stimuli/01111101.jpg"," ","","feedback_trial","0","","","","","","","","","","","","","","","","","","","","",""
"","","","","","image-keyboard-response","76","382579","0.0-51.0","594d4f0aa186be000114ce1d","665500ab8938657b03fbdba8","6657791423c656a2f6ae177e","1801","stimuli/0101101.jpg","0","","prediction_trial","2","","false","","0","false","false","false","false","false","false","[2,0]","101","101","0","","","","","","",""
"","","","","","image-keyboard-response","77","383459","0.0-52.0","594d4f0aa186be000114ce1d","665500ab8938657b03fbdba8","6657791423c656a2f6ae177e","838","stimuli/01011012.jpg"," ","","feedback_trial","2","","","","","","","","","","","","","","","","","","","","",""
"","","","","","image-keyboard-response","78","386761","0.0-53.0","594d4f0aa186be000114ce1d","665500ab8938657b03fbdba8","6657791423c656a2f6ae177e","3251","stimuli/1100010.jpg","1","","prediction_trial","1","","true","","1","false","true","true","true","false","true","[1]","100","010","1","","","","","","",""
"","","","","","image-keyboard-response","79","387935","0.0-54.0","594d4f0aa186be000114ce1d","665500ab8938657b03fbdba8","6657791423c656a2f6ae177e","1143","stimuli/11000101.jpg"," ","","feedback_trial","1","","","","","","","","","","","","","","","","","","","","",""
"","","","","","image-keyboard-response","80","389175","0.0-55.0","594d4f0aa186be000114ce1d","665500ab8938657b03fbdba8","6657791423c656a2f6ae177e","1185","stimuli/0011000.jpg","0","","prediction_trial","0","","true","","0","true","true","true","true","true","true","[0]","011","000","1","","","","","","",""
"","","","","","image-keyboard-response","81","389963","0.0-56.0","594d4f0aa186be000114ce1d","665500ab8938657b03fbdba8","6657791423c656a2f6ae177e","733","stimuli/00110000.jpg"," ","","feedback_trial","0","","","","","","","","","","","","","","","","","","","","",""
"","","","","","image-keyboard-response","82","393264","0.0-57.0","594d4f0aa186be000114ce1d","665500ab8938657b03fbdba8","6657791423c656a2f6ae177e","3247","stimuli/1110010.jpg","0","","prediction_trial","0","","true","","1","false","true","false","false","false","false","[0,1]","110","010","1","","","","","","",""
"","","","","","image-keyboard-response","83","394979","0.0-58.0","594d4f0aa186be000114ce1d","665500ab8938657b03fbdba8","6657791423c656a2f6ae177e","1670","stimuli/11100100.jpg"," ","","feedback_trial","0","","","","","","","","","","","","","","","","","","","","",""
"","","","","","image-keyboard-response","84","397711","0.0-59.0","594d4f0aa186be000114ce1d","665500ab8938657b03fbdba8","6657791423c656a2f6ae177e","2678","stimuli/1111111.jpg","2","","prediction_trial","0","","false","","1","false","false","false","false","false","false","[2,1,0]","111","111","0","","","","","","",""
"","","","","","image-keyboard-response","85","398763","0.0-60.0","594d4f0aa186be000114ce1d","665500ab8938657b03fbdba8","6657791423c656a2f6ae177e","1005","stimuli/11111110.jpg"," ","","feedback_trial","2","","","","","","","","","","","","","","","","","","","","",""
"","","","","","image-keyboard-response","86","401597","0.0-61.0","594d4f0aa186be000114ce1d","665500ab8938657b03fbdba8","6657791423c656a2f6ae177e","2782","stimuli/2111110.jpg","2","","prediction_trial","1","","false","","2","true","true","false","false","false","false","[1,2,0]","111","110","0","","","","","","",""
"","","","","","image-keyboard-response","87","403788","0.0-62.0","594d4f0aa186be000114ce1d","665500ab8938657b03fbdba8","6657791423c656a2f6ae177e","2136","stimuli/21111101.jpg"," ","","feedback_trial","1","","","","","","","","","","","","","","","","","","","","",""
"","","","","","image-keyboard-response","88","405189","0.0-63.0","594d4f0aa186be000114ce1d","665500ab8938657b03fbdba8","6657791423c656a2f6ae177e","1370","stimuli/0110000.jpg","0","","prediction_trial","1","","false","","0","true","true","false","false","false","false","[0,1]","110","000","0","","","","","","",""
"","","","","","image-keyboard-response","89","406290","0.0-64.0","594d4f0aa186be000114ce1d","665500ab8938657b03fbdba8","6657791423c656a2f6ae177e","1041","stimuli/01100001.jpg"," ","","feedback_trial","0","","","","","","","","","","","","","","","","","","","","",""
"","","","","","image-keyboard-response","90","410594","0.0-65.0","594d4f0aa186be000114ce1d","665500ab8938657b03fbdba8","6657791423c656a2f6ae177e","4242","stimuli/1010011.jpg","2","","prediction_trial","1","","false","","1","false","false","false","true","false","false","[1]","010","011","0","","","","","","",""
"","","","","","image-keyboard-response","91","411469","0.0-66.0","594d4f0aa186be000114ce1d","665500ab8938657b03fbdba8","6657791423c656a2f6ae177e","817","stimuli/10100111.jpg"," ","","feedback_trial","1","","","","","","","","","","","","","","","","","","","","",""
"","","","","","image-keyboard-response","92","414182","0.0-67.0","594d4f0aa186be000114ce1d","665500ab8938657b03fbdba8","6657791423c656a2f6ae177e","2663","stimuli/1010110.jpg","0","","prediction_trial","1","","false","","1","false","false","false","true","false","false","[1]","010","110","0","","","","","","",""
"","","","","","image-keyboard-response","93","415097","0.0-68.0","594d4f0aa186be000114ce1d","665500ab8938657b03fbdba8","6657791423c656a2f6ae177e","863","stimuli/10101101.jpg"," ","","feedback_trial","1","","","","","","","","","","","","","","","","","","","","",""
"","","","","","image-keyboard-response","94","418928","0.0-69.0","594d4f0aa186be000114ce1d","665500ab8938657b03fbdba8","6657791423c656a2f6ae177e","3780","stimuli/1011001.jpg","2","","prediction_trial","1","","false","","1","true","true","false","false","false","false","[2,1]","011","001","0","","","","","","",""
"","","","","","image-keyboard-response","95","419852","0.0-70.0","594d4f0aa186be000114ce1d","665500ab8938657b03fbdba8","6657791423c656a2f6ae177e","872","stimuli/10110011.jpg"," ","","feedback_trial","2","","","","","","","","","","","","","","","","","","","","",""
"","","","","","image-keyboard-response","96","421220","0.0-71.0","594d4f0aa186be000114ce1d","665500ab8938657b03fbdba8","6657791423c656a2f6ae177e","1313","stimuli/1000000.jpg","1","","prediction_trial","1","","true","","1","true","true","true","true","true","true","[1]","000","000","1","","","","","","",""
"","","","","","image-keyboard-response","97","422300","0.0-72.0","594d4f0aa186be000114ce1d","665500ab8938657b03fbdba8","6657791423c656a2f6ae177e","1031","stimuli/10000001.jpg"," ","","feedback_trial","1","","","","","","","","","","","","","","","","","","","","",""
"","","","","","image-keyboard-response","98","425252","0.0-73.0","594d4f0aa186be000114ce1d","665500ab8938657b03fbdba8","6657791423c656a2f6ae177e","2921","stimuli/2010111.jpg","0","","prediction_trial","2","","false","","2","false","false","true","true","false","false","[2]","010","111","0","","","","","","",""
"","","","","","image-keyboard-response","99","426373","0.0-74.0","594d4f0aa186be000114ce1d","665500ab8938657b03fbdba8","6657791423c656a2f6ae177e","1072","stimuli/20101112.jpg"," ","","feedback_trial","2","","","","","","","","","","","","","","","","","","","","",""
"","","","","","image-keyboard-response","100","427852","0.0-75.0","594d4f0aa186be000114ce1d","665500ab8938657b03fbdba8","6657791423c656a2f6ae177e","1440","stimuli/2110000.jpg","2","","prediction_trial","2","","true","","2","true","true","true","true","true","true","[2]","110","000","1","","","","","","",""
"","","","","","image-keyboard-response","101","428512","0.0-76.0","594d4f0aa186be000114ce1d","665500ab8938657b03fbdba8","6657791423c656a2f6ae177e","608","stimuli/21100002.jpg"," ","","feedback_trial","2","","","","","","","","","","","","","","","","","","","","",""
"","","","","","image-keyboard-response","102","430324","0.0-77.0","594d4f0aa186be000114ce1d","665500ab8938657b03fbdba8","6657791423c656a2f6ae177e","1755","stimuli/0001110.jpg","1","","prediction_trial","0","","false","","0","false","false","true","true","false","false","[0]","001","110","0","","","","","","",""
"","","","","","image-keyboard-response","103","431032","0.0-78.0","594d4f0aa186be000114ce1d","665500ab8938657b03fbdba8","6657791423c656a2f6ae177e","661","stimuli/00011100.jpg"," ","","feedback_trial","0","","","","","","","","","","","","","","","","","","","","",""
"","","","","","image-keyboard-response","104","432587","0.0-79.0","594d4f0aa186be000114ce1d","665500ab8938657b03fbdba8","6657791423c656a2f6ae177e","1502","stimuli/1001110.jpg","1","","prediction_trial","1","","true","","1","false","false","true","true","false","false","[1]","001","110","1","","","","","","",""
"","","","","","image-keyboard-response","105","433581","0.0-80.0","594d4f0aa186be000114ce1d","665500ab8938657b03fbdba8","6657791423c656a2f6ae177e","920","stimuli/10011101.jpg"," ","","feedback_trial","1","","","","","","","","","","","","","","","","","","","","",""
"","","","","","image-keyboard-response","106","435934","0.0-81.0","594d4f0aa186be000114ce1d","665500ab8938657b03fbdba8","6657791423c656a2f6ae177e","2312","stimuli/0100111.jpg","0","","prediction_trial","0","","true","","0","false","false","false","true","false","false","[0]","100","111","1","","","","","","",""
"","","","","","image-keyboard-response","107","436965","0.0-82.0","594d4f0aa186be000114ce1d","665500ab8938657b03fbdba8","6657791423c656a2f6ae177e","989","stimuli/01001110.jpg"," ","","feedback_trial","0","","","","","","","","","","","","","","","","","","","","",""
"","","","","","image-keyboard-response","108","439466","0.0-83.0","594d4f0aa186be000114ce1d","665500ab8938657b03fbdba8","6657791423c656a2f6ae177e","2466","stimuli/1001011.jpg","1","","prediction_trial","1","","true","","1","false","false","true","true","false","false","[1]","001","011","1","","","","","","",""
"","","","","","image-keyboard-response","109","440374","0.0-84.0","594d4f0aa186be000114ce1d","665500ab8938657b03fbdba8","6657791423c656a2f6ae177e","858","stimuli/10010111.jpg"," ","","feedback_trial","1","","","","","","","","","","","","","","","","","","","","",""
"","","","","","image-keyboard-response","110","442749","0.0-85.0","594d4f0aa186be000114ce1d","665500ab8938657b03fbdba8","6657791423c656a2f6ae177e","2327","stimuli/1111100.jpg","0","","prediction_trial","0","","true","","1","true","true","false","false","false","false","[2,0,1]","111","100","1","","","","","","",""
"","","","","","image-keyboard-response","111","443755","0.0-86.0","594d4f0aa186be000114ce1d","665500ab8938657b03fbdba8","6657791423c656a2f6ae177e","958","stimuli/11111000.jpg"," ","","feedback_trial","2","","","","","","","","","","","","","","","","","","","","",""
"","","","","","image-keyboard-response","112","447267","0.0-87.0","594d4f0aa186be000114ce1d","665500ab8938657b03fbdba8","6657791423c656a2f6ae177e","3479","stimuli/2111010.jpg","1","","prediction_trial","1","","true","","2","true","true","false","false","false","false","[0,2,1]","111","010","1","","","","","","",""
"","","","","","image-keyboard-response","113","448006","0.0-88.0","594d4f0aa186be000114ce1d","665500ab8938657b03fbdba8","6657791423c656a2f6ae177e","719","stimuli/21110101.jpg"," ","","feedback_trial","0","","","","","","","","","","","","","","","","","","","","",""
"","","","","","image-keyboard-response","114","452584","0.0-89.0","594d4f0aa186be000114ce1d","665500ab8938657b03fbdba8","6657791423c656a2f6ae177e","4529","stimuli/0100110.jpg","0","","prediction_trial","0","","true","","0","false","false","false","true","false","false","[0]","100","110","1","","","","","","",""
"","","","","","image-keyboard-response","115","453375","0.0-90.0","594d4f0aa186be000114ce1d","665500ab8938657b03fbdba8","6657791423c656a2f6ae177e","735","stimuli/01001100.jpg"," ","","feedback_trial","0","","","","","","","","","","","","","","","","","","","","",""
"","","","","","image-keyboard-response","116","455269","0.0-91.0","594d4f0aa186be000114ce1d","665500ab8938657b03fbdba8","6657791423c656a2f6ae177e","1844","stimuli/1010010.jpg","1","","prediction_trial","1","","true","","1","false","true","false","true","false","true","[1]","010","010","1","","","","","","",""
"","","","","","image-keyboard-response","117","455895","0.0-92.0","594d4f0aa186be000114ce1d","665500ab8938657b03fbdba8","6657791423c656a2f6ae177e","577","stimuli/10100101.jpg"," ","","feedback_trial","1","","","","","","","","","","","","","","","","","","","","",""
"","","","","","image-keyboard-response","118","458274","0.0-93.0","594d4f0aa186be000114ce1d","665500ab8938657b03fbdba8","6657791423c656a2f6ae177e","2339","stimuli/1000010.jpg","1","","prediction_trial","1","","true","","1","false","true","true","true","false","true","[1]","000","010","1","","","","","","",""
"","","","","","image-keyboard-response","119","458932","0.0-94.0","594d4f0aa186be000114ce1d","665500ab8938657b03fbdba8","6657791423c656a2f6ae177e","595","stimuli/10000101.jpg"," ","","feedback_trial","1","","","","","","","","","","","","","","","","","","","","",""
"","","","","","image-keyboard-response","120","460573","0.0-95.0","594d4f0aa186be000114ce1d","665500ab8938657b03fbdba8","6657791423c656a2f6ae177e","1608","stimuli/1000001.jpg","1","","prediction_trial","1","","true","","1","true","true","true","true","true","true","[1]","000","001","1","","","","","","",""
"","","","","","image-keyboard-response","121","461085","0.0-96.0","594d4f0aa186be000114ce1d","665500ab8938657b03fbdba8","6657791423c656a2f6ae177e","448","stimuli/10000011.jpg"," ","","feedback_trial","1","","","","","","","","","","","","","","","","","","","","",""
"","","","","","image-keyboard-response","122","462405","0.0-97.0","594d4f0aa186be000114ce1d","665500ab8938657b03fbdba8","6657791423c656a2f6ae177e","1274","stimuli/0010011.jpg","0","","prediction_trial","0","","true","","0","true","true","true","true","true","true","[0]","010","011","1","","","","","","",""
"","","","","","image-keyboard-response","123","462991","0.0-98.0","594d4f0aa186be000114ce1d","665500ab8938657b03fbdba8","6657791423c656a2f6ae177e","551","stimuli/00100110.jpg"," ","","feedback_trial","0","","","","","","","","","","","","","","","","","","","","",""
"","","","","","image-keyboard-response","124","464644","0.0-99.0","594d4f0aa186be000114ce1d","665500ab8938657b03fbdba8","6657791423c656a2f6ae177e","1620","stimuli/1100111.jpg","1","","prediction_trial","1","","true","","1","false","false","true","true","false","false","[1]","100","111","1","","","","","","",""
"","","","","","image-keyboard-response","125","465397","0.0-100.0","594d4f0aa186be000114ce1d","665500ab8938657b03fbdba8","6657791423c656a2f6ae177e","701","stimuli/11001111.jpg"," ","","feedback_trial","1","","","","","","","","","","","","","","","","","","","","",""
"","","","","","image-keyboard-response","126","469606","0.0-101.0","594d4f0aa186be000114ce1d","665500ab8938657b03fbdba8","6657791423c656a2f6ae177e","4175","stimuli/2011001.jpg","1","","prediction_trial","1","","true","","2","false","true","false","false","false","false","[1,2]","011","001","1","","","","","","",""
"","","","","","image-keyboard-response","127","470337","0.0-102.0","594d4f0aa186be000114ce1d","665500ab8938657b03fbdba8","6657791423c656a2f6ae177e","682","stimuli/20110011.jpg"," ","","feedback_trial","1","","","","","","","","","","","","","","","","","","","","",""
"","","","","","image-keyboard-response","128","472336","0.0-103.0","594d4f0aa186be000114ce1d","665500ab8938657b03fbdba8","6657791423c656a2f6ae177e","1944","stimuli/0100000.jpg","0","","prediction_trial","0","","true","","0","true","true","false","true","false","true","[0]","100","000","1","","","","","","",""
"","","","","","image-keyboard-response","129","472954","0.0-104.0","594d4f0aa186be000114ce1d","665500ab8938657b03fbdba8","6657791423c656a2f6ae177e","563","stimuli/01000000.jpg"," ","","feedback_trial","0","","","","","","","","","","","","","","","","","","","","",""
"","","","","","image-keyboard-response","130","477083","0.0-105.0","594d4f0aa186be000114ce1d","665500ab8938657b03fbdba8","6657791423c656a2f6ae177e","4078","stimuli/1000111.jpg","2","","prediction_trial","1","","false","","1","false","false","true","true","false","false","[1]","000","111","0","","","","","","",""
"","","","","","image-keyboard-response","131","477842","0.0-106.0","594d4f0aa186be000114ce1d","665500ab8938657b03fbdba8","6657791423c656a2f6ae177e","723","stimuli/10001111.jpg"," ","","feedback_trial","1","","","","","","","","","","","","","","","","","","","","",""
"","","","","","image-keyboard-response","132","479991","0.0-107.0","594d4f0aa186be000114ce1d","665500ab8938657b03fbdba8","6657791423c656a2f6ae177e","2077","stimuli/1111101.jpg","1","","prediction_trial","2","","false","","1","true","true","false","false","false","false","[1,0,2]","111","101","0","","","","","","",""
"","","","","","image-keyboard-response","133","480847","0.0-108.0","594d4f0aa186be000114ce1d","665500ab8938657b03fbdba8","6657791423c656a2f6ae177e","817","stimuli/11111012.jpg"," ","","feedback_trial","1","","","","","","","","","","","","","","","","","","","","",""
"","","","","","image-keyboard-response","134","482556","0.0-109.0","594d4f0aa186be000114ce1d","665500ab8938657b03fbdba8","6657791423c656a2f6ae177e","1640","stimuli/0000110.jpg","0","","prediction_trial","0","","true","","0","false","false","true","true","false","false","[0]","000","110","1","","","","","","",""
"","","","","","image-keyboard-response","135","483444","0.0-110.0","594d4f0aa186be000114ce1d","665500ab8938657b03fbdba8","6657791423c656a2f6ae177e","817","stimuli/00001100.jpg"," ","","feedback_trial","0","","","","","","","","","","","","","","","","","","","","",""
"","","","","","image-keyboard-response","136","486898","0.0-111.0","594d4f0aa186be000114ce1d","665500ab8938657b03fbdba8","6657791423c656a2f6ae177e","3401","stimuli/2111001.jpg","1","","prediction_trial","0","","false","","2","false","true","false","false","false","false","[0,2,1]","111","001","0","","","","","","",""
"","","","","","image-keyboard-response","137","487617","0.0-112.0","594d4f0aa186be000114ce1d","665500ab8938657b03fbdba8","6657791423c656a2f6ae177e","655","stimuli/21110010.jpg"," ","","feedback_trial","0","","","","","","","","","","","","","","","","","","","","",""
"","","","","","image-keyboard-response","138","491045","0.0-113.0","594d4f0aa186be000114ce1d","665500ab8938657b03fbdba8","6657791423c656a2f6ae177e","3370","stimuli/2011010.jpg","1","","prediction_trial","2","","false","","2","true","true","false","false","false","false","[2,1]","011","010","0","","","","","","",""
"","","","","","image-keyboard-response","139","491739","0.0-114.0","594d4f0aa186be000114ce1d","665500ab8938657b03fbdba8","6657791423c656a2f6ae177e","641","stimuli/20110102.jpg"," ","","feedback_trial","2","","","","","","","","","","","","","","","","","","","","",""
"","","","","","image-keyboard-response","140","493636","0.0-115.0","594d4f0aa186be000114ce1d","665500ab8938657b03fbdba8","6657791423c656a2f6ae177e","1829","stimuli/0111000.jpg","0","","prediction_trial","0","","true","","0","true","true","false","false","false","false","[2,0,1]","111","000","1","","","","","","",""
"","","","","","image-keyboard-response","141","494425","0.0-116.0","594d4f0aa186be000114ce1d","665500ab8938657b03fbdba8","6657791423c656a2f6ae177e","749","stimuli/01110000.jpg"," ","","feedback_trial","2","","","","","","","","","","","","","","","","","","","","",""
"","","","","","image-keyboard-response","142","497135","0.0-117.0","594d4f0aa186be000114ce1d","665500ab8938657b03fbdba8","6657791423c656a2f6ae177e","2659","stimuli/0110011.jpg","0","","prediction_trial","0","","true","","0","true","true","false","false","false","false","[0,1]","110","011","1","","","","","","",""
"","","","","","image-keyboard-response","143","497881","0.0-118.0","594d4f0aa186be000114ce1d","665500ab8938657b03fbdba8","6657791423c656a2f6ae177e","703","stimuli/01100110.jpg"," ","","feedback_trial","0","","","","","","","","","","","","","","","","","","","","",""
"","","","","","image-keyboard-response","144","500078","0.0-119.0","594d4f0aa186be000114ce1d","665500ab8938657b03fbdba8","6657791423c656a2f6ae177e","2144","stimuli/2100111.jpg","1","","prediction_trial","2","","false","","2","false","false","true","true","false","false","[2]","100","111","0","","","","","","",""
"","","","","","image-keyboard-response","145","500981","0.0-120.0","594d4f0aa186be000114ce1d","665500ab8938657b03fbdba8","6657791423c656a2f6ae177e","833","stimuli/21001112.jpg"," ","","feedback_trial","2","","","","","","","","","","","","","","","","","","","","",""
"","","","","","image-keyboard-response","146","505576","0.0-121.0","594d4f0aa186be000114ce1d","665500ab8938657b03fbdba8","6657791423c656a2f6ae177e","4564","stimuli/0010101.jpg","0","","prediction_trial","0","","true","","0","false","false","true","true","false","false","[0]","010","101","1","","","","","","",""
"","","","","","image-keyboard-response","147","506399","0.0-122.0","594d4f0aa186be000114ce1d","665500ab8938657b03fbdba8","6657791423c656a2f6ae177e","776","stimuli/00101010.jpg"," ","","feedback_trial","0","","","","","","","","","","","","","","","","","","","","",""
"","","","","","image-keyboard-response","148","508476","0.0-123.0","594d4f0aa186be000114ce1d","665500ab8938657b03fbdba8","6657791423c656a2f6ae177e","2023","stimuli/0000100.jpg","0","","prediction_trial","0","","true","","0","false","true","true","true","false","true","[0]","000","100","1","","","","","","",""
"","","","","","image-keyboard-response","149","509070","0.0-124.0","594d4f0aa186be000114ce1d","665500ab8938657b03fbdba8","6657791423c656a2f6ae177e","532","stimuli/00001000.jpg"," ","","feedback_trial","0","","","","","","","","","","","","","","","","","","","","",""
"","","","","","image-keyboard-response","150","511111","0.0-125.0","594d4f0aa186be000114ce1d","665500ab8938657b03fbdba8","6657791423c656a2f6ae177e","1972","stimuli/2001011.jpg","1","","prediction_trial","2","","false","","2","false","false","false","true","false","false","[2]","001","011","0","","","","","","",""
"","","","","","image-keyboard-response","151","511866","0.0-126.0","594d4f0aa186be000114ce1d","665500ab8938657b03fbdba8","6657791423c656a2f6ae177e","666","stimuli/20010112.jpg"," ","","feedback_trial","2","","","","","","","","","","","","","","","","","","","","",""
"","","","","","image-keyboard-response","152","514140","0.0-127.0","594d4f0aa186be000114ce1d","665500ab8938657b03fbdba8","6657791423c656a2f6ae177e","2221","stimuli/1011100.jpg","1","","prediction_trial","1","","true","","1","true","true","false","false","false","false","[1,2]","011","100","1","","","","","","",""
"","","","","","image-keyboard-response","153","515337","0.0-128.0","594d4f0aa186be000114ce1d","665500ab8938657b03fbdba8","6657791423c656a2f6ae177e","1171","stimuli/10111001.jpg"," ","","feedback_trial","1","","","","","","","","","","","","","","","","","","","","",""
"","","","","","image-keyboard-response","154","518272","0.0-129.0","594d4f0aa186be000114ce1d","665500ab8938657b03fbdba8","6657791423c656a2f6ae177e","2898","stimuli/0001111.jpg","0","","prediction_trial","0","","true","","0","false","false","true","true","false","false","[0]","001","111","1","","","","","","",""
"","","","","","image-keyboard-response","155","519020","0.0-130.0","594d4f0aa186be000114ce1d","665500ab8938657b03fbdba8","6657791423c656a2f6ae177e","704","stimuli/00011110.jpg"," ","","feedback_trial","0","","","","","","","","","","","","","","","","","","","","",""
"","","","","","image-keyboard-response","156","521129","0.0-131.0","594d4f0aa186be000114ce1d","665500ab8938657b03fbdba8","6657791423c656a2f6ae177e","2060","stimuli/1101111.jpg","0","","prediction_trial","1","","false","","1","false","false","true","true","false","false","[1]","101","111","0","","","","","","",""
"","","","","","image-keyboard-response","157","521897","0.0-132.0","594d4f0aa186be000114ce1d","665500ab8938657b03fbdba8","6657791423c656a2f6ae177e","708","stimuli/11011111.jpg"," ","","feedback_trial","1","","","","","","","","","","","","","","","","","","","","",""
"","","","","","image-keyboard-response","158","523275","0.0-133.0","594d4f0aa186be000114ce1d","665500ab8938657b03fbdba8","6657791423c656a2f6ae177e","1322","stimuli/1101000.jpg","1","","prediction_trial","1","","true","","1","true","true","true","true","true","true","[1]","101","000","1","","","","","","",""
"","","","","","image-keyboard-response","159","523798","0.0-134.0","594d4f0aa186be000114ce1d","665500ab8938657b03fbdba8","6657791423c656a2f6ae177e","463","stimuli/11010001.jpg"," ","","feedback_trial","1","","","","","","","","","","","","","","","","","","","","",""
"","","","","","image-keyboard-response","160","525048","0.0-135.0","594d4f0aa186be000114ce1d","665500ab8938657b03fbdba8","6657791423c656a2f6ae177e","1216","stimuli/0011011.jpg","0","","prediction_trial","0","","true","","0","true","true","true","true","true","true","[0]","011","011","1","","","","","","",""
"","","","","","image-keyboard-response","161","525759","0.0-136.0","594d4f0aa186be000114ce1d","665500ab8938657b03fbdba8","6657791423c656a2f6ae177e","660","stimuli/00110110.jpg"," ","","feedback_trial","0","","","","","","","","","","","","","","","","","","","","",""
"","","","","","image-keyboard-response","162","528472","0.0-137.0","594d4f0aa186be000114ce1d","665500ab8938657b03fbdba8","6657791423c656a2f6ae177e","2658","stimuli/2101001.jpg","0","","prediction_trial","2","","false","","2","false","true","false","false","false","false","[2,0]","101","001","0","","","","","","",""
"","","","","","image-keyboard-response","163","530592","0.0-138.0","594d4f0aa186be000114ce1d","665500ab8938657b03fbdba8","6657791423c656a2f6ae177e","2074","stimuli/21010012.jpg"," ","","feedback_trial","2","","","","","","","","","","","","","","","","","","","","",""
"","","","","","image-keyboard-response","164","531833","0.0-139.0","594d4f0aa186be000114ce1d","665500ab8938657b03fbdba8","6657791423c656a2f6ae177e","1201","stimuli/2110010.jpg","2","","prediction_trial","2","","true","","2","true","true","true","true","true","true","[2]","110","010","1","","","","","","",""
"","","","","","image-keyboard-response","165","532641","0.0-140.0","594d4f0aa186be000114ce1d","665500ab8938657b03fbdba8","6657791423c656a2f6ae177e","756","stimuli/21100102.jpg"," ","","feedback_trial","2","","","","","","","","","","","","","","","","","","","","",""
"","","","","","image-keyboard-response","166","534507","0.0-141.0","594d4f0aa186be000114ce1d","665500ab8938657b03fbdba8","6657791423c656a2f6ae177e","1818","stimuli/2000011.jpg","1","","prediction_trial","2","","false","","2","false","false","true","true","false","false","[2]","000","011","0","","","","","","",""
"","","","","","image-keyboard-response","167","535235","0.0-142.0","594d4f0aa186be000114ce1d","665500ab8938657b03fbdba8","6657791423c656a2f6ae177e","675","stimuli/20000112.jpg"," ","","feedback_trial","2","","","","","","","","","","","","","","","","","","","","",""
"","","","","","image-keyboard-response","168","537939","0.0-143.0","594d4f0aa186be000114ce1d","665500ab8938657b03fbdba8","6657791423c656a2f6ae177e","2636","stimuli/2110101.jpg","2","","prediction_trial","2","","true","","2","false","false","true","true","false","false","[2]","110","101","1","","","","","","",""
"","","","","","image-keyboard-response","169","538910","0.0-144.0","594d4f0aa186be000114ce1d","665500ab8938657b03fbdba8","6657791423c656a2f6ae177e","919","stimuli/21101012.jpg"," ","","feedback_trial","2","","","","","","","","","","","","","","","","","","","","",""
"","","","","","image-keyboard-response","170","540663","0.0-145.0","594d4f0aa186be000114ce1d","665500ab8938657b03fbdba8","6657791423c656a2f6ae177e","1722","stimuli/0111011.jpg","0","","prediction_trial","0","","true","","0","true","true","false","false","false","false","[0,2,1]","111","011","1","","","","","","",""
"","","","","","image-keyboard-response","171","541424","0.0-146.0","594d4f0aa186be000114ce1d","665500ab8938657b03fbdba8","6657791423c656a2f6ae177e","710","stimuli/01110110.jpg"," ","","feedback_trial","0","","","","","","","","","","","","","","","","","","","","",""
"","","","","","image-keyboard-response","172","542594","0.0-147.0","594d4f0aa186be000114ce1d","665500ab8938657b03fbdba8","6657791423c656a2f6ae177e","1136","stimuli/0010010.jpg","0","","prediction_trial","0","","true","","0","true","true","true","true","true","true","[0]","010","010","1","","","","","","",""
"","","","","","image-keyboard-response","173","543066","0.0-148.0","594d4f0aa186be000114ce1d","665500ab8938657b03fbdba8","6657791423c656a2f6ae177e","406","stimuli/00100100.jpg"," ","","feedback_trial","0","","","","","","","","","","","","","","","","","","","","",""
"","","","","","image-keyboard-response","174","544927","0.0-149.0","594d4f0aa186be000114ce1d","665500ab8938657b03fbdba8","6657791423c656a2f6ae177e","1812","stimuli/0110101.jpg","2","","prediction_trial","1","","false","","0","false","false","false","false","false","false","[1,0]","110","101","0","","","","","","",""
"","","","","","image-keyboard-response","175","546490","0.0-150.0","594d4f0aa186be000114ce1d","665500ab8938657b03fbdba8","6657791423c656a2f6ae177e","1510","stimuli/01101011.jpg"," ","","feedback_trial","1","","","","","","","","","","","","","","","","","","","","",""
"","","","","","image-keyboard-response","176","549094","0.0-151.0","594d4f0aa186be000114ce1d","665500ab8938657b03fbdba8","6657791423c656a2f6ae177e","2543","stimuli/0110010.jpg","1","","prediction_trial","0","","false","","0","true","true","false","false","false","false","[1,0]","110","010","0","","","","","","",""
"","","","","","image-keyboard-response","177","549788","0.0-152.0","594d4f0aa186be000114ce1d","665500ab8938657b03fbdba8","6657791423c656a2f6ae177e","627","stimuli/01100100.jpg"," ","","feedback_trial","1","","","","","","","","","","","","","","","","","","","","",""
"","","","","","image-keyboard-response","178","551302","0.0-153.0","594d4f0aa186be000114ce1d","665500ab8938657b03fbdba8","6657791423c656a2f6ae177e","1457","stimuli/0100100.jpg","0","","prediction_trial","0","","true","","0","false","true","false","true","false","true","[0]","100","100","1","","","","","","",""
"","","","","","image-keyboard-response","179","551768","0.0-154.0","594d4f0aa186be000114ce1d","665500ab8938657b03fbdba8","6657791423c656a2f6ae177e","397","stimuli/01001000.jpg"," ","","feedback_trial","0","","","","","","","","","","","","","","","","","","","","",""
"","","","","","image-keyboard-response","180","553847","0.0-155.0","594d4f0aa186be000114ce1d","665500ab8938657b03fbdba8","6657791423c656a2f6ae177e","2043","stimuli/0100010.jpg","0","","prediction_trial","0","","true","","0","true","true","false","true","false","true","[0]","100","010","1","","","","","","",""
"","","","","","image-keyboard-response","181","554874","0.0-156.0","594d4f0aa186be000114ce1d","665500ab8938657b03fbdba8","6657791423c656a2f6ae177e","993","stimuli/01000100.jpg"," ","","feedback_trial","0","","","","","","","","","","","","","","","","","","","","",""
"","","","","","image-keyboard-response","182","556096","0.0-157.0","594d4f0aa186be000114ce1d","665500ab8938657b03fbdba8","6657791423c656a2f6ae177e","1171","stimuli/2110110.jpg","2","","prediction_trial","2","","true","","2","true","true","true","true","true","true","[2]","110","110","1","","","","","","",""
"","","","","","image-keyboard-response","183","556621","0.0-158.0","594d4f0aa186be000114ce1d","665500ab8938657b03fbdba8","6657791423c656a2f6ae177e","468","stimuli/21101102.jpg"," ","","feedback_trial","2","","","","","","","","","","","","","","","","","","","","",""
"","","","","","image-keyboard-response","184","559328","0.0-159.0","594d4f0aa186be000114ce1d","665500ab8938657b03fbdba8","6657791423c656a2f6ae177e","2652","stimuli/0011101.jpg","1","","prediction_trial","0","","false","","0","false","false","true","true","false","false","[0]","011","101","0","","","","","","",""
"","","","","","image-keyboard-response","185","559972","0.0-160.0","594d4f0aa186be000114ce1d","665500ab8938657b03fbdba8","6657791423c656a2f6ae177e","594","stimuli/00111010.jpg"," ","","feedback_trial","0","","","","","","","","","","","","","","","","","","","","",""
"","","","","","image-keyboard-response","186","562584","0.0-161.0","594d4f0aa186be000114ce1d","665500ab8938657b03fbdba8","6657791423c656a2f6ae177e","2560","stimuli/2110011.jpg","0","","prediction_trial","2","","false","","2","false","false","true","true","false","false","[2]","110","011","0","","","","","","",""
"","","","","","image-keyboard-response","187","563265","0.0-162.0","594d4f0aa186be000114ce1d","665500ab8938657b03fbdba8","6657791423c656a2f6ae177e","618","stimuli/21100112.jpg"," ","","feedback_trial","2","","","","","","","","","","","","","","","","","","","","",""
"","","","","","image-keyboard-response","188","565232","0.0-163.0","594d4f0aa186be000114ce1d","665500ab8938657b03fbdba8","6657791423c656a2f6ae177e","1915","stimuli/1111000.jpg","0","","prediction_trial","0","","true","","1","true","true","false","false","false","false","[1,2,0]","111","000","1","","","","","","",""
"","","","","","image-keyboard-response","189","565985","0.0-164.0","594d4f0aa186be000114ce1d","665500ab8938657b03fbdba8","6657791423c656a2f6ae177e","702","stimuli/11110000.jpg"," ","","feedback_trial","1","","","","","","","","","","","","","","","","","","","","",""
"","","","","","image-keyboard-response","190","568077","0.0-165.0","594d4f0aa186be000114ce1d","665500ab8938657b03fbdba8","6657791423c656a2f6ae177e","2038","stimuli/1110101.jpg","1","","prediction_trial","1","","true","","1","true","true","false","false","false","false","[0,1]","110","101","1","","","","","","",""
"","","","","","image-keyboard-response","191","568848","0.0-166.0","594d4f0aa186be000114ce1d","665500ab8938657b03fbdba8","6657791423c656a2f6ae177e","699","stimuli/11101011.jpg"," ","","feedback_trial","0","","","","","","","","","","","","","","","","","","","","",""
"","","","","","image-keyboard-response","192","571308","0.0-167.0","594d4f0aa186be000114ce1d","665500ab8938657b03fbdba8","6657791423c656a2f6ae177e","2422","stimuli/0111101.jpg","0","","prediction_trial","0","","true","","0","false","false","false","false","false","false","[0,2,1]","111","101","1","","","","","","",""
"","","","","","image-keyboard-response","193","572028","0.0-168.0","594d4f0aa186be000114ce1d","665500ab8938657b03fbdba8","6657791423c656a2f6ae177e","675","stimuli/01111010.jpg"," ","","feedback_trial","0","","","","","","","","","","","","","","","","","","","","",""
"","","","","","image-keyboard-response","194","573962","0.0-169.0","594d4f0aa186be000114ce1d","665500ab8938657b03fbdba8","6657791423c656a2f6ae177e","1883","stimuli/1110000.jpg","1","","prediction_trial","0","","false","","1","true","true","false","false","false","false","[0,1]","110","000","0","","","","","","",""
"","","","","","image-keyboard-response","195","575019","0.0-170.0","594d4f0aa186be000114ce1d","665500ab8938657b03fbdba8","6657791423c656a2f6ae177e","1005","stimuli/11100000.jpg"," ","","feedback_trial","0","","","","","","","","","","","","","","","","","","","","",""
"","","","","","image-keyboard-response","196","577352","0.0-171.0","594d4f0aa186be000114ce1d","665500ab8938657b03fbdba8","6657791423c656a2f6ae177e","2286","stimuli/2011111.jpg","1","","prediction_trial","2","","false","","2","false","false","false","false","false","false","[1,2]","011","111","0","","","","","","",""
"","","","","","image-keyboard-response","197","578026","0.0-172.0","594d4f0aa186be000114ce1d","665500ab8938657b03fbdba8","6657791423c656a2f6ae177e","626","stimuli/20111112.jpg"," ","","feedback_trial","1","","","","","","","","","","","","","","","","","","","","",""
"","","","","","image-keyboard-response","198","579529","0.0-173.0","594d4f0aa186be000114ce1d","665500ab8938657b03fbdba8","6657791423c656a2f6ae177e","1455","stimuli/2010100.jpg","2","","prediction_trial","2","","true","","2","true","true","true","true","true","true","[2]","010","100","1","","","","","","",""
"","","","","","image-keyboard-response","199","580610","0.0-174.0","594d4f0aa186be000114ce1d","665500ab8938657b03fbdba8","6657791423c656a2f6ae177e","1026","stimuli/20101002.jpg"," ","","feedback_trial","2","","","","","","","","","","","","","","","","","","","","",""
"","","","","","image-keyboard-response","200","583683","0.0-175.0","594d4f0aa186be000114ce1d","665500ab8938657b03fbdba8","6657791423c656a2f6ae177e","3019","stimuli/2100101.jpg","0","","prediction_trial","2","","false","","2","false","false","true","true","false","false","[2]","100","101","0","","","","","","",""
"","","","","","image-keyboard-response","201","584513","0.0-176.0","594d4f0aa186be000114ce1d","665500ab8938657b03fbdba8","6657791423c656a2f6ae177e","780","stimuli/21001012.jpg"," ","","feedback_trial","2","","","","","","","","","","","","","","","","","","","","",""
"","","","","","image-keyboard-response","202","587179","0.0-177.0","594d4f0aa186be000114ce1d","665500ab8938657b03fbdba8","6657791423c656a2f6ae177e","2613","stimuli/2010001.jpg","2","","prediction_trial","2","","true","","2","false","true","true","true","false","true","[2]","010","001","1","","","","","","",""
"","","","","","image-keyboard-response","203","587754","0.0-178.0","594d4f0aa186be000114ce1d","665500ab8938657b03fbdba8","6657791423c656a2f6ae177e","529","stimuli/20100012.jpg"," ","","feedback_trial","2","","","","","","","","","","","","","","","","","","","","",""
"","","","","","image-keyboard-response","204","588914","0.0-179.0","594d4f0aa186be000114ce1d","665500ab8938657b03fbdba8","6657791423c656a2f6ae177e","1087","stimuli/0001000.jpg","0","","prediction_trial","0","","true","","0","true","true","true","true","true","true","[0]","001","000","1","","","","","","",""
"","","","","","image-keyboard-response","205","589989","0.0-180.0","594d4f0aa186be000114ce1d","665500ab8938657b03fbdba8","6657791423c656a2f6ae177e","985","stimuli/00010000.jpg"," ","","feedback_trial","0","","","","","","","","","","","","","","","","","","","","",""
"","","","","","image-keyboard-response","206","592860","0.0-181.0","594d4f0aa186be000114ce1d","665500ab8938657b03fbdba8","6657791423c656a2f6ae177e","2811","stimuli/1011110.jpg","0","","prediction_trial","1","","false","","1","false","false","false","false","false","false","[1,2]","011","110","0","","","","","","",""
"","","","","","image-keyboard-response","207","594107","0.0-182.0","594d4f0aa186be000114ce1d","665500ab8938657b03fbdba8","6657791423c656a2f6ae177e","1206","stimuli/10111101.jpg"," ","","feedback_trial","1","","","","","","","","","","","","","","","","","","","","",""
"","","","","","image-keyboard-response","208","595057","0.0-183.0","594d4f0aa186be000114ce1d","665500ab8938657b03fbdba8","6657791423c656a2f6ae177e","893","stimuli/0001010.jpg","0","","prediction_trial","0","","true","","0","true","true","true","true","true","true","[0]","001","010","1","","","","","","",""
"","","","","","image-keyboard-response","209","595865","0.0-184.0","594d4f0aa186be000114ce1d","665500ab8938657b03fbdba8","6657791423c656a2f6ae177e","752","stimuli/00010100.jpg"," ","","feedback_trial","0","","","","","","","","","","","","","","","","","","","","",""
"","","","","","image-keyboard-response","210","597380","0.0-185.0","594d4f0aa186be000114ce1d","665500ab8938657b03fbdba8","6657791423c656a2f6ae177e","1452","stimuli/2001111.jpg","1","","prediction_trial","2","","false","","2","false","false","false","true","false","false","[2]","001","111","0","","","","","","",""
"","","","","","image-keyboard-response","211","598072","0.0-186.0","594d4f0aa186be000114ce1d","665500ab8938657b03fbdba8","6657791423c656a2f6ae177e","648","stimuli/20011112.jpg"," ","","feedback_trial","2","","","","","","","","","","","","","","","","","","","","",""
"","","","","","image-keyboard-response","212","599086","0.0-187.0","594d4f0aa186be000114ce1d","665500ab8938657b03fbdba8","6657791423c656a2f6ae177e","978","stimuli/0010000.jpg","0","","prediction_trial","0","","true","","0","true","true","true","true","true","true","[0]","010","000","1","","","","","","",""
"","","","","","image-keyboard-response","213","599810","0.0-188.0","594d4f0aa186be000114ce1d","665500ab8938657b03fbdba8","6657791423c656a2f6ae177e","691","stimuli/00100000.jpg"," ","","feedback_trial","0","","","","","","","","","","","","","","","","","","","","",""
"","","","","","image-keyboard-response","214","604104","0.0-189.0","594d4f0aa186be000114ce1d","665500ab8938657b03fbdba8","6657791423c656a2f6ae177e","4240","stimuli/1001010.jpg","1","","prediction_trial","1","","true","","1","false","true","true","true","false","true","[1]","001","010","1","","","","","","",""
"","","","","","image-keyboard-response","215","604826","0.0-190.0","594d4f0aa186be000114ce1d","665500ab8938657b03fbdba8","6657791423c656a2f6ae177e","661","stimuli/10010101.jpg"," ","","feedback_trial","1","","","","","","","","","","","","","","","","","","","","",""
"","","","","","image-keyboard-response","216","606625","0.0-191.0","594d4f0aa186be000114ce1d","665500ab8938657b03fbdba8","6657791423c656a2f6ae177e","1748","stimuli/1111011.jpg","0","","prediction_trial","2","","false","","1","false","false","false","false","false","false","[1,2,0]","111","011","0","","","","","","",""
"","","","","","image-keyboard-response","217","607322","0.0-192.0","594d4f0aa186be000114ce1d","665500ab8938657b03fbdba8","6657791423c656a2f6ae177e","647","stimuli/11110112.jpg"," ","","feedback_trial","1","","","","","","","","","","","","","","","","","","","","",""
"","","","","","image-keyboard-response","218","608294","0.0-193.0","594d4f0aa186be000114ce1d","665500ab8938657b03fbdba8","6657791423c656a2f6ae177e","916","stimuli/1101101.jpg","1","","prediction_trial","1","","true","","1","true","true","true","true","true","true","[1]","101","101","1","","","","","","",""
"","","","","","image-keyboard-response","219","609287","0.0-194.0","594d4f0aa186be000114ce1d","665500ab8938657b03fbdba8","6657791423c656a2f6ae177e","921","stimuli/11011011.jpg"," ","","feedback_trial","1","","","","","","","","","","","","","","","","","","","","",""
"","","","","","image-keyboard-response","220","610388","0.0-195.0","594d4f0aa186be000114ce1d","665500ab8938657b03fbdba8","6657791423c656a2f6ae177e","1048","stimuli/1100000.jpg","1","","prediction_trial","1","","true","","1","true","true","true","true","true","true","[1]","100","000","1","","","","","","",""
"","","","","","image-keyboard-response","221","611336","0.0-196.0","594d4f0aa186be000114ce1d","665500ab8938657b03fbdba8","6657791423c656a2f6ae177e","883","stimuli/11000001.jpg"," ","","feedback_trial","1","","","","","","","","","","","","","","","","","","","","",""
"","","","","","image-keyboard-response","222","614323","0.0-197.0","594d4f0aa186be000114ce1d","665500ab8938657b03fbdba8","6657791423c656a2f6ae177e","2925","stimuli/2010011.jpg","2","","prediction_trial","2","","true","","2","false","false","true","true","false","false","[2]","010","011","1","","","","","","",""
"","","","","","image-keyboard-response","223","615167","0.0-198.0","594d4f0aa186be000114ce1d","665500ab8938657b03fbdba8","6657791423c656a2f6ae177e","773","stimuli/20100112.jpg"," ","","feedback_trial","2","","","","","","","","","","","","","","","","","","","","",""
"","","","","","image-keyboard-response","224","618195","0.0-199.0","594d4f0aa186be000114ce1d","665500ab8938657b03fbdba8","6657791423c656a2f6ae177e","2971","stimuli/0111001.jpg","0","","prediction_trial","1","","false","","0","true","true","false","false","false","false","[2,1,0]","111","001","0","","","","","","",""
"","","","","","image-keyboard-response","225","618939","0.0-200.0","594d4f0aa186be000114ce1d","665500ab8938657b03fbdba8","6657791423c656a2f6ae177e","685","stimuli/01110011.jpg"," ","","feedback_trial","2","","","","","","","","","","","","","","","","","","","","",""
"","","","","","image-keyboard-response","226","621795","0.0-201.0","594d4f0aa186be000114ce1d","665500ab8938657b03fbdba8","6657791423c656a2f6ae177e","2823","stimuli/1011010.jpg","1","","prediction_trial","2","","false","","1","false","true","false","false","false","false","[1,2]","011","010","0","","","","","","",""
"","","","","","image-keyboard-response","227","622351","0.0-202.0","594d4f0aa186be000114ce1d","665500ab8938657b03fbdba8","6657791423c656a2f6ae177e","506","stimuli/10110102.jpg"," ","","feedback_trial","1","","","","","","","","","","","","","","","","","","","","",""
"","","","","","image-keyboard-response","228","624935","0.0-203.0","594d4f0aa186be000114ce1d","665500ab8938657b03fbdba8","6657791423c656a2f6ae177e","2560","stimuli/1010001.jpg","0","","prediction_trial","1","","false","","1","true","true","false","true","false","true","[1]","010","001","0","","","","","","",""
"","","","","","image-keyboard-response","229","626449","0.0-204.0","594d4f0aa186be000114ce1d","665500ab8938657b03fbdba8","6657791423c656a2f6ae177e","1461","stimuli/10100011.jpg"," ","","feedback_trial","1","","","","","","","","","","","","","","","","","","","","",""
"","","","","","image-keyboard-response","230","629426","0.0-205.0","594d4f0aa186be000114ce1d","665500ab8938657b03fbdba8","6657791423c656a2f6ae177e","2947","stimuli/1000110.jpg","1","","prediction_trial","1","","true","","1","false","false","true","true","false","false","[1]","000","110","1","","","","","","",""
"","","","","","image-keyboard-response","231","630170","0.0-206.0","594d4f0aa186be000114ce1d","665500ab8938657b03fbdba8","6657791423c656a2f6ae177e","707","stimuli/10001101.jpg"," ","","feedback_trial","1","","","","","","","","","","","","","","","","","","","","",""
"","","","","","image-keyboard-response","232","631337","0.0-207.0","594d4f0aa186be000114ce1d","665500ab8938657b03fbdba8","6657791423c656a2f6ae177e","1138","stimuli/1000100.jpg","1","","prediction_trial","1","","true","","1","true","true","true","true","true","true","[1]","000","100","1","","","","","","",""
"","","","","","image-keyboard-response","233","632059","0.0-208.0","594d4f0aa186be000114ce1d","665500ab8938657b03fbdba8","6657791423c656a2f6ae177e","659","stimuli/10001001.jpg"," ","","feedback_trial","1","","","","","","","","","","","","","","","","","","","","",""
"","","","","","image-keyboard-response","234","634658","0.0-209.0","594d4f0aa186be000114ce1d","665500ab8938657b03fbdba8","6657791423c656a2f6ae177e","2542","stimuli/0111010.jpg","2","","prediction_trial","2","","true","","0","true","true","false","false","false","false","[2,0,1]","111","010","1","","","","","","",""
"","","","","","image-keyboard-response","235","635846","0.0-210.0","594d4f0aa186be000114ce1d","665500ab8938657b03fbdba8","6657791423c656a2f6ae177e","1123","stimuli/01110102.jpg"," ","","feedback_trial","2","","","","","","","","","","","","","","","","","","","","",""
"","","","","","image-keyboard-response","236","639189","0.0-211.0","594d4f0aa186be000114ce1d","665500ab8938657b03fbdba8","6657791423c656a2f6ae177e","3292","stimuli/1101010.jpg","1","","prediction_trial","1","","true","","1","false","true","true","true","false","true","[1]","101","010","1","","","","","","",""
"","","","","","image-keyboard-response","237","640096","0.0-212.0","594d4f0aa186be000114ce1d","665500ab8938657b03fbdba8","6657791423c656a2f6ae177e","847","stimuli/11010101.jpg"," ","","feedback_trial","1","","","","","","","","","","","","","","","","","","","","",""
"","","","","","image-keyboard-response","238","641393","0.0-213.0","594d4f0aa186be000114ce1d","665500ab8938657b03fbdba8","6657791423c656a2f6ae177e","1245","stimuli/1100001.jpg","1","","prediction_trial","1","","true","","1","true","true","true","true","true","true","[1]","100","001","1","","","","","","",""
"","","","","","image-keyboard-response","239","642624","0.0-214.0","594d4f0aa186be000114ce1d","665500ab8938657b03fbdba8","6657791423c656a2f6ae177e","1202","stimuli/11000011.jpg"," ","","feedback_trial","1","","","","","","","","","","","","","","","","","","","","",""
"","","","","","image-keyboard-response","240","643732","0.0-215.0","594d4f0aa186be000114ce1d","665500ab8938657b03fbdba8","6657791423c656a2f6ae177e","1057","stimuli/0000001.jpg","0","","prediction_trial","0","","true","","0","true","true","true","true","true","true","[0]","000","001","1","","","","","","",""
"","","","","","image-keyboard-response","241","644375","0.0-216.0","594d4f0aa186be000114ce1d","665500ab8938657b03fbdba8","6657791423c656a2f6ae177e","593","stimuli/00000010.jpg"," ","","feedback_trial","0","","","","","","","","","","","","","","","","","","","","",""
"","","","","","image-keyboard-response","242","645423","0.0-217.0","594d4f0aa186be000114ce1d","665500ab8938657b03fbdba8","6657791423c656a2f6ae177e","981","stimuli/1101001.jpg","1","","prediction_trial","1","","true","","1","true","true","true","true","true","true","[1]","101","001","1","","","","","","",""
"","","","","","image-keyboard-response","243","646051","0.0-218.0","594d4f0aa186be000114ce1d","665500ab8938657b03fbdba8","6657791423c656a2f6ae177e","562","stimuli/11010011.jpg"," ","","feedback_trial","1","","","","","","","","","","","","","","","","","","","","",""
"","","","","","image-keyboard-response","244","647124","0.0-219.0","594d4f0aa186be000114ce1d","665500ab8938657b03fbdba8","6657791423c656a2f6ae177e","1022","stimuli/0000000.jpg","0","","prediction_trial","0","","true","","0","true","true","true","true","true","true","[0]","000","000","1","","","","","","",""
"","","","","","image-keyboard-response","245","647992","0.0-220.0","594d4f0aa186be000114ce1d","665500ab8938657b03fbdba8","6657791423c656a2f6ae177e","819","stimuli/00000000.jpg"," ","","feedback_trial","0","","","","","","","","","","","","","","","","","","","","",""
"","","","","","image-keyboard-response","246","651632","0.0-221.0","594d4f0aa186be000114ce1d","665500ab8938657b03fbdba8","6657791423c656a2f6ae177e","3583","stimuli/2011101.jpg","0","","prediction_trial","2","","false","","2","false","false","false","false","false","false","[1,2]","011","101","0","","","","","","",""
"","","","","","image-keyboard-response","247","652481","0.0-222.0","594d4f0aa186be000114ce1d","665500ab8938657b03fbdba8","6657791423c656a2f6ae177e","783","stimuli/20111012.jpg"," ","","feedback_trial","1","","","","","","","","","","","","","","","","","","","","",""
"","","","","","image-keyboard-response","248","654484","0.0-223.0","594d4f0aa186be000114ce1d","665500ab8938657b03fbdba8","6657791423c656a2f6ae177e","1909","stimuli/2100110.jpg","2","","prediction_trial","2","","true","","2","true","true","true","true","true","true","[2]","100","110","1","","","","","","",""
"","","","","","image-keyboard-response","249","655118","0.0-224.0","594d4f0aa186be000114ce1d","665500ab8938657b03fbdba8","6657791423c656a2f6ae177e","581","stimuli/21001102.jpg"," ","","feedback_trial","2","","","","","","","","","","","","","","","","","","","","",""
"","","","","","image-keyboard-response","250","658175","0.0-225.0","594d4f0aa186be000114ce1d","665500ab8938657b03fbdba8","6657791423c656a2f6ae177e","2998","stimuli/2001010.jpg","1","","prediction_trial","2","","false","","2","true","true","false","true","false","true","[2]","001","010","0","","","","","","",""
"","","","","","image-keyboard-response","251","658834","0.0-226.0","594d4f0aa186be000114ce1d","665500ab8938657b03fbdba8","6657791423c656a2f6ae177e","604","stimuli/20010102.jpg"," ","","feedback_trial","2","","","","","","","","","","","","","","","","","","","","",""
"","","","","","image-keyboard-response","252","660978","0.0-227.0","594d4f0aa186be000114ce1d","665500ab8938657b03fbdba8","6657791423c656a2f6ae177e","2084","stimuli/1011011.jpg","1","","prediction_trial","1","","true","","1","false","false","false","false","false","false","[2,1]","011","011","1","","","","","","",""
"","","","","","image-keyboard-response","253","661795","0.0-228.0","594d4f0aa186be000114ce1d","665500ab8938657b03fbdba8","6657791423c656a2f6ae177e","789","stimuli/10110111.jpg"," ","","feedback_trial","2","","","","","","","","","","","","","","","","","","","","",""
"","","","","","image-keyboard-response","254","663179","0.0-229.0","594d4f0aa186be000114ce1d","665500ab8938657b03fbdba8","6657791423c656a2f6ae177e","1355","stimuli/0001011.jpg","0","","prediction_trial","0","","true","","0","true","true","true","true","true","true","[0]","001","011","1","","","","","","",""
"","","","","","image-keyboard-response","255","664356","0.0-230.0","594d4f0aa186be000114ce1d","665500ab8938657b03fbdba8","6657791423c656a2f6ae177e","1129","stimuli/00010110.jpg"," ","","feedback_trial","0","","","","","","","","","","","","","","","","","","","","",""
"","","","","","image-keyboard-response","256","667267","0.0-231.0","594d4f0aa186be000114ce1d","665500ab8938657b03fbdba8","6657791423c656a2f6ae177e","2851","stimuli/1110001.jpg","0","","prediction_trial","0","","true","","1","true","true","false","false","false","false","[0,1]","110","001","1","","","","","","",""
"","","","","","image-keyboard-response","257","668156","0.0-232.0","594d4f0aa186be000114ce1d","665500ab8938657b03fbdba8","6657791423c656a2f6ae177e","852","stimuli/11100010.jpg"," ","","feedback_trial","0","","","","","","","","","","","","","","","","","","","","",""
"","","","","","image-keyboard-response","258","670821","0.0-233.0","594d4f0aa186be000114ce1d","665500ab8938657b03fbdba8","6657791423c656a2f6ae177e","2613","stimuli/0110001.jpg","1","","prediction_trial","1","","true","","0","true","true","false","false","false","false","[0,1]","110","001","1","","","","","","",""
"","","","","","image-keyboard-response","259","671598","0.0-234.0","594d4f0aa186be000114ce1d","665500ab8938657b03fbdba8","6657791423c656a2f6ae177e","733","stimuli/01100011.jpg"," ","","feedback_trial","0","","","","","","","","","","","","","","","","","","","","",""
"","","","","","image-keyboard-response","260","673099","0.0-235.0","594d4f0aa186be000114ce1d","665500ab8938657b03fbdba8","6657791423c656a2f6ae177e","1443","stimuli/2000111.jpg","2","","prediction_trial","2","","true","","2","false","false","true","true","false","false","[2]","000","111","1","","","","","","",""
"","","","","","image-keyboard-response","261","673867","0.0-236.0","594d4f0aa186be000114ce1d","665500ab8938657b03fbdba8","6657791423c656a2f6ae177e","699","stimuli/20001112.jpg"," ","","feedback_trial","2","","","","","","","","","","","","","","","","","","","","",""
"","","","","","image-keyboard-response","262","677103","0.0-237.0","594d4f0aa186be000114ce1d","665500ab8938657b03fbdba8","6657791423c656a2f6ae177e","3197","stimuli/2011100.jpg","2","","prediction_trial","2","","true","","2","true","true","false","false","false","false","[2,1]","011","100","1","","","","","","",""
"","","","","","image-keyboard-response","263","678319","0.0-238.0","594d4f0aa186be000114ce1d","665500ab8938657b03fbdba8","6657791423c656a2f6ae177e","1177","stimuli/20111002.jpg"," ","","feedback_trial","2","","","","","","","","","","","","","","","","","","","","",""
"","","","","","image-keyboard-response","264","679314","0.0-239.0","594d4f0aa186be000114ce1d","665500ab8938657b03fbdba8","6657791423c656a2f6ae177e","944","stimuli/0011001.jpg","0","","prediction_trial","0","","true","","0","true","true","true","true","true","true","[0]","011","001","1","","","","","","",""
"","","","","","image-keyboard-response","265","679768","0.0-240.0","594d4f0aa186be000114ce1d","665500ab8938657b03fbdba8","6657791423c656a2f6ae177e","434","stimuli/00110010.jpg"," ","","feedback_trial","0","","","","","","","","","","","","","","","","","","","","",""
"","","","","","image-keyboard-response","266","682085","0.0-241.0","594d4f0aa186be000114ce1d","665500ab8938657b03fbdba8","6657791423c656a2f6ae177e","2305","stimuli/1001000.jpg","1","","prediction_trial","1","","true","","1","true","true","true","true","true","true","[1]","001","000","1","","","","","","",""
"","","","","","image-keyboard-response","267","682538","0.0-242.0","594d4f0aa186be000114ce1d","665500ab8938657b03fbdba8","6657791423c656a2f6ae177e","400","stimuli/10010001.jpg"," ","","feedback_trial","1","","","","","","","","","","","","","","","","","","","","",""
"","","","","","image-keyboard-response","268","683659","0.0-243.0","594d4f0aa186be000114ce1d","665500ab8938657b03fbdba8","6657791423c656a2f6ae177e","1004","stimuli/1000101.jpg","1","","prediction_trial","1","","true","","1","true","true","true","true","true","true","[1]","000","101","1","","","","","","",""
"","","","","","image-keyboard-response","269","684089","0.0-244.0","594d4f0aa186be000114ce1d","665500ab8938657b03fbdba8","6657791423c656a2f6ae177e","399","stimuli/10001011.jpg"," ","","feedback_trial","1","","","","","","","","","","","","","","","","","","","","",""
"","","","","","image-keyboard-response","270","685158","0.0-245.0","594d4f0aa186be000114ce1d","665500ab8938657b03fbdba8","6657791423c656a2f6ae177e","1022","stimuli/2010110.jpg","2","","prediction_trial","2","","true","","2","true","true","true","true","true","true","[2]","010","110","1","","","","","","",""
"","","","","","image-keyboard-response","271","686332","0.0-246.0","594d4f0aa186be000114ce1d","665500ab8938657b03fbdba8","6657791423c656a2f6ae177e","1121","stimuli/20101102.jpg"," ","","feedback_trial","2","","","","","","","","","","","","","","","","","","","","",""
"","","","","","image-keyboard-response","272","691262","0.0-247.0","594d4f0aa186be000114ce1d","665500ab8938657b03fbdba8","6657791423c656a2f6ae177e","4878","stimuli/2101010.jpg","2","","prediction_trial","2","","true","","2","true","true","false","false","false","false","[2,0]","101","010","1","","","","","","",""
"","","","","","image-keyboard-response","273","692020","0.0-248.0","594d4f0aa186be000114ce1d","665500ab8938657b03fbdba8","6657791423c656a2f6ae177e","703","stimuli/21010102.jpg"," ","","feedback_trial","2","","","","","","","","","","","","","","","","","","","","",""
"","","","","","image-keyboard-response","274","696489","0.0-249.0","594d4f0aa186be000114ce1d","665500ab8938657b03fbdba8","6657791423c656a2f6ae177e","4426","stimuli/0101011.jpg","2","","prediction_trial","0","","false","","0","true","true","false","false","false","false","[2,0]","101","011","0","","","","","","",""
"","","","","","image-keyboard-response","275","697131","0.0-250.0","594d4f0aa186be000114ce1d","665500ab8938657b03fbdba8","6657791423c656a2f6ae177e","594","stimuli/01010110.jpg"," ","","feedback_trial","2","","","","","","","","","","","","","","","","","","","","",""
"","","","","","image-keyboard-response","276","698238","0.0-251.0","594d4f0aa186be000114ce1d","665500ab8938657b03fbdba8","6657791423c656a2f6ae177e","1072","stimuli/1001001.jpg","1","","prediction_trial","1","","true","","1","true","true","true","true","true","true","[1]","001","001","1","","","","","","",""
"","","","","","image-keyboard-response","277","698862","0.0-252.0","594d4f0aa186be000114ce1d","665500ab8938657b03fbdba8","6657791423c656a2f6ae177e","574","stimuli/10010011.jpg"," ","","feedback_trial","1","","","","","","","","","","","","","","","","","","","","",""
"","","","","","image-keyboard-response","278","701637","0.0-253.0","594d4f0aa186be000114ce1d","665500ab8938657b03fbdba8","6657791423c656a2f6ae177e","2720","stimuli/0010111.jpg","0","","prediction_trial","0","","true","","0","false","false","true","true","false","false","[0]","010","111","1","","","","","","",""
"","","","","","image-keyboard-response","279","702522","0.0-254.0","594d4f0aa186be000114ce1d","665500ab8938657b03fbdba8","6657791423c656a2f6ae177e","826","stimuli/00101110.jpg"," ","","feedback_trial","0","","","","","","","","","","","","","","","","","","","","",""
"","","","","","image-keyboard-response","280","704951","0.0-255.0","594d4f0aa186be000114ce1d","665500ab8938657b03fbdba8","6657791423c656a2f6ae177e","2379","stimuli/1110110.jpg","1","","prediction_trial","0","","false","","1","false","false","false","false","false","false","[1,0]","110","110","0","","","","","","",""
"","","","","","image-keyboard-response","281","705671","0.0-256.0","594d4f0aa186be000114ce1d","665500ab8938657b03fbdba8","6657791423c656a2f6ae177e","675","stimuli/11101100.jpg"," ","","feedback_trial","1","","","","","","","","","","","","","","","","","","","","",""
"","","","","","image-keyboard-response","282","709394","0.0-257.0","594d4f0aa186be000114ce1d","665500ab8938657b03fbdba8","6657791423c656a2f6ae177e","3674","stimuli/1010100.jpg","1","","prediction_trial","1","","true","","1","true","true","false","true","false","true","[1]","010","100","1","","","","","","",""
"","","","","","image-keyboard-response","283","710052","0.0-258.0","594d4f0aa186be000114ce1d","665500ab8938657b03fbdba8","6657791423c656a2f6ae177e","640","stimuli/10101001.jpg"," ","","feedback_trial","1","","","","","","","","","","","","","","","","","","","","",""
"","","","","","image-keyboard-response","284","712886","0.0-259.0","594d4f0aa186be000114ce1d","665500ab8938657b03fbdba8","6657791423c656a2f6ae177e","2784","stimuli/2101110.jpg","2","","prediction_trial","0","","false","","2","true","true","false","false","false","false","[0,2]","101","110","0","","","","","","",""
"","","","","","image-keyboard-response","285","713690","0.0-260.0","594d4f0aa186be000114ce1d","665500ab8938657b03fbdba8","6657791423c656a2f6ae177e","730","stimuli/21011100.jpg"," ","","feedback_trial","0","","","","","","","","","","","","","","","","","","","","",""
"","","","","","image-keyboard-response","286","716574","0.0-261.0","594d4f0aa186be000114ce1d","665500ab8938657b03fbdba8","6657791423c656a2f6ae177e","2864","stimuli/1101011.jpg","2","","prediction_trial","1","","false","","1","false","false","true","true","false","false","[1]","101","011","0","","","","","","",""
"","","","","","image-keyboard-response","287","717366","0.0-262.0","594d4f0aa186be000114ce1d","665500ab8938657b03fbdba8","6657791423c656a2f6ae177e","739","stimuli/11010111.jpg"," ","","feedback_trial","1","","","","","","","","","","","","","","","","","","","","",""
"","","","","","image-keyboard-response","288","720546","0.0-263.0","594d4f0aa186be000114ce1d","665500ab8938657b03fbdba8","6657791423c656a2f6ae177e","3128","stimuli/0110111.jpg","2","","prediction_trial","1","","false","","0","false","false","false","false","false","false","[0,1]","110","111","0","","","","","","",""
"","","","","","image-keyboard-response","289","721241","0.0-264.0","594d4f0aa186be000114ce1d","665500ab8938657b03fbdba8","6657791423c656a2f6ae177e","633","stimuli/01101111.jpg"," ","","feedback_trial","0","","","","","","","","","","","","","","","","","","","","",""
"","","","","","image-keyboard-response","290","722269","0.0-265.0","594d4f0aa186be000114ce1d","665500ab8938657b03fbdba8","6657791423c656a2f6ae177e","971","stimuli/2110100.jpg","2","","prediction_trial","2","","true","","2","true","true","true","true","true","true","[2]","110","100","1","","","","","","",""
"","","","","","image-keyboard-response","291","722900","0.0-266.0","594d4f0aa186be000114ce1d","665500ab8938657b03fbdba8","6657791423c656a2f6ae177e","600","stimuli/21101002.jpg"," ","","feedback_trial","2","","","","","","","","","","","","","","","","","","","","",""
"","","","","","image-keyboard-response","292","725864","0.0-267.0","594d4f0aa186be000114ce1d","665500ab8938657b03fbdba8","6657791423c656a2f6ae177e","2936","stimuli/2001100.jpg","2","","prediction_trial","2","","true","","2","true","true","false","true","false","true","[2]","001","100","1","","","","","","",""
"","","","","","image-keyboard-response","293","726743","0.0-268.0","594d4f0aa186be000114ce1d","665500ab8938657b03fbdba8","6657791423c656a2f6ae177e","824","stimuli/20011002.jpg"," ","","feedback_trial","2","","","","","","","","","","","","","","","","","","","","",""
"","","","","","image-keyboard-response","294","729518","0.0-269.0","594d4f0aa186be000114ce1d","665500ab8938657b03fbdba8","6657791423c656a2f6ae177e","2746","stimuli/0101001.jpg","0","","prediction_trial","2","","false","","0","true","true","false","false","false","false","[0,2]","101","001","0","","","","","","",""
"","","","","","image-keyboard-response","295","730212","0.0-270.0","594d4f0aa186be000114ce1d","665500ab8938657b03fbdba8","6657791423c656a2f6ae177e","644","stimuli/01010012.jpg"," ","","feedback_trial","0","","","","","","","","","","","","","","","","","","","","",""
"","","","","","image-keyboard-response","296","736735","0.0-271.0","594d4f0aa186be000114ce1d","665500ab8938657b03fbdba8","6657791423c656a2f6ae177e","6486","stimuli/0010110.jpg","1","","prediction_trial","0","","false","","0","false","false","true","true","false","false","[0]","010","110","0","","","","","","",""
"","","","","","image-keyboard-response","297","737720","0.0-272.0","594d4f0aa186be000114ce1d","665500ab8938657b03fbdba8","6657791423c656a2f6ae177e","920","stimuli/00101100.jpg"," ","","feedback_trial","0","","","","","","","","","","","","","","","","","","","","",""
"","","","","","image-keyboard-response","298","741153","0.0-273.0","594d4f0aa186be000114ce1d","665500ab8938657b03fbdba8","6657791423c656a2f6ae177e","3375","stimuli/0110100.jpg","1","","prediction_trial","0","","false","","0","false","true","false","false","false","false","[1,0]","110","100","0","","","","","","",""
"","","","","","image-keyboard-response","299","741848","0.0-274.0","594d4f0aa186be000114ce1d","665500ab8938657b03fbdba8","6657791423c656a2f6ae177e","636","stimuli/01101000.jpg"," ","","feedback_trial","1","","","","","","","","","","","","","","","","","","","","",""
"","","","","","image-keyboard-response","300","742852","0.0-275.0","594d4f0aa186be000114ce1d","665500ab8938657b03fbdba8","6657791423c656a2f6ae177e","954","stimuli/2000100.jpg","2","","prediction_trial","2","","true","","2","true","true","true","true","true","true","[2]","000","100","1","","","","","","",""
"","","","","","image-keyboard-response","301","743515","0.0-276.0","594d4f0aa186be000114ce1d","665500ab8938657b03fbdba8","6657791423c656a2f6ae177e","630","stimuli/20001002.jpg"," ","","feedback_trial","2","","","","","","","","","","","","","","","","","","","","",""
"","","","","","image-keyboard-response","302","745504","0.0-277.0","594d4f0aa186be000114ce1d","665500ab8938657b03fbdba8","6657791423c656a2f6ae177e","1935","stimuli/1110011.jpg","0","","prediction_trial","0","","true","","1","false","false","false","false","false","false","[1,0]","110","011","1","","","","","","",""
"","","","","","image-keyboard-response","303","748159","0.0-278.0","594d4f0aa186be000114ce1d","665500ab8938657b03fbdba8","6657791423c656a2f6ae177e","2605","stimuli/11100110.jpg"," ","","feedback_trial","1","","","","","","","","","","","","","","","","","","","","",""
"","","","","","image-keyboard-response","304","749012","0.0-279.0","594d4f0aa186be000114ce1d","665500ab8938657b03fbdba8","6657791423c656a2f6ae177e","812","stimuli/2100000.jpg","2","","prediction_trial","2","","true","","2","true","true","true","true","true","true","[2]","100","000","1","","","","","","",""
"","","","","","image-keyboard-response","305","749557","0.0-280.0","594d4f0aa186be000114ce1d","665500ab8938657b03fbdba8","6657791423c656a2f6ae177e","476","stimuli/21000002.jpg"," ","","feedback_trial","2","","","","","","","","","","","","","","","","","","","","",""
"","","","","","image-keyboard-response","306","751671","0.0-281.0","594d4f0aa186be000114ce1d","665500ab8938657b03fbdba8","6657791423c656a2f6ae177e","2085","stimuli/2101100.jpg","2","","prediction_trial","2","","true","","2","true","true","false","false","false","false","[0,2]","101","100","1","","","","","","",""
"","","","","","image-keyboard-response","307","752697","0.0-282.0","594d4f0aa186be000114ce1d","665500ab8938657b03fbdba8","6657791423c656a2f6ae177e","970","stimuli/21011002.jpg"," ","","feedback_trial","0","","","","","","","","","","","","","","","","","","","","",""
"","","","","","image-keyboard-response","308","758032","0.0-283.0","594d4f0aa186be000114ce1d","665500ab8938657b03fbdba8","6657791423c656a2f6ae177e","5309","stimuli/2100001.jpg","2","","prediction_trial","2","","true","","2","false","true","true","true","false","true","[2]","100","001","1","","","","","","",""
"","","","","","image-keyboard-response","309","758837","0.0-284.0","594d4f0aa186be000114ce1d","665500ab8938657b03fbdba8","6657791423c656a2f6ae177e","752","stimuli/21000012.jpg"," ","","feedback_trial","2","","","","","","","","","","","","","","","","","","","","",""
"","","","","","image-keyboard-response","310","760201","0.0-285.0","594d4f0aa186be000114ce1d","665500ab8938657b03fbdba8","6657791423c656a2f6ae177e","1323","stimuli/0011010.jpg","0","","prediction_trial","0","","true","","0","true","true","true","true","true","true","[0]","011","010","1","","","","","","",""
"","","","","","image-keyboard-response","311","760914","0.0-286.0","594d4f0aa186be000114ce1d","665500ab8938657b03fbdba8","6657791423c656a2f6ae177e","646","stimuli/00110100.jpg"," ","","feedback_trial","0","","","","","","","","","","","","","","","","","","","","",""
"","","","","","image-keyboard-response","312","763887","0.0-287.0","594d4f0aa186be000114ce1d","665500ab8938657b03fbdba8","6657791423c656a2f6ae177e","2923","stimuli/1010101.jpg","1","","prediction_trial","1","","true","","1","true","true","false","true","false","true","[1]","010","101","1","","","","","","",""
"","","","","","image-keyboard-response","313","764666","0.0-288.0","594d4f0aa186be000114ce1d","665500ab8938657b03fbdba8","6657791423c656a2f6ae177e","726","stimuli/10101011.jpg"," ","","feedback_trial","1","","","","","","","","","","","","","","","","","","","","",""
"","","","","","image-keyboard-response","314","767402","0.0-289.0","594d4f0aa186be000114ce1d","665500ab8938657b03fbdba8","6657791423c656a2f6ae177e","2684","stimuli/2010101.jpg","2","","prediction_trial","2","","true","","2","false","false","true","true","false","false","[2]","010","101","1","","","","","","",""
"","","","","","image-keyboard-response","315","768073","0.0-290.0","594d4f0aa186be000114ce1d","665500ab8938657b03fbdba8","6657791423c656a2f6ae177e","611","stimuli/20101012.jpg"," ","","feedback_trial","2","","","","","","","","","","","","","","","","","","","","",""
"","","","","","image-keyboard-response","316","770990","0.0-291.0","594d4f0aa186be000114ce1d","665500ab8938657b03fbdba8","6657791423c656a2f6ae177e","2867","stimuli/1100011.jpg","1","","prediction_trial","1","","true","","1","false","false","true","true","false","false","[1]","100","011","1","","","","","","",""
"","","","","","image-keyboard-response","317","772404","0.0-292.0","594d4f0aa186be000114ce1d","665500ab8938657b03fbdba8","6657791423c656a2f6ae177e","1359","stimuli/11000111.jpg"," ","","feedback_trial","1","","","","","","","","","","","","","","","","","","","","",""
"","","","","","survey-html-form","318","831011","0.0-293.0","594d4f0aa186be000114ce1d","665500ab8938657b03fbdba8","6657791423c656a2f6ae177e","58549","","{""feedback"":""I tried to see if Sam preferred a certain side when a guess was necessary."",""age"":""26"",""gender"":""Male"",""other_gender"":"""",""race"":""White"",""other_race"":"""",""ethnicity"":""Hispanic""}","","exit_survey","","","","","","","","","","","","","","","","I tried to see if Sam preferred a certain side when a guess was necessary.","26","Hispanic","Male","White","0.6666666666666666","0.6666666666666666"
