"success","timeout","failed_images","failed_audio","failed_video","trial_type","trial_index","time_elapsed","internal_node_id","prolific_id","prolific_study_id","prolific_session_id","rt","stimulus","response","view_history","trial","character_choice","stimulus_dict","accuracy","correct_response","ball_pos","ego_ball_visible","ego_can_infer","alter_ball_visible","alter_can_infer","collective_ball_visible","collective_can_infer","search_locations","alter_occluders","ego_occluders","accuracy_bool","feedback","age","ethnicity","gender","race","overall_accuracy","bonus"
"true","false","[]","[]","[]","preload","0","20533","0.0-0.0","628eb50c442d584fa8275bcc","665500ab8938657b03fbdba8","66579392a2fb4456c1b425a5","","","","","","","","","","","","","","","","","","","","","","","","","","",""
"true","","","","","fullscreen","1","25893","0.0-1.0","628eb50c442d584fa8275bcc","665500ab8938657b03fbdba8","66579392a2fb4456c1b425a5","","","","","","","","","","","","","","","","","","","","","","","","","","",""
"","","","","","html-button-response","2","29062","0.0-2.0","628eb50c442d584fa8275bcc","665500ab8938657b03fbdba8","66579392a2fb4456c1b425a5","3167","<p><b>Consent Form</b></p> <div style=""text-align:left;background-color:lightgrey; padding:20px; max-width:900px;""><p>Please consider this information carefully before deciding whether to participate in this research.</p> <p>The purpose of this research is to examine which factors influence social judgment and decision-making. You will be asked to make judgements about individuals and actions in social scenarios. We are simply interested in your judgement. The study will take less than 1 hour to complete, and you will receive less than $20 on Prolific. Your compensation and time commitment are specified in the study description. There are no anticipated risks associated with participating in this study. The effects of participating should be comparable to those you would ordinarily experience from viewing a computer monitor and using a mouse or keyboard for a similar amount of time. At the end of the study, we will provide an explanation of the questions that motivate this line of research and will describe the potential implications. </p><p> Your participation in this study is completely voluntary and you may refuse to participate or you may choose to withdraw at any time without penalty or loss of benefits to you which are otherwise entitled. Your participation in this study will remain confidential. No personally identifiable information will be associated with your data. Also, all analyses of the data will be averaged across all the participants, so your individual responses will never be specifically analyzed. </p><p> If you have questions or concerns about your participation or payment, or want to request a summary of research findings, please contact Dr. Jonathan Phillips at Jonathan.S.Phillips@dartmouth.edu. </p><p> Please save a copy of this form for your records. </p><p><b>Agreement: </b>The nature and purpose of this research have been sufficiently explained and I agree to participate in this study. I understand that I am free to withdraw at any time without incurring any penalty. Please consent by clicking the button below to continue. Otherwise, please exit the study at any time. </p>","0","","","","","","","","","","","","","","","","","","","","","","","",""
"","","","","","instructions","3","140408","0.0-3.0-0.0","628eb50c442d584fa8275bcc","665500ab8938657b03fbdba8","66579392a2fb4456c1b425a5","111344","","","[{""page_index"":0,""viewing_time"":1660},{""page_index"":1,""viewing_time"":2838},{""page_index"":2,""viewing_time"":3336},{""page_index"":3,""viewing_time"":14008},{""page_index"":4,""viewing_time"":15668},{""page_index"":5,""viewing_time"":6050},{""page_index"":6,""viewing_time"":9202},{""page_index"":7,""viewing_time"":21296},{""page_index"":8,""viewing_time"":9739},{""page_index"":9,""viewing_time"":3357},{""page_index"":10,""viewing_time"":10494},{""page_index"":11,""viewing_time"":3586},{""page_index"":12,""viewing_time"":8989},{""page_index"":13,""viewing_time"":1120}]","intro","","","","","","","","","","","","","","","","","","","","","",""
"","","","","","image-keyboard-response","4","144369","0.0-3.0-1.0","628eb50c442d584fa8275bcc","665500ab8938657b03fbdba8","66579392a2fb4456c1b425a5","3947","stimuli/1111001.jpg","1","","prediction_practice","0","{""filepath"":""stimuli/1111001.jpg"",""ball_pos"":1,""ego_ball_visible"":true,""ego_can_infer"":true,""alter_ball_visible"":false,""alter_can_infer"":false,""collective_ball_visible"":false,""collective_can_infer"":false,""search_locations"":[1,2,0],""alter_occluders"":""111"",""ego_occluders"":""001""}","false","","","","","","","","","","","","","","","","","","",""
"","","","","","image-keyboard-response","5","147623","0.0-3.0-2.0","628eb50c442d584fa8275bcc","665500ab8938657b03fbdba8","66579392a2fb4456c1b425a5","3252","stimuli/11110010.jpg"," ","","practrice_feedback","1","","","","","","","","","","","","","","","","","","","","",""
"","","","","","image-keyboard-response","6","149937","0.0-3.0-3.0","628eb50c442d584fa8275bcc","665500ab8938657b03fbdba8","66579392a2fb4456c1b425a5","2313","stimuli/2000011.jpg","2","","prediction_practice","2","{""filepath"":""stimuli/2000011.jpg"",""ball_pos"":2,""ego_ball_visible"":false,""ego_can_infer"":false,""alter_ball_visible"":true,""alter_can_infer"":true,""collective_ball_visible"":false,""collective_can_infer"":false,""search_locations"":[2],""alter_occluders"":""000"",""ego_occluders"":""011""}","true","","","","","","","","","","","","","","","","","","",""
"","","","","","image-keyboard-response","7","151377","0.0-3.0-4.0","628eb50c442d584fa8275bcc","665500ab8938657b03fbdba8","66579392a2fb4456c1b425a5","1438","stimuli/20000112.jpg"," ","","practrice_feedback","2","","","","","","","","","","","","","","","","","","","","",""
"","","","","","image-keyboard-response","8","152488","0.0-3.0-5.0","628eb50c442d584fa8275bcc","665500ab8938657b03fbdba8","66579392a2fb4456c1b425a5","1110","stimuli/1011110.jpg","1","","prediction_practice","1","{""filepath"":""stimuli/1011110.jpg"",""ball_pos"":1,""ego_ball_visible"":false,""ego_can_infer"":false,""alter_ball_visible"":false,""alter_can_infer"":false,""collective_ball_visible"":false,""collective_can_infer"":false,""search_locations"":[1,2],""alter_occluders"":""011"",""ego_occluders"":""110""}","true","","","","","","","","","","","","","","","","","","",""
"","","","","","image-keyboard-response","9","154193","0.0-3.0-6.0","628eb50c442d584fa8275bcc","665500ab8938657b03fbdba8","66579392a2fb4456c1b425a5","1703","stimuli/10111101.jpg"," ","","practrice_feedback","1","","","","","","","","","","","","","","","","","","","","",""
"","","","","","image-keyboard-response","10","157273","0.0-3.0-7.0","628eb50c442d584fa8275bcc","665500ab8938657b03fbdba8","66579392a2fb4456c1b425a5","3078","stimuli/1101000.jpg","1","","prediction_practice","1","{""filepath"":""stimuli/1101000.jpg"",""ball_pos"":1,""ego_ball_visible"":true,""ego_can_infer"":true,""alter_ball_visible"":true,""alter_can_infer"":true,""collective_ball_visible"":true,""collective_can_infer"":true,""search_locations"":[1],""alter_occluders"":""101"",""ego_occluders"":""000""}","true","","","","","","","","","","","","","","","","","","",""
"","","","","","image-keyboard-response","11","159024","0.0-3.0-8.0","628eb50c442d584fa8275bcc","665500ab8938657b03fbdba8","66579392a2fb4456c1b425a5","1750","stimuli/11010001.jpg"," ","","practrice_feedback","1","","","","","","","","","","","","","","","","","","","","",""
"","","","","","image-keyboard-response","12","160680","0.0-3.0-9.0","628eb50c442d584fa8275bcc","665500ab8938657b03fbdba8","66579392a2fb4456c1b425a5","1655","stimuli/0011000.jpg","0","","prediction_practice","0","{""filepath"":""stimuli/0011000.jpg"",""ball_pos"":0,""ego_ball_visible"":true,""ego_can_infer"":true,""alter_ball_visible"":true,""alter_can_infer"":true,""collective_ball_visible"":true,""collective_can_infer"":true,""search_locations"":[0],""alter_occluders"":""011"",""ego_occluders"":""000""}","true","","","","","","","","","","","","","","","","","","",""
"","","","","","image-keyboard-response","13","161529","0.0-3.0-10.0","628eb50c442d584fa8275bcc","665500ab8938657b03fbdba8","66579392a2fb4456c1b425a5","848","stimuli/00110000.jpg"," ","","practrice_feedback","0","","","","","","","","","","","","","","","","","","","","",""
"","","","","","image-keyboard-response","14","163113","0.0-3.0-11.0","628eb50c442d584fa8275bcc","665500ab8938657b03fbdba8","66579392a2fb4456c1b425a5","1582","stimuli/0000100.jpg","0","","prediction_practice","0","{""filepath"":""stimuli/0000100.jpg"",""ball_pos"":0,""ego_ball_visible"":false,""ego_can_infer"":true,""alter_ball_visible"":true,""alter_can_infer"":true,""collective_ball_visible"":false,""collective_can_infer"":true,""search_locations"":[0],""alter_occluders"":""000"",""ego_occluders"":""100""}","true","","","","","","","","","","","","","","","","","","",""
"","","","","","image-keyboard-response","15","163833","0.0-3.0-12.0","628eb50c442d584fa8275bcc","665500ab8938657b03fbdba8","66579392a2fb4456c1b425a5","719","stimuli/00001000.jpg"," ","","practrice_feedback","0","","","","","","","","","","","","","","","","","","","","",""
"","","","","","image-keyboard-response","16","165273","0.0-3.0-13.0","628eb50c442d584fa8275bcc","665500ab8938657b03fbdba8","66579392a2fb4456c1b425a5","1438","stimuli/2110101.jpg","0","","prediction_practice","2","{""filepath"":""stimuli/2110101.jpg"",""ball_pos"":2,""ego_ball_visible"":false,""ego_can_infer"":false,""alter_ball_visible"":true,""alter_can_infer"":true,""collective_ball_visible"":false,""collective_can_infer"":false,""search_locations"":[2],""alter_occluders"":""110"",""ego_occluders"":""101""}","false","","","","","","","","","","","","","","","","","","",""
"","","","","","image-keyboard-response","17","165992","0.0-3.0-14.0","628eb50c442d584fa8275bcc","665500ab8938657b03fbdba8","66579392a2fb4456c1b425a5","717","stimuli/21101012.jpg"," ","","practrice_feedback","2","","","","","","","","","","","","","","","","","","","","",""
"","","","","","image-keyboard-response","18","168305","0.0-3.0-15.0","628eb50c442d584fa8275bcc","665500ab8938657b03fbdba8","66579392a2fb4456c1b425a5","2311","stimuli/1100111.jpg","2","","prediction_practice","1","{""filepath"":""stimuli/1100111.jpg"",""ball_pos"":1,""ego_ball_visible"":false,""ego_can_infer"":false,""alter_ball_visible"":true,""alter_can_infer"":true,""collective_ball_visible"":false,""collective_can_infer"":false,""search_locations"":[1],""alter_occluders"":""100"",""ego_occluders"":""111""}","false","","","","","","","","","","","","","","","","","","",""
"","","","","","image-keyboard-response","19","168952","0.0-3.0-16.0","628eb50c442d584fa8275bcc","665500ab8938657b03fbdba8","66579392a2fb4456c1b425a5","647","stimuli/11001111.jpg"," ","","practrice_feedback","1","","","","","","","","","","","","","","","","","","","","",""
"","","","","","image-keyboard-response","20","170632","0.0-3.0-17.0","628eb50c442d584fa8275bcc","665500ab8938657b03fbdba8","66579392a2fb4456c1b425a5","1679","stimuli/1010111.jpg","1","","prediction_practice","1","{""filepath"":""stimuli/1010111.jpg"",""ball_pos"":1,""ego_ball_visible"":false,""ego_can_infer"":false,""alter_ball_visible"":false,""alter_can_infer"":true,""collective_ball_visible"":false,""collective_can_infer"":false,""search_locations"":[1],""alter_occluders"":""010"",""ego_occluders"":""111""}","true","","","","","","","","","","","","","","","","","","",""
"","","","","","image-keyboard-response","21","171145","0.0-3.0-18.0","628eb50c442d584fa8275bcc","665500ab8938657b03fbdba8","66579392a2fb4456c1b425a5","511","stimuli/10101111.jpg"," ","","practrice_feedback","1","","","","","","","","","","","","","","","","","","","","",""
"","","","","","image-keyboard-response","22","171904","0.0-3.0-19.0","628eb50c442d584fa8275bcc","665500ab8938657b03fbdba8","66579392a2fb4456c1b425a5","757","stimuli/1101010.jpg","0","","prediction_practice","1","{""filepath"":""stimuli/1101010.jpg"",""ball_pos"":1,""ego_ball_visible"":false,""ego_can_infer"":true,""alter_ball_visible"":true,""alter_can_infer"":true,""collective_ball_visible"":false,""collective_can_infer"":true,""search_locations"":[1],""alter_occluders"":""101"",""ego_occluders"":""010""}","false","","","","","","","","","","","","","","","","","","",""
"","","","","","image-keyboard-response","23","172657","0.0-3.0-20.0","628eb50c442d584fa8275bcc","665500ab8938657b03fbdba8","66579392a2fb4456c1b425a5","752","stimuli/11010101.jpg"," ","","practrice_feedback","1","","","","","","","","","","","","","","","","","","","","",""
"","","","","","html-button-response","24","182788","0.0-3.0-21.0","628eb50c442d584fa8275bcc","665500ab8938657b03fbdba8","66579392a2fb4456c1b425a5","10130","Now that you've had some practice, you'll be tested with a couple of easy trials. If you correctly predict Sam's choice, you'll move on to complete the experiment!","0","","","","","","","","","","","","","","","","","","","","","","","",""
"","","","","","image-keyboard-response","25","184232","0.0-3.0-22.0-0.0","628eb50c442d584fa8275bcc","665500ab8938657b03fbdba8","66579392a2fb4456c1b425a5","1443","stimuli/0000011.jpg","arrowleft","","comprehension_quiz","","","true","arrowleft","","","","","","","","","","","","","","","","","",""
"","","","","","image-keyboard-response","26","185056","0.0-3.0-22.0-1.0","628eb50c442d584fa8275bcc","665500ab8938657b03fbdba8","66579392a2fb4456c1b425a5","823","stimuli/00000110.jpg"," ","","comprehension_quiz","","","true"," ","","","","","","","","","","","","","","","","","",""
"","","","","","image-keyboard-response","27","186184","0.0-3.0-22.0-2.0","628eb50c442d584fa8275bcc","665500ab8938657b03fbdba8","66579392a2fb4456c1b425a5","1126","stimuli/1010010.jpg","arrowdown","","comprehension_quiz","","","true","arrowdown","","","","","","","","","","","","","","","","","",""
"","","","","","image-keyboard-response","28","186977","0.0-3.0-22.0-3.0","628eb50c442d584fa8275bcc","665500ab8938657b03fbdba8","66579392a2fb4456c1b425a5","792","stimuli/10100101.jpg"," ","","comprehension_quiz","","","true"," ","","","","","","","","","","","","","","","","","",""
"","","","","","html-button-response","29","189346","0.0-4.0","628eb50c442d584fa8275bcc","665500ab8938657b03fbdba8","66579392a2fb4456c1b425a5","2367","The experiment will now begin.","0","","","","","","","","","","","","","","","","","","","","","","","",""
"","","","","","image-keyboard-response","30","191025","0.0-5.0","628eb50c442d584fa8275bcc","665500ab8938657b03fbdba8","66579392a2fb4456c1b425a5","1677","stimuli/2101100.jpg","2","","prediction_trial","0","","false","","2","true","true","false","false","false","false","[2,0]","101","100","0","","","","","","",""
"","","","","","image-keyboard-response","31","192432","0.0-6.0","628eb50c442d584fa8275bcc","665500ab8938657b03fbdba8","66579392a2fb4456c1b425a5","1406","stimuli/21011000.jpg"," ","","feedback_trial","2","","","","","","","","","","","","","","","","","","","","",""
"","","","","","image-keyboard-response","32","194425","0.0-7.0","628eb50c442d584fa8275bcc","665500ab8938657b03fbdba8","66579392a2fb4456c1b425a5","1991","stimuli/0010110.jpg","1","","prediction_trial","0","","false","","0","false","false","true","true","false","false","[0]","010","110","0","","","","","","",""
"","","","","","image-keyboard-response","33","195216","0.0-8.0","628eb50c442d584fa8275bcc","665500ab8938657b03fbdba8","66579392a2fb4456c1b425a5","791","stimuli/00101100.jpg"," ","","feedback_trial","0","","","","","","","","","","","","","","","","","","","","",""
"","","","","","image-keyboard-response","34","196025","0.0-9.0","628eb50c442d584fa8275bcc","665500ab8938657b03fbdba8","66579392a2fb4456c1b425a5","808","stimuli/2100100.jpg","2","","prediction_trial","2","","true","","2","true","true","true","true","true","true","[2]","100","100","1","","","","","","",""
"","","","","","image-keyboard-response","35","196889","0.0-10.0","628eb50c442d584fa8275bcc","665500ab8938657b03fbdba8","66579392a2fb4456c1b425a5","862","stimuli/21001002.jpg"," ","","feedback_trial","2","","","","","","","","","","","","","","","","","","","","",""
"","","","","","image-keyboard-response","36","198048","0.0-11.0","628eb50c442d584fa8275bcc","665500ab8938657b03fbdba8","66579392a2fb4456c1b425a5","1158","stimuli/2000010.jpg","2","","prediction_trial","2","","true","","2","true","true","true","true","true","true","[2]","000","010","1","","","","","","",""
"","","","","","image-keyboard-response","37","198737","0.0-12.0","628eb50c442d584fa8275bcc","665500ab8938657b03fbdba8","66579392a2fb4456c1b425a5","687","stimuli/20000102.jpg"," ","","feedback_trial","2","","","","","","","","","","","","","","","","","","","","",""
"","","","","","image-keyboard-response","38","199817","0.0-13.0","628eb50c442d584fa8275bcc","665500ab8938657b03fbdba8","66579392a2fb4456c1b425a5","1078","stimuli/2110101.jpg","0","","prediction_trial","2","","false","","2","false","false","true","true","false","false","[2]","110","101","0","","","","","","",""
"","","","","","image-keyboard-response","39","200600","0.0-14.0","628eb50c442d584fa8275bcc","665500ab8938657b03fbdba8","66579392a2fb4456c1b425a5","783","stimuli/21101012.jpg"," ","","feedback_trial","2","","","","","","","","","","","","","","","","","","","","",""
"","","","","","image-keyboard-response","40","201640","0.0-15.0","628eb50c442d584fa8275bcc","665500ab8938657b03fbdba8","66579392a2fb4456c1b425a5","1039","stimuli/0011111.jpg","0","","prediction_trial","0","","true","","0","false","false","true","true","false","false","[0]","011","111","1","","","","","","",""
"","","","","","image-keyboard-response","41","202048","0.0-16.0","628eb50c442d584fa8275bcc","665500ab8938657b03fbdba8","66579392a2fb4456c1b425a5","406","stimuli/00111110.jpg"," ","","feedback_trial","0","","","","","","","","","","","","","","","","","","","","",""
"","","","","","image-keyboard-response","42","203200","0.0-17.0","628eb50c442d584fa8275bcc","665500ab8938657b03fbdba8","66579392a2fb4456c1b425a5","1151","stimuli/1111010.jpg","1","","prediction_trial","2","","false","","1","false","true","false","false","false","false","[2,1,0]","111","010","0","","","","","","",""
"","","","","","image-keyboard-response","43","204304","0.0-18.0","628eb50c442d584fa8275bcc","665500ab8938657b03fbdba8","66579392a2fb4456c1b425a5","1103","stimuli/11110102.jpg"," ","","feedback_trial","2","","","","","","","","","","","","","","","","","","","","",""
"","","","","","image-keyboard-response","44","205776","0.0-19.0","628eb50c442d584fa8275bcc","665500ab8938657b03fbdba8","66579392a2fb4456c1b425a5","1471","stimuli/2000101.jpg","2","","prediction_trial","2","","true","","2","false","false","true","true","false","false","[2]","000","101","1","","","","","","",""
"","","","","","image-keyboard-response","45","206552","0.0-20.0","628eb50c442d584fa8275bcc","665500ab8938657b03fbdba8","66579392a2fb4456c1b425a5","775","stimuli/20001012.jpg"," ","","feedback_trial","2","","","","","","","","","","","","","","","","","","","","",""
"","","","","","image-keyboard-response","46","208481","0.0-21.0","628eb50c442d584fa8275bcc","665500ab8938657b03fbdba8","66579392a2fb4456c1b425a5","1927","stimuli/2010001.jpg","2","","prediction_trial","2","","true","","2","false","true","true","true","false","true","[2]","010","001","1","","","","","","",""
"","","","","","image-keyboard-response","47","209033","0.0-22.0","628eb50c442d584fa8275bcc","665500ab8938657b03fbdba8","66579392a2fb4456c1b425a5","551","stimuli/20100012.jpg"," ","","feedback_trial","2","","","","","","","","","","","","","","","","","","","","",""
"","","","","","image-keyboard-response","48","210192","0.0-23.0","628eb50c442d584fa8275bcc","665500ab8938657b03fbdba8","66579392a2fb4456c1b425a5","1157","stimuli/1101000.jpg","1","","prediction_trial","1","","true","","1","true","true","true","true","true","true","[1]","101","000","1","","","","","","",""
"","","","","","image-keyboard-response","49","210736","0.0-24.0","628eb50c442d584fa8275bcc","665500ab8938657b03fbdba8","66579392a2fb4456c1b425a5","543","stimuli/11010001.jpg"," ","","feedback_trial","1","","","","","","","","","","","","","","","","","","","","",""
"","","","","","image-keyboard-response","50","211904","0.0-25.0","628eb50c442d584fa8275bcc","665500ab8938657b03fbdba8","66579392a2fb4456c1b425a5","1167","stimuli/1010101.jpg","1","","prediction_trial","1","","true","","1","true","true","false","true","false","true","[1]","010","101","1","","","","","","",""
"","","","","","image-keyboard-response","51","212504","0.0-26.0","628eb50c442d584fa8275bcc","665500ab8938657b03fbdba8","66579392a2fb4456c1b425a5","599","stimuli/10101011.jpg"," ","","feedback_trial","1","","","","","","","","","","","","","","","","","","","","",""
"","","","","","image-keyboard-response","52","213273","0.0-27.0","628eb50c442d584fa8275bcc","665500ab8938657b03fbdba8","66579392a2fb4456c1b425a5","767","stimuli/0000010.jpg","0","","prediction_trial","0","","true","","0","true","true","true","true","true","true","[0]","000","010","1","","","","","","",""
"","","","","","image-keyboard-response","53","213696","0.0-28.0","628eb50c442d584fa8275bcc","665500ab8938657b03fbdba8","66579392a2fb4456c1b425a5","422","stimuli/00000100.jpg"," ","","feedback_trial","0","","","","","","","","","","","","","","","","","","","","",""
"","","","","","image-keyboard-response","54","214872","0.0-29.0","628eb50c442d584fa8275bcc","665500ab8938657b03fbdba8","66579392a2fb4456c1b425a5","1174","stimuli/1101111.jpg","1","","prediction_trial","1","","true","","1","false","false","true","true","false","false","[1]","101","111","1","","","","","","",""
"","","","","","image-keyboard-response","55","215233","0.0-30.0","628eb50c442d584fa8275bcc","665500ab8938657b03fbdba8","66579392a2fb4456c1b425a5","360","stimuli/11011111.jpg"," ","","feedback_trial","1","","","","","","","","","","","","","","","","","","","","",""
"","","","","","image-keyboard-response","56","216465","0.0-31.0","628eb50c442d584fa8275bcc","665500ab8938657b03fbdba8","66579392a2fb4456c1b425a5","1231","stimuli/2100001.jpg","2","","prediction_trial","2","","true","","2","false","true","true","true","false","true","[2]","100","001","1","","","","","","",""
"","","","","","image-keyboard-response","57","216889","0.0-32.0","628eb50c442d584fa8275bcc","665500ab8938657b03fbdba8","66579392a2fb4456c1b425a5","423","stimuli/21000012.jpg"," ","","feedback_trial","2","","","","","","","","","","","","","","","","","","","","",""
"","","","","","image-keyboard-response","58","217936","0.0-33.0","628eb50c442d584fa8275bcc","665500ab8938657b03fbdba8","66579392a2fb4456c1b425a5","1046","stimuli/0100001.jpg","0","","prediction_trial","0","","true","","0","true","true","false","true","false","true","[0]","100","001","1","","","","","","",""
"","","","","","image-keyboard-response","59","218352","0.0-34.0","628eb50c442d584fa8275bcc","665500ab8938657b03fbdba8","66579392a2fb4456c1b425a5","415","stimuli/01000010.jpg"," ","","feedback_trial","0","","","","","","","","","","","","","","","","","","","","",""
"","","","","","image-keyboard-response","60","219553","0.0-35.0","628eb50c442d584fa8275bcc","665500ab8938657b03fbdba8","66579392a2fb4456c1b425a5","1200","stimuli/0110100.jpg","0","","prediction_trial","1","","false","","0","false","true","false","false","false","false","[1,0]","110","100","0","","","","","","",""
"","","","","","image-keyboard-response","61","219872","0.0-36.0","628eb50c442d584fa8275bcc","665500ab8938657b03fbdba8","66579392a2fb4456c1b425a5","318","stimuli/01101001.jpg"," ","","feedback_trial","1","","","","","","","","","","","","","","","","","","","","",""
"","","","","","image-keyboard-response","62","221400","0.0-37.0","628eb50c442d584fa8275bcc","665500ab8938657b03fbdba8","66579392a2fb4456c1b425a5","1527","stimuli/2101011.jpg","1","","prediction_trial","2","","false","","2","false","false","false","false","false","false","[0,2]","101","011","0","","","","","","",""
"","","","","","image-keyboard-response","63","221736","0.0-38.0","628eb50c442d584fa8275bcc","665500ab8938657b03fbdba8","66579392a2fb4456c1b425a5","335","stimuli/21010112.jpg"," ","","feedback_trial","0","","","","","","","","","","","","","","","","","","","","",""
"","","","","","image-keyboard-response","64","222665","0.0-39.0","628eb50c442d584fa8275bcc","665500ab8938657b03fbdba8","66579392a2fb4456c1b425a5","927","stimuli/2011110.jpg","2","","prediction_trial","1","","false","","2","true","true","false","false","false","false","[1,2]","011","110","0","","","","","","",""
"","","","","","image-keyboard-response","65","222992","0.0-40.0","628eb50c442d584fa8275bcc","665500ab8938657b03fbdba8","66579392a2fb4456c1b425a5","326","stimuli/20111101.jpg"," ","","feedback_trial","1","","","","","","","","","","","","","","","","","","","","",""
"","","","","","image-keyboard-response","66","223849","0.0-41.0","628eb50c442d584fa8275bcc","665500ab8938657b03fbdba8","66579392a2fb4456c1b425a5","855","stimuli/0000000.jpg","0","","prediction_trial","0","","true","","0","true","true","true","true","true","true","[0]","000","000","1","","","","","","",""
"","","","","","image-keyboard-response","67","224152","0.0-42.0","628eb50c442d584fa8275bcc","665500ab8938657b03fbdba8","66579392a2fb4456c1b425a5","302","stimuli/00000000.jpg"," ","","feedback_trial","0","","","","","","","","","","","","","","","","","","","","",""
"","","","","","image-keyboard-response","68","225024","0.0-43.0","628eb50c442d584fa8275bcc","665500ab8938657b03fbdba8","66579392a2fb4456c1b425a5","872","stimuli/1001111.jpg","1","","prediction_trial","1","","true","","1","false","false","true","true","false","false","[1]","001","111","1","","","","","","",""
"","","","","","image-keyboard-response","69","225283","0.0-44.0","628eb50c442d584fa8275bcc","665500ab8938657b03fbdba8","66579392a2fb4456c1b425a5","262","stimuli/10011111.jpg"," ","","feedback_trial","1","","","","","","","","","","","","","","","","","","","","",""
"","","","","","image-keyboard-response","70","226107","0.0-45.0","628eb50c442d584fa8275bcc","665500ab8938657b03fbdba8","66579392a2fb4456c1b425a5","824","stimuli/1011000.jpg","1","","prediction_trial","2","","false","","1","true","true","false","false","false","false","[2,1]","011","000","0","","","","","","",""
"","","","","","image-keyboard-response","71","226348","0.0-46.0","628eb50c442d584fa8275bcc","665500ab8938657b03fbdba8","66579392a2fb4456c1b425a5","239","stimuli/10110002.jpg"," ","","feedback_trial","2","","","","","","","","","","","","","","","","","","","","",""
"","","","","","image-keyboard-response","72","228164","0.0-47.0","628eb50c442d584fa8275bcc","665500ab8938657b03fbdba8","66579392a2fb4456c1b425a5","1815","stimuli/2111101.jpg","0","","prediction_trial","2","","false","","2","false","false","false","false","false","false","[0,2,1]","111","101","0","","","","","","",""
"","","","","","image-keyboard-response","73","228412","0.0-48.0","628eb50c442d584fa8275bcc","665500ab8938657b03fbdba8","66579392a2fb4456c1b425a5","247","stimuli/21111012.jpg"," ","","feedback_trial","0","","","","","","","","","","","","","","","","","","","","",""
"","","","","","image-keyboard-response","74","229156","0.0-49.0","628eb50c442d584fa8275bcc","665500ab8938657b03fbdba8","66579392a2fb4456c1b425a5","743","stimuli/1110000.jpg","1","","prediction_trial","1","","true","","1","true","true","false","false","false","false","[1,0]","110","000","1","","","","","","",""
"","","","","","image-keyboard-response","75","229380","0.0-50.0","628eb50c442d584fa8275bcc","665500ab8938657b03fbdba8","66579392a2fb4456c1b425a5","223","stimuli/11100001.jpg"," ","","feedback_trial","1","","","","","","","","","","","","","","","","","","","","",""
"","","","","","image-keyboard-response","76","230140","0.0-51.0","628eb50c442d584fa8275bcc","665500ab8938657b03fbdba8","66579392a2fb4456c1b425a5","759","stimuli/2111100.jpg","2","","prediction_trial","2","","true","","2","true","true","false","false","false","false","[0,1,2]","111","100","1","","","","","","",""
"","","","","","image-keyboard-response","77","230403","0.0-52.0","628eb50c442d584fa8275bcc","665500ab8938657b03fbdba8","66579392a2fb4456c1b425a5","263","stimuli/21111002.jpg"," ","","feedback_trial","0","","","","","","","","","","","","","","","","","","","","",""
"","","","","","image-keyboard-response","78","231524","0.0-53.0","628eb50c442d584fa8275bcc","665500ab8938657b03fbdba8","66579392a2fb4456c1b425a5","1119","stimuli/1110011.jpg","2","","prediction_trial","0","","false","","1","false","false","false","false","false","false","[1,0]","110","011","0","","","","","","",""
"","","","","","image-keyboard-response","79","231716","0.0-54.0","628eb50c442d584fa8275bcc","665500ab8938657b03fbdba8","66579392a2fb4456c1b425a5","191","stimuli/11100110.jpg"," ","","feedback_trial","1","","","","","","","","","","","","","","","","","","","","",""
"","","","","","image-keyboard-response","80","232459","0.0-55.0","628eb50c442d584fa8275bcc","665500ab8938657b03fbdba8","66579392a2fb4456c1b425a5","741","stimuli/0011011.jpg","0","","prediction_trial","0","","true","","0","true","true","true","true","true","true","[0]","011","011","1","","","","","","",""
"","","","","","image-keyboard-response","81","232683","0.0-56.0","628eb50c442d584fa8275bcc","665500ab8938657b03fbdba8","66579392a2fb4456c1b425a5","223","stimuli/00110110.jpg"," ","","feedback_trial","0","","","","","","","","","","","","","","","","","","","","",""
"","","","","","image-keyboard-response","82","233924","0.0-57.0","628eb50c442d584fa8275bcc","665500ab8938657b03fbdba8","66579392a2fb4456c1b425a5","1240","stimuli/2110001.jpg","2","","prediction_trial","2","","true","","2","false","true","true","true","false","true","[2]","110","001","1","","","","","","",""
"","","","","","image-keyboard-response","83","234236","0.0-58.0","628eb50c442d584fa8275bcc","665500ab8938657b03fbdba8","66579392a2fb4456c1b425a5","311","stimuli/21100012.jpg"," ","","feedback_trial","2","","","","","","","","","","","","","","","","","","","","",""
"","","","","","image-keyboard-response","84","235116","0.0-59.0","628eb50c442d584fa8275bcc","665500ab8938657b03fbdba8","66579392a2fb4456c1b425a5","878","stimuli/0111100.jpg","0","","prediction_trial","2","","false","","0","false","true","false","false","false","false","[0,2,1]","111","100","0","","","","","","",""
"","","","","","image-keyboard-response","85","235403","0.0-60.0","628eb50c442d584fa8275bcc","665500ab8938657b03fbdba8","66579392a2fb4456c1b425a5","287","stimuli/01111002.jpg"," ","","feedback_trial","0","","","","","","","","","","","","","","","","","","","","",""
"","","","","","image-keyboard-response","86","236355","0.0-61.0","628eb50c442d584fa8275bcc","665500ab8938657b03fbdba8","66579392a2fb4456c1b425a5","950","stimuli/0100110.jpg","1","","prediction_trial","0","","false","","0","false","false","false","true","false","false","[0]","100","110","0","","","","","","",""
"","","","","","image-keyboard-response","87","236667","0.0-62.0","628eb50c442d584fa8275bcc","665500ab8938657b03fbdba8","66579392a2fb4456c1b425a5","311","stimuli/01001100.jpg"," ","","feedback_trial","0","","","","","","","","","","","","","","","","","","","","",""
"","","","","","image-keyboard-response","88","237380","0.0-63.0","628eb50c442d584fa8275bcc","665500ab8938657b03fbdba8","66579392a2fb4456c1b425a5","712","stimuli/2110111.jpg","1","","prediction_trial","2","","false","","2","false","false","true","true","false","false","[2]","110","111","0","","","","","","",""
"","","","","","image-keyboard-response","89","237619","0.0-64.0","628eb50c442d584fa8275bcc","665500ab8938657b03fbdba8","66579392a2fb4456c1b425a5","239","stimuli/21101112.jpg"," ","","feedback_trial","2","","","","","","","","","","","","","","","","","","","","",""
"","","","","","image-keyboard-response","90","238572","0.0-65.0","628eb50c442d584fa8275bcc","665500ab8938657b03fbdba8","66579392a2fb4456c1b425a5","951","stimuli/1010000.jpg","1","","prediction_trial","1","","true","","1","true","true","false","true","false","true","[1]","010","000","1","","","","","","",""
"","","","","","image-keyboard-response","91","238819","0.0-66.0","628eb50c442d584fa8275bcc","665500ab8938657b03fbdba8","66579392a2fb4456c1b425a5","246","stimuli/10100001.jpg"," ","","feedback_trial","1","","","","","","","","","","","","","","","","","","","","",""
"","","","","","image-keyboard-response","92","239460","0.0-67.0","628eb50c442d584fa8275bcc","665500ab8938657b03fbdba8","66579392a2fb4456c1b425a5","639","stimuli/0111010.jpg","0","","prediction_trial","2","","false","","0","true","true","false","false","false","false","[1,0,2]","111","010","0","","","","","","",""
"","","","","","image-keyboard-response","93","239764","0.0-68.0","628eb50c442d584fa8275bcc","665500ab8938657b03fbdba8","66579392a2fb4456c1b425a5","303","stimuli/01110102.jpg"," ","","feedback_trial","1","","","","","","","","","","","","","","","","","","","","",""
"","","","","","image-keyboard-response","94","240524","0.0-69.0","628eb50c442d584fa8275bcc","665500ab8938657b03fbdba8","66579392a2fb4456c1b425a5","759","stimuli/2111011.jpg","1","","prediction_trial","1","","true","","2","false","false","false","false","false","false","[1,0,2]","111","011","1","","","","","","",""
"","","","","","image-keyboard-response","95","240835","0.0-70.0","628eb50c442d584fa8275bcc","665500ab8938657b03fbdba8","66579392a2fb4456c1b425a5","310","stimuli/21110111.jpg"," ","","feedback_trial","1","","","","","","","","","","","","","","","","","","","","",""
"","","","","","image-keyboard-response","96","241548","0.0-71.0","628eb50c442d584fa8275bcc","665500ab8938657b03fbdba8","66579392a2fb4456c1b425a5","712","stimuli/1100000.jpg","1","","prediction_trial","1","","true","","1","true","true","true","true","true","true","[1]","100","000","1","","","","","","",""
"","","","","","image-keyboard-response","97","241819","0.0-72.0","628eb50c442d584fa8275bcc","665500ab8938657b03fbdba8","66579392a2fb4456c1b425a5","269","stimuli/11000001.jpg"," ","","feedback_trial","1","","","","","","","","","","","","","","","","","","","","",""
"","","","","","image-keyboard-response","98","242596","0.0-73.0","628eb50c442d584fa8275bcc","665500ab8938657b03fbdba8","66579392a2fb4456c1b425a5","776","stimuli/0010111.jpg","1","","prediction_trial","0","","false","","0","false","false","true","true","false","false","[0]","010","111","0","","","","","","",""
"","","","","","image-keyboard-response","99","243275","0.0-74.0","628eb50c442d584fa8275bcc","665500ab8938657b03fbdba8","66579392a2fb4456c1b425a5","679","stimuli/00101110.jpg"," ","","feedback_trial","0","","","","","","","","","","","","","","","","","","","","",""
"","","","","","image-keyboard-response","100","243972","0.0-75.0","628eb50c442d584fa8275bcc","665500ab8938657b03fbdba8","66579392a2fb4456c1b425a5","695","stimuli/2010000.jpg","2","","prediction_trial","2","","true","","2","true","true","true","true","true","true","[2]","010","000","1","","","","","","",""
"","","","","","image-keyboard-response","101","244267","0.0-76.0","628eb50c442d584fa8275bcc","665500ab8938657b03fbdba8","66579392a2fb4456c1b425a5","294","stimuli/20100002.jpg"," ","","feedback_trial","2","","","","","","","","","","","","","","","","","","","","",""
"","","","","","image-keyboard-response","102","244963","0.0-77.0","628eb50c442d584fa8275bcc","665500ab8938657b03fbdba8","66579392a2fb4456c1b425a5","695","stimuli/2110000.jpg","2","","prediction_trial","2","","true","","2","true","true","true","true","true","true","[2]","110","000","1","","","","","","",""
"","","","","","image-keyboard-response","103","245187","0.0-78.0","628eb50c442d584fa8275bcc","665500ab8938657b03fbdba8","66579392a2fb4456c1b425a5","223","stimuli/21100002.jpg"," ","","feedback_trial","2","","","","","","","","","","","","","","","","","","","","",""
"","","","","","image-keyboard-response","104","246011","0.0-79.0","628eb50c442d584fa8275bcc","665500ab8938657b03fbdba8","66579392a2fb4456c1b425a5","823","stimuli/1001011.jpg","0","","prediction_trial","1","","false","","1","false","false","true","true","false","false","[1]","001","011","0","","","","","","",""
"","","","","","image-keyboard-response","105","247083","0.0-80.0","628eb50c442d584fa8275bcc","665500ab8938657b03fbdba8","66579392a2fb4456c1b425a5","1071","stimuli/10010111.jpg"," ","","feedback_trial","1","","","","","","","","","","","","","","","","","","","","",""
"","","","","","image-keyboard-response","106","247867","0.0-81.0","628eb50c442d584fa8275bcc","665500ab8938657b03fbdba8","66579392a2fb4456c1b425a5","783","stimuli/0000111.jpg","1","","prediction_trial","0","","false","","0","false","false","true","true","false","false","[0]","000","111","0","","","","","","",""
"","","","","","image-keyboard-response","107","248844","0.0-82.0","628eb50c442d584fa8275bcc","665500ab8938657b03fbdba8","66579392a2fb4456c1b425a5","976","stimuli/00001110.jpg"," ","","feedback_trial","0","","","","","","","","","","","","","","","","","","","","",""
"","","","","","image-keyboard-response","108","249996","0.0-83.0","628eb50c442d584fa8275bcc","665500ab8938657b03fbdba8","66579392a2fb4456c1b425a5","1150","stimuli/0100101.jpg","2","","prediction_trial","0","","false","","0","false","false","false","true","false","false","[0]","100","101","0","","","","","","",""
"","","","","","image-keyboard-response","109","250268","0.0-84.0","628eb50c442d584fa8275bcc","665500ab8938657b03fbdba8","66579392a2fb4456c1b425a5","270","stimuli/01001010.jpg"," ","","feedback_trial","0","","","","","","","","","","","","","","","","","","","","",""
"","","","","","image-keyboard-response","110","250971","0.0-85.0","628eb50c442d584fa8275bcc","665500ab8938657b03fbdba8","66579392a2fb4456c1b425a5","702","stimuli/2101010.jpg","2","","prediction_trial","0","","false","","2","true","true","false","false","false","false","[2,0]","101","010","0","","","","","","",""
"","","","","","image-keyboard-response","111","251148","0.0-86.0","628eb50c442d584fa8275bcc","665500ab8938657b03fbdba8","66579392a2fb4456c1b425a5","176","stimuli/21010100.jpg"," ","","feedback_trial","2","","","","","","","","","","","","","","","","","","","","",""
"","","","","","image-keyboard-response","112","252203","0.0-87.0","628eb50c442d584fa8275bcc","665500ab8938657b03fbdba8","66579392a2fb4456c1b425a5","1054","stimuli/0100100.jpg","0","","prediction_trial","0","","true","","0","false","true","false","true","false","true","[0]","100","100","1","","","","","","",""
"","","","","","image-keyboard-response","113","252411","0.0-88.0","628eb50c442d584fa8275bcc","665500ab8938657b03fbdba8","66579392a2fb4456c1b425a5","206","stimuli/01001000.jpg"," ","","feedback_trial","0","","","","","","","","","","","","","","","","","","","","",""
"","","","","","image-keyboard-response","114","255883","0.0-89.0","628eb50c442d584fa8275bcc","665500ab8938657b03fbdba8","66579392a2fb4456c1b425a5","3470","stimuli/1010011.jpg","2","","prediction_trial","1","","false","","1","false","false","false","true","false","false","[1]","010","011","0","","","","","","",""
"","","","","","image-keyboard-response","115","256291","0.0-90.0","628eb50c442d584fa8275bcc","665500ab8938657b03fbdba8","66579392a2fb4456c1b425a5","407","stimuli/10100111.jpg"," ","","feedback_trial","1","","","","","","","","","","","","","","","","","","","","",""
"","","","","","image-keyboard-response","116","256996","0.0-91.0","628eb50c442d584fa8275bcc","665500ab8938657b03fbdba8","66579392a2fb4456c1b425a5","703","stimuli/0100000.jpg","0","","prediction_trial","0","","true","","0","true","true","false","true","false","true","[0]","100","000","1","","","","","","",""
"","","","","","image-keyboard-response","117","257276","0.0-92.0","628eb50c442d584fa8275bcc","665500ab8938657b03fbdba8","66579392a2fb4456c1b425a5","278","stimuli/01000000.jpg"," ","","feedback_trial","0","","","","","","","","","","","","","","","","","","","","",""
"","","","","","image-keyboard-response","118","258012","0.0-93.0","628eb50c442d584fa8275bcc","665500ab8938657b03fbdba8","66579392a2fb4456c1b425a5","734","stimuli/1101101.jpg","1","","prediction_trial","1","","true","","1","true","true","true","true","true","true","[1]","101","101","1","","","","","","",""
"","","","","","image-keyboard-response","119","258283","0.0-94.0","628eb50c442d584fa8275bcc","665500ab8938657b03fbdba8","66579392a2fb4456c1b425a5","270","stimuli/11011011.jpg"," ","","feedback_trial","1","","","","","","","","","","","","","","","","","","","","",""
"","","","","","image-keyboard-response","120","259075","0.0-95.0","628eb50c442d584fa8275bcc","665500ab8938657b03fbdba8","66579392a2fb4456c1b425a5","791","stimuli/2110011.jpg","2","","prediction_trial","2","","true","","2","false","false","true","true","false","false","[2]","110","011","1","","","","","","",""
"","","","","","image-keyboard-response","121","259307","0.0-96.0","628eb50c442d584fa8275bcc","665500ab8938657b03fbdba8","66579392a2fb4456c1b425a5","231","stimuli/21100112.jpg"," ","","feedback_trial","2","","","","","","","","","","","","","","","","","","","","",""
"","","","","","image-keyboard-response","122","259987","0.0-97.0","628eb50c442d584fa8275bcc","665500ab8938657b03fbdba8","66579392a2fb4456c1b425a5","678","stimuli/2100110.jpg","2","","prediction_trial","2","","true","","2","true","true","true","true","true","true","[2]","100","110","1","","","","","","",""
"","","","","","image-keyboard-response","123","260323","0.0-98.0","628eb50c442d584fa8275bcc","665500ab8938657b03fbdba8","66579392a2fb4456c1b425a5","334","stimuli/21001102.jpg"," ","","feedback_trial","2","","","","","","","","","","","","","","","","","","","","",""
"","","","","","image-keyboard-response","124","261436","0.0-99.0","628eb50c442d584fa8275bcc","665500ab8938657b03fbdba8","66579392a2fb4456c1b425a5","1111","stimuli/0000110.jpg","1","","prediction_trial","0","","false","","0","false","false","true","true","false","false","[0]","000","110","0","","","","","","",""
"","","","","","image-keyboard-response","125","261691","0.0-100.0","628eb50c442d584fa8275bcc","665500ab8938657b03fbdba8","66579392a2fb4456c1b425a5","254","stimuli/00001100.jpg"," ","","feedback_trial","0","","","","","","","","","","","","","","","","","","","","",""
"","","","","","image-keyboard-response","126","262796","0.0-101.0","628eb50c442d584fa8275bcc","665500ab8938657b03fbdba8","66579392a2fb4456c1b425a5","1103","stimuli/0110101.jpg","1","","prediction_trial","1","","true","","0","false","false","false","false","false","false","[1,0]","110","101","1","","","","","","",""
"","","","","","image-keyboard-response","127","263011","0.0-102.0","628eb50c442d584fa8275bcc","665500ab8938657b03fbdba8","66579392a2fb4456c1b425a5","214","stimuli/01101011.jpg"," ","","feedback_trial","1","","","","","","","","","","","","","","","","","","","","",""
"","","","","","image-keyboard-response","128","263707","0.0-103.0","628eb50c442d584fa8275bcc","665500ab8938657b03fbdba8","66579392a2fb4456c1b425a5","695","stimuli/2010100.jpg","2","","prediction_trial","2","","true","","2","true","true","true","true","true","true","[2]","010","100","1","","","","","","",""
"","","","","","image-keyboard-response","129","263933","0.0-104.0","628eb50c442d584fa8275bcc","665500ab8938657b03fbdba8","66579392a2fb4456c1b425a5","223","stimuli/20101002.jpg"," ","","feedback_trial","2","","","","","","","","","","","","","","","","","","","","",""
"","","","","","image-keyboard-response","130","264635","0.0-105.0","628eb50c442d584fa8275bcc","665500ab8938657b03fbdba8","66579392a2fb4456c1b425a5","702","stimuli/1000100.jpg","1","","prediction_trial","1","","true","","1","true","true","true","true","true","true","[1]","000","100","1","","","","","","",""
"","","","","","image-keyboard-response","131","264828","0.0-106.0","628eb50c442d584fa8275bcc","665500ab8938657b03fbdba8","66579392a2fb4456c1b425a5","191","stimuli/10001001.jpg"," ","","feedback_trial","1","","","","","","","","","","","","","","","","","","","","",""
"","","","","","image-keyboard-response","132","265411","0.0-107.0","628eb50c442d584fa8275bcc","665500ab8938657b03fbdba8","66579392a2fb4456c1b425a5","582","stimuli/1110101.jpg","1","","prediction_trial","0","","false","","1","true","true","false","false","false","false","[0,1]","110","101","0","","","","","","",""
"","","","","","image-keyboard-response","133","265612","0.0-108.0","628eb50c442d584fa8275bcc","665500ab8938657b03fbdba8","66579392a2fb4456c1b425a5","199","stimuli/11101010.jpg"," ","","feedback_trial","0","","","","","","","","","","","","","","","","","","","","",""
"","","","","","image-keyboard-response","134","266203","0.0-109.0","628eb50c442d584fa8275bcc","665500ab8938657b03fbdba8","66579392a2fb4456c1b425a5","590","stimuli/0110010.jpg","0","","prediction_trial","0","","true","","0","true","true","false","false","false","false","[0,1]","110","010","1","","","","","","",""
"","","","","","image-keyboard-response","135","266451","0.0-110.0","628eb50c442d584fa8275bcc","665500ab8938657b03fbdba8","66579392a2fb4456c1b425a5","247","stimuli/01100100.jpg"," ","","feedback_trial","0","","","","","","","","","","","","","","","","","","","","",""
"","","","","","image-keyboard-response","136","267180","0.0-111.0","628eb50c442d584fa8275bcc","665500ab8938657b03fbdba8","66579392a2fb4456c1b425a5","728","stimuli/1000001.jpg","1","","prediction_trial","1","","true","","1","true","true","true","true","true","true","[1]","000","001","1","","","","","","",""
"","","","","","image-keyboard-response","137","267419","0.0-112.0","628eb50c442d584fa8275bcc","665500ab8938657b03fbdba8","66579392a2fb4456c1b425a5","238","stimuli/10000011.jpg"," ","","feedback_trial","1","","","","","","","","","","","","","","","","","","","","",""
"","","","","","image-keyboard-response","138","268643","0.0-113.0","628eb50c442d584fa8275bcc","665500ab8938657b03fbdba8","66579392a2fb4456c1b425a5","1223","stimuli/0000100.jpg","0","","prediction_trial","0","","true","","0","false","true","true","true","false","true","[0]","000","100","1","","","","","","",""
"","","","","","image-keyboard-response","139","268835","0.0-114.0","628eb50c442d584fa8275bcc","665500ab8938657b03fbdba8","66579392a2fb4456c1b425a5","192","stimuli/00001000.jpg"," ","","feedback_trial","0","","","","","","","","","","","","","","","","","","","","",""
"","","","","","image-keyboard-response","140","269684","0.0-115.0","628eb50c442d584fa8275bcc","665500ab8938657b03fbdba8","66579392a2fb4456c1b425a5","847","stimuli/1001001.jpg","1","","prediction_trial","1","","true","","1","true","true","true","true","true","true","[1]","001","001","1","","","","","","",""
"","","","","","image-keyboard-response","141","269947","0.0-116.0","628eb50c442d584fa8275bcc","665500ab8938657b03fbdba8","66579392a2fb4456c1b425a5","262","stimuli/10010011.jpg"," ","","feedback_trial","1","","","","","","","","","","","","","","","","","","","","",""
"","","","","","image-keyboard-response","142","271059","0.0-117.0","628eb50c442d584fa8275bcc","665500ab8938657b03fbdba8","66579392a2fb4456c1b425a5","1111","stimuli/1010001.jpg","1","","prediction_trial","1","","true","","1","true","true","false","true","false","true","[1]","010","001","1","","","","","","",""
"","","","","","image-keyboard-response","143","271268","0.0-118.0","628eb50c442d584fa8275bcc","665500ab8938657b03fbdba8","66579392a2fb4456c1b425a5","208","stimuli/10100011.jpg"," ","","feedback_trial","1","","","","","","","","","","","","","","","","","","","","",""
"","","","","","image-keyboard-response","144","272387","0.0-119.0","628eb50c442d584fa8275bcc","665500ab8938657b03fbdba8","66579392a2fb4456c1b425a5","1118","stimuli/2011101.jpg","2","","prediction_trial","2","","true","","2","false","false","false","false","false","false","[1,2]","011","101","1","","","","","","",""
"","","","","","image-keyboard-response","145","272659","0.0-120.0","628eb50c442d584fa8275bcc","665500ab8938657b03fbdba8","66579392a2fb4456c1b425a5","271","stimuli/20111012.jpg"," ","","feedback_trial","1","","","","","","","","","","","","","","","","","","","","",""
"","","","","","image-keyboard-response","146","274348","0.0-121.0","628eb50c442d584fa8275bcc","665500ab8938657b03fbdba8","66579392a2fb4456c1b425a5","1687","stimuli/0001110.jpg","2","","prediction_trial","0","","false","","0","false","false","true","true","false","false","[0]","001","110","0","","","","","","",""
"","","","","","image-keyboard-response","147","276259","0.0-122.0","628eb50c442d584fa8275bcc","665500ab8938657b03fbdba8","66579392a2fb4456c1b425a5","1910","stimuli/00011100.jpg"," ","","feedback_trial","0","","","","","","","","","","","","","","","","","","","","",""
"","","","","","image-keyboard-response","148","277764","0.0-123.0","628eb50c442d584fa8275bcc","665500ab8938657b03fbdba8","66579392a2fb4456c1b425a5","1504","stimuli/1011011.jpg","1","","prediction_trial","1","","true","","1","false","false","false","false","false","false","[2,1]","011","011","1","","","","","","",""
"","","","","","image-keyboard-response","149","278300","0.0-124.0","628eb50c442d584fa8275bcc","665500ab8938657b03fbdba8","66579392a2fb4456c1b425a5","535","stimuli/10110111.jpg"," ","","feedback_trial","2","","","","","","","","","","","","","","","","","","","","",""
"","","","","","image-keyboard-response","150","279227","0.0-125.0","628eb50c442d584fa8275bcc","665500ab8938657b03fbdba8","66579392a2fb4456c1b425a5","926","stimuli/1011111.jpg","0","","prediction_trial","1","","false","","1","false","false","false","false","false","false","[1,2]","011","111","0","","","","","","",""
"","","","","","image-keyboard-response","151","279844","0.0-126.0","628eb50c442d584fa8275bcc","665500ab8938657b03fbdba8","66579392a2fb4456c1b425a5","616","stimuli/10111111.jpg"," ","","feedback_trial","1","","","","","","","","","","","","","","","","","","","","",""
"","","","","","image-keyboard-response","152","280579","0.0-127.0","628eb50c442d584fa8275bcc","665500ab8938657b03fbdba8","66579392a2fb4456c1b425a5","734","stimuli/2001000.jpg","2","","prediction_trial","2","","true","","2","true","true","false","true","false","true","[2]","001","000","1","","","","","","",""
"","","","","","image-keyboard-response","153","280947","0.0-128.0","628eb50c442d584fa8275bcc","665500ab8938657b03fbdba8","66579392a2fb4456c1b425a5","367","stimuli/20010002.jpg"," ","","feedback_trial","2","","","","","","","","","","","","","","","","","","","","",""
"","","","","","image-keyboard-response","154","281628","0.0-129.0","628eb50c442d584fa8275bcc","665500ab8938657b03fbdba8","66579392a2fb4456c1b425a5","679","stimuli/0101110.jpg","1","","prediction_trial","2","","false","","0","false","false","false","false","false","false","[0,2]","101","110","0","","","","","","",""
"","","","","","image-keyboard-response","155","282587","0.0-130.0","628eb50c442d584fa8275bcc","665500ab8938657b03fbdba8","66579392a2fb4456c1b425a5","958","stimuli/01011102.jpg"," ","","feedback_trial","0","","","","","","","","","","","","","","","","","","","","",""
"","","","","","image-keyboard-response","156","283292","0.0-131.0","628eb50c442d584fa8275bcc","665500ab8938657b03fbdba8","66579392a2fb4456c1b425a5","703","stimuli/2000000.jpg","2","","prediction_trial","2","","true","","2","true","true","true","true","true","true","[2]","000","000","1","","","","","","",""
"","","","","","image-keyboard-response","157","283523","0.0-132.0","628eb50c442d584fa8275bcc","665500ab8938657b03fbdba8","66579392a2fb4456c1b425a5","231","stimuli/20000002.jpg"," ","","feedback_trial","2","","","","","","","","","","","","","","","","","","","","",""
"","","","","","image-keyboard-response","158","284635","0.0-133.0","628eb50c442d584fa8275bcc","665500ab8938657b03fbdba8","66579392a2fb4456c1b425a5","1111","stimuli/1000010.jpg","1","","prediction_trial","1","","true","","1","false","true","true","true","false","true","[1]","000","010","1","","","","","","",""
"","","","","","image-keyboard-response","159","284859","0.0-134.0","628eb50c442d584fa8275bcc","665500ab8938657b03fbdba8","66579392a2fb4456c1b425a5","223","stimuli/10000101.jpg"," ","","feedback_trial","1","","","","","","","","","","","","","","","","","","","","",""
"","","","","","image-keyboard-response","160","285508","0.0-135.0","628eb50c442d584fa8275bcc","665500ab8938657b03fbdba8","66579392a2fb4456c1b425a5","655","stimuli/0001011.jpg","0","","prediction_trial","0","","true","","0","true","true","true","true","true","true","[0]","001","011","1","","","","","","",""
"","","","","","image-keyboard-response","161","285740","0.0-136.0","628eb50c442d584fa8275bcc","665500ab8938657b03fbdba8","66579392a2fb4456c1b425a5","231","stimuli/00010110.jpg"," ","","feedback_trial","0","","","","","","","","","","","","","","","","","","","","",""
"","","","","","image-keyboard-response","162","287604","0.0-137.0","628eb50c442d584fa8275bcc","665500ab8938657b03fbdba8","66579392a2fb4456c1b425a5","1863","stimuli/0010101.jpg","0","","prediction_trial","0","","true","","0","false","false","true","true","false","false","[0]","010","101","1","","","","","","",""
"","","","","","image-keyboard-response","163","287948","0.0-138.0","628eb50c442d584fa8275bcc","665500ab8938657b03fbdba8","66579392a2fb4456c1b425a5","343","stimuli/00101010.jpg"," ","","feedback_trial","0","","","","","","","","","","","","","","","","","","","","",""
"","","","","","image-keyboard-response","164","288828","0.0-139.0","628eb50c442d584fa8275bcc","665500ab8938657b03fbdba8","66579392a2fb4456c1b425a5","879","stimuli/0010010.jpg","0","","prediction_trial","0","","true","","0","true","true","true","true","true","true","[0]","010","010","1","","","","","","",""
"","","","","","image-keyboard-response","165","289067","0.0-140.0","628eb50c442d584fa8275bcc","665500ab8938657b03fbdba8","66579392a2fb4456c1b425a5","238","stimuli/00100100.jpg"," ","","feedback_trial","0","","","","","","","","","","","","","","","","","","","","",""
"","","","","","image-keyboard-response","166","290053","0.0-141.0","628eb50c442d584fa8275bcc","665500ab8938657b03fbdba8","66579392a2fb4456c1b425a5","984","stimuli/2101101.jpg","2","","prediction_trial","2","","true","","2","false","false","false","false","false","false","[2,0]","101","101","1","","","","","","",""
"","","","","","image-keyboard-response","167","290340","0.0-142.0","628eb50c442d584fa8275bcc","665500ab8938657b03fbdba8","66579392a2fb4456c1b425a5","286","stimuli/21011012.jpg"," ","","feedback_trial","2","","","","","","","","","","","","","","","","","","","","",""
"","","","","","image-keyboard-response","168","291515","0.0-143.0","628eb50c442d584fa8275bcc","665500ab8938657b03fbdba8","66579392a2fb4456c1b425a5","1175","stimuli/0110110.jpg","1","","prediction_trial","1","","true","","0","false","false","false","false","false","false","[0,1]","110","110","1","","","","","","",""
"","","","","","image-keyboard-response","169","291804","0.0-144.0","628eb50c442d584fa8275bcc","665500ab8938657b03fbdba8","66579392a2fb4456c1b425a5","288","stimuli/01101101.jpg"," ","","feedback_trial","0","","","","","","","","","","","","","","","","","","","","",""
"","","","","","image-keyboard-response","170","292477","0.0-145.0","628eb50c442d584fa8275bcc","665500ab8938657b03fbdba8","66579392a2fb4456c1b425a5","671","stimuli/0110001.jpg","0","","prediction_trial","1","","false","","0","true","true","false","false","false","false","[1,0]","110","001","0","","","","","","",""
"","","","","","image-keyboard-response","171","292772","0.0-146.0","628eb50c442d584fa8275bcc","665500ab8938657b03fbdba8","66579392a2fb4456c1b425a5","294","stimuli/01100011.jpg"," ","","feedback_trial","1","","","","","","","","","","","","","","","","","","","","",""
"","","","","","image-keyboard-response","172","293428","0.0-147.0","628eb50c442d584fa8275bcc","665500ab8938657b03fbdba8","66579392a2fb4456c1b425a5","655","stimuli/0111011.jpg","0","","prediction_trial","1","","false","","0","true","true","false","false","false","false","[1,2,0]","111","011","0","","","","","","",""
"","","","","","image-keyboard-response","173","293740","0.0-148.0","628eb50c442d584fa8275bcc","665500ab8938657b03fbdba8","66579392a2fb4456c1b425a5","311","stimuli/01110111.jpg"," ","","feedback_trial","1","","","","","","","","","","","","","","","","","","","","",""
"","","","","","image-keyboard-response","174","294284","0.0-149.0","628eb50c442d584fa8275bcc","665500ab8938657b03fbdba8","66579392a2fb4456c1b425a5","543","stimuli/0101010.jpg","0","","prediction_trial","2","","false","","0","true","true","false","false","false","false","[0,2]","101","010","0","","","","","","",""
"","","","","","image-keyboard-response","175","294612","0.0-150.0","628eb50c442d584fa8275bcc","665500ab8938657b03fbdba8","66579392a2fb4456c1b425a5","326","stimuli/01010102.jpg"," ","","feedback_trial","0","","","","","","","","","","","","","","","","","","","","",""
"","","","","","image-keyboard-response","176","295228","0.0-151.0","628eb50c442d584fa8275bcc","665500ab8938657b03fbdba8","66579392a2fb4456c1b425a5","615","stimuli/0111001.jpg","0","","prediction_trial","1","","false","","0","true","true","false","false","false","false","[1,2,0]","111","001","0","","","","","","",""
"","","","","","image-keyboard-response","177","295564","0.0-152.0","628eb50c442d584fa8275bcc","665500ab8938657b03fbdba8","66579392a2fb4456c1b425a5","335","stimuli/01110011.jpg"," ","","feedback_trial","1","","","","","","","","","","","","","","","","","","","","",""
"","","","","","image-keyboard-response","178","296540","0.0-153.0","628eb50c442d584fa8275bcc","665500ab8938657b03fbdba8","66579392a2fb4456c1b425a5","975","stimuli/2100000.jpg","2","","prediction_trial","2","","true","","2","true","true","true","true","true","true","[2]","100","000","1","","","","","","",""
"","","","","","image-keyboard-response","179","296932","0.0-154.0","628eb50c442d584fa8275bcc","665500ab8938657b03fbdba8","66579392a2fb4456c1b425a5","391","stimuli/21000002.jpg"," ","","feedback_trial","2","","","","","","","","","","","","","","","","","","","","",""
"","","","","","image-keyboard-response","180","298508","0.0-155.0","628eb50c442d584fa8275bcc","665500ab8938657b03fbdba8","66579392a2fb4456c1b425a5","1575","stimuli/0101111.jpg","1","","prediction_trial","0","","false","","0","false","false","false","false","false","false","[0,2]","101","111","0","","","","","","",""
"","","","","","image-keyboard-response","181","298756","0.0-156.0","628eb50c442d584fa8275bcc","665500ab8938657b03fbdba8","66579392a2fb4456c1b425a5","247","stimuli/01011110.jpg"," ","","feedback_trial","0","","","","","","","","","","","","","","","","","","","","",""
"","","","","","image-keyboard-response","182","299372","0.0-157.0","628eb50c442d584fa8275bcc","665500ab8938657b03fbdba8","66579392a2fb4456c1b425a5","615","stimuli/1101001.jpg","1","","prediction_trial","1","","true","","1","true","true","true","true","true","true","[1]","101","001","1","","","","","","",""
"","","","","","image-keyboard-response","183","299604","0.0-158.0","628eb50c442d584fa8275bcc","665500ab8938657b03fbdba8","66579392a2fb4456c1b425a5","231","stimuli/11010011.jpg"," ","","feedback_trial","1","","","","","","","","","","","","","","","","","","","","",""
"","","","","","image-keyboard-response","184","300932","0.0-159.0","628eb50c442d584fa8275bcc","665500ab8938657b03fbdba8","66579392a2fb4456c1b425a5","1327","stimuli/1000111.jpg","0","","prediction_trial","1","","false","","1","false","false","true","true","false","false","[1]","000","111","0","","","","","","",""
"","","","","","image-keyboard-response","185","301580","0.0-160.0","628eb50c442d584fa8275bcc","665500ab8938657b03fbdba8","66579392a2fb4456c1b425a5","646","stimuli/10001111.jpg"," ","","feedback_trial","1","","","","","","","","","","","","","","","","","","","","",""
"","","","","","image-keyboard-response","186","302172","0.0-161.0","628eb50c442d584fa8275bcc","665500ab8938657b03fbdba8","66579392a2fb4456c1b425a5","591","stimuli/1010100.jpg","1","","prediction_trial","1","","true","","1","true","true","false","true","false","true","[1]","010","100","1","","","","","","",""
"","","","","","image-keyboard-response","187","302668","0.0-162.0","628eb50c442d584fa8275bcc","665500ab8938657b03fbdba8","66579392a2fb4456c1b425a5","494","stimuli/10101001.jpg"," ","","feedback_trial","1","","","","","","","","","","","","","","","","","","","","",""
"","","","","","image-keyboard-response","188","303396","0.0-163.0","628eb50c442d584fa8275bcc","665500ab8938657b03fbdba8","66579392a2fb4456c1b425a5","726","stimuli/0000001.jpg","0","","prediction_trial","0","","true","","0","true","true","true","true","true","true","[0]","000","001","1","","","","","","",""
"","","","","","image-keyboard-response","189","303748","0.0-164.0","628eb50c442d584fa8275bcc","665500ab8938657b03fbdba8","66579392a2fb4456c1b425a5","351","stimuli/00000010.jpg"," ","","feedback_trial","0","","","","","","","","","","","","","","","","","","","","",""
"","","","","","image-keyboard-response","190","304908","0.0-165.0","628eb50c442d584fa8275bcc","665500ab8938657b03fbdba8","66579392a2fb4456c1b425a5","1158","stimuli/0010100.jpg","2","","prediction_trial","0","","false","","0","false","true","true","true","false","true","[0]","010","100","0","","","","","","",""
"","","","","","image-keyboard-response","191","305716","0.0-166.0","628eb50c442d584fa8275bcc","665500ab8938657b03fbdba8","66579392a2fb4456c1b425a5","807","stimuli/00101000.jpg"," ","","feedback_trial","0","","","","","","","","","","","","","","","","","","","","",""
"","","","","","image-keyboard-response","192","306380","0.0-167.0","628eb50c442d584fa8275bcc","665500ab8938657b03fbdba8","66579392a2fb4456c1b425a5","663","stimuli/2011100.jpg","2","","prediction_trial","1","","false","","2","true","true","false","false","false","false","[1,2]","011","100","0","","","","","","",""
"","","","","","image-keyboard-response","193","306604","0.0-168.0","628eb50c442d584fa8275bcc","665500ab8938657b03fbdba8","66579392a2fb4456c1b425a5","223","stimuli/20111001.jpg"," ","","feedback_trial","1","","","","","","","","","","","","","","","","","","","","",""
"","","","","","image-keyboard-response","194","307756","0.0-169.0","628eb50c442d584fa8275bcc","665500ab8938657b03fbdba8","66579392a2fb4456c1b425a5","1151","stimuli/1000110.jpg","1","","prediction_trial","1","","true","","1","false","false","true","true","false","false","[1]","000","110","1","","","","","","",""
"","","","","","image-keyboard-response","195","307996","0.0-170.0","628eb50c442d584fa8275bcc","665500ab8938657b03fbdba8","66579392a2fb4456c1b425a5","238","stimuli/10001101.jpg"," ","","feedback_trial","1","","","","","","","","","","","","","","","","","","","","",""
"","","","","","image-keyboard-response","196","310395","0.0-171.0","628eb50c442d584fa8275bcc","665500ab8938657b03fbdba8","66579392a2fb4456c1b425a5","2398","stimuli/1100010.jpg","1","","prediction_trial","1","","true","","1","false","true","true","true","false","true","[1]","100","010","1","","","","","","",""
"","","","","","image-keyboard-response","197","310667","0.0-172.0","628eb50c442d584fa8275bcc","665500ab8938657b03fbdba8","66579392a2fb4456c1b425a5","271","stimuli/11000101.jpg"," ","","feedback_trial","1","","","","","","","","","","","","","","","","","","","","",""
"","","","","","image-keyboard-response","198","311356","0.0-173.0","628eb50c442d584fa8275bcc","665500ab8938657b03fbdba8","66579392a2fb4456c1b425a5","687","stimuli/0110000.jpg","0","","prediction_trial","0","","true","","0","true","true","false","false","false","false","[0,1]","110","000","1","","","","","","",""
"","","","","","image-keyboard-response","199","315308","0.0-174.0","628eb50c442d584fa8275bcc","665500ab8938657b03fbdba8","66579392a2fb4456c1b425a5","3951","stimuli/01100000.jpg"," ","","feedback_trial","0","","","","","","","","","","","","","","","","","","","","",""
"","","","","","image-keyboard-response","200","316668","0.0-175.0","628eb50c442d584fa8275bcc","665500ab8938657b03fbdba8","66579392a2fb4456c1b425a5","1358","stimuli/2010101.jpg","2","","prediction_trial","2","","true","","2","false","false","true","true","false","false","[2]","010","101","1","","","","","","",""
"","","","","","image-keyboard-response","201","317044","0.0-176.0","628eb50c442d584fa8275bcc","665500ab8938657b03fbdba8","66579392a2fb4456c1b425a5","376","stimuli/20101012.jpg"," ","","feedback_trial","2","","","","","","","","","","","","","","","","","","","","",""
"","","","","","image-keyboard-response","202","318116","0.0-177.0","628eb50c442d584fa8275bcc","665500ab8938657b03fbdba8","66579392a2fb4456c1b425a5","1070","stimuli/2000111.jpg","1","","prediction_trial","2","","false","","2","false","false","true","true","false","false","[2]","000","111","0","","","","","","",""
"","","","","","image-keyboard-response","203","318748","0.0-178.0","628eb50c442d584fa8275bcc","665500ab8938657b03fbdba8","66579392a2fb4456c1b425a5","631","stimuli/20001112.jpg"," ","","feedback_trial","2","","","","","","","","","","","","","","","","","","","","",""
"","","","","","image-keyboard-response","204","319292","0.0-179.0","628eb50c442d584fa8275bcc","665500ab8938657b03fbdba8","66579392a2fb4456c1b425a5","543","stimuli/1001100.jpg","1","","prediction_trial","1","","true","","1","true","true","true","true","true","true","[1]","001","100","1","","","","","","",""
"","","","","","image-keyboard-response","205","319500","0.0-180.0","628eb50c442d584fa8275bcc","665500ab8938657b03fbdba8","66579392a2fb4456c1b425a5","206","stimuli/10011001.jpg"," ","","feedback_trial","1","","","","","","","","","","","","","","","","","","","","",""
"","","","","","image-keyboard-response","206","320588","0.0-181.0","628eb50c442d584fa8275bcc","665500ab8938657b03fbdba8","66579392a2fb4456c1b425a5","1087","stimuli/1000011.jpg","1","","prediction_trial","1","","true","","1","false","false","true","true","false","false","[1]","000","011","1","","","","","","",""
"","","","","","image-keyboard-response","207","320796","0.0-182.0","628eb50c442d584fa8275bcc","665500ab8938657b03fbdba8","66579392a2fb4456c1b425a5","206","stimuli/10000111.jpg"," ","","feedback_trial","1","","","","","","","","","","","","","","","","","","","","",""
"","","","","","image-keyboard-response","208","321477","0.0-183.0","628eb50c442d584fa8275bcc","665500ab8938657b03fbdba8","66579392a2fb4456c1b425a5","679","stimuli/0001000.jpg","0","","prediction_trial","0","","true","","0","true","true","true","true","true","true","[0]","001","000","1","","","","","","",""
"","","","","","image-keyboard-response","209","321692","0.0-184.0","628eb50c442d584fa8275bcc","665500ab8938657b03fbdba8","66579392a2fb4456c1b425a5","214","stimuli/00010000.jpg"," ","","feedback_trial","0","","","","","","","","","","","","","","","","","","","","",""
"","","","","","image-keyboard-response","210","322764","0.0-185.0","628eb50c442d584fa8275bcc","665500ab8938657b03fbdba8","66579392a2fb4456c1b425a5","1070","stimuli/2100111.jpg","1","","prediction_trial","2","","false","","2","false","false","true","true","false","false","[2]","100","111","0","","","","","","",""
"","","","","","image-keyboard-response","211","323060","0.0-186.0","628eb50c442d584fa8275bcc","665500ab8938657b03fbdba8","66579392a2fb4456c1b425a5","294","stimuli/21001112.jpg"," ","","feedback_trial","2","","","","","","","","","","","","","","","","","","","","",""
"","","","","","image-keyboard-response","212","324716","0.0-187.0","628eb50c442d584fa8275bcc","665500ab8938657b03fbdba8","66579392a2fb4456c1b425a5","1655","stimuli/1001010.jpg","1","","prediction_trial","1","","true","","1","false","true","true","true","false","true","[1]","001","010","1","","","","","","",""
"","","","","","image-keyboard-response","213","325196","0.0-188.0","628eb50c442d584fa8275bcc","665500ab8938657b03fbdba8","66579392a2fb4456c1b425a5","478","stimuli/10010101.jpg"," ","","feedback_trial","1","","","","","","","","","","","","","","","","","","","","",""
"","","","","","image-keyboard-response","214","325908","0.0-189.0","628eb50c442d584fa8275bcc","665500ab8938657b03fbdba8","66579392a2fb4456c1b425a5","711","stimuli/2100010.jpg","2","","prediction_trial","2","","true","","2","true","true","true","true","true","true","[2]","100","010","1","","","","","","",""
"","","","","","image-keyboard-response","215","326276","0.0-190.0","628eb50c442d584fa8275bcc","665500ab8938657b03fbdba8","66579392a2fb4456c1b425a5","367","stimuli/21000102.jpg"," ","","feedback_trial","2","","","","","","","","","","","","","","","","","","","","",""
"","","","","","image-keyboard-response","216","328836","0.0-191.0","628eb50c442d584fa8275bcc","665500ab8938657b03fbdba8","66579392a2fb4456c1b425a5","2559","stimuli/1010010.jpg","1","","prediction_trial","1","","true","","1","false","true","false","true","false","true","[1]","010","010","1","","","","","","",""
"","","","","","image-keyboard-response","217","329260","0.0-192.0","628eb50c442d584fa8275bcc","665500ab8938657b03fbdba8","66579392a2fb4456c1b425a5","423","stimuli/10100101.jpg"," ","","feedback_trial","1","","","","","","","","","","","","","","","","","","","","",""
"","","","","","image-keyboard-response","218","329956","0.0-193.0","628eb50c442d584fa8275bcc","665500ab8938657b03fbdba8","66579392a2fb4456c1b425a5","694","stimuli/0000011.jpg","0","","prediction_trial","0","","true","","0","true","true","true","true","true","true","[0]","000","011","1","","","","","","",""
"","","","","","image-keyboard-response","219","330300","0.0-194.0","628eb50c442d584fa8275bcc","665500ab8938657b03fbdba8","66579392a2fb4456c1b425a5","343","stimuli/00000110.jpg"," ","","feedback_trial","0","","","","","","","","","","","","","","","","","","","","",""
"","","","","","image-keyboard-response","220","331220","0.0-195.0","628eb50c442d584fa8275bcc","665500ab8938657b03fbdba8","66579392a2fb4456c1b425a5","919","stimuli/0000101.jpg","2","","prediction_trial","0","","false","","0","false","false","true","true","false","false","[0]","000","101","0","","","","","","",""
"","","","","","image-keyboard-response","221","331741","0.0-196.0","628eb50c442d584fa8275bcc","665500ab8938657b03fbdba8","66579392a2fb4456c1b425a5","520","stimuli/00001010.jpg"," ","","feedback_trial","0","","","","","","","","","","","","","","","","","","","","",""
"","","","","","image-keyboard-response","222","332676","0.0-197.0","628eb50c442d584fa8275bcc","665500ab8938657b03fbdba8","66579392a2fb4456c1b425a5","934","stimuli/1110110.jpg","1","","prediction_trial","0","","false","","1","false","false","false","false","false","false","[0,1]","110","110","0","","","","","","",""
"","","","","","image-keyboard-response","223","333004","0.0-198.0","628eb50c442d584fa8275bcc","665500ab8938657b03fbdba8","66579392a2fb4456c1b425a5","327","stimuli/11101100.jpg"," ","","feedback_trial","0","","","","","","","","","","","","","","","","","","","","",""
"","","","","","image-keyboard-response","224","333677","0.0-199.0","628eb50c442d584fa8275bcc","665500ab8938657b03fbdba8","66579392a2fb4456c1b425a5","671","stimuli/1011110.jpg","1","","prediction_trial","2","","false","","1","false","false","false","false","false","false","[1,2]","011","110","0","","","","","","",""
"","","","","","image-keyboard-response","225","333916","0.0-200.0","628eb50c442d584fa8275bcc","665500ab8938657b03fbdba8","66579392a2fb4456c1b425a5","238","stimuli/10111102.jpg"," ","","feedback_trial","1","","","","","","","","","","","","","","","","","","","","",""
"","","","","","image-keyboard-response","226","334580","0.0-201.0","628eb50c442d584fa8275bcc","665500ab8938657b03fbdba8","66579392a2fb4456c1b425a5","663","stimuli/0110011.jpg","0","","prediction_trial","1","","false","","0","true","true","false","false","false","false","[0,1]","110","011","0","","","","","","",""
"","","","","","image-keyboard-response","227","334876","0.0-202.0","628eb50c442d584fa8275bcc","665500ab8938657b03fbdba8","66579392a2fb4456c1b425a5","295","stimuli/01100111.jpg"," ","","feedback_trial","0","","","","","","","","","","","","","","","","","","","","",""
"","","","","","image-keyboard-response","228","335581","0.0-203.0","628eb50c442d584fa8275bcc","665500ab8938657b03fbdba8","66579392a2fb4456c1b425a5","703","stimuli/2101000.jpg","2","","prediction_trial","0","","false","","2","true","true","false","false","false","false","[2,0]","101","000","0","","","","","","",""
"","","","","","image-keyboard-response","229","335852","0.0-204.0","628eb50c442d584fa8275bcc","665500ab8938657b03fbdba8","66579392a2fb4456c1b425a5","270","stimuli/21010000.jpg"," ","","feedback_trial","2","","","","","","","","","","","","","","","","","","","","",""
"","","","","","image-keyboard-response","230","336685","0.0-205.0","628eb50c442d584fa8275bcc","665500ab8938657b03fbdba8","66579392a2fb4456c1b425a5","831","stimuli/1110100.jpg","1","","prediction_trial","1","","true","","1","true","true","false","false","false","false","[1,0]","110","100","1","","","","","","",""
"","","","","","image-keyboard-response","231","336956","0.0-206.0","628eb50c442d584fa8275bcc","665500ab8938657b03fbdba8","66579392a2fb4456c1b425a5","270","stimuli/11101001.jpg"," ","","feedback_trial","1","","","","","","","","","","","","","","","","","","","","",""
"","","","","","image-keyboard-response","232","337612","0.0-207.0","628eb50c442d584fa8275bcc","665500ab8938657b03fbdba8","66579392a2fb4456c1b425a5","654","stimuli/2111110.jpg","2","","prediction_trial","0","","false","","2","true","true","false","false","false","false","[1,2,0]","111","110","0","","","","","","",""
"","","","","","image-keyboard-response","233","337908","0.0-208.0","628eb50c442d584fa8275bcc","665500ab8938657b03fbdba8","66579392a2fb4456c1b425a5","295","stimuli/21111100.jpg"," ","","feedback_trial","1","","","","","","","","","","","","","","","","","","","","",""
"","","","","","image-keyboard-response","234","338908","0.0-209.0","628eb50c442d584fa8275bcc","665500ab8938657b03fbdba8","66579392a2fb4456c1b425a5","999","stimuli/1111111.jpg","1","","prediction_trial","2","","false","","1","false","false","false","false","false","false","[0,2,1]","111","111","0","","","","","","",""
"","","","","","image-keyboard-response","235","339204","0.0-210.0","628eb50c442d584fa8275bcc","665500ab8938657b03fbdba8","66579392a2fb4456c1b425a5","295","stimuli/11111112.jpg"," ","","feedback_trial","0","","","","","","","","","","","","","","","","","","","","",""
"","","","","","image-keyboard-response","236","340188","0.0-211.0","628eb50c442d584fa8275bcc","665500ab8938657b03fbdba8","66579392a2fb4456c1b425a5","983","stimuli/2000001.jpg","2","","prediction_trial","2","","true","","2","false","true","true","true","false","true","[2]","000","001","1","","","","","","",""
"","","","","","image-keyboard-response","237","340452","0.0-212.0","628eb50c442d584fa8275bcc","665500ab8938657b03fbdba8","66579392a2fb4456c1b425a5","262","stimuli/20000012.jpg"," ","","feedback_trial","2","","","","","","","","","","","","","","","","","","","","",""
"","","","","","image-keyboard-response","238","341707","0.0-213.0","628eb50c442d584fa8275bcc","665500ab8938657b03fbdba8","66579392a2fb4456c1b425a5","1255","stimuli/1111011.jpg","1","","prediction_trial","0","","false","","1","false","false","false","false","false","false","[2,1,0]","111","011","0","","","","","","",""
"","","","","","image-keyboard-response","239","342021","0.0-214.0","628eb50c442d584fa8275bcc","665500ab8938657b03fbdba8","66579392a2fb4456c1b425a5","312","stimuli/11110110.jpg"," ","","feedback_trial","2","","","","","","","","","","","","","","","","","","","","",""
"","","","","","image-keyboard-response","240","343412","0.0-215.0","628eb50c442d584fa8275bcc","665500ab8938657b03fbdba8","66579392a2fb4456c1b425a5","1390","stimuli/1111110.jpg","1","","prediction_trial","0","","false","","1","false","false","false","false","false","false","[1,0,2]","111","110","0","","","","","","",""
"","","","","","image-keyboard-response","241","343588","0.0-216.0","628eb50c442d584fa8275bcc","665500ab8938657b03fbdba8","66579392a2fb4456c1b425a5","175","stimuli/11111100.jpg"," ","","feedback_trial","1","","","","","","","","","","","","","","","","","","","","",""
"","","","","","image-keyboard-response","242","344540","0.0-217.0","628eb50c442d584fa8275bcc","665500ab8938657b03fbdba8","66579392a2fb4456c1b425a5","951","stimuli/2001111.jpg","1","","prediction_trial","2","","false","","2","false","false","false","true","false","false","[2]","001","111","0","","","","","","",""
"","","","","","image-keyboard-response","243","344732","0.0-218.0","628eb50c442d584fa8275bcc","665500ab8938657b03fbdba8","66579392a2fb4456c1b425a5","190","stimuli/20011112.jpg"," ","","feedback_trial","2","","","","","","","","","","","","","","","","","","","","",""
"","","","","","image-keyboard-response","244","345324","0.0-219.0","628eb50c442d584fa8275bcc","665500ab8938657b03fbdba8","66579392a2fb4456c1b425a5","591","stimuli/1100011.jpg","1","","prediction_trial","1","","true","","1","false","false","true","true","false","false","[1]","100","011","1","","","","","","",""
"","","","","","image-keyboard-response","245","345492","0.0-220.0","628eb50c442d584fa8275bcc","665500ab8938657b03fbdba8","66579392a2fb4456c1b425a5","166","stimuli/11000111.jpg"," ","","feedback_trial","1","","","","","","","","","","","","","","","","","","","","",""
"","","","","","image-keyboard-response","246","346048","0.0-221.0","628eb50c442d584fa8275bcc","665500ab8938657b03fbdba8","66579392a2fb4456c1b425a5","542","stimuli/2000100.jpg","2","","prediction_trial","2","","true","","2","true","true","true","true","true","true","[2]","000","100","1","","","","","","",""
"","","","","","image-keyboard-response","247","346312","0.0-222.0","628eb50c442d584fa8275bcc","665500ab8938657b03fbdba8","66579392a2fb4456c1b425a5","263","stimuli/20001002.jpg"," ","","feedback_trial","2","","","","","","","","","","","","","","","","","","","","",""
"","","","","","image-keyboard-response","248","346992","0.0-223.0","628eb50c442d584fa8275bcc","665500ab8938657b03fbdba8","66579392a2fb4456c1b425a5","678","stimuli/1110001.jpg","1","","prediction_trial","0","","false","","1","true","true","false","false","false","false","[0,1]","110","001","0","","","","","","",""
"","","","","","image-keyboard-response","249","347297","0.0-224.0","628eb50c442d584fa8275bcc","665500ab8938657b03fbdba8","66579392a2fb4456c1b425a5","304","stimuli/11100010.jpg"," ","","feedback_trial","0","","","","","","","","","","","","","","","","","","","","",""
"","","","","","image-keyboard-response","250","347833","0.0-225.0","628eb50c442d584fa8275bcc","665500ab8938657b03fbdba8","66579392a2fb4456c1b425a5","534","stimuli/1111000.jpg","1","","prediction_trial","1","","true","","1","true","true","false","false","false","false","[0,1,2]","111","000","1","","","","","","",""
"","","","","","image-keyboard-response","251","348001","0.0-226.0","628eb50c442d584fa8275bcc","665500ab8938657b03fbdba8","66579392a2fb4456c1b425a5","167","stimuli/11110001.jpg"," ","","feedback_trial","0","","","","","","","","","","","","","","","","","","","","",""
"","","","","","image-keyboard-response","252","348576","0.0-227.0","628eb50c442d584fa8275bcc","665500ab8938657b03fbdba8","66579392a2fb4456c1b425a5","574","stimuli/0101001.jpg","0","","prediction_trial","0","","true","","0","true","true","false","false","false","false","[2,0]","101","001","1","","","","","","",""
"","","","","","image-keyboard-response","253","348825","0.0-228.0","628eb50c442d584fa8275bcc","665500ab8938657b03fbdba8","66579392a2fb4456c1b425a5","248","stimuli/01010010.jpg"," ","","feedback_trial","2","","","","","","","","","","","","","","","","","","","","",""
"","","","","","image-keyboard-response","254","349512","0.0-229.0","628eb50c442d584fa8275bcc","665500ab8938657b03fbdba8","66579392a2fb4456c1b425a5","686","stimuli/0100011.jpg","0","","prediction_trial","0","","true","","0","true","true","false","true","false","true","[0]","100","011","1","","","","","","",""
"","","","","","image-keyboard-response","255","349873","0.0-230.0","628eb50c442d584fa8275bcc","665500ab8938657b03fbdba8","66579392a2fb4456c1b425a5","359","stimuli/01000110.jpg"," ","","feedback_trial","0","","","","","","","","","","","","","","","","","","","","",""
"","","","","","image-keyboard-response","256","350544","0.0-231.0","628eb50c442d584fa8275bcc","665500ab8938657b03fbdba8","66579392a2fb4456c1b425a5","670","stimuli/2011010.jpg","2","","prediction_trial","1","","false","","2","true","true","false","false","false","false","[2,1]","011","010","0","","","","","","",""
"","","","","","image-keyboard-response","257","351225","0.0-232.0","628eb50c442d584fa8275bcc","665500ab8938657b03fbdba8","66579392a2fb4456c1b425a5","679","stimuli/20110101.jpg"," ","","feedback_trial","2","","","","","","","","","","","","","","","","","","","","",""
"","","","","","image-keyboard-response","258","352681","0.0-233.0","628eb50c442d584fa8275bcc","665500ab8938657b03fbdba8","66579392a2fb4456c1b425a5","1454","stimuli/0011100.jpg","0","","prediction_trial","0","","true","","0","false","true","true","true","false","true","[0]","011","100","1","","","","","","",""
"","","","","","image-keyboard-response","259","353105","0.0-234.0","628eb50c442d584fa8275bcc","665500ab8938657b03fbdba8","66579392a2fb4456c1b425a5","423","stimuli/00111000.jpg"," ","","feedback_trial","0","","","","","","","","","","","","","","","","","","","","",""
"","","","","","image-keyboard-response","260","356112","0.0-235.0","628eb50c442d584fa8275bcc","665500ab8938657b03fbdba8","66579392a2fb4456c1b425a5","3006","stimuli/0011110.jpg","0","","prediction_trial","0","","true","","0","false","false","true","true","false","false","[0]","011","110","1","","","","","","",""
"","","","","","image-keyboard-response","261","356528","0.0-236.0","628eb50c442d584fa8275bcc","665500ab8938657b03fbdba8","66579392a2fb4456c1b425a5","415","stimuli/00111100.jpg"," ","","feedback_trial","0","","","","","","","","","","","","","","","","","","","","",""
"","","","","","image-keyboard-response","262","357569","0.0-237.0","628eb50c442d584fa8275bcc","665500ab8938657b03fbdba8","66579392a2fb4456c1b425a5","1039","stimuli/1100111.jpg","1","","prediction_trial","1","","true","","1","false","false","true","true","false","false","[1]","100","111","1","","","","","","",""
"","","","","","image-keyboard-response","263","357912","0.0-238.0","628eb50c442d584fa8275bcc","665500ab8938657b03fbdba8","66579392a2fb4456c1b425a5","342","stimuli/11001111.jpg"," ","","feedback_trial","1","","","","","","","","","","","","","","","","","","","","",""
"","","","","","image-keyboard-response","264","358569","0.0-239.0","628eb50c442d584fa8275bcc","665500ab8938657b03fbdba8","66579392a2fb4456c1b425a5","655","stimuli/1111101.jpg","1","","prediction_trial","0","","false","","1","true","true","false","false","false","false","[0,1,2]","111","101","0","","","","","","",""
"","","","","","image-keyboard-response","265","358873","0.0-240.0","628eb50c442d584fa8275bcc","665500ab8938657b03fbdba8","66579392a2fb4456c1b425a5","303","stimuli/11111010.jpg"," ","","feedback_trial","0","","","","","","","","","","","","","","","","","","","","",""
"","","","","","image-keyboard-response","266","360865","0.0-241.0","628eb50c442d584fa8275bcc","665500ab8938657b03fbdba8","66579392a2fb4456c1b425a5","1990","stimuli/1001110.jpg","2","","prediction_trial","1","","false","","1","false","false","true","true","false","false","[1]","001","110","0","","","","","","",""
"","","","","","image-keyboard-response","267","361801","0.0-242.0","628eb50c442d584fa8275bcc","665500ab8938657b03fbdba8","66579392a2fb4456c1b425a5","935","stimuli/10011101.jpg"," ","","feedback_trial","1","","","","","","","","","","","","","","","","","","","","",""
"","","","","","image-keyboard-response","268","362643","0.0-243.0","628eb50c442d584fa8275bcc","665500ab8938657b03fbdba8","66579392a2fb4456c1b425a5","839","stimuli/0011101.jpg","2","","prediction_trial","0","","false","","0","false","false","true","true","false","false","[0]","011","101","0","","","","","","",""
"","","","","","image-keyboard-response","269","362881","0.0-244.0","628eb50c442d584fa8275bcc","665500ab8938657b03fbdba8","66579392a2fb4456c1b425a5","236","stimuli/00111010.jpg"," ","","feedback_trial","0","","","","","","","","","","","","","","","","","","","","",""
"","","","","","image-keyboard-response","270","363537","0.0-245.0","628eb50c442d584fa8275bcc","665500ab8938657b03fbdba8","66579392a2fb4456c1b425a5","654","stimuli/2110010.jpg","2","","prediction_trial","2","","true","","2","true","true","true","true","true","true","[2]","110","010","1","","","","","","",""
"","","","","","image-keyboard-response","271","363728","0.0-246.0","628eb50c442d584fa8275bcc","665500ab8938657b03fbdba8","66579392a2fb4456c1b425a5","190","stimuli/21100102.jpg"," ","","feedback_trial","2","","","","","","","","","","","","","","","","","","","","",""
"","","","","","image-keyboard-response","272","364592","0.0-247.0","628eb50c442d584fa8275bcc","665500ab8938657b03fbdba8","66579392a2fb4456c1b425a5","863","stimuli/1100100.jpg","1","","prediction_trial","1","","true","","1","true","true","true","true","true","true","[1]","100","100","1","","","","","","",""
"","","","","","image-keyboard-response","273","364801","0.0-248.0","628eb50c442d584fa8275bcc","665500ab8938657b03fbdba8","66579392a2fb4456c1b425a5","207","stimuli/11001001.jpg"," ","","feedback_trial","1","","","","","","","","","","","","","","","","","","","","",""
"","","","","","image-keyboard-response","274","365497","0.0-249.0","628eb50c442d584fa8275bcc","665500ab8938657b03fbdba8","66579392a2fb4456c1b425a5","695","stimuli/2110100.jpg","2","","prediction_trial","2","","true","","2","true","true","true","true","true","true","[2]","110","100","1","","","","","","",""
"","","","","","image-keyboard-response","275","365760","0.0-250.0","628eb50c442d584fa8275bcc","665500ab8938657b03fbdba8","66579392a2fb4456c1b425a5","262","stimuli/21101002.jpg"," ","","feedback_trial","2","","","","","","","","","","","","","","","","","","","","",""
"","","","","","image-keyboard-response","276","367000","0.0-251.0","628eb50c442d584fa8275bcc","665500ab8938657b03fbdba8","66579392a2fb4456c1b425a5","1240","stimuli/2000011.jpg","1","","prediction_trial","2","","false","","2","false","false","true","true","false","false","[2]","000","011","0","","","","","","",""
"","","","","","image-keyboard-response","277","367272","0.0-252.0","628eb50c442d584fa8275bcc","665500ab8938657b03fbdba8","66579392a2fb4456c1b425a5","270","stimuli/20000112.jpg"," ","","feedback_trial","2","","","","","","","","","","","","","","","","","","","","",""
"","","","","","image-keyboard-response","278","368240","0.0-253.0","628eb50c442d584fa8275bcc","665500ab8938657b03fbdba8","66579392a2fb4456c1b425a5","967","stimuli/0101100.jpg","0","","prediction_trial","2","","false","","0","false","true","false","false","false","false","[2,0]","101","100","0","","","","","","",""
"","","","","","image-keyboard-response","279","368512","0.0-254.0","628eb50c442d584fa8275bcc","665500ab8938657b03fbdba8","66579392a2fb4456c1b425a5","271","stimuli/01011002.jpg"," ","","feedback_trial","2","","","","","","","","","","","","","","","","","","","","",""
"","","","","","image-keyboard-response","280","369568","0.0-255.0","628eb50c442d584fa8275bcc","665500ab8938657b03fbdba8","66579392a2fb4456c1b425a5","1054","stimuli/1100001.jpg","1","","prediction_trial","1","","true","","1","true","true","true","true","true","true","[1]","100","001","1","","","","","","",""
"","","","","","image-keyboard-response","281","369793","0.0-256.0","628eb50c442d584fa8275bcc","665500ab8938657b03fbdba8","66579392a2fb4456c1b425a5","223","stimuli/11000011.jpg"," ","","feedback_trial","1","","","","","","","","","","","","","","","","","","","","",""
"","","","","","image-keyboard-response","282","371049","0.0-257.0","628eb50c442d584fa8275bcc","665500ab8938657b03fbdba8","66579392a2fb4456c1b425a5","1255","stimuli/2011001.jpg","2","","prediction_trial","1","","false","","2","false","true","false","false","false","false","[1,2]","011","001","0","","","","","","",""
"","","","","","image-keyboard-response","283","371448","0.0-258.0","628eb50c442d584fa8275bcc","665500ab8938657b03fbdba8","66579392a2fb4456c1b425a5","397","stimuli/20110011.jpg"," ","","feedback_trial","1","","","","","","","","","","","","","","","","","","","","",""
"","","","","","image-keyboard-response","284","372184","0.0-259.0","628eb50c442d584fa8275bcc","665500ab8938657b03fbdba8","66579392a2fb4456c1b425a5","736","stimuli/1011100.jpg","1","","prediction_trial","1","","true","","1","true","true","false","false","false","false","[2,1]","011","100","1","","","","","","",""
"","","","","","image-keyboard-response","285","372544","0.0-260.0","628eb50c442d584fa8275bcc","665500ab8938657b03fbdba8","66579392a2fb4456c1b425a5","358","stimuli/10111001.jpg"," ","","feedback_trial","2","","","","","","","","","","","","","","","","","","","","",""
"","","","","","image-keyboard-response","286","373689","0.0-261.0","628eb50c442d584fa8275bcc","665500ab8938657b03fbdba8","66579392a2fb4456c1b425a5","1144","stimuli/0001101.jpg","2","","prediction_trial","0","","false","","0","false","false","true","true","false","false","[0]","001","101","0","","","","","","",""
"","","","","","image-keyboard-response","287","373985","0.0-262.0","628eb50c442d584fa8275bcc","665500ab8938657b03fbdba8","66579392a2fb4456c1b425a5","295","stimuli/00011010.jpg"," ","","feedback_trial","0","","","","","","","","","","","","","","","","","","","","",""
"","","","","","image-keyboard-response","288","374888","0.0-263.0","628eb50c442d584fa8275bcc","665500ab8938657b03fbdba8","66579392a2fb4456c1b425a5","902","stimuli/1011001.jpg","1","","prediction_trial","1","","true","","1","true","true","false","false","false","false","[2,1]","011","001","1","","","","","","",""
"","","","","","image-keyboard-response","289","375152","0.0-264.0","628eb50c442d584fa8275bcc","665500ab8938657b03fbdba8","66579392a2fb4456c1b425a5","263","stimuli/10110011.jpg"," ","","feedback_trial","2","","","","","","","","","","","","","","","","","","","","",""
"","","","","","image-keyboard-response","290","376136","0.0-265.0","628eb50c442d584fa8275bcc","665500ab8938657b03fbdba8","66579392a2fb4456c1b425a5","983","stimuli/2001101.jpg","0","","prediction_trial","2","","false","","2","false","false","false","true","false","false","[2]","001","101","0","","","","","","",""
"","","","","","image-keyboard-response","291","376585","0.0-266.0","628eb50c442d584fa8275bcc","665500ab8938657b03fbdba8","66579392a2fb4456c1b425a5","448","stimuli/20011012.jpg"," ","","feedback_trial","2","","","","","","","","","","","","","","","","","","","","",""
"","","","","","image-keyboard-response","292","377337","0.0-267.0","628eb50c442d584fa8275bcc","665500ab8938657b03fbdba8","66579392a2fb4456c1b425a5","751","stimuli/2110110.jpg","2","","prediction_trial","2","","true","","2","true","true","true","true","true","true","[2]","110","110","1","","","","","","",""
"","","","","","image-keyboard-response","293","377720","0.0-268.0","628eb50c442d584fa8275bcc","665500ab8938657b03fbdba8","66579392a2fb4456c1b425a5","382","stimuli/21101102.jpg"," ","","feedback_trial","2","","","","","","","","","","","","","","","","","","","","",""
"","","","","","image-keyboard-response","294","378440","0.0-269.0","628eb50c442d584fa8275bcc","665500ab8938657b03fbdba8","66579392a2fb4456c1b425a5","719","stimuli/1111100.jpg","1","","prediction_trial","1","","true","","1","true","true","false","false","false","false","[0,2,1]","111","100","1","","","","","","",""
"","","","","","image-keyboard-response","295","378737","0.0-270.0","628eb50c442d584fa8275bcc","665500ab8938657b03fbdba8","66579392a2fb4456c1b425a5","295","stimuli/11111001.jpg"," ","","feedback_trial","0","","","","","","","","","","","","","","","","","","","","",""
"","","","","","image-keyboard-response","296","379504","0.0-271.0","628eb50c442d584fa8275bcc","665500ab8938657b03fbdba8","66579392a2fb4456c1b425a5","766","stimuli/2101111.jpg","0","","prediction_trial","0","","true","","2","false","false","false","false","false","false","[2,0]","101","111","1","","","","","","",""
"","","","","","image-keyboard-response","297","379800","0.0-272.0","628eb50c442d584fa8275bcc","665500ab8938657b03fbdba8","66579392a2fb4456c1b425a5","295","stimuli/21011110.jpg"," ","","feedback_trial","2","","","","","","","","","","","","","","","","","","","","",""
"","","","","","image-keyboard-response","298","380664","0.0-273.0","628eb50c442d584fa8275bcc","665500ab8938657b03fbdba8","66579392a2fb4456c1b425a5","863","stimuli/2111000.jpg","2","","prediction_trial","2","","true","","2","true","true","false","false","false","false","[1,2,0]","111","000","1","","","","","","",""
"","","","","","image-keyboard-response","299","381001","0.0-274.0","628eb50c442d584fa8275bcc","665500ab8938657b03fbdba8","66579392a2fb4456c1b425a5","336","stimuli/21110002.jpg"," ","","feedback_trial","1","","","","","","","","","","","","","","","","","","","","",""
"","","","","","image-keyboard-response","300","381664","0.0-275.0","628eb50c442d584fa8275bcc","665500ab8938657b03fbdba8","66579392a2fb4456c1b425a5","662","stimuli/2111111.jpg","1","","prediction_trial","2","","false","","2","false","false","false","false","false","false","[1,2,0]","111","111","0","","","","","","",""
"","","","","","image-keyboard-response","301","382112","0.0-276.0","628eb50c442d584fa8275bcc","665500ab8938657b03fbdba8","66579392a2fb4456c1b425a5","446","stimuli/21111112.jpg"," ","","feedback_trial","1","","","","","","","","","","","","","","","","","","","","",""
"","","","","","image-keyboard-response","302","383208","0.0-277.0","628eb50c442d584fa8275bcc","665500ab8938657b03fbdba8","66579392a2fb4456c1b425a5","1095","stimuli/1011010.jpg","1","","prediction_trial","1","","true","","1","false","true","false","false","false","false","[2,1]","011","010","1","","","","","","",""
"","","","","","image-keyboard-response","303","383456","0.0-278.0","628eb50c442d584fa8275bcc","665500ab8938657b03fbdba8","66579392a2fb4456c1b425a5","247","stimuli/10110101.jpg"," ","","feedback_trial","2","","","","","","","","","","","","","","","","","","","","",""
"","","","","","image-keyboard-response","304","384369","0.0-279.0","628eb50c442d584fa8275bcc","665500ab8938657b03fbdba8","66579392a2fb4456c1b425a5","912","stimuli/0100111.jpg","0","","prediction_trial","0","","true","","0","false","false","false","true","false","false","[0]","100","111","1","","","","","","",""
"","","","","","image-keyboard-response","305","384608","0.0-280.0","628eb50c442d584fa8275bcc","665500ab8938657b03fbdba8","66579392a2fb4456c1b425a5","238","stimuli/01001110.jpg"," ","","feedback_trial","0","","","","","","","","","","","","","","","","","","","","",""
"","","","","","image-keyboard-response","306","386344","0.0-281.0","628eb50c442d584fa8275bcc","665500ab8938657b03fbdba8","66579392a2fb4456c1b425a5","1735","stimuli/1110111.jpg","1","","prediction_trial","0","","false","","1","false","false","false","false","false","false","[0,1]","110","111","0","","","","","","",""
"","","","","","image-keyboard-response","307","386640","0.0-282.0","628eb50c442d584fa8275bcc","665500ab8938657b03fbdba8","66579392a2fb4456c1b425a5","295","stimuli/11101110.jpg"," ","","feedback_trial","0","","","","","","","","","","","","","","","","","","","","",""
"","","","","","image-keyboard-response","308","387568","0.0-283.0","628eb50c442d584fa8275bcc","665500ab8938657b03fbdba8","66579392a2fb4456c1b425a5","927","stimuli/1010111.jpg","1","","prediction_trial","1","","true","","1","false","false","false","true","false","false","[1]","010","111","1","","","","","","",""
"","","","","","image-keyboard-response","309","387785","0.0-284.0","628eb50c442d584fa8275bcc","665500ab8938657b03fbdba8","66579392a2fb4456c1b425a5","215","stimuli/10101111.jpg"," ","","feedback_trial","1","","","","","","","","","","","","","","","","","","","","",""
"","","","","","image-keyboard-response","310","388424","0.0-285.0","628eb50c442d584fa8275bcc","665500ab8938657b03fbdba8","66579392a2fb4456c1b425a5","639","stimuli/0011000.jpg","0","","prediction_trial","0","","true","","0","true","true","true","true","true","true","[0]","011","000","1","","","","","","",""
"","","","","","image-keyboard-response","311","388641","0.0-286.0","628eb50c442d584fa8275bcc","665500ab8938657b03fbdba8","66579392a2fb4456c1b425a5","215","stimuli/00110000.jpg"," ","","feedback_trial","0","","","","","","","","","","","","","","","","","","","","",""
"","","","","","image-keyboard-response","312","389280","0.0-287.0","628eb50c442d584fa8275bcc","665500ab8938657b03fbdba8","66579392a2fb4456c1b425a5","638","stimuli/0010011.jpg","0","","prediction_trial","0","","true","","0","true","true","true","true","true","true","[0]","010","011","1","","","","","","",""
"","","","","","image-keyboard-response","313","389825","0.0-288.0","628eb50c442d584fa8275bcc","665500ab8938657b03fbdba8","66579392a2fb4456c1b425a5","544","stimuli/00100110.jpg"," ","","feedback_trial","0","","","","","","","","","","","","","","","","","","","","",""
"","","","","","image-keyboard-response","314","390496","0.0-289.0","628eb50c442d584fa8275bcc","665500ab8938657b03fbdba8","66579392a2fb4456c1b425a5","671","stimuli/0110111.jpg","1","","prediction_trial","1","","true","","0","false","false","false","false","false","false","[0,1]","110","111","1","","","","","","",""
"","","","","","image-keyboard-response","315","390872","0.0-290.0","628eb50c442d584fa8275bcc","665500ab8938657b03fbdba8","66579392a2fb4456c1b425a5","374","stimuli/01101111.jpg"," ","","feedback_trial","0","","","","","","","","","","","","","","","","","","","","",""
"","","","","","image-keyboard-response","316","391449","0.0-291.0","628eb50c442d584fa8275bcc","665500ab8938657b03fbdba8","66579392a2fb4456c1b425a5","575","stimuli/2001110.jpg","2","","prediction_trial","2","","true","","2","true","true","false","true","false","true","[2]","001","110","1","","","","","","",""
"","","","","","image-keyboard-response","317","391832","0.0-292.0","628eb50c442d584fa8275bcc","665500ab8938657b03fbdba8","66579392a2fb4456c1b425a5","382","stimuli/20011102.jpg"," ","","feedback_trial","2","","","","","","","","","","","","","","","","","","","","",""
"","","","","","survey-html-form","318","415986","0.0-293.0","628eb50c442d584fa8275bcc","665500ab8938657b03fbdba8","66579392a2fb4456c1b425a5","24153","","{""feedback"":""if sam could see the basket or not"",""age"":""38"",""gender"":""Male"",""other_gender"":"""",""race"":""White"",""other_race"":"""",""ethnicity"":""Non-Hispanic""}","","exit_survey","","","","","","","","","","","","","","","","if sam could see the basket or not","38","Non-Hispanic","Male","White","0.6041666666666666","0.6041666666666666"
