"success","timeout","failed_images","failed_audio","failed_video","trial_type","trial_index","time_elapsed","internal_node_id","prolific_id","prolific_study_id","prolific_session_id","rt","stimulus","response","view_history","trial","character_choice","stimulus_dict","accuracy","correct_response","ball_pos","ego_ball_visible","ego_can_infer","alter_ball_visible","alter_can_infer","collective_ball_visible","collective_can_infer","search_locations","alter_occluders","ego_occluders","accuracy_bool","feedback","age","ethnicity","gender","race","overall_accuracy","bonus"
"true","false","[]","[]","[]","preload","0","3471","0.0-0.0","641c0a284d38c6abbc523a9d","665500ab8938657b03fbdba8","6657828c3e86d947fcd8260b","","","","","","","","","","","","","","","","","","","","","","","","","","",""
"true","","","","","fullscreen","1","8349","0.0-1.0","641c0a284d38c6abbc523a9d","665500ab8938657b03fbdba8","6657828c3e86d947fcd8260b","","","","","","","","","","","","","","","","","","","","","","","","","","",""
"","","","","","html-button-response","2","578914","0.0-2.0","641c0a284d38c6abbc523a9d","665500ab8938657b03fbdba8","6657828c3e86d947fcd8260b","570561","<p><b>Consent Form</b></p> <div style=""text-align:left;background-color:lightgrey; padding:20px; max-width:900px;""><p>Please consider this information carefully before deciding whether to participate in this research.</p> <p>The purpose of this research is to examine which factors influence social judgment and decision-making. You will be asked to make judgements about individuals and actions in social scenarios. We are simply interested in your judgement. The study will take less than 1 hour to complete, and you will receive less than $20 on Prolific. Your compensation and time commitment are specified in the study description. There are no anticipated risks associated with participating in this study. The effects of participating should be comparable to those you would ordinarily experience from viewing a computer monitor and using a mouse or keyboard for a similar amount of time. At the end of the study, we will provide an explanation of the questions that motivate this line of research and will describe the potential implications. </p><p> Your participation in this study is completely voluntary and you may refuse to participate or you may choose to withdraw at any time without penalty or loss of benefits to you which are otherwise entitled. Your participation in this study will remain confidential. No personally identifiable information will be associated with your data. Also, all analyses of the data will be averaged across all the participants, so your individual responses will never be specifically analyzed. </p><p> If you have questions or concerns about your participation or payment, or want to request a summary of research findings, please contact Dr. Jonathan Phillips at Jonathan.S.Phillips@dartmouth.edu. </p><p> Please save a copy of this form for your records. </p><p><b>Agreement: </b>The nature and purpose of this research have been sufficiently explained and I agree to participate in this study. I understand that I am free to withdraw at any time without incurring any penalty. Please consent by clicking the button below to continue. Otherwise, please exit the study at any time. </p>","0","","","","","","","","","","","","","","","","","","","","","","","",""
"","","","","","instructions","3","618678","0.0-3.0-0.0","641c0a284d38c6abbc523a9d","665500ab8938657b03fbdba8","6657828c3e86d947fcd8260b","39763","","","[{""page_index"":0,""viewing_time"":1138},{""page_index"":1,""viewing_time"":1812},{""page_index"":2,""viewing_time"":2042},{""page_index"":3,""viewing_time"":3199},{""page_index"":4,""viewing_time"":1740},{""page_index"":5,""viewing_time"":2095},{""page_index"":6,""viewing_time"":3663},{""page_index"":7,""viewing_time"":2264},{""page_index"":8,""viewing_time"":2834},{""page_index"":9,""viewing_time"":1751},{""page_index"":10,""viewing_time"":7523},{""page_index"":11,""viewing_time"":4852},{""page_index"":12,""viewing_time"":4029},{""page_index"":13,""viewing_time"":821}]","intro","","","","","","","","","","","","","","","","","","","","","",""
"","","","","","image-keyboard-response","4","622179","0.0-3.0-1.0","641c0a284d38c6abbc523a9d","665500ab8938657b03fbdba8","6657828c3e86d947fcd8260b","3498","stimuli/0101100.jpg","0","","prediction_practice","0","{""filepath"":""stimuli/0101100.jpg"",""ball_pos"":0,""ego_ball_visible"":false,""ego_can_infer"":true,""alter_ball_visible"":false,""alter_can_infer"":false,""collective_ball_visible"":false,""collective_can_infer"":false,""search_locations"":[0,2],""alter_occluders"":""101"",""ego_occluders"":""100""}","true","","","","","","","","","","","","","","","","","","",""
"","","","","","image-keyboard-response","5","624522","0.0-3.0-2.0","641c0a284d38c6abbc523a9d","665500ab8938657b03fbdba8","6657828c3e86d947fcd8260b","2341","stimuli/01011000.jpg"," ","","practrice_feedback","0","","","","","","","","","","","","","","","","","","","","",""
"","","","","","image-keyboard-response","6","629737","0.0-3.0-3.0","641c0a284d38c6abbc523a9d","665500ab8938657b03fbdba8","6657828c3e86d947fcd8260b","5213","stimuli/2111011.jpg","1","","prediction_practice","1","{""filepath"":""stimuli/2111011.jpg"",""ball_pos"":2,""ego_ball_visible"":false,""ego_can_infer"":false,""alter_ball_visible"":false,""alter_can_infer"":false,""collective_ball_visible"":false,""collective_can_infer"":false,""search_locations"":[2,1,0],""alter_occluders"":""111"",""ego_occluders"":""011""}","true","","","","","","","","","","","","","","","","","","",""
"","","","","","image-keyboard-response","7","630980","0.0-3.0-4.0","641c0a284d38c6abbc523a9d","665500ab8938657b03fbdba8","6657828c3e86d947fcd8260b","1240","stimuli/21110111.jpg"," ","","practrice_feedback","2","","","","","","","","","","","","","","","","","","","","",""
"","","","","","image-keyboard-response","8","632667","0.0-3.0-5.0","641c0a284d38c6abbc523a9d","665500ab8938657b03fbdba8","6657828c3e86d947fcd8260b","1686","stimuli/2001110.jpg","2","","prediction_practice","2","{""filepath"":""stimuli/2001110.jpg"",""ball_pos"":2,""ego_ball_visible"":true,""ego_can_infer"":true,""alter_ball_visible"":false,""alter_can_infer"":true,""collective_ball_visible"":false,""collective_can_infer"":true,""search_locations"":[2],""alter_occluders"":""001"",""ego_occluders"":""110""}","true","","","","","","","","","","","","","","","","","","",""
"","","","","","image-keyboard-response","9","633445","0.0-3.0-6.0","641c0a284d38c6abbc523a9d","665500ab8938657b03fbdba8","6657828c3e86d947fcd8260b","775","stimuli/20011102.jpg"," ","","practrice_feedback","2","","","","","","","","","","","","","","","","","","","","",""
"","","","","","image-keyboard-response","10","635427","0.0-3.0-7.0","641c0a284d38c6abbc523a9d","665500ab8938657b03fbdba8","6657828c3e86d947fcd8260b","1978","stimuli/0111111.jpg","0","","prediction_practice","0","{""filepath"":""stimuli/0111111.jpg"",""ball_pos"":0,""ego_ball_visible"":false,""ego_can_infer"":false,""alter_ball_visible"":false,""alter_can_infer"":false,""collective_ball_visible"":false,""collective_can_infer"":false,""search_locations"":[0,1,2],""alter_occluders"":""111"",""ego_occluders"":""111""}","true","","","","","","","","","","","","","","","","","","",""
"","","","","","image-keyboard-response","11","636370","0.0-3.0-8.0","641c0a284d38c6abbc523a9d","665500ab8938657b03fbdba8","6657828c3e86d947fcd8260b","940","stimuli/01111110.jpg"," ","","practrice_feedback","0","","","","","","","","","","","","","","","","","","","","",""
"","","","","","image-keyboard-response","12","637528","0.0-3.0-9.0","641c0a284d38c6abbc523a9d","665500ab8938657b03fbdba8","6657828c3e86d947fcd8260b","1156","stimuli/0001001.jpg","0","","prediction_practice","0","{""filepath"":""stimuli/0001001.jpg"",""ball_pos"":0,""ego_ball_visible"":true,""ego_can_infer"":true,""alter_ball_visible"":true,""alter_can_infer"":true,""collective_ball_visible"":true,""collective_can_infer"":true,""search_locations"":[0],""alter_occluders"":""001"",""ego_occluders"":""001""}","true","","","","","","","","","","","","","","","","","","",""
"","","","","","image-keyboard-response","13","638098","0.0-3.0-10.0","641c0a284d38c6abbc523a9d","665500ab8938657b03fbdba8","6657828c3e86d947fcd8260b","564","stimuli/00010010.jpg"," ","","practrice_feedback","0","","","","","","","","","","","","","","","","","","","","",""
"","","","","","image-keyboard-response","14","639204","0.0-3.0-11.0","641c0a284d38c6abbc523a9d","665500ab8938657b03fbdba8","6657828c3e86d947fcd8260b","1105","stimuli/0011111.jpg","2","","prediction_practice","0","{""filepath"":""stimuli/0011111.jpg"",""ball_pos"":0,""ego_ball_visible"":false,""ego_can_infer"":false,""alter_ball_visible"":true,""alter_can_infer"":true,""collective_ball_visible"":false,""collective_can_infer"":false,""search_locations"":[0],""alter_occluders"":""011"",""ego_occluders"":""111""}","false","","","","","","","","","","","","","","","","","","",""
"","","","","","image-keyboard-response","15","640697","0.0-3.0-12.0","641c0a284d38c6abbc523a9d","665500ab8938657b03fbdba8","6657828c3e86d947fcd8260b","1488","stimuli/00111110.jpg"," ","","practrice_feedback","0","","","","","","","","","","","","","","","","","","","","",""
"","","","","","image-keyboard-response","16","644671","0.0-3.0-13.0","641c0a284d38c6abbc523a9d","665500ab8938657b03fbdba8","6657828c3e86d947fcd8260b","3972","stimuli/0011001.jpg","0","","prediction_practice","0","{""filepath"":""stimuli/0011001.jpg"",""ball_pos"":0,""ego_ball_visible"":true,""ego_can_infer"":true,""alter_ball_visible"":true,""alter_can_infer"":true,""collective_ball_visible"":true,""collective_can_infer"":true,""search_locations"":[0],""alter_occluders"":""011"",""ego_occluders"":""001""}","true","","","","","","","","","","","","","","","","","","",""
"","","","","","image-keyboard-response","17","645483","0.0-3.0-14.0","641c0a284d38c6abbc523a9d","665500ab8938657b03fbdba8","6657828c3e86d947fcd8260b","809","stimuli/00110010.jpg"," ","","practrice_feedback","0","","","","","","","","","","","","","","","","","","","","",""
"","","","","","image-keyboard-response","18","649815","0.0-3.0-15.0","641c0a284d38c6abbc523a9d","665500ab8938657b03fbdba8","6657828c3e86d947fcd8260b","4330","stimuli/2001011.jpg","1","","prediction_practice","2","{""filepath"":""stimuli/2001011.jpg"",""ball_pos"":2,""ego_ball_visible"":false,""ego_can_infer"":false,""alter_ball_visible"":false,""alter_can_infer"":true,""collective_ball_visible"":false,""collective_can_infer"":false,""search_locations"":[2],""alter_occluders"":""001"",""ego_occluders"":""011""}","false","","","","","","","","","","","","","","","","","","",""
"","","","","","image-keyboard-response","19","650746","0.0-3.0-16.0","641c0a284d38c6abbc523a9d","665500ab8938657b03fbdba8","6657828c3e86d947fcd8260b","927","stimuli/20010112.jpg"," ","","practrice_feedback","2","","","","","","","","","","","","","","","","","","","","",""
"","","","","","image-keyboard-response","20","654127","0.0-3.0-17.0","641c0a284d38c6abbc523a9d","665500ab8938657b03fbdba8","6657828c3e86d947fcd8260b","3379","stimuli/1101110.jpg","1","","prediction_practice","1","{""filepath"":""stimuli/1101110.jpg"",""ball_pos"":1,""ego_ball_visible"":false,""ego_can_infer"":false,""alter_ball_visible"":true,""alter_can_infer"":true,""collective_ball_visible"":false,""collective_can_infer"":false,""search_locations"":[1],""alter_occluders"":""101"",""ego_occluders"":""110""}","true","","","","","","","","","","","","","","","","","","",""
"","","","","","image-keyboard-response","21","655028","0.0-3.0-18.0","641c0a284d38c6abbc523a9d","665500ab8938657b03fbdba8","6657828c3e86d947fcd8260b","899","stimuli/11011101.jpg"," ","","practrice_feedback","1","","","","","","","","","","","","","","","","","","","","",""
"","","","","","image-keyboard-response","22","656150","0.0-3.0-19.0","641c0a284d38c6abbc523a9d","665500ab8938657b03fbdba8","6657828c3e86d947fcd8260b","1117","stimuli/1001000.jpg","1","","prediction_practice","1","{""filepath"":""stimuli/1001000.jpg"",""ball_pos"":1,""ego_ball_visible"":true,""ego_can_infer"":true,""alter_ball_visible"":true,""alter_can_infer"":true,""collective_ball_visible"":true,""collective_can_infer"":true,""search_locations"":[1],""alter_occluders"":""001"",""ego_occluders"":""000""}","true","","","","","","","","","","","","","","","","","","",""
"","","","","","image-keyboard-response","23","656560","0.0-3.0-20.0","641c0a284d38c6abbc523a9d","665500ab8938657b03fbdba8","6657828c3e86d947fcd8260b","408","stimuli/10010001.jpg"," ","","practrice_feedback","1","","","","","","","","","","","","","","","","","","","","",""
"","","","","","html-button-response","24","659330","0.0-3.0-21.0","641c0a284d38c6abbc523a9d","665500ab8938657b03fbdba8","6657828c3e86d947fcd8260b","2770","Now that you've had some practice, you'll be tested with a couple of easy trials. If you correctly predict Sam's choice, you'll move on to complete the experiment!","0","","","","","","","","","","","","","","","","","","","","","","","",""
"","","","","","image-keyboard-response","25","664191","0.0-3.0-22.0-0.0","641c0a284d38c6abbc523a9d","665500ab8938657b03fbdba8","6657828c3e86d947fcd8260b","4858","stimuli/0000011.jpg","arrowleft","","comprehension_quiz","","","true","arrowleft","","","","","","","","","","","","","","","","","",""
"","","","","","image-keyboard-response","26","664827","0.0-3.0-22.0-1.0","641c0a284d38c6abbc523a9d","665500ab8938657b03fbdba8","6657828c3e86d947fcd8260b","634","stimuli/00000110.jpg"," ","","comprehension_quiz","","","true"," ","","","","","","","","","","","","","","","","","",""
"","","","","","image-keyboard-response","27","666829","0.0-3.0-22.0-2.0","641c0a284d38c6abbc523a9d","665500ab8938657b03fbdba8","6657828c3e86d947fcd8260b","1999","stimuli/1010010.jpg","arrowdown","","comprehension_quiz","","","true","arrowdown","","","","","","","","","","","","","","","","","",""
"","","","","","image-keyboard-response","28","667235","0.0-3.0-22.0-3.0","641c0a284d38c6abbc523a9d","665500ab8938657b03fbdba8","6657828c3e86d947fcd8260b","402","stimuli/10100101.jpg"," ","","comprehension_quiz","","","true"," ","","","","","","","","","","","","","","","","","",""
"","","","","","html-button-response","29","669801","0.0-4.0","641c0a284d38c6abbc523a9d","665500ab8938657b03fbdba8","6657828c3e86d947fcd8260b","2566","The experiment will now begin.","0","","","","","","","","","","","","","","","","","","","","","","","",""
"","","","","","image-keyboard-response","30","673013","0.0-5.0","641c0a284d38c6abbc523a9d","665500ab8938657b03fbdba8","6657828c3e86d947fcd8260b","3213","stimuli/2111011.jpg","1","","prediction_trial","2","","false","","2","false","false","false","false","false","false","[2,1,0]","111","011","0","","","","","","",""
"","","","","","image-keyboard-response","31","673885","0.0-6.0","641c0a284d38c6abbc523a9d","665500ab8938657b03fbdba8","6657828c3e86d947fcd8260b","868","stimuli/21110112.jpg"," ","","feedback_trial","2","","","","","","","","","","","","","","","","","","","","",""
"","","","","","image-keyboard-response","32","674737","0.0-7.0","641c0a284d38c6abbc523a9d","665500ab8938657b03fbdba8","6657828c3e86d947fcd8260b","851","stimuli/1000100.jpg","1","","prediction_trial","1","","true","","1","true","true","true","true","true","true","[1]","000","100","1","","","","","","",""
"","","","","","image-keyboard-response","33","675000","0.0-8.0","641c0a284d38c6abbc523a9d","665500ab8938657b03fbdba8","6657828c3e86d947fcd8260b","260","stimuli/10001001.jpg"," ","","feedback_trial","1","","","","","","","","","","","","","","","","","","","","",""
"","","","","","image-keyboard-response","34","677458","0.0-9.0","641c0a284d38c6abbc523a9d","665500ab8938657b03fbdba8","6657828c3e86d947fcd8260b","2456","stimuli/2000111.jpg","1","","prediction_trial","2","","false","","2","false","false","true","true","false","false","[2]","000","111","0","","","","","","",""
"","","","","","image-keyboard-response","35","678091","0.0-10.0","641c0a284d38c6abbc523a9d","665500ab8938657b03fbdba8","6657828c3e86d947fcd8260b","631","stimuli/20001112.jpg"," ","","feedback_trial","2","","","","","","","","","","","","","","","","","","","","",""
"","","","","","image-keyboard-response","36","679695","0.0-11.0","641c0a284d38c6abbc523a9d","665500ab8938657b03fbdba8","6657828c3e86d947fcd8260b","1602","stimuli/0101100.jpg","0","","prediction_trial","2","","false","","0","false","true","false","false","false","false","[0,2]","101","100","0","","","","","","",""
"","","","","","image-keyboard-response","37","681706","0.0-12.0","641c0a284d38c6abbc523a9d","665500ab8938657b03fbdba8","6657828c3e86d947fcd8260b","2008","stimuli/01011002.jpg"," ","","feedback_trial","0","","","","","","","","","","","","","","","","","","","","",""
"","","","","","image-keyboard-response","38","682489","0.0-13.0","641c0a284d38c6abbc523a9d","665500ab8938657b03fbdba8","6657828c3e86d947fcd8260b","781","stimuli/0010000.jpg","0","","prediction_trial","0","","true","","0","true","true","true","true","true","true","[0]","010","000","1","","","","","","",""
"","","","","","image-keyboard-response","39","682788","0.0-14.0","641c0a284d38c6abbc523a9d","665500ab8938657b03fbdba8","6657828c3e86d947fcd8260b","298","stimuli/00100000.jpg"," ","","feedback_trial","0","","","","","","","","","","","","","","","","","","","","",""
"","","","","","image-keyboard-response","40","684865","0.0-15.0","641c0a284d38c6abbc523a9d","665500ab8938657b03fbdba8","6657828c3e86d947fcd8260b","2074","stimuli/2110111.jpg","1","","prediction_trial","2","","false","","2","false","false","true","true","false","false","[2]","110","111","0","","","","","","",""
"","","","","","image-keyboard-response","41","685733","0.0-16.0","641c0a284d38c6abbc523a9d","665500ab8938657b03fbdba8","6657828c3e86d947fcd8260b","865","stimuli/21101112.jpg"," ","","feedback_trial","2","","","","","","","","","","","","","","","","","","","","",""
"","","","","","image-keyboard-response","42","686502","0.0-17.0","641c0a284d38c6abbc523a9d","665500ab8938657b03fbdba8","6657828c3e86d947fcd8260b","766","stimuli/1111001.jpg","1","","prediction_trial","2","","false","","1","true","true","false","false","false","false","[1,2,0]","111","001","0","","","","","","",""
"","","","","","image-keyboard-response","43","687565","0.0-18.0","641c0a284d38c6abbc523a9d","665500ab8938657b03fbdba8","6657828c3e86d947fcd8260b","1061","stimuli/11110012.jpg"," ","","feedback_trial","1","","","","","","","","","","","","","","","","","","","","",""
"","","","","","image-keyboard-response","44","688700","0.0-19.0","641c0a284d38c6abbc523a9d","665500ab8938657b03fbdba8","6657828c3e86d947fcd8260b","1132","stimuli/2011101.jpg","0","","prediction_trial","2","","false","","2","false","false","false","false","false","false","[1,2]","011","101","0","","","","","","",""
"","","","","","image-keyboard-response","45","689132","0.0-20.0","641c0a284d38c6abbc523a9d","665500ab8938657b03fbdba8","6657828c3e86d947fcd8260b","429","stimuli/20111012.jpg"," ","","feedback_trial","1","","","","","","","","","","","","","","","","","","","","",""
"","","","","","image-keyboard-response","46","689819","0.0-21.0","641c0a284d38c6abbc523a9d","665500ab8938657b03fbdba8","6657828c3e86d947fcd8260b","685","stimuli/1100100.jpg","1","","prediction_trial","1","","true","","1","true","true","true","true","true","true","[1]","100","100","1","","","","","","",""
"","","","","","image-keyboard-response","47","690147","0.0-22.0","641c0a284d38c6abbc523a9d","665500ab8938657b03fbdba8","6657828c3e86d947fcd8260b","326","stimuli/11001001.jpg"," ","","feedback_trial","1","","","","","","","","","","","","","","","","","","","","",""
"","","","","","image-keyboard-response","48","690761","0.0-23.0","641c0a284d38c6abbc523a9d","665500ab8938657b03fbdba8","6657828c3e86d947fcd8260b","611","stimuli/0000011.jpg","0","","prediction_trial","0","","true","","0","true","true","true","true","true","true","[0]","000","011","1","","","","","","",""
"","","","","","image-keyboard-response","49","691073","0.0-24.0","641c0a284d38c6abbc523a9d","665500ab8938657b03fbdba8","6657828c3e86d947fcd8260b","312","stimuli/00000110.jpg"," ","","feedback_trial","0","","","","","","","","","","","","","","","","","","","","",""
"","","","","","image-keyboard-response","50","692626","0.0-25.0","641c0a284d38c6abbc523a9d","665500ab8938657b03fbdba8","6657828c3e86d947fcd8260b","1551","stimuli/0110110.jpg","1","","prediction_trial","0","","false","","0","false","false","false","false","false","false","[1,0]","110","110","0","","","","","","",""
"","","","","","image-keyboard-response","51","693280","0.0-26.0","641c0a284d38c6abbc523a9d","665500ab8938657b03fbdba8","6657828c3e86d947fcd8260b","651","stimuli/01101100.jpg"," ","","feedback_trial","1","","","","","","","","","","","","","","","","","","","","",""
"","","","","","image-keyboard-response","52","694702","0.0-27.0","641c0a284d38c6abbc523a9d","665500ab8938657b03fbdba8","6657828c3e86d947fcd8260b","1419","stimuli/2110001.jpg","2","","prediction_trial","2","","true","","2","false","true","true","true","false","true","[2]","110","001","1","","","","","","",""
"","","","","","image-keyboard-response","53","695038","0.0-28.0","641c0a284d38c6abbc523a9d","665500ab8938657b03fbdba8","6657828c3e86d947fcd8260b","335","stimuli/21100012.jpg"," ","","feedback_trial","2","","","","","","","","","","","","","","","","","","","","",""
"","","","","","image-keyboard-response","54","696721","0.0-29.0","641c0a284d38c6abbc523a9d","665500ab8938657b03fbdba8","6657828c3e86d947fcd8260b","1680","stimuli/2010001.jpg","2","","prediction_trial","2","","true","","2","false","true","true","true","false","true","[2]","010","001","1","","","","","","",""
"","","","","","image-keyboard-response","55","697314","0.0-30.0","641c0a284d38c6abbc523a9d","665500ab8938657b03fbdba8","6657828c3e86d947fcd8260b","591","stimuli/20100012.jpg"," ","","feedback_trial","2","","","","","","","","","","","","","","","","","","","","",""
"","","","","","image-keyboard-response","56","698543","0.0-31.0","641c0a284d38c6abbc523a9d","665500ab8938657b03fbdba8","6657828c3e86d947fcd8260b","1229","stimuli/1010010.jpg","1","","prediction_trial","1","","true","","1","false","true","false","true","false","true","[1]","010","010","1","","","","","","",""
"","","","","","image-keyboard-response","57","698886","0.0-32.0","641c0a284d38c6abbc523a9d","665500ab8938657b03fbdba8","6657828c3e86d947fcd8260b","341","stimuli/10100101.jpg"," ","","feedback_trial","1","","","","","","","","","","","","","","","","","","","","",""
"","","","","","image-keyboard-response","58","699834","0.0-33.0","641c0a284d38c6abbc523a9d","665500ab8938657b03fbdba8","6657828c3e86d947fcd8260b","947","stimuli/2111100.jpg","2","","prediction_trial","1","","false","","2","true","true","false","false","false","false","[2,1,0]","111","100","0","","","","","","",""
"","","","","","image-keyboard-response","59","700658","0.0-34.0","641c0a284d38c6abbc523a9d","665500ab8938657b03fbdba8","6657828c3e86d947fcd8260b","822","stimuli/21111001.jpg"," ","","feedback_trial","2","","","","","","","","","","","","","","","","","","","","",""
"","","","","","image-keyboard-response","60","701755","0.0-35.0","641c0a284d38c6abbc523a9d","665500ab8938657b03fbdba8","6657828c3e86d947fcd8260b","1094","stimuli/2010100.jpg","2","","prediction_trial","2","","true","","2","true","true","true","true","true","true","[2]","010","100","1","","","","","","",""
"","","","","","image-keyboard-response","61","702076","0.0-36.0","641c0a284d38c6abbc523a9d","665500ab8938657b03fbdba8","6657828c3e86d947fcd8260b","318","stimuli/20101002.jpg"," ","","feedback_trial","2","","","","","","","","","","","","","","","","","","","","",""
"","","","","","image-keyboard-response","62","703053","0.0-37.0","641c0a284d38c6abbc523a9d","665500ab8938657b03fbdba8","6657828c3e86d947fcd8260b","976","stimuli/2011110.jpg","2","","prediction_trial","1","","false","","2","true","true","false","false","false","false","[2,1]","011","110","0","","","","","","",""
"","","","","","image-keyboard-response","63","703566","0.0-38.0","641c0a284d38c6abbc523a9d","665500ab8938657b03fbdba8","6657828c3e86d947fcd8260b","509","stimuli/20111101.jpg"," ","","feedback_trial","2","","","","","","","","","","","","","","","","","","","","",""
"","","","","","image-keyboard-response","64","709021","0.0-39.0","641c0a284d38c6abbc523a9d","665500ab8938657b03fbdba8","6657828c3e86d947fcd8260b","5452","stimuli/1110011.jpg","2","","prediction_trial","1","","false","","1","false","false","false","false","false","false","[0,1]","110","011","0","","","","","","",""
"","","","","","image-keyboard-response","65","709550","0.0-40.0","641c0a284d38c6abbc523a9d","665500ab8938657b03fbdba8","6657828c3e86d947fcd8260b","527","stimuli/11100111.jpg"," ","","feedback_trial","0","","","","","","","","","","","","","","","","","","","","",""
"","","","","","image-keyboard-response","66","711549","0.0-41.0","641c0a284d38c6abbc523a9d","665500ab8938657b03fbdba8","6657828c3e86d947fcd8260b","1996","stimuli/2000000.jpg","2","","prediction_trial","2","","true","","2","true","true","true","true","true","true","[2]","000","000","1","","","","","","",""
"","","","","","image-keyboard-response","67","712453","0.0-42.0","641c0a284d38c6abbc523a9d","665500ab8938657b03fbdba8","6657828c3e86d947fcd8260b","902","stimuli/20000002.jpg"," ","","feedback_trial","2","","","","","","","","","","","","","","","","","","","","",""
"","","","","","image-keyboard-response","68","713936","0.0-43.0","641c0a284d38c6abbc523a9d","665500ab8938657b03fbdba8","6657828c3e86d947fcd8260b","1482","stimuli/1100101.jpg","1","","prediction_trial","1","","true","","1","true","true","true","true","true","true","[1]","100","101","1","","","","","","",""
"","","","","","image-keyboard-response","69","714345","0.0-44.0","641c0a284d38c6abbc523a9d","665500ab8938657b03fbdba8","6657828c3e86d947fcd8260b","408","stimuli/11001011.jpg"," ","","feedback_trial","1","","","","","","","","","","","","","","","","","","","","",""
"","","","","","image-keyboard-response","70","715168","0.0-45.0","641c0a284d38c6abbc523a9d","665500ab8938657b03fbdba8","6657828c3e86d947fcd8260b","820","stimuli/2010010.jpg","2","","prediction_trial","2","","true","","2","true","true","true","true","true","true","[2]","010","010","1","","","","","","",""
"","","","","","image-keyboard-response","71","715483","0.0-46.0","641c0a284d38c6abbc523a9d","665500ab8938657b03fbdba8","6657828c3e86d947fcd8260b","313","stimuli/20100102.jpg"," ","","feedback_trial","2","","","","","","","","","","","","","","","","","","","","",""
"","","","","","image-keyboard-response","72","717614","0.0-47.0","641c0a284d38c6abbc523a9d","665500ab8938657b03fbdba8","6657828c3e86d947fcd8260b","2130","stimuli/0100101.jpg","2","","prediction_trial","0","","false","","0","false","false","false","true","false","false","[0]","100","101","0","","","","","","",""
"","","","","","image-keyboard-response","73","718214","0.0-48.0","641c0a284d38c6abbc523a9d","665500ab8938657b03fbdba8","6657828c3e86d947fcd8260b","597","stimuli/01001010.jpg"," ","","feedback_trial","0","","","","","","","","","","","","","","","","","","","","",""
"","","","","","image-keyboard-response","74","719146","0.0-49.0","641c0a284d38c6abbc523a9d","665500ab8938657b03fbdba8","6657828c3e86d947fcd8260b","929","stimuli/0011111.jpg","1","","prediction_trial","0","","false","","0","false","false","true","true","false","false","[0]","011","111","0","","","","","","",""
"","","","","","image-keyboard-response","75","719606","0.0-50.0","641c0a284d38c6abbc523a9d","665500ab8938657b03fbdba8","6657828c3e86d947fcd8260b","457","stimuli/00111110.jpg"," ","","feedback_trial","0","","","","","","","","","","","","","","","","","","","","",""
"","","","","","image-keyboard-response","76","720224","0.0-51.0","641c0a284d38c6abbc523a9d","665500ab8938657b03fbdba8","6657828c3e86d947fcd8260b","618","stimuli/0110011.jpg","0","","prediction_trial","0","","true","","0","true","true","false","false","false","false","[1,0]","110","011","1","","","","","","",""
"","","","","","image-keyboard-response","77","720600","0.0-52.0","641c0a284d38c6abbc523a9d","665500ab8938657b03fbdba8","6657828c3e86d947fcd8260b","373","stimuli/01100110.jpg"," ","","feedback_trial","1","","","","","","","","","","","","","","","","","","","","",""
"","","","","","image-keyboard-response","78","721379","0.0-53.0","641c0a284d38c6abbc523a9d","665500ab8938657b03fbdba8","6657828c3e86d947fcd8260b","777","stimuli/0100001.jpg","0","","prediction_trial","0","","true","","0","true","true","false","true","false","true","[0]","100","001","1","","","","","","",""
"","","","","","image-keyboard-response","79","721808","0.0-54.0","641c0a284d38c6abbc523a9d","665500ab8938657b03fbdba8","6657828c3e86d947fcd8260b","423","stimuli/01000010.jpg"," ","","feedback_trial","0","","","","","","","","","","","","","","","","","","","","",""
"","","","","","image-keyboard-response","80","723298","0.0-55.0","641c0a284d38c6abbc523a9d","665500ab8938657b03fbdba8","6657828c3e86d947fcd8260b","1488","stimuli/1110110.jpg","1","","prediction_trial","0","","false","","1","false","false","false","false","false","false","[1,0]","110","110","0","","","","","","",""
"","","","","","image-keyboard-response","81","723681","0.0-56.0","641c0a284d38c6abbc523a9d","665500ab8938657b03fbdba8","6657828c3e86d947fcd8260b","381","stimuli/11101100.jpg"," ","","feedback_trial","1","","","","","","","","","","","","","","","","","","","","",""
"","","","","","image-keyboard-response","82","724370","0.0-57.0","641c0a284d38c6abbc523a9d","665500ab8938657b03fbdba8","6657828c3e86d947fcd8260b","687","stimuli/2011000.jpg","2","","prediction_trial","1","","false","","2","true","true","false","false","false","false","[2,1]","011","000","0","","","","","","",""
"","","","","","image-keyboard-response","83","724747","0.0-58.0","641c0a284d38c6abbc523a9d","665500ab8938657b03fbdba8","6657828c3e86d947fcd8260b","376","stimuli/20110001.jpg"," ","","feedback_trial","2","","","","","","","","","","","","","","","","","","","","",""
"","","","","","image-keyboard-response","84","725525","0.0-59.0","641c0a284d38c6abbc523a9d","665500ab8938657b03fbdba8","6657828c3e86d947fcd8260b","774","stimuli/0011000.jpg","0","","prediction_trial","0","","true","","0","true","true","true","true","true","true","[0]","011","000","1","","","","","","",""
"","","","","","image-keyboard-response","85","725847","0.0-60.0","641c0a284d38c6abbc523a9d","665500ab8938657b03fbdba8","6657828c3e86d947fcd8260b","318","stimuli/00110000.jpg"," ","","feedback_trial","0","","","","","","","","","","","","","","","","","","","","",""
"","","","","","image-keyboard-response","86","727377","0.0-61.0","641c0a284d38c6abbc523a9d","665500ab8938657b03fbdba8","6657828c3e86d947fcd8260b","1526","stimuli/1111011.jpg","1","","prediction_trial","2","","false","","1","false","false","false","false","false","false","[2,1,0]","111","011","0","","","","","","",""
"","","","","","image-keyboard-response","87","727870","0.0-62.0","641c0a284d38c6abbc523a9d","665500ab8938657b03fbdba8","6657828c3e86d947fcd8260b","491","stimuli/11110112.jpg"," ","","feedback_trial","2","","","","","","","","","","","","","","","","","","","","",""
"","","","","","image-keyboard-response","88","728574","0.0-63.0","641c0a284d38c6abbc523a9d","665500ab8938657b03fbdba8","6657828c3e86d947fcd8260b","702","stimuli/2001010.jpg","2","","prediction_trial","2","","true","","2","true","true","false","true","false","true","[2]","001","010","1","","","","","","",""
"","","","","","image-keyboard-response","89","728848","0.0-64.0","641c0a284d38c6abbc523a9d","665500ab8938657b03fbdba8","6657828c3e86d947fcd8260b","271","stimuli/20010102.jpg"," ","","feedback_trial","2","","","","","","","","","","","","","","","","","","","","",""
"","","","","","image-keyboard-response","90","729415","0.0-65.0","641c0a284d38c6abbc523a9d","665500ab8938657b03fbdba8","6657828c3e86d947fcd8260b","563","stimuli/1111000.jpg","1","","prediction_trial","2","","false","","1","true","true","false","false","false","false","[2,1,0]","111","000","0","","","","","","",""
"","","","","","image-keyboard-response","91","729665","0.0-66.0","641c0a284d38c6abbc523a9d","665500ab8938657b03fbdba8","6657828c3e86d947fcd8260b","247","stimuli/11110002.jpg"," ","","feedback_trial","2","","","","","","","","","","","","","","","","","","","","",""
"","","","","","image-keyboard-response","92","730439","0.0-67.0","641c0a284d38c6abbc523a9d","665500ab8938657b03fbdba8","6657828c3e86d947fcd8260b","771","stimuli/0101101.jpg","2","","prediction_trial","0","","false","","0","false","false","false","false","false","false","[0,2]","101","101","0","","","","","","",""
"","","","","","image-keyboard-response","93","730852","0.0-68.0","641c0a284d38c6abbc523a9d","665500ab8938657b03fbdba8","6657828c3e86d947fcd8260b","412","stimuli/01011010.jpg"," ","","feedback_trial","0","","","","","","","","","","","","","","","","","","","","",""
"","","","","","image-keyboard-response","94","731567","0.0-69.0","641c0a284d38c6abbc523a9d","665500ab8938657b03fbdba8","6657828c3e86d947fcd8260b","712","stimuli/0011101.jpg","2","","prediction_trial","0","","false","","0","false","false","true","true","false","false","[0]","011","101","0","","","","","","",""
"","","","","","image-keyboard-response","95","732110","0.0-70.0","641c0a284d38c6abbc523a9d","665500ab8938657b03fbdba8","6657828c3e86d947fcd8260b","541","stimuli/00111010.jpg"," ","","feedback_trial","0","","","","","","","","","","","","","","","","","","","","",""
"","","","","","image-keyboard-response","96","732674","0.0-71.0","641c0a284d38c6abbc523a9d","665500ab8938657b03fbdba8","6657828c3e86d947fcd8260b","561","stimuli/0011010.jpg","0","","prediction_trial","0","","true","","0","true","true","true","true","true","true","[0]","011","010","1","","","","","","",""
"","","","","","image-keyboard-response","97","732920","0.0-72.0","641c0a284d38c6abbc523a9d","665500ab8938657b03fbdba8","6657828c3e86d947fcd8260b","245","stimuli/00110100.jpg"," ","","feedback_trial","0","","","","","","","","","","","","","","","","","","","","",""
"","","","","","image-keyboard-response","98","733421","0.0-73.0","641c0a284d38c6abbc523a9d","665500ab8938657b03fbdba8","6657828c3e86d947fcd8260b","499","stimuli/1011100.jpg","1","","prediction_trial","2","","false","","1","true","true","false","false","false","false","[1,2]","011","100","0","","","","","","",""
"","","","","","image-keyboard-response","99","734142","0.0-74.0","641c0a284d38c6abbc523a9d","665500ab8938657b03fbdba8","6657828c3e86d947fcd8260b","719","stimuli/10111002.jpg"," ","","feedback_trial","1","","","","","","","","","","","","","","","","","","","","",""
"","","","","","image-keyboard-response","100","735468","0.0-75.0","641c0a284d38c6abbc523a9d","665500ab8938657b03fbdba8","6657828c3e86d947fcd8260b","1322","stimuli/1001011.jpg","1","","prediction_trial","1","","true","","1","false","false","true","true","false","false","[1]","001","011","1","","","","","","",""
"","","","","","image-keyboard-response","101","735836","0.0-76.0","641c0a284d38c6abbc523a9d","665500ab8938657b03fbdba8","6657828c3e86d947fcd8260b","365","stimuli/10010111.jpg"," ","","feedback_trial","1","","","","","","","","","","","","","","","","","","","","",""
"","","","","","image-keyboard-response","102","736701","0.0-77.0","641c0a284d38c6abbc523a9d","665500ab8938657b03fbdba8","6657828c3e86d947fcd8260b","863","stimuli/0111011.jpg","0","","prediction_trial","2","","false","","0","true","true","false","false","false","false","[2,0,1]","111","011","0","","","","","","",""
"","","","","","image-keyboard-response","103","737185","0.0-78.0","641c0a284d38c6abbc523a9d","665500ab8938657b03fbdba8","6657828c3e86d947fcd8260b","481","stimuli/01110112.jpg"," ","","feedback_trial","2","","","","","","","","","","","","","","","","","","","","",""
"","","","","","image-keyboard-response","104","738142","0.0-79.0","641c0a284d38c6abbc523a9d","665500ab8938657b03fbdba8","6657828c3e86d947fcd8260b","955","stimuli/1001100.jpg","1","","prediction_trial","1","","true","","1","true","true","true","true","true","true","[1]","001","100","1","","","","","","",""
"","","","","","image-keyboard-response","105","738424","0.0-80.0","641c0a284d38c6abbc523a9d","665500ab8938657b03fbdba8","6657828c3e86d947fcd8260b","280","stimuli/10011001.jpg"," ","","feedback_trial","1","","","","","","","","","","","","","","","","","","","","",""
"","","","","","image-keyboard-response","106","738940","0.0-81.0","641c0a284d38c6abbc523a9d","665500ab8938657b03fbdba8","6657828c3e86d947fcd8260b","516","stimuli/1000001.jpg","1","","prediction_trial","1","","true","","1","true","true","true","true","true","true","[1]","000","001","1","","","","","","",""
"","","","","","image-keyboard-response","107","739331","0.0-82.0","641c0a284d38c6abbc523a9d","665500ab8938657b03fbdba8","6657828c3e86d947fcd8260b","387","stimuli/10000011.jpg"," ","","feedback_trial","1","","","","","","","","","","","","","","","","","","","","",""
"","","","","","image-keyboard-response","108","740442","0.0-83.0","641c0a284d38c6abbc523a9d","665500ab8938657b03fbdba8","6657828c3e86d947fcd8260b","1110","stimuli/2110000.jpg","2","","prediction_trial","2","","true","","2","true","true","true","true","true","true","[2]","110","000","1","","","","","","",""
"","","","","","image-keyboard-response","109","740744","0.0-84.0","641c0a284d38c6abbc523a9d","665500ab8938657b03fbdba8","6657828c3e86d947fcd8260b","298","stimuli/21100002.jpg"," ","","feedback_trial","2","","","","","","","","","","","","","","","","","","","","",""
"","","","","","image-keyboard-response","110","741439","0.0-85.0","641c0a284d38c6abbc523a9d","665500ab8938657b03fbdba8","6657828c3e86d947fcd8260b","693","stimuli/1101000.jpg","1","","prediction_trial","1","","true","","1","true","true","true","true","true","true","[1]","101","000","1","","","","","","",""
"","","","","","image-keyboard-response","111","741720","0.0-86.0","641c0a284d38c6abbc523a9d","665500ab8938657b03fbdba8","6657828c3e86d947fcd8260b","278","stimuli/11010001.jpg"," ","","feedback_trial","1","","","","","","","","","","","","","","","","","","","","",""
"","","","","","image-keyboard-response","112","742300","0.0-87.0","641c0a284d38c6abbc523a9d","665500ab8938657b03fbdba8","6657828c3e86d947fcd8260b","578","stimuli/2000100.jpg","2","","prediction_trial","2","","true","","2","true","true","true","true","true","true","[2]","000","100","1","","","","","","",""
"","","","","","image-keyboard-response","113","742568","0.0-88.0","641c0a284d38c6abbc523a9d","665500ab8938657b03fbdba8","6657828c3e86d947fcd8260b","265","stimuli/20001002.jpg"," ","","feedback_trial","2","","","","","","","","","","","","","","","","","","","","",""
"","","","","","image-keyboard-response","114","743918","0.0-89.0","641c0a284d38c6abbc523a9d","665500ab8938657b03fbdba8","6657828c3e86d947fcd8260b","1347","stimuli/1101010.jpg","1","","prediction_trial","1","","true","","1","false","true","true","true","false","true","[1]","101","010","1","","","","","","",""
"","","","","","image-keyboard-response","115","744202","0.0-90.0","641c0a284d38c6abbc523a9d","665500ab8938657b03fbdba8","6657828c3e86d947fcd8260b","282","stimuli/11010101.jpg"," ","","feedback_trial","1","","","","","","","","","","","","","","","","","","","","",""
"","","","","","image-keyboard-response","116","745282","0.0-91.0","641c0a284d38c6abbc523a9d","665500ab8938657b03fbdba8","6657828c3e86d947fcd8260b","1078","stimuli/0100111.jpg","1","","prediction_trial","0","","false","","0","false","false","false","true","false","false","[0]","100","111","0","","","","","","",""
"","","","","","image-keyboard-response","117","745657","0.0-92.0","641c0a284d38c6abbc523a9d","665500ab8938657b03fbdba8","6657828c3e86d947fcd8260b","373","stimuli/01001110.jpg"," ","","feedback_trial","0","","","","","","","","","","","","","","","","","","","","",""
"","","","","","image-keyboard-response","118","746135","0.0-93.0","641c0a284d38c6abbc523a9d","665500ab8938657b03fbdba8","6657828c3e86d947fcd8260b","476","stimuli/1110001.jpg","1","","prediction_trial","1","","true","","1","true","true","false","false","false","false","[1,0]","110","001","1","","","","","","",""
"","","","","","image-keyboard-response","119","746427","0.0-94.0","641c0a284d38c6abbc523a9d","665500ab8938657b03fbdba8","6657828c3e86d947fcd8260b","290","stimuli/11100011.jpg"," ","","feedback_trial","1","","","","","","","","","","","","","","","","","","","","",""
"","","","","","image-keyboard-response","120","748039","0.0-95.0","641c0a284d38c6abbc523a9d","665500ab8938657b03fbdba8","6657828c3e86d947fcd8260b","1610","stimuli/1011110.jpg","0","","prediction_trial","1","","false","","1","false","false","false","false","false","false","[2,1]","011","110","0","","","","","","",""
"","","","","","image-keyboard-response","121","748418","0.0-96.0","641c0a284d38c6abbc523a9d","665500ab8938657b03fbdba8","6657828c3e86d947fcd8260b","376","stimuli/10111101.jpg"," ","","feedback_trial","2","","","","","","","","","","","","","","","","","","","","",""
"","","","","","image-keyboard-response","122","748921","0.0-97.0","641c0a284d38c6abbc523a9d","665500ab8938657b03fbdba8","6657828c3e86d947fcd8260b","501","stimuli/1010101.jpg","1","","prediction_trial","1","","true","","1","true","true","false","true","false","true","[1]","010","101","1","","","","","","",""
"","","","","","image-keyboard-response","123","749215","0.0-98.0","641c0a284d38c6abbc523a9d","665500ab8938657b03fbdba8","6657828c3e86d947fcd8260b","293","stimuli/10101011.jpg"," ","","feedback_trial","1","","","","","","","","","","","","","","","","","","","","",""
"","","","","","image-keyboard-response","124","750142","0.0-99.0","641c0a284d38c6abbc523a9d","665500ab8938657b03fbdba8","6657828c3e86d947fcd8260b","924","stimuli/2000011.jpg","1","","prediction_trial","2","","false","","2","false","false","true","true","false","false","[2]","000","011","0","","","","","","",""
"","","","","","image-keyboard-response","125","750561","0.0-100.0","641c0a284d38c6abbc523a9d","665500ab8938657b03fbdba8","6657828c3e86d947fcd8260b","416","stimuli/20000112.jpg"," ","","feedback_trial","2","","","","","","","","","","","","","","","","","","","","",""
"","","","","","image-keyboard-response","126","751101","0.0-101.0","641c0a284d38c6abbc523a9d","665500ab8938657b03fbdba8","6657828c3e86d947fcd8260b","537","stimuli/2101110.jpg","2","","prediction_trial","2","","true","","2","true","true","false","false","false","false","[2,0]","101","110","1","","","","","","",""
"","","","","","image-keyboard-response","127","751418","0.0-102.0","641c0a284d38c6abbc523a9d","665500ab8938657b03fbdba8","6657828c3e86d947fcd8260b","315","stimuli/21011102.jpg"," ","","feedback_trial","2","","","","","","","","","","","","","","","","","","","","",""
"","","","","","image-keyboard-response","128","752262","0.0-103.0","641c0a284d38c6abbc523a9d","665500ab8938657b03fbdba8","6657828c3e86d947fcd8260b","842","stimuli/0010101.jpg","0","","prediction_trial","0","","true","","0","false","false","true","true","false","false","[0]","010","101","1","","","","","","",""
"","","","","","image-keyboard-response","129","752612","0.0-104.0","641c0a284d38c6abbc523a9d","665500ab8938657b03fbdba8","6657828c3e86d947fcd8260b","347","stimuli/00101010.jpg"," ","","feedback_trial","0","","","","","","","","","","","","","","","","","","","","",""
"","","","","","image-keyboard-response","130","754198","0.0-105.0","641c0a284d38c6abbc523a9d","665500ab8938657b03fbdba8","6657828c3e86d947fcd8260b","1583","stimuli/2100011.jpg","1","","prediction_trial","2","","false","","2","false","false","true","true","false","false","[2]","100","011","0","","","","","","",""
"","","","","","image-keyboard-response","131","754625","0.0-106.0","641c0a284d38c6abbc523a9d","665500ab8938657b03fbdba8","6657828c3e86d947fcd8260b","423","stimuli/21000112.jpg"," ","","feedback_trial","2","","","","","","","","","","","","","","","","","","","","",""
"","","","","","image-keyboard-response","132","755558","0.0-107.0","641c0a284d38c6abbc523a9d","665500ab8938657b03fbdba8","6657828c3e86d947fcd8260b","928","stimuli/0000100.jpg","0","","prediction_trial","0","","true","","0","false","true","true","true","false","true","[0]","000","100","1","","","","","","",""
"","","","","","image-keyboard-response","133","755947","0.0-108.0","641c0a284d38c6abbc523a9d","665500ab8938657b03fbdba8","6657828c3e86d947fcd8260b","387","stimuli/00001000.jpg"," ","","feedback_trial","0","","","","","","","","","","","","","","","","","","","","",""
"","","","","","image-keyboard-response","134","757796","0.0-109.0","641c0a284d38c6abbc523a9d","665500ab8938657b03fbdba8","6657828c3e86d947fcd8260b","1847","stimuli/1101011.jpg","1","","prediction_trial","1","","true","","1","false","false","true","true","false","false","[1]","101","011","1","","","","","","",""
"","","","","","image-keyboard-response","135","758146","0.0-110.0","641c0a284d38c6abbc523a9d","665500ab8938657b03fbdba8","6657828c3e86d947fcd8260b","344","stimuli/11010111.jpg"," ","","feedback_trial","1","","","","","","","","","","","","","","","","","","","","",""
"","","","","","image-keyboard-response","136","759598","0.0-111.0","641c0a284d38c6abbc523a9d","665500ab8938657b03fbdba8","6657828c3e86d947fcd8260b","1450","stimuli/2111001.jpg","2","","prediction_trial","0","","false","","2","false","true","false","false","false","false","[0,2,1]","111","001","0","","","","","","",""
"","","","","","image-keyboard-response","137","760448","0.0-112.0","641c0a284d38c6abbc523a9d","665500ab8938657b03fbdba8","6657828c3e86d947fcd8260b","848","stimuli/21110010.jpg"," ","","feedback_trial","0","","","","","","","","","","","","","","","","","","","","",""
"","","","","","image-keyboard-response","138","762114","0.0-113.0","641c0a284d38c6abbc523a9d","665500ab8938657b03fbdba8","6657828c3e86d947fcd8260b","1663","stimuli/0010011.jpg","0","","prediction_trial","0","","true","","0","true","true","true","true","true","true","[0]","010","011","1","","","","","","",""
"","","","","","image-keyboard-response","139","762326","0.0-114.0","641c0a284d38c6abbc523a9d","665500ab8938657b03fbdba8","6657828c3e86d947fcd8260b","211","stimuli/00100110.jpg"," ","","feedback_trial","0","","","","","","","","","","","","","","","","","","","","",""
"","","","","","image-keyboard-response","140","763075","0.0-115.0","641c0a284d38c6abbc523a9d","665500ab8938657b03fbdba8","6657828c3e86d947fcd8260b","747","stimuli/0001010.jpg","0","","prediction_trial","0","","true","","0","true","true","true","true","true","true","[0]","001","010","1","","","","","","",""
"","","","","","image-keyboard-response","141","763220","0.0-116.0","641c0a284d38c6abbc523a9d","665500ab8938657b03fbdba8","6657828c3e86d947fcd8260b","143","stimuli/00010100.jpg"," ","","feedback_trial","0","","","","","","","","","","","","","","","","","","","","",""
"","","","","","image-keyboard-response","142","763747","0.0-117.0","641c0a284d38c6abbc523a9d","665500ab8938657b03fbdba8","6657828c3e86d947fcd8260b","526","stimuli/0111010.jpg","0","","prediction_trial","0","","true","","0","true","true","false","false","false","false","[0,2,1]","111","010","1","","","","","","",""
"","","","","","image-keyboard-response","143","763963","0.0-118.0","641c0a284d38c6abbc523a9d","665500ab8938657b03fbdba8","6657828c3e86d947fcd8260b","213","stimuli/01110100.jpg"," ","","feedback_trial","0","","","","","","","","","","","","","","","","","","","","",""
"","","","","","image-keyboard-response","144","764601","0.0-119.0","641c0a284d38c6abbc523a9d","665500ab8938657b03fbdba8","6657828c3e86d947fcd8260b","634","stimuli/2000010.jpg","2","","prediction_trial","2","","true","","2","true","true","true","true","true","true","[2]","000","010","1","","","","","","",""
"","","","","","image-keyboard-response","145","764846","0.0-120.0","641c0a284d38c6abbc523a9d","665500ab8938657b03fbdba8","6657828c3e86d947fcd8260b","243","stimuli/20000102.jpg"," ","","feedback_trial","2","","","","","","","","","","","","","","","","","","","","",""
"","","","","","image-keyboard-response","146","765380","0.0-121.0","641c0a284d38c6abbc523a9d","665500ab8938657b03fbdba8","6657828c3e86d947fcd8260b","531","stimuli/2110110.jpg","2","","prediction_trial","2","","true","","2","true","true","true","true","true","true","[2]","110","110","1","","","","","","",""
"","","","","","image-keyboard-response","147","765602","0.0-122.0","641c0a284d38c6abbc523a9d","665500ab8938657b03fbdba8","6657828c3e86d947fcd8260b","220","stimuli/21101102.jpg"," ","","feedback_trial","2","","","","","","","","","","","","","","","","","","","","",""
"","","","","","image-keyboard-response","148","766176","0.0-123.0","641c0a284d38c6abbc523a9d","665500ab8938657b03fbdba8","6657828c3e86d947fcd8260b","573","stimuli/1000000.jpg","1","","prediction_trial","1","","true","","1","true","true","true","true","true","true","[1]","000","000","1","","","","","","",""
"","","","","","image-keyboard-response","149","766347","0.0-124.0","641c0a284d38c6abbc523a9d","665500ab8938657b03fbdba8","6657828c3e86d947fcd8260b","167","stimuli/10000001.jpg"," ","","feedback_trial","1","","","","","","","","","","","","","","","","","","","","",""
"","","","","","image-keyboard-response","150","771569","0.0-125.0","641c0a284d38c6abbc523a9d","665500ab8938657b03fbdba8","6657828c3e86d947fcd8260b","5219","stimuli/0101011.jpg","2","","prediction_trial","2","","true","","0","true","true","false","false","false","false","[2,0]","101","011","1","","","","","","",""
"","","","","","image-keyboard-response","151","771972","0.0-126.0","641c0a284d38c6abbc523a9d","665500ab8938657b03fbdba8","6657828c3e86d947fcd8260b","402","stimuli/01010112.jpg"," ","","feedback_trial","2","","","","","","","","","","","","","","","","","","","","",""
"","","","","","image-keyboard-response","152","775541","0.0-127.0","641c0a284d38c6abbc523a9d","665500ab8938657b03fbdba8","6657828c3e86d947fcd8260b","3566","stimuli/2000101.jpg","2","","prediction_trial","2","","true","","2","false","false","true","true","false","false","[2]","000","101","1","","","","","","",""
"","","","","","image-keyboard-response","153","776182","0.0-128.0","641c0a284d38c6abbc523a9d","665500ab8938657b03fbdba8","6657828c3e86d947fcd8260b","639","stimuli/20001012.jpg"," ","","feedback_trial","2","","","","","","","","","","","","","","","","","","","","",""
"","","","","","image-keyboard-response","154","777188","0.0-129.0","641c0a284d38c6abbc523a9d","665500ab8938657b03fbdba8","6657828c3e86d947fcd8260b","1004","stimuli/0010010.jpg","0","","prediction_trial","0","","true","","0","true","true","true","true","true","true","[0]","010","010","1","","","","","","",""
"","","","","","image-keyboard-response","155","777352","0.0-130.0","641c0a284d38c6abbc523a9d","665500ab8938657b03fbdba8","6657828c3e86d947fcd8260b","164","stimuli/00100100.jpg"," ","","feedback_trial","0","","","","","","","","","","","","","","","","","","","","",""
"","","","","","image-keyboard-response","156","778052","0.0-131.0","641c0a284d38c6abbc523a9d","665500ab8938657b03fbdba8","6657828c3e86d947fcd8260b","698","stimuli/0110000.jpg","0","","prediction_trial","1","","false","","0","true","true","false","false","false","false","[0,1]","110","000","0","","","","","","",""
"","","","","","image-keyboard-response","157","778234","0.0-132.0","641c0a284d38c6abbc523a9d","665500ab8938657b03fbdba8","6657828c3e86d947fcd8260b","179","stimuli/01100001.jpg"," ","","feedback_trial","0","","","","","","","","","","","","","","","","","","","","",""
"","","","","","image-keyboard-response","158","780499","0.0-133.0","641c0a284d38c6abbc523a9d","665500ab8938657b03fbdba8","6657828c3e86d947fcd8260b","2263","stimuli/1000111.jpg","1","","prediction_trial","1","","true","","1","false","false","true","true","false","false","[1]","000","111","1","","","","","","",""
"","","","","","image-keyboard-response","159","781040","0.0-134.0","641c0a284d38c6abbc523a9d","665500ab8938657b03fbdba8","6657828c3e86d947fcd8260b","539","stimuli/10001111.jpg"," ","","feedback_trial","1","","","","","","","","","","","","","","","","","","","","",""
"","","","","","image-keyboard-response","160","783350","0.0-135.0","641c0a284d38c6abbc523a9d","665500ab8938657b03fbdba8","6657828c3e86d947fcd8260b","2308","stimuli/0110100.jpg","0","","prediction_trial","1","","false","","0","false","true","false","false","false","false","[1,0]","110","100","0","","","","","","",""
"","","","","","image-keyboard-response","161","784146","0.0-136.0","641c0a284d38c6abbc523a9d","665500ab8938657b03fbdba8","6657828c3e86d947fcd8260b","793","stimuli/01101001.jpg"," ","","feedback_trial","1","","","","","","","","","","","","","","","","","","","","",""
"","","","","","image-keyboard-response","162","784755","0.0-137.0","641c0a284d38c6abbc523a9d","665500ab8938657b03fbdba8","6657828c3e86d947fcd8260b","607","stimuli/0101001.jpg","0","","prediction_trial","2","","false","","0","true","true","false","false","false","false","[2,0]","101","001","0","","","","","","",""
"","","","","","image-keyboard-response","163","785139","0.0-138.0","641c0a284d38c6abbc523a9d","665500ab8938657b03fbdba8","6657828c3e86d947fcd8260b","382","stimuli/01010012.jpg"," ","","feedback_trial","2","","","","","","","","","","","","","","","","","","","","",""
"","","","","","image-keyboard-response","164","785712","0.0-139.0","641c0a284d38c6abbc523a9d","665500ab8938657b03fbdba8","6657828c3e86d947fcd8260b","570","stimuli/1000010.jpg","1","","prediction_trial","1","","true","","1","false","true","true","true","false","true","[1]","000","010","1","","","","","","",""
"","","","","","image-keyboard-response","165","786067","0.0-140.0","641c0a284d38c6abbc523a9d","665500ab8938657b03fbdba8","6657828c3e86d947fcd8260b","353","stimuli/10000101.jpg"," ","","feedback_trial","1","","","","","","","","","","","","","","","","","","","","",""
"","","","","","image-keyboard-response","166","786645","0.0-141.0","641c0a284d38c6abbc523a9d","665500ab8938657b03fbdba8","6657828c3e86d947fcd8260b","575","stimuli/1100110.jpg","0","","prediction_trial","1","","false","","1","false","false","true","true","false","false","[1]","100","110","0","","","","","","",""
"","","","","","image-keyboard-response","167","787004","0.0-142.0","641c0a284d38c6abbc523a9d","665500ab8938657b03fbdba8","6657828c3e86d947fcd8260b","356","stimuli/11001101.jpg"," ","","feedback_trial","1","","","","","","","","","","","","","","","","","","","","",""
"","","","","","image-keyboard-response","168","788066","0.0-143.0","641c0a284d38c6abbc523a9d","665500ab8938657b03fbdba8","6657828c3e86d947fcd8260b","1059","stimuli/0000010.jpg","0","","prediction_trial","0","","true","","0","true","true","true","true","true","true","[0]","000","010","1","","","","","","",""
"","","","","","image-keyboard-response","169","788401","0.0-144.0","641c0a284d38c6abbc523a9d","665500ab8938657b03fbdba8","6657828c3e86d947fcd8260b","332","stimuli/00000100.jpg"," ","","feedback_trial","0","","","","","","","","","","","","","","","","","","","","",""
"","","","","","image-keyboard-response","170","789238","0.0-145.0","641c0a284d38c6abbc523a9d","665500ab8938657b03fbdba8","6657828c3e86d947fcd8260b","835","stimuli/2111111.jpg","1","","prediction_trial","2","","false","","2","false","false","false","false","false","false","[0,1,2]","111","111","0","","","","","","",""
"","","","","","image-keyboard-response","171","789722","0.0-146.0","641c0a284d38c6abbc523a9d","665500ab8938657b03fbdba8","6657828c3e86d947fcd8260b","483","stimuli/21111112.jpg"," ","","feedback_trial","0","","","","","","","","","","","","","","","","","","","","",""
"","","","","","image-keyboard-response","172","790805","0.0-147.0","641c0a284d38c6abbc523a9d","665500ab8938657b03fbdba8","6657828c3e86d947fcd8260b","1080","stimuli/1011011.jpg","2","","prediction_trial","1","","false","","1","false","false","false","false","false","false","[1,2]","011","011","0","","","","","","",""
"","","","","","image-keyboard-response","173","791234","0.0-148.0","641c0a284d38c6abbc523a9d","665500ab8938657b03fbdba8","6657828c3e86d947fcd8260b","426","stimuli/10110111.jpg"," ","","feedback_trial","1","","","","","","","","","","","","","","","","","","","","",""
"","","","","","image-keyboard-response","174","791739","0.0-149.0","641c0a284d38c6abbc523a9d","665500ab8938657b03fbdba8","6657828c3e86d947fcd8260b","504","stimuli/1010000.jpg","1","","prediction_trial","1","","true","","1","true","true","false","true","false","true","[1]","010","000","1","","","","","","",""
"","","","","","image-keyboard-response","175","792089","0.0-150.0","641c0a284d38c6abbc523a9d","665500ab8938657b03fbdba8","6657828c3e86d947fcd8260b","348","stimuli/10100001.jpg"," ","","feedback_trial","1","","","","","","","","","","","","","","","","","","","","",""
"","","","","","image-keyboard-response","176","792824","0.0-151.0","641c0a284d38c6abbc523a9d","665500ab8938657b03fbdba8","6657828c3e86d947fcd8260b","732","stimuli/1110100.jpg","1","","prediction_trial","1","","true","","1","true","true","false","false","false","false","[1,0]","110","100","1","","","","","","",""
"","","","","","image-keyboard-response","177","793290","0.0-152.0","641c0a284d38c6abbc523a9d","665500ab8938657b03fbdba8","6657828c3e86d947fcd8260b","464","stimuli/11101001.jpg"," ","","feedback_trial","1","","","","","","","","","","","","","","","","","","","","",""
"","","","","","image-keyboard-response","178","794034","0.0-153.0","641c0a284d38c6abbc523a9d","665500ab8938657b03fbdba8","6657828c3e86d947fcd8260b","741","stimuli/2100100.jpg","2","","prediction_trial","2","","true","","2","true","true","true","true","true","true","[2]","100","100","1","","","","","","",""
"","","","","","image-keyboard-response","179","794400","0.0-154.0","641c0a284d38c6abbc523a9d","665500ab8938657b03fbdba8","6657828c3e86d947fcd8260b","363","stimuli/21001002.jpg"," ","","feedback_trial","2","","","","","","","","","","","","","","","","","","","","",""
"","","","","","image-keyboard-response","180","795781","0.0-155.0","641c0a284d38c6abbc523a9d","665500ab8938657b03fbdba8","6657828c3e86d947fcd8260b","1379","stimuli/0000111.jpg","2","","prediction_trial","0","","false","","0","false","false","true","true","false","false","[0]","000","111","0","","","","","","",""
"","","","","","image-keyboard-response","181","796228","0.0-156.0","641c0a284d38c6abbc523a9d","665500ab8938657b03fbdba8","6657828c3e86d947fcd8260b","446","stimuli/00001110.jpg"," ","","feedback_trial","0","","","","","","","","","","","","","","","","","","","","",""
"","","","","","image-keyboard-response","182","797000","0.0-157.0","641c0a284d38c6abbc523a9d","665500ab8938657b03fbdba8","6657828c3e86d947fcd8260b","769","stimuli/2110010.jpg","2","","prediction_trial","2","","true","","2","true","true","true","true","true","true","[2]","110","010","1","","","","","","",""
"","","","","","image-keyboard-response","183","797312","0.0-158.0","641c0a284d38c6abbc523a9d","665500ab8938657b03fbdba8","6657828c3e86d947fcd8260b","306","stimuli/21100102.jpg"," ","","feedback_trial","2","","","","","","","","","","","","","","","","","","","","",""
"","","","","","image-keyboard-response","184","798096","0.0-159.0","641c0a284d38c6abbc523a9d","665500ab8938657b03fbdba8","6657828c3e86d947fcd8260b","783","stimuli/2011100.jpg","2","","prediction_trial","2","","true","","2","true","true","false","false","false","false","[2,1]","011","100","1","","","","","","",""
"","","","","","image-keyboard-response","185","798425","0.0-160.0","641c0a284d38c6abbc523a9d","665500ab8938657b03fbdba8","6657828c3e86d947fcd8260b","326","stimuli/20111002.jpg"," ","","feedback_trial","2","","","","","","","","","","","","","","","","","","","","",""
"","","","","","image-keyboard-response","186","801203","0.0-161.0","641c0a284d38c6abbc523a9d","665500ab8938657b03fbdba8","6657828c3e86d947fcd8260b","2774","stimuli/1100111.jpg","1","","prediction_trial","1","","true","","1","false","false","true","true","false","false","[1]","100","111","1","","","","","","",""
"","","","","","image-keyboard-response","187","801551","0.0-162.0","641c0a284d38c6abbc523a9d","665500ab8938657b03fbdba8","6657828c3e86d947fcd8260b","346","stimuli/11001111.jpg"," ","","feedback_trial","1","","","","","","","","","","","","","","","","","","","","",""
"","","","","","image-keyboard-response","188","802662","0.0-163.0","641c0a284d38c6abbc523a9d","665500ab8938657b03fbdba8","6657828c3e86d947fcd8260b","1110","stimuli/1110000.jpg","1","","prediction_trial","0","","false","","1","true","true","false","false","false","false","[0,1]","110","000","0","","","","","","",""
"","","","","","image-keyboard-response","189","803090","0.0-164.0","641c0a284d38c6abbc523a9d","665500ab8938657b03fbdba8","6657828c3e86d947fcd8260b","426","stimuli/11100000.jpg"," ","","feedback_trial","0","","","","","","","","","","","","","","","","","","","","",""
"","","","","","image-keyboard-response","190","803769","0.0-165.0","641c0a284d38c6abbc523a9d","665500ab8938657b03fbdba8","6657828c3e86d947fcd8260b","676","stimuli/0011011.jpg","0","","prediction_trial","0","","true","","0","true","true","true","true","true","true","[0]","011","011","1","","","","","","",""
"","","","","","image-keyboard-response","191","804093","0.0-166.0","641c0a284d38c6abbc523a9d","665500ab8938657b03fbdba8","6657828c3e86d947fcd8260b","322","stimuli/00110110.jpg"," ","","feedback_trial","0","","","","","","","","","","","","","","","","","","","","",""
"","","","","","image-keyboard-response","192","805811","0.0-167.0","641c0a284d38c6abbc523a9d","665500ab8938657b03fbdba8","6657828c3e86d947fcd8260b","1717","stimuli/0110101.jpg","2","","prediction_trial","0","","false","","0","false","false","false","false","false","false","[1,0]","110","101","0","","","","","","",""
"","","","","","image-keyboard-response","193","806273","0.0-168.0","641c0a284d38c6abbc523a9d","665500ab8938657b03fbdba8","6657828c3e86d947fcd8260b","458","stimuli/01101010.jpg"," ","","feedback_trial","1","","","","","","","","","","","","","","","","","","","","",""
"","","","","","image-keyboard-response","194","807381","0.0-169.0","641c0a284d38c6abbc523a9d","665500ab8938657b03fbdba8","6657828c3e86d947fcd8260b","1106","stimuli/0001101.jpg","0","","prediction_trial","0","","true","","0","false","false","true","true","false","false","[0]","001","101","1","","","","","","",""
"","","","","","image-keyboard-response","195","807805","0.0-170.0","641c0a284d38c6abbc523a9d","665500ab8938657b03fbdba8","6657828c3e86d947fcd8260b","420","stimuli/00011010.jpg"," ","","feedback_trial","0","","","","","","","","","","","","","","","","","","","","",""
"","","","","","image-keyboard-response","196","808785","0.0-171.0","641c0a284d38c6abbc523a9d","665500ab8938657b03fbdba8","6657828c3e86d947fcd8260b","978","stimuli/2001100.jpg","2","","prediction_trial","2","","true","","2","true","true","false","true","false","true","[2]","001","100","1","","","","","","",""
"","","","","","image-keyboard-response","197","809116","0.0-172.0","641c0a284d38c6abbc523a9d","665500ab8938657b03fbdba8","6657828c3e86d947fcd8260b","329","stimuli/20011002.jpg"," ","","feedback_trial","2","","","","","","","","","","","","","","","","","","","","",""
"","","","","","image-keyboard-response","198","809865","0.0-173.0","641c0a284d38c6abbc523a9d","665500ab8938657b03fbdba8","6657828c3e86d947fcd8260b","747","stimuli/1100000.jpg","1","","prediction_trial","1","","true","","1","true","true","true","true","true","true","[1]","100","000","1","","","","","","",""
"","","","","","image-keyboard-response","199","810179","0.0-174.0","641c0a284d38c6abbc523a9d","665500ab8938657b03fbdba8","6657828c3e86d947fcd8260b","311","stimuli/11000001.jpg"," ","","feedback_trial","1","","","","","","","","","","","","","","","","","","","","",""
"","","","","","image-keyboard-response","200","810908","0.0-175.0","641c0a284d38c6abbc523a9d","665500ab8938657b03fbdba8","6657828c3e86d947fcd8260b","725","stimuli/1111110.jpg","1","","prediction_trial","1","","true","","1","false","false","false","false","false","false","[1,2,0]","111","110","1","","","","","","",""
"","","","","","image-keyboard-response","201","811323","0.0-176.0","641c0a284d38c6abbc523a9d","665500ab8938657b03fbdba8","6657828c3e86d947fcd8260b","413","stimuli/11111101.jpg"," ","","feedback_trial","1","","","","","","","","","","","","","","","","","","","","",""
"","","","","","image-keyboard-response","202","812139","0.0-177.0","641c0a284d38c6abbc523a9d","665500ab8938657b03fbdba8","6657828c3e86d947fcd8260b","815","stimuli/2010000.jpg","2","","prediction_trial","2","","true","","2","true","true","true","true","true","true","[2]","010","000","1","","","","","","",""
"","","","","","image-keyboard-response","203","812499","0.0-178.0","641c0a284d38c6abbc523a9d","665500ab8938657b03fbdba8","6657828c3e86d947fcd8260b","358","stimuli/20100002.jpg"," ","","feedback_trial","2","","","","","","","","","","","","","","","","","","","","",""
"","","","","","image-keyboard-response","204","813670","0.0-179.0","641c0a284d38c6abbc523a9d","665500ab8938657b03fbdba8","6657828c3e86d947fcd8260b","1169","stimuli/1011111.jpg","0","","prediction_trial","2","","false","","1","false","false","false","false","false","false","[2,1]","011","111","0","","","","","","",""
"","","","","","image-keyboard-response","205","814087","0.0-180.0","641c0a284d38c6abbc523a9d","665500ab8938657b03fbdba8","6657828c3e86d947fcd8260b","414","stimuli/10111112.jpg"," ","","feedback_trial","2","","","","","","","","","","","","","","","","","","","","",""
"","","","","","image-keyboard-response","206","814777","0.0-181.0","641c0a284d38c6abbc523a9d","665500ab8938657b03fbdba8","6657828c3e86d947fcd8260b","688","stimuli/1001101.jpg","1","","prediction_trial","1","","true","","1","true","true","true","true","true","true","[1]","001","101","1","","","","","","",""
"","","","","","image-keyboard-response","207","815116","0.0-182.0","641c0a284d38c6abbc523a9d","665500ab8938657b03fbdba8","6657828c3e86d947fcd8260b","337","stimuli/10011011.jpg"," ","","feedback_trial","1","","","","","","","","","","","","","","","","","","","","",""
"","","","","","image-keyboard-response","208","815828","0.0-183.0","641c0a284d38c6abbc523a9d","665500ab8938657b03fbdba8","6657828c3e86d947fcd8260b","710","stimuli/2011010.jpg","2","","prediction_trial","1","","false","","2","true","true","false","false","false","false","[1,2]","011","010","0","","","","","","",""
"","","","","","image-keyboard-response","209","817029","0.0-184.0","641c0a284d38c6abbc523a9d","665500ab8938657b03fbdba8","6657828c3e86d947fcd8260b","1200","stimuli/20110101.jpg"," ","","feedback_trial","1","","","","","","","","","","","","","","","","","","","","",""
"","","","","","image-keyboard-response","210","817671","0.0-185.0","641c0a284d38c6abbc523a9d","665500ab8938657b03fbdba8","6657828c3e86d947fcd8260b","639","stimuli/0111000.jpg","0","","prediction_trial","1","","false","","0","true","true","false","false","false","false","[1,2,0]","111","000","0","","","","","","",""
"","","","","","image-keyboard-response","211","818122","0.0-186.0","641c0a284d38c6abbc523a9d","665500ab8938657b03fbdba8","6657828c3e86d947fcd8260b","449","stimuli/01110001.jpg"," ","","feedback_trial","1","","","","","","","","","","","","","","","","","","","","",""
"","","","","","image-keyboard-response","212","818850","0.0-187.0","641c0a284d38c6abbc523a9d","665500ab8938657b03fbdba8","6657828c3e86d947fcd8260b","724","stimuli/0010001.jpg","0","","prediction_trial","0","","true","","0","true","true","true","true","true","true","[0]","010","001","1","","","","","","",""
"","","","","","image-keyboard-response","213","819238","0.0-188.0","641c0a284d38c6abbc523a9d","665500ab8938657b03fbdba8","6657828c3e86d947fcd8260b","385","stimuli/00100010.jpg"," ","","feedback_trial","0","","","","","","","","","","","","","","","","","","","","",""
"","","","","","image-keyboard-response","214","820401","0.0-189.0","641c0a284d38c6abbc523a9d","665500ab8938657b03fbdba8","6657828c3e86d947fcd8260b","1161","stimuli/1101110.jpg","1","","prediction_trial","1","","true","","1","false","false","true","true","false","false","[1]","101","110","1","","","","","","",""
"","","","","","image-keyboard-response","215","820892","0.0-190.0","641c0a284d38c6abbc523a9d","665500ab8938657b03fbdba8","6657828c3e86d947fcd8260b","488","stimuli/11011101.jpg"," ","","feedback_trial","1","","","","","","","","","","","","","","","","","","","","",""
"","","","","","image-keyboard-response","216","821756","0.0-191.0","641c0a284d38c6abbc523a9d","665500ab8938657b03fbdba8","6657828c3e86d947fcd8260b","862","stimuli/2100001.jpg","2","","prediction_trial","2","","true","","2","false","true","true","true","false","true","[2]","100","001","1","","","","","","",""
"","","","","","image-keyboard-response","217","822191","0.0-192.0","641c0a284d38c6abbc523a9d","665500ab8938657b03fbdba8","6657828c3e86d947fcd8260b","432","stimuli/21000012.jpg"," ","","feedback_trial","2","","","","","","","","","","","","","","","","","","","","",""
"","","","","","image-keyboard-response","218","824858","0.0-193.0","641c0a284d38c6abbc523a9d","665500ab8938657b03fbdba8","6657828c3e86d947fcd8260b","2664","stimuli/2110101.jpg","2","","prediction_trial","2","","true","","2","false","false","true","true","false","false","[2]","110","101","1","","","","","","",""
"","","","","","image-keyboard-response","219","825908","0.0-194.0","641c0a284d38c6abbc523a9d","665500ab8938657b03fbdba8","6657828c3e86d947fcd8260b","1048","stimuli/21101012.jpg"," ","","feedback_trial","2","","","","","","","","","","","","","","","","","","","","",""
"","","","","","image-keyboard-response","220","826502","0.0-195.0","641c0a284d38c6abbc523a9d","665500ab8938657b03fbdba8","6657828c3e86d947fcd8260b","592","stimuli/0011001.jpg","0","","prediction_trial","0","","true","","0","true","true","true","true","true","true","[0]","011","001","1","","","","","","",""
"","","","","","image-keyboard-response","221","826897","0.0-196.0","641c0a284d38c6abbc523a9d","665500ab8938657b03fbdba8","6657828c3e86d947fcd8260b","392","stimuli/00110010.jpg"," ","","feedback_trial","0","","","","","","","","","","","","","","","","","","","","",""
"","","","","","image-keyboard-response","222","828668","0.0-197.0","641c0a284d38c6abbc523a9d","665500ab8938657b03fbdba8","6657828c3e86d947fcd8260b","1769","stimuli/1010110.jpg","0","","prediction_trial","1","","false","","1","false","false","false","true","false","false","[1]","010","110","0","","","","","","",""
"","","","","","image-keyboard-response","223","829414","0.0-198.0","641c0a284d38c6abbc523a9d","665500ab8938657b03fbdba8","6657828c3e86d947fcd8260b","744","stimuli/10101101.jpg"," ","","feedback_trial","1","","","","","","","","","","","","","","","","","","","","",""
"","","","","","image-keyboard-response","224","830732","0.0-199.0","641c0a284d38c6abbc523a9d","665500ab8938657b03fbdba8","6657828c3e86d947fcd8260b","1317","stimuli/0011100.jpg","0","","prediction_trial","0","","true","","0","false","true","true","true","false","true","[0]","011","100","1","","","","","","",""
"","","","","","image-keyboard-response","225","831648","0.0-200.0","641c0a284d38c6abbc523a9d","665500ab8938657b03fbdba8","6657828c3e86d947fcd8260b","913","stimuli/00111000.jpg"," ","","feedback_trial","0","","","","","","","","","","","","","","","","","","","","",""
"","","","","","image-keyboard-response","226","834264","0.0-201.0","641c0a284d38c6abbc523a9d","665500ab8938657b03fbdba8","6657828c3e86d947fcd8260b","2614","stimuli/2111101.jpg","2","","prediction_trial","0","","false","","2","false","false","false","false","false","false","[0,2,1]","111","101","0","","","","","","",""
"","","","","","image-keyboard-response","227","834994","0.0-202.0","641c0a284d38c6abbc523a9d","665500ab8938657b03fbdba8","6657828c3e86d947fcd8260b","725","stimuli/21111010.jpg"," ","","feedback_trial","0","","","","","","","","","","","","","","","","","","","","",""
"","","","","","image-keyboard-response","228","835881","0.0-203.0","641c0a284d38c6abbc523a9d","665500ab8938657b03fbdba8","6657828c3e86d947fcd8260b","884","stimuli/2010110.jpg","0","","prediction_trial","2","","false","","2","true","true","true","true","true","true","[2]","010","110","0","","","","","","",""
"","","","","","image-keyboard-response","229","836572","0.0-204.0","641c0a284d38c6abbc523a9d","665500ab8938657b03fbdba8","6657828c3e86d947fcd8260b","690","stimuli/20101102.jpg"," ","","feedback_trial","2","","","","","","","","","","","","","","","","","","","","",""
"","","","","","image-keyboard-response","230","837268","0.0-205.0","641c0a284d38c6abbc523a9d","665500ab8938657b03fbdba8","6657828c3e86d947fcd8260b","694","stimuli/0001100.jpg","0","","prediction_trial","0","","true","","0","false","true","true","true","false","true","[0]","001","100","1","","","","","","",""
"","","","","","image-keyboard-response","231","837690","0.0-206.0","641c0a284d38c6abbc523a9d","665500ab8938657b03fbdba8","6657828c3e86d947fcd8260b","419","stimuli/00011000.jpg"," ","","feedback_trial","0","","","","","","","","","","","","","","","","","","","","",""
"","","","","","image-keyboard-response","232","838532","0.0-207.0","641c0a284d38c6abbc523a9d","665500ab8938657b03fbdba8","6657828c3e86d947fcd8260b","840","stimuli/0110010.jpg","0","","prediction_trial","0","","true","","0","true","true","false","false","false","false","[1,0]","110","010","1","","","","","","",""
"","","","","","image-keyboard-response","233","838979","0.0-208.0","641c0a284d38c6abbc523a9d","665500ab8938657b03fbdba8","6657828c3e86d947fcd8260b","444","stimuli/01100100.jpg"," ","","feedback_trial","1","","","","","","","","","","","","","","","","","","","","",""
"","","","","","image-keyboard-response","234","843137","0.0-209.0","641c0a284d38c6abbc523a9d","665500ab8938657b03fbdba8","6657828c3e86d947fcd8260b","4155","stimuli/2100110.jpg","1","","prediction_trial","2","","false","","2","true","true","true","true","true","true","[2]","100","110","0","","","","","","",""
"","","","","","image-keyboard-response","235","844287","0.0-210.0","641c0a284d38c6abbc523a9d","665500ab8938657b03fbdba8","6657828c3e86d947fcd8260b","1148","stimuli/21001102.jpg"," ","","feedback_trial","2","","","","","","","","","","","","","","","","","","","","",""
"","","","","","image-keyboard-response","236","846336","0.0-211.0","641c0a284d38c6abbc523a9d","665500ab8938657b03fbdba8","6657828c3e86d947fcd8260b","2046","stimuli/0111101.jpg","0","","prediction_trial","1","","false","","0","false","false","false","false","false","false","[0,2,1]","111","101","0","","","","","","",""
"","","","","","image-keyboard-response","237","847402","0.0-212.0","641c0a284d38c6abbc523a9d","665500ab8938657b03fbdba8","6657828c3e86d947fcd8260b","1064","stimuli/01111011.jpg"," ","","feedback_trial","0","","","","","","","","","","","","","","","","","","","","",""
"","","","","","image-keyboard-response","238","848843","0.0-213.0","641c0a284d38c6abbc523a9d","665500ab8938657b03fbdba8","6657828c3e86d947fcd8260b","1440","stimuli/2110100.jpg","2","","prediction_trial","2","","true","","2","true","true","true","true","true","true","[2]","110","100","1","","","","","","",""
"","","","","","image-keyboard-response","239","849299","0.0-214.0","641c0a284d38c6abbc523a9d","665500ab8938657b03fbdba8","6657828c3e86d947fcd8260b","452","stimuli/21101002.jpg"," ","","feedback_trial","2","","","","","","","","","","","","","","","","","","","","",""
"","","","","","image-keyboard-response","240","850286","0.0-215.0","641c0a284d38c6abbc523a9d","665500ab8938657b03fbdba8","6657828c3e86d947fcd8260b","983","stimuli/2001011.jpg","1","","prediction_trial","2","","false","","2","false","false","false","true","false","false","[2]","001","011","0","","","","","","",""
"","","","","","image-keyboard-response","241","850766","0.0-216.0","641c0a284d38c6abbc523a9d","665500ab8938657b03fbdba8","6657828c3e86d947fcd8260b","478","stimuli/20010112.jpg"," ","","feedback_trial","2","","","","","","","","","","","","","","","","","","","","",""
"","","","","","image-keyboard-response","242","851499","0.0-217.0","641c0a284d38c6abbc523a9d","665500ab8938657b03fbdba8","6657828c3e86d947fcd8260b","729","stimuli/1001010.jpg","1","","prediction_trial","1","","true","","1","false","true","true","true","false","true","[1]","001","010","1","","","","","","",""
"","","","","","image-keyboard-response","243","851918","0.0-218.0","641c0a284d38c6abbc523a9d","665500ab8938657b03fbdba8","6657828c3e86d947fcd8260b","416","stimuli/10010101.jpg"," ","","feedback_trial","1","","","","","","","","","","","","","","","","","","","","",""
"","","","","","image-keyboard-response","244","852898","0.0-219.0","641c0a284d38c6abbc523a9d","665500ab8938657b03fbdba8","6657828c3e86d947fcd8260b","977","stimuli/0111100.jpg","0","","prediction_trial","0","","true","","0","false","true","false","false","false","false","[1,0,2]","111","100","1","","","","","","",""
"","","","","","image-keyboard-response","245","853262","0.0-220.0","641c0a284d38c6abbc523a9d","665500ab8938657b03fbdba8","6657828c3e86d947fcd8260b","361","stimuli/01111000.jpg"," ","","feedback_trial","1","","","","","","","","","","","","","","","","","","","","",""
"","","","","","image-keyboard-response","246","855332","0.0-221.0","641c0a284d38c6abbc523a9d","665500ab8938657b03fbdba8","6657828c3e86d947fcd8260b","2067","stimuli/1010111.jpg","2","","prediction_trial","1","","false","","1","false","false","false","true","false","false","[1]","010","111","0","","","","","","",""
"","","","","","image-keyboard-response","247","855813","0.0-222.0","641c0a284d38c6abbc523a9d","665500ab8938657b03fbdba8","6657828c3e86d947fcd8260b","477","stimuli/10101111.jpg"," ","","feedback_trial","1","","","","","","","","","","","","","","","","","","","","",""
"","","","","","image-keyboard-response","248","857090","0.0-223.0","641c0a284d38c6abbc523a9d","665500ab8938657b03fbdba8","6657828c3e86d947fcd8260b","1275","stimuli/2100111.jpg","0","","prediction_trial","2","","false","","2","false","false","true","true","false","false","[2]","100","111","0","","","","","","",""
"","","","","","image-keyboard-response","249","857636","0.0-224.0","641c0a284d38c6abbc523a9d","665500ab8938657b03fbdba8","6657828c3e86d947fcd8260b","543","stimuli/21001112.jpg"," ","","feedback_trial","2","","","","","","","","","","","","","","","","","","","","",""
"","","","","","image-keyboard-response","250","858329","0.0-225.0","641c0a284d38c6abbc523a9d","665500ab8938657b03fbdba8","6657828c3e86d947fcd8260b","690","stimuli/1000101.jpg","1","","prediction_trial","1","","true","","1","true","true","true","true","true","true","[1]","000","101","1","","","","","","",""
"","","","","","image-keyboard-response","251","858672","0.0-226.0","641c0a284d38c6abbc523a9d","665500ab8938657b03fbdba8","6657828c3e86d947fcd8260b","342","stimuli/10001011.jpg"," ","","feedback_trial","1","","","","","","","","","","","","","","","","","","","","",""
"","","","","","image-keyboard-response","252","859232","0.0-227.0","641c0a284d38c6abbc523a9d","665500ab8938657b03fbdba8","6657828c3e86d947fcd8260b","557","stimuli/1001111.jpg","2","","prediction_trial","1","","false","","1","false","false","true","true","false","false","[1]","001","111","0","","","","","","",""
"","","","","","image-keyboard-response","253","859643","0.0-228.0","641c0a284d38c6abbc523a9d","665500ab8938657b03fbdba8","6657828c3e86d947fcd8260b","411","stimuli/10011111.jpg"," ","","feedback_trial","1","","","","","","","","","","","","","","","","","","","","",""
"","","","","","image-keyboard-response","254","860730","0.0-229.0","641c0a284d38c6abbc523a9d","665500ab8938657b03fbdba8","6657828c3e86d947fcd8260b","1083","stimuli/1111111.jpg","0","","prediction_trial","1","","false","","1","false","false","false","false","false","false","[2,0,1]","111","111","0","","","","","","",""
"","","","","","image-keyboard-response","255","861179","0.0-230.0","641c0a284d38c6abbc523a9d","665500ab8938657b03fbdba8","6657828c3e86d947fcd8260b","446","stimuli/11111111.jpg"," ","","feedback_trial","2","","","","","","","","","","","","","","","","","","","","",""
"","","","","","image-keyboard-response","256","862759","0.0-231.0","641c0a284d38c6abbc523a9d","665500ab8938657b03fbdba8","6657828c3e86d947fcd8260b","1577","stimuli/1100010.jpg","1","","prediction_trial","1","","true","","1","false","true","true","true","false","true","[1]","100","010","1","","","","","","",""
"","","","","","image-keyboard-response","257","863152","0.0-232.0","641c0a284d38c6abbc523a9d","665500ab8938657b03fbdba8","6657828c3e86d947fcd8260b","391","stimuli/11000101.jpg"," ","","feedback_trial","1","","","","","","","","","","","","","","","","","","","","",""
"","","","","","image-keyboard-response","258","867442","0.0-233.0","641c0a284d38c6abbc523a9d","665500ab8938657b03fbdba8","6657828c3e86d947fcd8260b","4289","stimuli/0101110.jpg","1","","prediction_trial","2","","false","","0","false","false","false","false","false","false","[2,0]","101","110","0","","","","","","",""
"","","","","","image-keyboard-response","259","868514","0.0-234.0","641c0a284d38c6abbc523a9d","665500ab8938657b03fbdba8","6657828c3e86d947fcd8260b","1068","stimuli/01011102.jpg"," ","","feedback_trial","2","","","","","","","","","","","","","","","","","","","","",""
"","","","","","image-keyboard-response","260","870327","0.0-235.0","641c0a284d38c6abbc523a9d","665500ab8938657b03fbdba8","6657828c3e86d947fcd8260b","1812","stimuli/2001101.jpg","2","","prediction_trial","2","","true","","2","false","false","false","true","false","false","[2]","001","101","1","","","","","","",""
"","","","","","image-keyboard-response","261","870715","0.0-236.0","641c0a284d38c6abbc523a9d","665500ab8938657b03fbdba8","6657828c3e86d947fcd8260b","385","stimuli/20011012.jpg"," ","","feedback_trial","2","","","","","","","","","","","","","","","","","","","","",""
"","","","","","image-keyboard-response","262","872510","0.0-237.0","641c0a284d38c6abbc523a9d","665500ab8938657b03fbdba8","6657828c3e86d947fcd8260b","1790","stimuli/0001110.jpg","1","","prediction_trial","0","","false","","0","false","false","true","true","false","false","[0]","001","110","0","","","","","","",""
"","","","","","image-keyboard-response","263","872972","0.0-238.0","641c0a284d38c6abbc523a9d","665500ab8938657b03fbdba8","6657828c3e86d947fcd8260b","459","stimuli/00011100.jpg"," ","","feedback_trial","0","","","","","","","","","","","","","","","","","","","","",""
"","","","","","image-keyboard-response","264","874142","0.0-239.0","641c0a284d38c6abbc523a9d","665500ab8938657b03fbdba8","6657828c3e86d947fcd8260b","1168","stimuli/0111110.jpg","0","","prediction_trial","0","","true","","0","false","false","false","false","false","false","[0,2,1]","111","110","1","","","","","","",""
"","","","","","image-keyboard-response","265","874619","0.0-240.0","641c0a284d38c6abbc523a9d","665500ab8938657b03fbdba8","6657828c3e86d947fcd8260b","473","stimuli/01111100.jpg"," ","","feedback_trial","0","","","","","","","","","","","","","","","","","","","","",""
"","","","","","image-keyboard-response","266","875585","0.0-241.0","641c0a284d38c6abbc523a9d","665500ab8938657b03fbdba8","6657828c3e86d947fcd8260b","964","stimuli/1101001.jpg","1","","prediction_trial","1","","true","","1","true","true","true","true","true","true","[1]","101","001","1","","","","","","",""
"","","","","","image-keyboard-response","267","875937","0.0-242.0","641c0a284d38c6abbc523a9d","665500ab8938657b03fbdba8","6657828c3e86d947fcd8260b","349","stimuli/11010011.jpg"," ","","feedback_trial","1","","","","","","","","","","","","","","","","","","","","",""
"","","","","","image-keyboard-response","268","877129","0.0-243.0","641c0a284d38c6abbc523a9d","665500ab8938657b03fbdba8","6657828c3e86d947fcd8260b","1190","stimuli/2101011.jpg","1","","prediction_trial","0","","false","","2","false","false","false","false","false","false","[2,0]","101","011","0","","","","","","",""
"","","","","","image-keyboard-response","269","877574","0.0-244.0","641c0a284d38c6abbc523a9d","665500ab8938657b03fbdba8","6657828c3e86d947fcd8260b","443","stimuli/21010110.jpg"," ","","feedback_trial","2","","","","","","","","","","","","","","","","","","","","",""
"","","","","","image-keyboard-response","270","878127","0.0-245.0","641c0a284d38c6abbc523a9d","665500ab8938657b03fbdba8","6657828c3e86d947fcd8260b","551","stimuli/1001000.jpg","1","","prediction_trial","1","","true","","1","true","true","true","true","true","true","[1]","001","000","1","","","","","","",""
"","","","","","image-keyboard-response","271","878402","0.0-246.0","641c0a284d38c6abbc523a9d","665500ab8938657b03fbdba8","6657828c3e86d947fcd8260b","272","stimuli/10010001.jpg"," ","","feedback_trial","1","","","","","","","","","","","","","","","","","","","","",""
"","","","","","image-keyboard-response","272","878933","0.0-247.0","641c0a284d38c6abbc523a9d","665500ab8938657b03fbdba8","6657828c3e86d947fcd8260b","529","stimuli/0110001.jpg","0","","prediction_trial","1","","false","","0","true","true","false","false","false","false","[0,1]","110","001","0","","","","","","",""
"","","","","","image-keyboard-response","273","879252","0.0-248.0","641c0a284d38c6abbc523a9d","665500ab8938657b03fbdba8","6657828c3e86d947fcd8260b","317","stimuli/01100011.jpg"," ","","feedback_trial","0","","","","","","","","","","","","","","","","","","","","",""
"","","","","","image-keyboard-response","274","880134","0.0-249.0","641c0a284d38c6abbc523a9d","665500ab8938657b03fbdba8","6657828c3e86d947fcd8260b","879","stimuli/1101111.jpg","2","","prediction_trial","1","","false","","1","false","false","true","true","false","false","[1]","101","111","0","","","","","","",""
"","","","","","image-keyboard-response","275","880460","0.0-250.0","641c0a284d38c6abbc523a9d","665500ab8938657b03fbdba8","6657828c3e86d947fcd8260b","324","stimuli/11011111.jpg"," ","","feedback_trial","1","","","","","","","","","","","","","","","","","","","","",""
"","","","","","image-keyboard-response","276","881219","0.0-251.0","641c0a284d38c6abbc523a9d","665500ab8938657b03fbdba8","6657828c3e86d947fcd8260b","756","stimuli/2010111.jpg","1","","prediction_trial","2","","false","","2","false","false","true","true","false","false","[2]","010","111","0","","","","","","",""
"","","","","","image-keyboard-response","277","881813","0.0-252.0","641c0a284d38c6abbc523a9d","665500ab8938657b03fbdba8","6657828c3e86d947fcd8260b","592","stimuli/20101112.jpg"," ","","feedback_trial","2","","","","","","","","","","","","","","","","","","","","",""
"","","","","","image-keyboard-response","278","883276","0.0-253.0","641c0a284d38c6abbc523a9d","665500ab8938657b03fbdba8","6657828c3e86d947fcd8260b","1457","stimuli/2110011.jpg","2","","prediction_trial","2","","true","","2","false","false","true","true","false","false","[2]","110","011","1","","","","","","",""
"","","","","","image-keyboard-response","279","883612","0.0-254.0","641c0a284d38c6abbc523a9d","665500ab8938657b03fbdba8","6657828c3e86d947fcd8260b","334","stimuli/21100112.jpg"," ","","feedback_trial","2","","","","","","","","","","","","","","","","","","","","",""
"","","","","","image-keyboard-response","280","884292","0.0-255.0","641c0a284d38c6abbc523a9d","665500ab8938657b03fbdba8","6657828c3e86d947fcd8260b","674","stimuli/2101100.jpg","2","","prediction_trial","2","","true","","2","true","true","false","false","false","false","[0,2]","101","100","1","","","","","","",""
"","","","","","image-keyboard-response","281","884631","0.0-256.0","641c0a284d38c6abbc523a9d","665500ab8938657b03fbdba8","6657828c3e86d947fcd8260b","337","stimuli/21011002.jpg"," ","","feedback_trial","0","","","","","","","","","","","","","","","","","","","","",""
"","","","","","image-keyboard-response","282","885278","0.0-257.0","641c0a284d38c6abbc523a9d","665500ab8938657b03fbdba8","6657828c3e86d947fcd8260b","644","stimuli/2001000.jpg","2","","prediction_trial","2","","true","","2","true","true","false","true","false","true","[2]","001","000","1","","","","","","",""
"","","","","","image-keyboard-response","283","885566","0.0-258.0","641c0a284d38c6abbc523a9d","665500ab8938657b03fbdba8","6657828c3e86d947fcd8260b","286","stimuli/20010002.jpg"," ","","feedback_trial","2","","","","","","","","","","","","","","","","","","","","",""
"","","","","","image-keyboard-response","284","886232","0.0-259.0","641c0a284d38c6abbc523a9d","665500ab8938657b03fbdba8","6657828c3e86d947fcd8260b","664","stimuli/1101101.jpg","1","","prediction_trial","1","","true","","1","true","true","true","true","true","true","[1]","101","101","1","","","","","","",""
"","","","","","image-keyboard-response","285","886542","0.0-260.0","641c0a284d38c6abbc523a9d","665500ab8938657b03fbdba8","6657828c3e86d947fcd8260b","308","stimuli/11011011.jpg"," ","","feedback_trial","1","","","","","","","","","","","","","","","","","","","","",""
"","","","","","image-keyboard-response","286","888028","0.0-261.0","641c0a284d38c6abbc523a9d","665500ab8938657b03fbdba8","6657828c3e86d947fcd8260b","1484","stimuli/2100101.jpg","2","","prediction_trial","2","","true","","2","false","false","true","true","false","false","[2]","100","101","1","","","","","","",""
"","","","","","image-keyboard-response","287","888330","0.0-262.0","641c0a284d38c6abbc523a9d","665500ab8938657b03fbdba8","6657828c3e86d947fcd8260b","300","stimuli/21001012.jpg"," ","","feedback_trial","2","","","","","","","","","","","","","","","","","","","","",""
"","","","","","image-keyboard-response","288","889456","0.0-263.0","641c0a284d38c6abbc523a9d","665500ab8938657b03fbdba8","6657828c3e86d947fcd8260b","1123","stimuli/0101010.jpg","0","","prediction_trial","2","","false","","0","true","true","false","false","false","false","[0,2]","101","010","0","","","","","","",""
"","","","","","image-keyboard-response","289","890454","0.0-264.0","641c0a284d38c6abbc523a9d","665500ab8938657b03fbdba8","6657828c3e86d947fcd8260b","997","stimuli/01010102.jpg"," ","","feedback_trial","0","","","","","","","","","","","","","","","","","","","","",""
"","","","","","image-keyboard-response","290","891130","0.0-265.0","641c0a284d38c6abbc523a9d","665500ab8938657b03fbdba8","6657828c3e86d947fcd8260b","672","stimuli/1011000.jpg","1","","prediction_trial","2","","false","","1","true","true","false","false","false","false","[2,1]","011","000","0","","","","","","",""
"","","","","","image-keyboard-response","291","891760","0.0-266.0","641c0a284d38c6abbc523a9d","665500ab8938657b03fbdba8","6657828c3e86d947fcd8260b","629","stimuli/10110002.jpg"," ","","feedback_trial","2","","","","","","","","","","","","","","","","","","","","",""
"","","","","","image-keyboard-response","292","893703","0.0-267.0","641c0a284d38c6abbc523a9d","665500ab8938657b03fbdba8","6657828c3e86d947fcd8260b","1940","stimuli/2010101.jpg","2","","prediction_trial","2","","true","","2","false","false","true","true","false","false","[2]","010","101","1","","","","","","",""
"","","","","","image-keyboard-response","293","894042","0.0-268.0","641c0a284d38c6abbc523a9d","665500ab8938657b03fbdba8","6657828c3e86d947fcd8260b","339","stimuli/20101012.jpg"," ","","feedback_trial","2","","","","","","","","","","","","","","","","","","","","",""
"","","","","","image-keyboard-response","294","894692","0.0-269.0","641c0a284d38c6abbc523a9d","665500ab8938657b03fbdba8","6657828c3e86d947fcd8260b","646","stimuli/2100010.jpg","2","","prediction_trial","2","","true","","2","true","true","true","true","true","true","[2]","100","010","1","","","","","","",""
"","","","","","image-keyboard-response","295","894966","0.0-270.0","641c0a284d38c6abbc523a9d","665500ab8938657b03fbdba8","6657828c3e86d947fcd8260b","272","stimuli/21000102.jpg"," ","","feedback_trial","2","","","","","","","","","","","","","","","","","","","","",""
"","","","","","image-keyboard-response","296","896238","0.0-271.0","641c0a284d38c6abbc523a9d","665500ab8938657b03fbdba8","6657828c3e86d947fcd8260b","1267","stimuli/2101000.jpg","2","","prediction_trial","0","","false","","2","true","true","false","false","false","false","[2,0]","101","000","0","","","","","","",""
"","","","","","image-keyboard-response","297","896630","0.0-272.0","641c0a284d38c6abbc523a9d","665500ab8938657b03fbdba8","6657828c3e86d947fcd8260b","390","stimuli/21010000.jpg"," ","","feedback_trial","2","","","","","","","","","","","","","","","","","","","","",""
"","","","","","image-keyboard-response","298","897503","0.0-273.0","641c0a284d38c6abbc523a9d","665500ab8938657b03fbdba8","6657828c3e86d947fcd8260b","869","stimuli/0101111.jpg","0","","prediction_trial","2","","false","","0","false","false","false","false","false","false","[0,2]","101","111","0","","","","","","",""
"","","","","","image-keyboard-response","299","898356","0.0-274.0","641c0a284d38c6abbc523a9d","665500ab8938657b03fbdba8","6657828c3e86d947fcd8260b","850","stimuli/01011112.jpg"," ","","feedback_trial","0","","","","","","","","","","","","","","","","","","","","",""
"","","","","","image-keyboard-response","300","899340","0.0-275.0","641c0a284d38c6abbc523a9d","665500ab8938657b03fbdba8","6657828c3e86d947fcd8260b","983","stimuli/2101010.jpg","2","","prediction_trial","0","","false","","2","true","true","false","false","false","false","[2,0]","101","010","0","","","","","","",""
"","","","","","image-keyboard-response","301","899720","0.0-276.0","641c0a284d38c6abbc523a9d","665500ab8938657b03fbdba8","6657828c3e86d947fcd8260b","377","stimuli/21010100.jpg"," ","","feedback_trial","2","","","","","","","","","","","","","","","","","","","","",""
"","","","","","image-keyboard-response","302","900402","0.0-277.0","641c0a284d38c6abbc523a9d","665500ab8938657b03fbdba8","6657828c3e86d947fcd8260b","680","stimuli/1111100.jpg","1","","prediction_trial","0","","false","","1","true","true","false","false","false","false","[1,2,0]","111","100","0","","","","","","",""
"","","","","","image-keyboard-response","303","900780","0.0-278.0","641c0a284d38c6abbc523a9d","665500ab8938657b03fbdba8","6657828c3e86d947fcd8260b","376","stimuli/11111000.jpg"," ","","feedback_trial","1","","","","","","","","","","","","","","","","","","","","",""
"","","","","","image-keyboard-response","304","901638","0.0-279.0","641c0a284d38c6abbc523a9d","665500ab8938657b03fbdba8","6657828c3e86d947fcd8260b","855","stimuli/2001001.jpg","2","","prediction_trial","2","","true","","2","false","true","false","true","false","true","[2]","001","001","1","","","","","","",""
"","","","","","image-keyboard-response","305","902073","0.0-280.0","641c0a284d38c6abbc523a9d","665500ab8938657b03fbdba8","6657828c3e86d947fcd8260b","434","stimuli/20010012.jpg"," ","","feedback_trial","2","","","","","","","","","","","","","","","","","","","","",""
"","","","","","image-keyboard-response","306","903521","0.0-281.0","641c0a284d38c6abbc523a9d","665500ab8938657b03fbdba8","6657828c3e86d947fcd8260b","1446","stimuli/2101111.jpg","1","","prediction_trial","2","","false","","2","false","false","false","false","false","false","[2,0]","101","111","0","","","","","","",""
"","","","","","image-keyboard-response","307","903898","0.0-282.0","641c0a284d38c6abbc523a9d","665500ab8938657b03fbdba8","6657828c3e86d947fcd8260b","375","stimuli/21011112.jpg"," ","","feedback_trial","2","","","","","","","","","","","","","","","","","","","","",""
"","","","","","image-keyboard-response","308","905600","0.0-283.0","641c0a284d38c6abbc523a9d","665500ab8938657b03fbdba8","6657828c3e86d947fcd8260b","1697","stimuli/1110111.jpg","2","","prediction_trial","0","","false","","1","false","false","false","false","false","false","[0,1]","110","111","0","","","","","","",""
"","","","","","image-keyboard-response","309","905998","0.0-284.0","641c0a284d38c6abbc523a9d","665500ab8938657b03fbdba8","6657828c3e86d947fcd8260b","396","stimuli/11101110.jpg"," ","","feedback_trial","0","","","","","","","","","","","","","","","","","","","","",""
"","","","","","image-keyboard-response","310","906710","0.0-285.0","641c0a284d38c6abbc523a9d","665500ab8938657b03fbdba8","6657828c3e86d947fcd8260b","709","stimuli/2100000.jpg","2","","prediction_trial","2","","true","","2","true","true","true","true","true","true","[2]","100","000","1","","","","","","",""
"","","","","","image-keyboard-response","311","906995","0.0-286.0","641c0a284d38c6abbc523a9d","665500ab8938657b03fbdba8","6657828c3e86d947fcd8260b","282","stimuli/21000002.jpg"," ","","feedback_trial","2","","","","","","","","","","","","","","","","","","","","",""
"","","","","","image-keyboard-response","312","907911","0.0-287.0","641c0a284d38c6abbc523a9d","665500ab8938657b03fbdba8","6657828c3e86d947fcd8260b","912","stimuli/0111001.jpg","0","","prediction_trial","2","","false","","0","true","true","false","false","false","false","[1,0,2]","111","001","0","","","","","","",""
"","","","","","image-keyboard-response","313","908603","0.0-288.0","641c0a284d38c6abbc523a9d","665500ab8938657b03fbdba8","6657828c3e86d947fcd8260b","690","stimuli/01110012.jpg"," ","","feedback_trial","1","","","","","","","","","","","","","","","","","","","","",""
"","","","","","image-keyboard-response","314","910364","0.0-289.0","641c0a284d38c6abbc523a9d","665500ab8938657b03fbdba8","6657828c3e86d947fcd8260b","1759","stimuli/1100011.jpg","1","","prediction_trial","1","","true","","1","false","false","true","true","false","false","[1]","100","011","1","","","","","","",""
"","","","","","image-keyboard-response","315","910818","0.0-290.0","641c0a284d38c6abbc523a9d","665500ab8938657b03fbdba8","6657828c3e86d947fcd8260b","452","stimuli/11000111.jpg"," ","","feedback_trial","1","","","","","","","","","","","","","","","","","","","","",""
"","","","","","image-keyboard-response","316","911590","0.0-291.0","641c0a284d38c6abbc523a9d","665500ab8938657b03fbdba8","6657828c3e86d947fcd8260b","770","stimuli/2001110.jpg","2","","prediction_trial","2","","true","","2","true","true","false","true","false","true","[2]","001","110","1","","","","","","",""
"","","","","","image-keyboard-response","317","911943","0.0-292.0","641c0a284d38c6abbc523a9d","665500ab8938657b03fbdba8","6657828c3e86d947fcd8260b","352","stimuli/20011102.jpg"," ","","feedback_trial","2","","","","","","","","","","","","","","","","","","","","",""
"","","","","","survey-html-form","318","965600","0.0-293.0","641c0a284d38c6abbc523a9d","665500ab8938657b03fbdba8","6657828c3e86d947fcd8260b","53657","","{""feedback"":""I generally went with where the red ball is. Sometimes if Sam had two choices I'd select the non-ball basket."",""age"":""31"",""gender"":""Male"",""other_gender"":"""",""race"":""Asian"",""other_race"":"""",""ethnicity"":""Non-Hispanic""}","","exit_survey","","","","","","","","","","","","","","","","I generally went with where the red ball is. Sometimes if Sam had two choices I'd select the non-ball basket.","31","Non-Hispanic","Male","Asian","0.5694444444444444","0.5694444444444444"
