"success","timeout","failed_images","failed_audio","failed_video","trial_type","trial_index","time_elapsed","internal_node_id","prolific_id","prolific_study_id","prolific_session_id","rt","stimulus","response","view_history","trial","character_choice","stimulus_dict","accuracy","correct_response","ball_pos","ego_ball_visible","ego_can_infer","alter_ball_visible","alter_can_infer","collective_ball_visible","collective_can_infer","search_locations","alter_occluders","ego_occluders","accuracy_bool","feedback","age","ethnicity","gender","race","overall_accuracy","bonus"
"true","false","[]","[]","[]","preload","0","6333","0.0-0.0","633c7424294f7a26710ca395","665500ab8938657b03fbdba8","6657936a03892b97df880b24","","","","","","","","","","","","","","","","","","","","","","","","","","",""
"true","","","","","fullscreen","1","12908","0.0-1.0","633c7424294f7a26710ca395","665500ab8938657b03fbdba8","6657936a03892b97df880b24","","","","","","","","","","","","","","","","","","","","","","","","","","",""
"","","","","","html-button-response","2","24922","0.0-2.0","633c7424294f7a26710ca395","665500ab8938657b03fbdba8","6657936a03892b97df880b24","12012","<p><b>Consent Form</b></p> <div style=""text-align:left;background-color:lightgrey; padding:20px; max-width:900px;""><p>Please consider this information carefully before deciding whether to participate in this research.</p> <p>The purpose of this research is to examine which factors influence social judgment and decision-making. You will be asked to make judgements about individuals and actions in social scenarios. We are simply interested in your judgement. The study will take less than 1 hour to complete, and you will receive less than $20 on Prolific. Your compensation and time commitment are specified in the study description. There are no anticipated risks associated with participating in this study. The effects of participating should be comparable to those you would ordinarily experience from viewing a computer monitor and using a mouse or keyboard for a similar amount of time. At the end of the study, we will provide an explanation of the questions that motivate this line of research and will describe the potential implications. </p><p> Your participation in this study is completely voluntary and you may refuse to participate or you may choose to withdraw at any time without penalty or loss of benefits to you which are otherwise entitled. Your participation in this study will remain confidential. No personally identifiable information will be associated with your data. Also, all analyses of the data will be averaged across all the participants, so your individual responses will never be specifically analyzed. </p><p> If you have questions or concerns about your participation or payment, or want to request a summary of research findings, please contact Dr. Jonathan Phillips at Jonathan.S.Phillips@dartmouth.edu. </p><p> Please save a copy of this form for your records. </p><p><b>Agreement: </b>The nature and purpose of this research have been sufficiently explained and I agree to participate in this study. I understand that I am free to withdraw at any time without incurring any penalty. Please consent by clicking the button below to continue. Otherwise, please exit the study at any time. </p>","0","","","","","","","","","","","","","","","","","","","","","","","",""
"","","","","","instructions","3","65240","0.0-3.0-0.0","633c7424294f7a26710ca395","665500ab8938657b03fbdba8","6657936a03892b97df880b24","40317","","","[{""page_index"":0,""viewing_time"":1366},{""page_index"":1,""viewing_time"":1300},{""page_index"":2,""viewing_time"":2217},{""page_index"":3,""viewing_time"":3884},{""page_index"":4,""viewing_time"":1665},{""page_index"":5,""viewing_time"":2233},{""page_index"":6,""viewing_time"":2084},{""page_index"":7,""viewing_time"":2066},{""page_index"":8,""viewing_time"":3934},{""page_index"":9,""viewing_time"":1400},{""page_index"":10,""viewing_time"":7334},{""page_index"":11,""viewing_time"":6033},{""page_index"":12,""viewing_time"":3884},{""page_index"":13,""viewing_time"":917}]","intro","","","","","","","","","","","","","","","","","","","","","",""
"","","","","","image-keyboard-response","4","67208","0.0-3.0-1.0","633c7424294f7a26710ca395","665500ab8938657b03fbdba8","6657936a03892b97df880b24","1959","stimuli/2110100.jpg","2","","prediction_practice","2","{""filepath"":""stimuli/2110100.jpg"",""ball_pos"":2,""ego_ball_visible"":true,""ego_can_infer"":true,""alter_ball_visible"":true,""alter_can_infer"":true,""collective_ball_visible"":true,""collective_can_infer"":true,""search_locations"":[2],""alter_occluders"":""110"",""ego_occluders"":""100""}","true","","","","","","","","","","","","","","","","","","",""
"","","","","","image-keyboard-response","5","68219","0.0-3.0-2.0","633c7424294f7a26710ca395","665500ab8938657b03fbdba8","6657936a03892b97df880b24","1004","stimuli/21101002.jpg"," ","","practrice_feedback","2","","","","","","","","","","","","","","","","","","","","",""
"","","","","","image-keyboard-response","6","69121","0.0-3.0-3.0","633c7424294f7a26710ca395","665500ab8938657b03fbdba8","6657936a03892b97df880b24","896","stimuli/0000010.jpg","0","","prediction_practice","0","{""filepath"":""stimuli/0000010.jpg"",""ball_pos"":0,""ego_ball_visible"":true,""ego_can_infer"":true,""alter_ball_visible"":true,""alter_can_infer"":true,""collective_ball_visible"":true,""collective_can_infer"":true,""search_locations"":[0],""alter_occluders"":""000"",""ego_occluders"":""010""}","true","","","","","","","","","","","","","","","","","","",""
"","","","","","image-keyboard-response","7","69570","0.0-3.0-4.0","633c7424294f7a26710ca395","665500ab8938657b03fbdba8","6657936a03892b97df880b24","442","stimuli/00000100.jpg"," ","","practrice_feedback","0","","","","","","","","","","","","","","","","","","","","",""
"","","","","","image-keyboard-response","8","73179","0.0-3.0-5.0","633c7424294f7a26710ca395","665500ab8938657b03fbdba8","6657936a03892b97df880b24","3603","stimuli/0110101.jpg","2","","prediction_practice","0","{""filepath"":""stimuli/0110101.jpg"",""ball_pos"":0,""ego_ball_visible"":false,""ego_can_infer"":false,""alter_ball_visible"":false,""alter_can_infer"":false,""collective_ball_visible"":false,""collective_can_infer"":false,""search_locations"":[1,0],""alter_occluders"":""110"",""ego_occluders"":""101""}","false","","","","","","","","","","","","","","","","","","",""
"","","","","","image-keyboard-response","9","74259","0.0-3.0-6.0","633c7424294f7a26710ca395","665500ab8938657b03fbdba8","6657936a03892b97df880b24","1074","stimuli/01101010.jpg"," ","","practrice_feedback","1","","","","","","","","","","","","","","","","","","","","",""
"","","","","","image-keyboard-response","10","75107","0.0-3.0-7.0","633c7424294f7a26710ca395","665500ab8938657b03fbdba8","6657936a03892b97df880b24","839","stimuli/0000000.jpg","0","","prediction_practice","0","{""filepath"":""stimuli/0000000.jpg"",""ball_pos"":0,""ego_ball_visible"":true,""ego_can_infer"":true,""alter_ball_visible"":true,""alter_can_infer"":true,""collective_ball_visible"":true,""collective_can_infer"":true,""search_locations"":[0],""alter_occluders"":""000"",""ego_occluders"":""000""}","true","","","","","","","","","","","","","","","","","","",""
"","","","","","image-keyboard-response","11","75779","0.0-3.0-8.0","633c7424294f7a26710ca395","665500ab8938657b03fbdba8","6657936a03892b97df880b24","665","stimuli/00000000.jpg"," ","","practrice_feedback","0","","","","","","","","","","","","","","","","","","","","",""
"","","","","","image-keyboard-response","12","77396","0.0-3.0-9.0","633c7424294f7a26710ca395","665500ab8938657b03fbdba8","6657936a03892b97df880b24","1610","stimuli/2001011.jpg","1","","prediction_practice","2","{""filepath"":""stimuli/2001011.jpg"",""ball_pos"":2,""ego_ball_visible"":false,""ego_can_infer"":false,""alter_ball_visible"":false,""alter_can_infer"":true,""collective_ball_visible"":false,""collective_can_infer"":false,""search_locations"":[2],""alter_occluders"":""001"",""ego_occluders"":""011""}","false","","","","","","","","","","","","","","","","","","",""
"","","","","","image-keyboard-response","13","78315","0.0-3.0-10.0","633c7424294f7a26710ca395","665500ab8938657b03fbdba8","6657936a03892b97df880b24","912","stimuli/20010112.jpg"," ","","practrice_feedback","2","","","","","","","","","","","","","","","","","","","","",""
"","","","","","image-keyboard-response","14","80093","0.0-3.0-11.0","633c7424294f7a26710ca395","665500ab8938657b03fbdba8","6657936a03892b97df880b24","1771","stimuli/2011110.jpg","2","","prediction_practice","1","{""filepath"":""stimuli/2011110.jpg"",""ball_pos"":2,""ego_ball_visible"":true,""ego_can_infer"":true,""alter_ball_visible"":false,""alter_can_infer"":false,""collective_ball_visible"":false,""collective_can_infer"":false,""search_locations"":[2,1],""alter_occluders"":""011"",""ego_occluders"":""110""}","false","","","","","","","","","","","","","","","","","","",""
"","","","","","image-keyboard-response","15","80885","0.0-3.0-12.0","633c7424294f7a26710ca395","665500ab8938657b03fbdba8","6657936a03892b97df880b24","782","stimuli/20111101.jpg"," ","","practrice_feedback","2","","","","","","","","","","","","","","","","","","","","",""
"","","","","","image-keyboard-response","16","82532","0.0-3.0-13.0","633c7424294f7a26710ca395","665500ab8938657b03fbdba8","6657936a03892b97df880b24","1639","stimuli/1100010.jpg","1","","prediction_practice","1","{""filepath"":""stimuli/1100010.jpg"",""ball_pos"":1,""ego_ball_visible"":false,""ego_can_infer"":true,""alter_ball_visible"":true,""alter_can_infer"":true,""collective_ball_visible"":false,""collective_can_infer"":true,""search_locations"":[1],""alter_occluders"":""100"",""ego_occluders"":""010""}","true","","","","","","","","","","","","","","","","","","",""
"","","","","","image-keyboard-response","17","83067","0.0-3.0-14.0","633c7424294f7a26710ca395","665500ab8938657b03fbdba8","6657936a03892b97df880b24","529","stimuli/11000101.jpg"," ","","practrice_feedback","1","","","","","","","","","","","","","","","","","","","","",""
"","","","","","image-keyboard-response","18","84220","0.0-3.0-15.0","633c7424294f7a26710ca395","665500ab8938657b03fbdba8","6657936a03892b97df880b24","1147","stimuli/1101010.jpg","1","","prediction_practice","1","{""filepath"":""stimuli/1101010.jpg"",""ball_pos"":1,""ego_ball_visible"":false,""ego_can_infer"":true,""alter_ball_visible"":true,""alter_can_infer"":true,""collective_ball_visible"":false,""collective_can_infer"":true,""search_locations"":[1],""alter_occluders"":""101"",""ego_occluders"":""010""}","true","","","","","","","","","","","","","","","","","","",""
"","","","","","image-keyboard-response","19","84540","0.0-3.0-16.0","633c7424294f7a26710ca395","665500ab8938657b03fbdba8","6657936a03892b97df880b24","313","stimuli/11010101.jpg"," ","","practrice_feedback","1","","","","","","","","","","","","","","","","","","","","",""
"","","","","","image-keyboard-response","20","86052","0.0-3.0-17.0","633c7424294f7a26710ca395","665500ab8938657b03fbdba8","6657936a03892b97df880b24","1505","stimuli/2100101.jpg","2","","prediction_practice","2","{""filepath"":""stimuli/2100101.jpg"",""ball_pos"":2,""ego_ball_visible"":false,""ego_can_infer"":false,""alter_ball_visible"":true,""alter_can_infer"":true,""collective_ball_visible"":false,""collective_can_infer"":false,""search_locations"":[2],""alter_occluders"":""100"",""ego_occluders"":""101""}","true","","","","","","","","","","","","","","","","","","",""
"","","","","","image-keyboard-response","21","86659","0.0-3.0-18.0","633c7424294f7a26710ca395","665500ab8938657b03fbdba8","6657936a03892b97df880b24","599","stimuli/21001012.jpg"," ","","practrice_feedback","2","","","","","","","","","","","","","","","","","","","","",""
"","","","","","image-keyboard-response","22","89397","0.0-3.0-19.0","633c7424294f7a26710ca395","665500ab8938657b03fbdba8","6657936a03892b97df880b24","2728","stimuli/2011011.jpg","1","","prediction_practice","1","{""filepath"":""stimuli/2011011.jpg"",""ball_pos"":2,""ego_ball_visible"":false,""ego_can_infer"":false,""alter_ball_visible"":false,""alter_can_infer"":false,""collective_ball_visible"":false,""collective_can_infer"":false,""search_locations"":[1,2],""alter_occluders"":""011"",""ego_occluders"":""011""}","true","","","","","","","","","","","","","","","","","","",""
"","","","","","image-keyboard-response","23","89963","0.0-3.0-20.0","633c7424294f7a26710ca395","665500ab8938657b03fbdba8","6657936a03892b97df880b24","558","stimuli/20110111.jpg"," ","","practrice_feedback","1","","","","","","","","","","","","","","","","","","","","",""
"","","","","","html-button-response","24","93205","0.0-3.0-21.0","633c7424294f7a26710ca395","665500ab8938657b03fbdba8","6657936a03892b97df880b24","3241","Now that you've had some practice, you'll be tested with a couple of easy trials. If you correctly predict Sam's choice, you'll move on to complete the experiment!","0","","","","","","","","","","","","","","","","","","","","","","","",""
"","","","","","image-keyboard-response","25","94308","0.0-3.0-22.0-0.0","633c7424294f7a26710ca395","665500ab8938657b03fbdba8","6657936a03892b97df880b24","1094","stimuli/0000011.jpg","arrowleft","","comprehension_quiz","","","true","arrowleft","","","","","","","","","","","","","","","","","",""
"","","","","","image-keyboard-response","26","94718","0.0-3.0-22.0-1.0","633c7424294f7a26710ca395","665500ab8938657b03fbdba8","6657936a03892b97df880b24","402","stimuli/00000110.jpg"," ","","comprehension_quiz","","","true"," ","","","","","","","","","","","","","","","","","",""
"","","","","","image-keyboard-response","27","95693","0.0-3.0-22.0-2.0","633c7424294f7a26710ca395","665500ab8938657b03fbdba8","6657936a03892b97df880b24","968","stimuli/1010010.jpg","arrowdown","","comprehension_quiz","","","true","arrowdown","","","","","","","","","","","","","","","","","",""
"","","","","","image-keyboard-response","28","96109","0.0-3.0-22.0-3.0","633c7424294f7a26710ca395","665500ab8938657b03fbdba8","6657936a03892b97df880b24","408","stimuli/10100101.jpg"," ","","comprehension_quiz","","","true"," ","","","","","","","","","","","","","","","","","",""
"","","","","","html-button-response","29","98139","0.0-4.0","633c7424294f7a26710ca395","665500ab8938657b03fbdba8","6657936a03892b97df880b24","2027","The experiment will now begin.","0","","","","","","","","","","","","","","","","","","","","","","","",""
"","","","","","image-keyboard-response","30","99143","0.0-5.0","633c7424294f7a26710ca395","665500ab8938657b03fbdba8","6657936a03892b97df880b24","997","stimuli/0000001.jpg","0","","prediction_trial","0","","true","","0","true","true","true","true","true","true","[0]","000","001","1","","","","","","",""
"","","","","","image-keyboard-response","31","99413","0.0-6.0","633c7424294f7a26710ca395","665500ab8938657b03fbdba8","6657936a03892b97df880b24","262","stimuli/00000010.jpg"," ","","feedback_trial","0","","","","","","","","","","","","","","","","","","","","",""
"","","","","","image-keyboard-response","32","100157","0.0-7.0","633c7424294f7a26710ca395","665500ab8938657b03fbdba8","6657936a03892b97df880b24","736","stimuli/2110000.jpg","2","","prediction_trial","2","","true","","2","true","true","true","true","true","true","[2]","110","000","1","","","","","","",""
"","","","","","image-keyboard-response","33","100277","0.0-8.0","633c7424294f7a26710ca395","665500ab8938657b03fbdba8","6657936a03892b97df880b24","113","stimuli/21100002.jpg"," ","","feedback_trial","2","","","","","","","","","","","","","","","","","","","","",""
"","","","","","image-keyboard-response","34","102215","0.0-9.0","633c7424294f7a26710ca395","665500ab8938657b03fbdba8","6657936a03892b97df880b24","1932","stimuli/0110010.jpg","1","","prediction_trial","1","","true","","0","true","true","false","false","false","false","[0,1]","110","010","1","","","","","","",""
"","","","","","image-keyboard-response","35","102670","0.0-10.0","633c7424294f7a26710ca395","665500ab8938657b03fbdba8","6657936a03892b97df880b24","447","stimuli/01100101.jpg"," ","","feedback_trial","0","","","","","","","","","","","","","","","","","","","","",""
"","","","","","image-keyboard-response","36","104526","0.0-11.0","633c7424294f7a26710ca395","665500ab8938657b03fbdba8","6657936a03892b97df880b24","1854","stimuli/2100101.jpg","2","","prediction_trial","2","","true","","2","false","false","true","true","false","false","[2]","100","101","1","","","","","","",""
"","","","","","image-keyboard-response","37","104941","0.0-12.0","633c7424294f7a26710ca395","665500ab8938657b03fbdba8","6657936a03892b97df880b24","413","stimuli/21001012.jpg"," ","","feedback_trial","2","","","","","","","","","","","","","","","","","","","","",""
"","","","","","image-keyboard-response","38","106037","0.0-13.0","633c7424294f7a26710ca395","665500ab8938657b03fbdba8","6657936a03892b97df880b24","1090","stimuli/0010001.jpg","0","","prediction_trial","0","","true","","0","true","true","true","true","true","true","[0]","010","001","1","","","","","","",""
"","","","","","image-keyboard-response","39","106398","0.0-14.0","633c7424294f7a26710ca395","665500ab8938657b03fbdba8","6657936a03892b97df880b24","354","stimuli/00100010.jpg"," ","","feedback_trial","0","","","","","","","","","","","","","","","","","","","","",""
"","","","","","image-keyboard-response","40","107391","0.0-15.0","633c7424294f7a26710ca395","665500ab8938657b03fbdba8","6657936a03892b97df880b24","987","stimuli/1100001.jpg","1","","prediction_trial","1","","true","","1","true","true","true","true","true","true","[1]","100","001","1","","","","","","",""
"","","","","","image-keyboard-response","41","107606","0.0-16.0","633c7424294f7a26710ca395","665500ab8938657b03fbdba8","6657936a03892b97df880b24","208","stimuli/11000011.jpg"," ","","feedback_trial","1","","","","","","","","","","","","","","","","","","","","",""
"","","","","","image-keyboard-response","42","109321","0.0-17.0","633c7424294f7a26710ca395","665500ab8938657b03fbdba8","6657936a03892b97df880b24","1708","stimuli/2011100.jpg","1","","prediction_trial","2","","false","","2","true","true","false","false","false","false","[1,2]","011","100","0","","","","","","",""
"","","","","","image-keyboard-response","43","109990","0.0-18.0","633c7424294f7a26710ca395","665500ab8938657b03fbdba8","6657936a03892b97df880b24","662","stimuli/20111002.jpg"," ","","feedback_trial","1","","","","","","","","","","","","","","","","","","","","",""
"","","","","","image-keyboard-response","44","111710","0.0-19.0","633c7424294f7a26710ca395","665500ab8938657b03fbdba8","6657936a03892b97df880b24","1714","stimuli/0010110.jpg","0","","prediction_trial","0","","true","","0","false","false","true","true","false","false","[0]","010","110","1","","","","","","",""
"","","","","","image-keyboard-response","45","112382","0.0-20.0","633c7424294f7a26710ca395","665500ab8938657b03fbdba8","6657936a03892b97df880b24","665","stimuli/00101100.jpg"," ","","feedback_trial","0","","","","","","","","","","","","","","","","","","","","",""
"","","","","","image-keyboard-response","46","114026","0.0-21.0","633c7424294f7a26710ca395","665500ab8938657b03fbdba8","6657936a03892b97df880b24","1637","stimuli/2001110.jpg","2","","prediction_trial","2","","true","","2","true","true","false","true","false","true","[2]","001","110","1","","","","","","",""
"","","","","","image-keyboard-response","47","114295","0.0-22.0","633c7424294f7a26710ca395","665500ab8938657b03fbdba8","6657936a03892b97df880b24","262","stimuli/20011102.jpg"," ","","feedback_trial","2","","","","","","","","","","","","","","","","","","","","",""
"","","","","","image-keyboard-response","48","115951","0.0-23.0","633c7424294f7a26710ca395","665500ab8938657b03fbdba8","6657936a03892b97df880b24","1650","stimuli/1011111.jpg","1","","prediction_trial","1","","true","","1","false","false","false","false","false","false","[2,1]","011","111","1","","","","","","",""
"","","","","","image-keyboard-response","49","116447","0.0-24.0","633c7424294f7a26710ca395","665500ab8938657b03fbdba8","6657936a03892b97df880b24","491","stimuli/10111111.jpg"," ","","feedback_trial","2","","","","","","","","","","","","","","","","","","","","",""
"","","","","","image-keyboard-response","50","117389","0.0-25.0","633c7424294f7a26710ca395","665500ab8938657b03fbdba8","6657936a03892b97df880b24","936","stimuli/2000110.jpg","2","","prediction_trial","2","","true","","2","true","true","true","true","true","true","[2]","000","110","1","","","","","","",""
"","","","","","image-keyboard-response","51","117550","0.0-26.0","633c7424294f7a26710ca395","665500ab8938657b03fbdba8","6657936a03892b97df880b24","152","stimuli/20001102.jpg"," ","","feedback_trial","2","","","","","","","","","","","","","","","","","","","","",""
"","","","","","image-keyboard-response","52","118342","0.0-27.0","633c7424294f7a26710ca395","665500ab8938657b03fbdba8","6657936a03892b97df880b24","781","stimuli/2100000.jpg","2","","prediction_trial","2","","true","","2","true","true","true","true","true","true","[2]","100","000","1","","","","","","",""
"","","","","","image-keyboard-response","53","118518","0.0-28.0","633c7424294f7a26710ca395","665500ab8938657b03fbdba8","6657936a03892b97df880b24","169","stimuli/21000002.jpg"," ","","feedback_trial","2","","","","","","","","","","","","","","","","","","","","",""
"","","","","","image-keyboard-response","54","120464","0.0-29.0","633c7424294f7a26710ca395","665500ab8938657b03fbdba8","6657936a03892b97df880b24","1939","stimuli/1110101.jpg","1","","prediction_trial","1","","true","","1","true","true","false","false","false","false","[1,0]","110","101","1","","","","","","",""
"","","","","","image-keyboard-response","55","120791","0.0-30.0","633c7424294f7a26710ca395","665500ab8938657b03fbdba8","6657936a03892b97df880b24","319","stimuli/11101011.jpg"," ","","feedback_trial","1","","","","","","","","","","","","","","","","","","","","",""
"","","","","","image-keyboard-response","56","122320","0.0-31.0","633c7424294f7a26710ca395","665500ab8938657b03fbdba8","6657936a03892b97df880b24","1522","stimuli/1101110.jpg","0","","prediction_trial","1","","false","","1","false","false","true","true","false","false","[1]","101","110","0","","","","","","",""
"","","","","","image-keyboard-response","57","123031","0.0-32.0","633c7424294f7a26710ca395","665500ab8938657b03fbdba8","6657936a03892b97df880b24","704","stimuli/11011101.jpg"," ","","feedback_trial","1","","","","","","","","","","","","","","","","","","","","",""
"","","","","","image-keyboard-response","58","124134","0.0-33.0","633c7424294f7a26710ca395","665500ab8938657b03fbdba8","6657936a03892b97df880b24","1097","stimuli/1111100.jpg","1","","prediction_trial","0","","false","","1","true","true","false","false","false","false","[0,2,1]","111","100","0","","","","","","",""
"","","","","","image-keyboard-response","59","124559","0.0-34.0","633c7424294f7a26710ca395","665500ab8938657b03fbdba8","6657936a03892b97df880b24","421","stimuli/11111000.jpg"," ","","feedback_trial","0","","","","","","","","","","","","","","","","","","","","",""
"","","","","","image-keyboard-response","60","125955","0.0-35.0","633c7424294f7a26710ca395","665500ab8938657b03fbdba8","6657936a03892b97df880b24","1389","stimuli/2111110.jpg","2","","prediction_trial","0","","false","","2","true","true","false","false","false","false","[1,0,2]","111","110","0","","","","","","",""
"","","","","","image-keyboard-response","61","126463","0.0-36.0","633c7424294f7a26710ca395","665500ab8938657b03fbdba8","6657936a03892b97df880b24","502","stimuli/21111100.jpg"," ","","feedback_trial","1","","","","","","","","","","","","","","","","","","","","",""
"","","","","","image-keyboard-response","62","127495","0.0-37.0","633c7424294f7a26710ca395","665500ab8938657b03fbdba8","6657936a03892b97df880b24","1025","stimuli/2010001.jpg","2","","prediction_trial","2","","true","","2","false","true","true","true","false","true","[2]","010","001","1","","","","","","",""
"","","","","","image-keyboard-response","63","128303","0.0-38.0","633c7424294f7a26710ca395","665500ab8938657b03fbdba8","6657936a03892b97df880b24","801","stimuli/20100012.jpg"," ","","feedback_trial","2","","","","","","","","","","","","","","","","","","","","",""
"","","","","","image-keyboard-response","64","129352","0.0-39.0","633c7424294f7a26710ca395","665500ab8938657b03fbdba8","6657936a03892b97df880b24","1041","stimuli/2010110.jpg","2","","prediction_trial","2","","true","","2","true","true","true","true","true","true","[2]","010","110","1","","","","","","",""
"","","","","","image-keyboard-response","65","129519","0.0-40.0","633c7424294f7a26710ca395","665500ab8938657b03fbdba8","6657936a03892b97df880b24","161","stimuli/20101102.jpg"," ","","feedback_trial","2","","","","","","","","","","","","","","","","","","","","",""
"","","","","","image-keyboard-response","66","130215","0.0-41.0","633c7424294f7a26710ca395","665500ab8938657b03fbdba8","6657936a03892b97df880b24","687","stimuli/1101100.jpg","1","","prediction_trial","1","","true","","1","true","true","true","true","true","true","[1]","101","100","1","","","","","","",""
"","","","","","image-keyboard-response","67","130327","0.0-42.0","633c7424294f7a26710ca395","665500ab8938657b03fbdba8","6657936a03892b97df880b24","105","stimuli/11011001.jpg"," ","","feedback_trial","1","","","","","","","","","","","","","","","","","","","","",""
"","","","","","image-keyboard-response","68","131904","0.0-43.0","633c7424294f7a26710ca395","665500ab8938657b03fbdba8","6657936a03892b97df880b24","1569","stimuli/2101101.jpg","0","","prediction_trial","0","","true","","2","false","false","false","false","false","false","[2,0]","101","101","1","","","","","","",""
"","","","","","image-keyboard-response","69","132329","0.0-44.0","633c7424294f7a26710ca395","665500ab8938657b03fbdba8","6657936a03892b97df880b24","421","stimuli/21011010.jpg"," ","","feedback_trial","2","","","","","","","","","","","","","","","","","","","","",""
"","","","","","image-keyboard-response","70","133087","0.0-45.0","633c7424294f7a26710ca395","665500ab8938657b03fbdba8","6657936a03892b97df880b24","745","stimuli/0000100.jpg","0","","prediction_trial","0","","true","","0","false","true","true","true","false","true","[0]","000","100","1","","","","","","",""
"","","","","","image-keyboard-response","71","133289","0.0-46.0","633c7424294f7a26710ca395","665500ab8938657b03fbdba8","6657936a03892b97df880b24","195","stimuli/00001000.jpg"," ","","feedback_trial","0","","","","","","","","","","","","","","","","","","","","",""
"","","","","","image-keyboard-response","72","134233","0.0-47.0","633c7424294f7a26710ca395","665500ab8938657b03fbdba8","6657936a03892b97df880b24","941","stimuli/1010010.jpg","1","","prediction_trial","1","","true","","1","false","true","false","true","false","true","[1]","010","010","1","","","","","","",""
"","","","","","image-keyboard-response","73","134521","0.0-48.0","633c7424294f7a26710ca395","665500ab8938657b03fbdba8","6657936a03892b97df880b24","286","stimuli/10100101.jpg"," ","","feedback_trial","1","","","","","","","","","","","","","","","","","","","","",""
"","","","","","image-keyboard-response","74","136097","0.0-49.0","633c7424294f7a26710ca395","665500ab8938657b03fbdba8","6657936a03892b97df880b24","1569","stimuli/1011110.jpg","0","","prediction_trial","2","","false","","1","false","false","false","false","false","false","[2,1]","011","110","0","","","","","","",""
"","","","","","image-keyboard-response","75","136650","0.0-50.0","633c7424294f7a26710ca395","665500ab8938657b03fbdba8","6657936a03892b97df880b24","541","stimuli/10111102.jpg"," ","","feedback_trial","2","","","","","","","","","","","","","","","","","","","","",""
"","","","","","image-keyboard-response","76","141040","0.0-51.0","633c7424294f7a26710ca395","665500ab8938657b03fbdba8","6657936a03892b97df880b24","4384","stimuli/2011110.jpg","1","","prediction_trial","1","","true","","2","true","true","false","false","false","false","[2,1]","011","110","1","","","","","","",""
"","","","","","image-keyboard-response","77","141546","0.0-52.0","633c7424294f7a26710ca395","665500ab8938657b03fbdba8","6657936a03892b97df880b24","498","stimuli/20111101.jpg"," ","","feedback_trial","2","","","","","","","","","","","","","","","","","","","","",""
"","","","","","image-keyboard-response","78","142232","0.0-53.0","633c7424294f7a26710ca395","665500ab8938657b03fbdba8","6657936a03892b97df880b24","679","stimuli/1100100.jpg","1","","prediction_trial","1","","true","","1","true","true","true","true","true","true","[1]","100","100","1","","","","","","",""
"","","","","","image-keyboard-response","79","142457","0.0-54.0","633c7424294f7a26710ca395","665500ab8938657b03fbdba8","6657936a03892b97df880b24","217","stimuli/11001001.jpg"," ","","feedback_trial","1","","","","","","","","","","","","","","","","","","","","",""
"","","","","","image-keyboard-response","80","143088","0.0-55.0","633c7424294f7a26710ca395","665500ab8938657b03fbdba8","6657936a03892b97df880b24","625","stimuli/0001001.jpg","0","","prediction_trial","0","","true","","0","true","true","true","true","true","true","[0]","001","001","1","","","","","","",""
"","","","","","image-keyboard-response","81","143298","0.0-56.0","633c7424294f7a26710ca395","665500ab8938657b03fbdba8","6657936a03892b97df880b24","201","stimuli/00010010.jpg"," ","","feedback_trial","0","","","","","","","","","","","","","","","","","","","","",""
"","","","","","image-keyboard-response","82","144378","0.0-57.0","633c7424294f7a26710ca395","665500ab8938657b03fbdba8","6657936a03892b97df880b24","1074","stimuli/2101011.jpg","1","","prediction_trial","2","","false","","2","false","false","false","false","false","false","[2,0]","101","011","0","","","","","","",""
"","","","","","image-keyboard-response","83","144905","0.0-58.0","633c7424294f7a26710ca395","665500ab8938657b03fbdba8","6657936a03892b97df880b24","520","stimuli/21010112.jpg"," ","","feedback_trial","2","","","","","","","","","","","","","","","","","","","","",""
"","","","","","image-keyboard-response","84","146585","0.0-59.0","633c7424294f7a26710ca395","665500ab8938657b03fbdba8","6657936a03892b97df880b24","1673","stimuli/0101001.jpg","0","","prediction_trial","0","","true","","0","true","true","false","false","false","false","[2,0]","101","001","1","","","","","","",""
"","","","","","image-keyboard-response","85","146953","0.0-60.0","633c7424294f7a26710ca395","665500ab8938657b03fbdba8","6657936a03892b97df880b24","360","stimuli/01010010.jpg"," ","","feedback_trial","2","","","","","","","","","","","","","","","","","","","","",""
"","","","","","image-keyboard-response","86","147867","0.0-61.0","633c7424294f7a26710ca395","665500ab8938657b03fbdba8","6657936a03892b97df880b24","906","stimuli/2110010.jpg","2","","prediction_trial","2","","true","","2","true","true","true","true","true","true","[2]","110","010","1","","","","","","",""
"","","","","","image-keyboard-response","87","148041","0.0-62.0","633c7424294f7a26710ca395","665500ab8938657b03fbdba8","6657936a03892b97df880b24","167","stimuli/21100102.jpg"," ","","feedback_trial","2","","","","","","","","","","","","","","","","","","","","",""
"","","","","","image-keyboard-response","88","149442","0.0-63.0","633c7424294f7a26710ca395","665500ab8938657b03fbdba8","6657936a03892b97df880b24","1394","stimuli/1000011.jpg","1","","prediction_trial","1","","true","","1","false","false","true","true","false","false","[1]","000","011","1","","","","","","",""
"","","","","","image-keyboard-response","89","150105","0.0-64.0","633c7424294f7a26710ca395","665500ab8938657b03fbdba8","6657936a03892b97df880b24","655","stimuli/10000111.jpg"," ","","feedback_trial","1","","","","","","","","","","","","","","","","","","","","",""
"","","","","","image-keyboard-response","90","151193","0.0-65.0","633c7424294f7a26710ca395","665500ab8938657b03fbdba8","6657936a03892b97df880b24","1081","stimuli/1001010.jpg","1","","prediction_trial","1","","true","","1","false","true","true","true","false","true","[1]","001","010","1","","","","","","",""
"","","","","","image-keyboard-response","91","151473","0.0-66.0","633c7424294f7a26710ca395","665500ab8938657b03fbdba8","6657936a03892b97df880b24","273","stimuli/10010101.jpg"," ","","feedback_trial","1","","","","","","","","","","","","","","","","","","","","",""
"","","","","","image-keyboard-response","92","152585","0.0-67.0","633c7424294f7a26710ca395","665500ab8938657b03fbdba8","6657936a03892b97df880b24","1105","stimuli/1010011.jpg","2","","prediction_trial","1","","false","","1","false","false","false","true","false","false","[1]","010","011","0","","","","","","",""
"","","","","","image-keyboard-response","93","152994","0.0-68.0","633c7424294f7a26710ca395","665500ab8938657b03fbdba8","6657936a03892b97df880b24","402","stimuli/10100111.jpg"," ","","feedback_trial","1","","","","","","","","","","","","","","","","","","","","",""
"","","","","","image-keyboard-response","94","153906","0.0-69.0","633c7424294f7a26710ca395","665500ab8938657b03fbdba8","6657936a03892b97df880b24","902","stimuli/1000010.jpg","1","","prediction_trial","1","","true","","1","false","true","true","true","false","true","[1]","000","010","1","","","","","","",""
"","","","","","image-keyboard-response","95","154128","0.0-70.0","633c7424294f7a26710ca395","665500ab8938657b03fbdba8","6657936a03892b97df880b24","215","stimuli/10000101.jpg"," ","","feedback_trial","1","","","","","","","","","","","","","","","","","","","","",""
"","","","","","image-keyboard-response","96","155074","0.0-71.0","633c7424294f7a26710ca395","665500ab8938657b03fbdba8","6657936a03892b97df880b24","942","stimuli/1110100.jpg","1","","prediction_trial","0","","false","","1","true","true","false","false","false","false","[1,0]","110","100","0","","","","","","",""
"","","","","","image-keyboard-response","97","155377","0.0-72.0","633c7424294f7a26710ca395","665500ab8938657b03fbdba8","6657936a03892b97df880b24","295","stimuli/11101000.jpg"," ","","feedback_trial","1","","","","","","","","","","","","","","","","","","","","",""
"","","","","","image-keyboard-response","98","156421","0.0-73.0","633c7424294f7a26710ca395","665500ab8938657b03fbdba8","6657936a03892b97df880b24","1036","stimuli/2101100.jpg","2","","prediction_trial","2","","true","","2","true","true","false","false","false","false","[0,2]","101","100","1","","","","","","",""
"","","","","","image-keyboard-response","99","156794","0.0-74.0","633c7424294f7a26710ca395","665500ab8938657b03fbdba8","6657936a03892b97df880b24","369","stimuli/21011002.jpg"," ","","feedback_trial","0","","","","","","","","","","","","","","","","","","","","",""
"","","","","","image-keyboard-response","100","158314","0.0-75.0","633c7424294f7a26710ca395","665500ab8938657b03fbdba8","6657936a03892b97df880b24","1514","stimuli/0100101.jpg","2","","prediction_trial","0","","false","","0","false","false","false","true","false","false","[0]","100","101","0","","","","","","",""
"","","","","","image-keyboard-response","101","158978","0.0-76.0","633c7424294f7a26710ca395","665500ab8938657b03fbdba8","6657936a03892b97df880b24","656","stimuli/01001010.jpg"," ","","feedback_trial","0","","","","","","","","","","","","","","","","","","","","",""
"","","","","","image-keyboard-response","102","161650","0.0-77.0","633c7424294f7a26710ca395","665500ab8938657b03fbdba8","6657936a03892b97df880b24","2666","stimuli/2101110.jpg","2","","prediction_trial","2","","true","","2","true","true","false","false","false","false","[2,0]","101","110","1","","","","","","",""
"","","","","","image-keyboard-response","103","162090","0.0-78.0","633c7424294f7a26710ca395","665500ab8938657b03fbdba8","6657936a03892b97df880b24","431","stimuli/21011102.jpg"," ","","feedback_trial","2","","","","","","","","","","","","","","","","","","","","",""
"","","","","","image-keyboard-response","104","164420","0.0-79.0","633c7424294f7a26710ca395","665500ab8938657b03fbdba8","6657936a03892b97df880b24","2322","stimuli/0010111.jpg","0","","prediction_trial","0","","true","","0","false","false","true","true","false","false","[0]","010","111","1","","","","","","",""
"","","","","","image-keyboard-response","105","164977","0.0-80.0","633c7424294f7a26710ca395","665500ab8938657b03fbdba8","6657936a03892b97df880b24","548","stimuli/00101110.jpg"," ","","feedback_trial","0","","","","","","","","","","","","","","","","","","","","",""
"","","","","","image-keyboard-response","106","165786","0.0-81.0","633c7424294f7a26710ca395","665500ab8938657b03fbdba8","6657936a03892b97df880b24","802","stimuli/0010011.jpg","0","","prediction_trial","0","","true","","0","true","true","true","true","true","true","[0]","010","011","1","","","","","","",""
"","","","","","image-keyboard-response","107","165993","0.0-82.0","633c7424294f7a26710ca395","665500ab8938657b03fbdba8","6657936a03892b97df880b24","200","stimuli/00100110.jpg"," ","","feedback_trial","0","","","","","","","","","","","","","","","","","","","","",""
"","","","","","image-keyboard-response","108","167594","0.0-83.0","633c7424294f7a26710ca395","665500ab8938657b03fbdba8","6657936a03892b97df880b24","1594","stimuli/0110110.jpg","1","","prediction_trial","0","","false","","0","false","false","false","false","false","false","[0,1]","110","110","0","","","","","","",""
"","","","","","image-keyboard-response","109","168092","0.0-84.0","633c7424294f7a26710ca395","665500ab8938657b03fbdba8","6657936a03892b97df880b24","488","stimuli/01101100.jpg"," ","","feedback_trial","0","","","","","","","","","","","","","","","","","","","","",""
"","","","","","image-keyboard-response","110","169099","0.0-85.0","633c7424294f7a26710ca395","665500ab8938657b03fbdba8","6657936a03892b97df880b24","1000","stimuli/2111000.jpg","2","","prediction_trial","0","","false","","2","true","true","false","false","false","false","[0,1,2]","111","000","0","","","","","","",""
"","","","","","image-keyboard-response","111","169579","0.0-86.0","633c7424294f7a26710ca395","665500ab8938657b03fbdba8","6657936a03892b97df880b24","473","stimuli/21110000.jpg"," ","","feedback_trial","0","","","","","","","","","","","","","","","","","","","","",""
"","","","","","image-keyboard-response","112","170346","0.0-87.0","633c7424294f7a26710ca395","665500ab8938657b03fbdba8","6657936a03892b97df880b24","760","stimuli/2000000.jpg","2","","prediction_trial","2","","true","","2","true","true","true","true","true","true","[2]","000","000","1","","","","","","",""
"","","","","","image-keyboard-response","113","170556","0.0-88.0","633c7424294f7a26710ca395","665500ab8938657b03fbdba8","6657936a03892b97df880b24","204","stimuli/20000002.jpg"," ","","feedback_trial","2","","","","","","","","","","","","","","","","","","","","",""
"","","","","","image-keyboard-response","114","171555","0.0-89.0","633c7424294f7a26710ca395","665500ab8938657b03fbdba8","6657936a03892b97df880b24","994","stimuli/1000110.jpg","1","","prediction_trial","1","","true","","1","false","false","true","true","false","false","[1]","000","110","1","","","","","","",""
"","","","","","image-keyboard-response","115","172083","0.0-90.0","633c7424294f7a26710ca395","665500ab8938657b03fbdba8","6657936a03892b97df880b24","520","stimuli/10001101.jpg"," ","","feedback_trial","1","","","","","","","","","","","","","","","","","","","","",""
"","","","","","image-keyboard-response","116","172963","0.0-91.0","633c7424294f7a26710ca395","665500ab8938657b03fbdba8","6657936a03892b97df880b24","873","stimuli/1001001.jpg","1","","prediction_trial","1","","true","","1","true","true","true","true","true","true","[1]","001","001","1","","","","","","",""
"","","","","","image-keyboard-response","117","173123","0.0-92.0","633c7424294f7a26710ca395","665500ab8938657b03fbdba8","6657936a03892b97df880b24","149","stimuli/10010011.jpg"," ","","feedback_trial","1","","","","","","","","","","","","","","","","","","","","",""
"","","","","","image-keyboard-response","118","174252","0.0-93.0","633c7424294f7a26710ca395","665500ab8938657b03fbdba8","6657936a03892b97df880b24","1123","stimuli/0100110.jpg","1","","prediction_trial","0","","false","","0","false","false","false","true","false","false","[0]","100","110","0","","","","","","",""
"","","","","","image-keyboard-response","119","174580","0.0-94.0","633c7424294f7a26710ca395","665500ab8938657b03fbdba8","6657936a03892b97df880b24","317","stimuli/01001100.jpg"," ","","feedback_trial","0","","","","","","","","","","","","","","","","","","","","",""
"","","","","","image-keyboard-response","120","175940","0.0-95.0","633c7424294f7a26710ca395","665500ab8938657b03fbdba8","6657936a03892b97df880b24","1354","stimuli/0101111.jpg","1","","prediction_trial","0","","false","","0","false","false","false","false","false","false","[2,0]","101","111","0","","","","","","",""
"","","","","","image-keyboard-response","121","176370","0.0-96.0","633c7424294f7a26710ca395","665500ab8938657b03fbdba8","6657936a03892b97df880b24","424","stimuli/01011110.jpg"," ","","feedback_trial","2","","","","","","","","","","","","","","","","","","","","",""
"","","","","","image-keyboard-response","122","178310","0.0-97.0","633c7424294f7a26710ca395","665500ab8938657b03fbdba8","6657936a03892b97df880b24","1929","stimuli/0100001.jpg","0","","prediction_trial","0","","true","","0","true","true","false","true","false","true","[0]","100","001","1","","","","","","",""
"","","","","","image-keyboard-response","123","178523","0.0-98.0","633c7424294f7a26710ca395","665500ab8938657b03fbdba8","6657936a03892b97df880b24","208","stimuli/01000010.jpg"," ","","feedback_trial","0","","","","","","","","","","","","","","","","","","","","",""
"","","","","","image-keyboard-response","124","179904","0.0-99.0","633c7424294f7a26710ca395","665500ab8938657b03fbdba8","6657936a03892b97df880b24","1370","stimuli/2101010.jpg","2","","prediction_trial","0","","false","","2","true","true","false","false","false","false","[0,2]","101","010","0","","","","","","",""
"","","","","","image-keyboard-response","125","180365","0.0-100.0","633c7424294f7a26710ca395","665500ab8938657b03fbdba8","6657936a03892b97df880b24","455","stimuli/21010100.jpg"," ","","feedback_trial","0","","","","","","","","","","","","","","","","","","","","",""
"","","","","","image-keyboard-response","126","181700","0.0-101.0","633c7424294f7a26710ca395","665500ab8938657b03fbdba8","6657936a03892b97df880b24","1329","stimuli/1100101.jpg","1","","prediction_trial","1","","true","","1","true","true","true","true","true","true","[1]","100","101","1","","","","","","",""
"","","","","","image-keyboard-response","127","182133","0.0-102.0","633c7424294f7a26710ca395","665500ab8938657b03fbdba8","6657936a03892b97df880b24","425","stimuli/11001011.jpg"," ","","feedback_trial","1","","","","","","","","","","","","","","","","","","","","",""
"","","","","","image-keyboard-response","128","182723","0.0-103.0","633c7424294f7a26710ca395","665500ab8938657b03fbdba8","6657936a03892b97df880b24","584","stimuli/1101101.jpg","1","","prediction_trial","1","","true","","1","true","true","true","true","true","true","[1]","101","101","1","","","","","","",""
"","","","","","image-keyboard-response","129","182885","0.0-104.0","633c7424294f7a26710ca395","665500ab8938657b03fbdba8","6657936a03892b97df880b24","154","stimuli/11011011.jpg"," ","","feedback_trial","1","","","","","","","","","","","","","","","","","","","","",""
"","","","","","image-keyboard-response","130","183524","0.0-105.0","633c7424294f7a26710ca395","665500ab8938657b03fbdba8","6657936a03892b97df880b24","632","stimuli/0000000.jpg","0","","prediction_trial","0","","true","","0","true","true","true","true","true","true","[0]","000","000","1","","","","","","",""
"","","","","","image-keyboard-response","131","183660","0.0-106.0","633c7424294f7a26710ca395","665500ab8938657b03fbdba8","6657936a03892b97df880b24","129","stimuli/00000000.jpg"," ","","feedback_trial","0","","","","","","","","","","","","","","","","","","","","",""
"","","","","","image-keyboard-response","132","184212","0.0-107.0","633c7424294f7a26710ca395","665500ab8938657b03fbdba8","6657936a03892b97df880b24","545","stimuli/1000100.jpg","1","","prediction_trial","1","","true","","1","true","true","true","true","true","true","[1]","000","100","1","","","","","","",""
"","","","","","image-keyboard-response","133","184299","0.0-108.0","633c7424294f7a26710ca395","665500ab8938657b03fbdba8","6657936a03892b97df880b24","83","stimuli/10001001.jpg"," ","","feedback_trial","1","","","","","","","","","","","","","","","","","","","","",""
"","","","","","image-keyboard-response","134","186510","0.0-109.0","633c7424294f7a26710ca395","665500ab8938657b03fbdba8","6657936a03892b97df880b24","2206","stimuli/2111101.jpg","0","","prediction_trial","0","","true","","2","false","false","false","false","false","false","[1,0,2]","111","101","1","","","","","","",""
"","","","","","image-keyboard-response","135","187053","0.0-110.0","633c7424294f7a26710ca395","665500ab8938657b03fbdba8","6657936a03892b97df880b24","536","stimuli/21111010.jpg"," ","","feedback_trial","1","","","","","","","","","","","","","","","","","","","","",""
"","","","","","image-keyboard-response","136","188886","0.0-111.0","633c7424294f7a26710ca395","665500ab8938657b03fbdba8","6657936a03892b97df880b24","1825","stimuli/0100011.jpg","0","","prediction_trial","0","","true","","0","true","true","false","true","false","true","[0]","100","011","1","","","","","","",""
"","","","","","image-keyboard-response","137","189189","0.0-112.0","633c7424294f7a26710ca395","665500ab8938657b03fbdba8","6657936a03892b97df880b24","294","stimuli/01000110.jpg"," ","","feedback_trial","0","","","","","","","","","","","","","","","","","","","","",""
"","","","","","image-keyboard-response","138","190797","0.0-113.0","633c7424294f7a26710ca395","665500ab8938657b03fbdba8","6657936a03892b97df880b24","1602","stimuli/0110101.jpg","2","","prediction_trial","0","","false","","0","false","false","false","false","false","false","[1,0]","110","101","0","","","","","","",""
"","","","","","image-keyboard-response","139","191206","0.0-114.0","633c7424294f7a26710ca395","665500ab8938657b03fbdba8","6657936a03892b97df880b24","403","stimuli/01101010.jpg"," ","","feedback_trial","1","","","","","","","","","","","","","","","","","","","","",""
"","","","","","image-keyboard-response","140","193630","0.0-115.0","633c7424294f7a26710ca395","665500ab8938657b03fbdba8","6657936a03892b97df880b24","2418","stimuli/2111100.jpg","0","","prediction_trial","0","","true","","2","true","true","false","false","false","false","[0,1,2]","111","100","1","","","","","","",""
"","","","","","image-keyboard-response","141","194126","0.0-116.0","633c7424294f7a26710ca395","665500ab8938657b03fbdba8","6657936a03892b97df880b24","487","stimuli/21111000.jpg"," ","","feedback_trial","0","","","","","","","","","","","","","","","","","","","","",""
"","","","","","image-keyboard-response","142","196165","0.0-117.0","633c7424294f7a26710ca395","665500ab8938657b03fbdba8","6657936a03892b97df880b24","2031","stimuli/0101010.jpg","0","","prediction_trial","2","","false","","0","true","true","false","false","false","false","[2,0]","101","010","0","","","","","","",""
"","","","","","image-keyboard-response","143","196627","0.0-118.0","633c7424294f7a26710ca395","665500ab8938657b03fbdba8","6657936a03892b97df880b24","455","stimuli/01010102.jpg"," ","","feedback_trial","2","","","","","","","","","","","","","","","","","","","","",""
"","","","","","image-keyboard-response","144","197687","0.0-119.0","633c7424294f7a26710ca395","665500ab8938657b03fbdba8","6657936a03892b97df880b24","1055","stimuli/0001100.jpg","0","","prediction_trial","0","","true","","0","false","true","true","true","false","true","[0]","001","100","1","","","","","","",""
"","","","","","image-keyboard-response","145","197912","0.0-120.0","633c7424294f7a26710ca395","665500ab8938657b03fbdba8","6657936a03892b97df880b24","218","stimuli/00011000.jpg"," ","","feedback_trial","0","","","","","","","","","","","","","","","","","","","","",""
"","","","","","image-keyboard-response","146","198593","0.0-121.0","633c7424294f7a26710ca395","665500ab8938657b03fbdba8","6657936a03892b97df880b24","677","stimuli/1101001.jpg","1","","prediction_trial","1","","true","","1","true","true","true","true","true","true","[1]","101","001","1","","","","","","",""
"","","","","","image-keyboard-response","147","198726","0.0-122.0","633c7424294f7a26710ca395","665500ab8938657b03fbdba8","6657936a03892b97df880b24","128","stimuli/11010011.jpg"," ","","feedback_trial","1","","","","","","","","","","","","","","","","","","","","",""
"","","","","","image-keyboard-response","148","199857","0.0-123.0","633c7424294f7a26710ca395","665500ab8938657b03fbdba8","6657936a03892b97df880b24","1121","stimuli/2000101.jpg","2","","prediction_trial","2","","true","","2","false","false","true","true","false","false","[2]","000","101","1","","","","","","",""
"","","","","","image-keyboard-response","149","200325","0.0-124.0","633c7424294f7a26710ca395","665500ab8938657b03fbdba8","6657936a03892b97df880b24","460","stimuli/20001012.jpg"," ","","feedback_trial","2","","","","","","","","","","","","","","","","","","","","",""
"","","","","","image-keyboard-response","150","201871","0.0-125.0","633c7424294f7a26710ca395","665500ab8938657b03fbdba8","6657936a03892b97df880b24","1538","stimuli/0111000.jpg","1","","prediction_trial","2","","false","","0","true","true","false","false","false","false","[0,2,1]","111","000","0","","","","","","",""
"","","","","","image-keyboard-response","151","202614","0.0-126.0","633c7424294f7a26710ca395","665500ab8938657b03fbdba8","6657936a03892b97df880b24","735","stimuli/01110002.jpg"," ","","feedback_trial","0","","","","","","","","","","","","","","","","","","","","",""
"","","","","","image-keyboard-response","152","203559","0.0-127.0","633c7424294f7a26710ca395","665500ab8938657b03fbdba8","6657936a03892b97df880b24","938","stimuli/2000111.jpg","1","","prediction_trial","2","","false","","2","false","false","true","true","false","false","[2]","000","111","0","","","","","","",""
"","","","","","image-keyboard-response","153","204142","0.0-128.0","633c7424294f7a26710ca395","665500ab8938657b03fbdba8","6657936a03892b97df880b24","576","stimuli/20001112.jpg"," ","","feedback_trial","2","","","","","","","","","","","","","","","","","","","","",""
"","","","","","image-keyboard-response","154","206199","0.0-129.0","633c7424294f7a26710ca395","665500ab8938657b03fbdba8","6657936a03892b97df880b24","2051","stimuli/2010111.jpg","0","","prediction_trial","2","","false","","2","false","false","true","true","false","false","[2]","010","111","0","","","","","","",""
"","","","","","image-keyboard-response","155","206838","0.0-130.0","633c7424294f7a26710ca395","665500ab8938657b03fbdba8","6657936a03892b97df880b24","632","stimuli/20101112.jpg"," ","","feedback_trial","2","","","","","","","","","","","","","","","","","","","","",""
"","","","","","image-keyboard-response","156","208488","0.0-131.0","633c7424294f7a26710ca395","665500ab8938657b03fbdba8","6657936a03892b97df880b24","1643","stimuli/1010001.jpg","1","","prediction_trial","1","","true","","1","true","true","false","true","false","true","[1]","010","001","1","","","","","","",""
"","","","","","image-keyboard-response","157","208718","0.0-132.0","633c7424294f7a26710ca395","665500ab8938657b03fbdba8","6657936a03892b97df880b24","222","stimuli/10100011.jpg"," ","","feedback_trial","1","","","","","","","","","","","","","","","","","","","","",""
"","","","","","image-keyboard-response","158","210215","0.0-133.0","633c7424294f7a26710ca395","665500ab8938657b03fbdba8","6657936a03892b97df880b24","1489","stimuli/1101010.jpg","1","","prediction_trial","1","","true","","1","false","true","true","true","false","true","[1]","101","010","1","","","","","","",""
"","","","","","image-keyboard-response","159","210368","0.0-134.0","633c7424294f7a26710ca395","665500ab8938657b03fbdba8","6657936a03892b97df880b24","146","stimuli/11010101.jpg"," ","","feedback_trial","1","","","","","","","","","","","","","","","","","","","","",""
"","","","","","image-keyboard-response","160","211712","0.0-135.0","633c7424294f7a26710ca395","665500ab8938657b03fbdba8","6657936a03892b97df880b24","1339","stimuli/0111010.jpg","0","","prediction_trial","0","","true","","0","true","true","false","false","false","false","[0,2,1]","111","010","1","","","","","","",""
"","","","","","image-keyboard-response","161","212208","0.0-136.0","633c7424294f7a26710ca395","665500ab8938657b03fbdba8","6657936a03892b97df880b24","490","stimuli/01110100.jpg"," ","","feedback_trial","0","","","","","","","","","","","","","","","","","","","","",""
"","","","","","image-keyboard-response","162","213791","0.0-137.0","633c7424294f7a26710ca395","665500ab8938657b03fbdba8","6657936a03892b97df880b24","1575","stimuli/0101101.jpg","2","","prediction_trial","0","","false","","0","false","false","false","false","false","false","[0,2]","101","101","0","","","","","","",""
"","","","","","image-keyboard-response","163","214270","0.0-138.0","633c7424294f7a26710ca395","665500ab8938657b03fbdba8","6657936a03892b97df880b24","470","stimuli/01011010.jpg"," ","","feedback_trial","0","","","","","","","","","","","","","","","","","","","","",""
"","","","","","image-keyboard-response","164","215840","0.0-139.0","633c7424294f7a26710ca395","665500ab8938657b03fbdba8","6657936a03892b97df880b24","1565","stimuli/1110010.jpg","0","","prediction_trial","0","","true","","1","false","true","false","false","false","false","[1,0]","110","010","1","","","","","","",""
"","","","","","image-keyboard-response","165","216343","0.0-140.0","633c7424294f7a26710ca395","665500ab8938657b03fbdba8","6657936a03892b97df880b24","496","stimuli/11100100.jpg"," ","","feedback_trial","1","","","","","","","","","","","","","","","","","","","","",""
"","","","","","image-keyboard-response","166","217822","0.0-141.0","633c7424294f7a26710ca395","665500ab8938657b03fbdba8","6657936a03892b97df880b24","1471","stimuli/2001001.jpg","2","","prediction_trial","2","","true","","2","false","true","false","true","false","true","[2]","001","001","1","","","","","","",""
"","","","","","image-keyboard-response","167","218175","0.0-142.0","633c7424294f7a26710ca395","665500ab8938657b03fbdba8","6657936a03892b97df880b24","346","stimuli/20010012.jpg"," ","","feedback_trial","2","","","","","","","","","","","","","","","","","","","","",""
"","","","","","image-keyboard-response","168","218903","0.0-143.0","633c7424294f7a26710ca395","665500ab8938657b03fbdba8","6657936a03892b97df880b24","720","stimuli/1000000.jpg","1","","prediction_trial","1","","true","","1","true","true","true","true","true","true","[1]","000","000","1","","","","","","",""
"","","","","","image-keyboard-response","169","219038","0.0-144.0","633c7424294f7a26710ca395","665500ab8938657b03fbdba8","6657936a03892b97df880b24","127","stimuli/10000001.jpg"," ","","feedback_trial","1","","","","","","","","","","","","","","","","","","","","",""
"","","","","","image-keyboard-response","170","220536","0.0-145.0","633c7424294f7a26710ca395","665500ab8938657b03fbdba8","6657936a03892b97df880b24","1490","stimuli/1011100.jpg","1","","prediction_trial","1","","true","","1","true","true","false","false","false","false","[2,1]","011","100","1","","","","","","",""
"","","","","","image-keyboard-response","171","220895","0.0-146.0","633c7424294f7a26710ca395","665500ab8938657b03fbdba8","6657936a03892b97df880b24","348","stimuli/10111001.jpg"," ","","feedback_trial","2","","","","","","","","","","","","","","","","","","","","",""
"","","","","","image-keyboard-response","172","221639","0.0-147.0","633c7424294f7a26710ca395","665500ab8938657b03fbdba8","6657936a03892b97df880b24","737","stimuli/1001100.jpg","1","","prediction_trial","1","","true","","1","true","true","true","true","true","true","[1]","001","100","1","","","","","","",""
"","","","","","image-keyboard-response","173","221735","0.0-148.0","633c7424294f7a26710ca395","665500ab8938657b03fbdba8","6657936a03892b97df880b24","86","stimuli/10011001.jpg"," ","","feedback_trial","1","","","","","","","","","","","","","","","","","","","","",""
"","","","","","image-keyboard-response","174","222456","0.0-149.0","633c7424294f7a26710ca395","665500ab8938657b03fbdba8","6657936a03892b97df880b24","712","stimuli/0011001.jpg","0","","prediction_trial","0","","true","","0","true","true","true","true","true","true","[0]","011","001","1","","","","","","",""
"","","","","","image-keyboard-response","175","222553","0.0-150.0","633c7424294f7a26710ca395","665500ab8938657b03fbdba8","6657936a03892b97df880b24","88","stimuli/00110010.jpg"," ","","feedback_trial","0","","","","","","","","","","","","","","","","","","","","",""
"","","","","","image-keyboard-response","176","224510","0.0-151.0","633c7424294f7a26710ca395","665500ab8938657b03fbdba8","6657936a03892b97df880b24","1950","stimuli/2111010.jpg","0","","prediction_trial","2","","false","","2","true","true","false","false","false","false","[1,2,0]","111","010","0","","","","","","",""
"","","","","","image-keyboard-response","177","225143","0.0-152.0","633c7424294f7a26710ca395","665500ab8938657b03fbdba8","6657936a03892b97df880b24","627","stimuli/21110102.jpg"," ","","feedback_trial","1","","","","","","","","","","","","","","","","","","","","",""
"","","","","","image-keyboard-response","178","226103","0.0-153.0","633c7424294f7a26710ca395","665500ab8938657b03fbdba8","6657936a03892b97df880b24","953","stimuli/2010010.jpg","2","","prediction_trial","2","","true","","2","true","true","true","true","true","true","[2]","010","010","1","","","","","","",""
"","","","","","image-keyboard-response","179","226264","0.0-154.0","633c7424294f7a26710ca395","665500ab8938657b03fbdba8","6657936a03892b97df880b24","152","stimuli/20100102.jpg"," ","","feedback_trial","2","","","","","","","","","","","","","","","","","","","","",""
"","","","","","image-keyboard-response","180","226912","0.0-155.0","633c7424294f7a26710ca395","665500ab8938657b03fbdba8","6657936a03892b97df880b24","641","stimuli/1000101.jpg","1","","prediction_trial","1","","true","","1","true","true","true","true","true","true","[1]","000","101","1","","","","","","",""
"","","","","","image-keyboard-response","181","226990","0.0-156.0","633c7424294f7a26710ca395","665500ab8938657b03fbdba8","6657936a03892b97df880b24","72","stimuli/10001011.jpg"," ","","feedback_trial","1","","","","","","","","","","","","","","","","","","","","",""
"","","","","","image-keyboard-response","182","228792","0.0-157.0","633c7424294f7a26710ca395","665500ab8938657b03fbdba8","6657936a03892b97df880b24","1795","stimuli/2100011.jpg","2","","prediction_trial","2","","true","","2","false","false","true","true","false","false","[2]","100","011","1","","","","","","",""
"","","","","","image-keyboard-response","183","229216","0.0-158.0","633c7424294f7a26710ca395","665500ab8938657b03fbdba8","6657936a03892b97df880b24","409","stimuli/21000112.jpg"," ","","feedback_trial","2","","","","","","","","","","","","","","","","","","","","",""
"","","","","","image-keyboard-response","184","230568","0.0-159.0","633c7424294f7a26710ca395","665500ab8938657b03fbdba8","6657936a03892b97df880b24","1346","stimuli/1111111.jpg","0","","prediction_trial","1","","false","","1","false","false","false","false","false","false","[0,1,2]","111","111","0","","","","","","",""
"","","","","","image-keyboard-response","185","231056","0.0-160.0","633c7424294f7a26710ca395","665500ab8938657b03fbdba8","6657936a03892b97df880b24","481","stimuli/11111111.jpg"," ","","feedback_trial","0","","","","","","","","","","","","","","","","","","","","",""
"","","","","","image-keyboard-response","186","232642","0.0-161.0","633c7424294f7a26710ca395","665500ab8938657b03fbdba8","6657936a03892b97df880b24","1571","stimuli/2001100.jpg","2","","prediction_trial","2","","true","","2","true","true","false","true","false","true","[2]","001","100","1","","","","","","",""
"","","","","","image-keyboard-response","187","232824","0.0-162.0","633c7424294f7a26710ca395","665500ab8938657b03fbdba8","6657936a03892b97df880b24","173","stimuli/20011002.jpg"," ","","feedback_trial","2","","","","","","","","","","","","","","","","","","","","",""
"","","","","","image-keyboard-response","188","233535","0.0-163.0","633c7424294f7a26710ca395","665500ab8938657b03fbdba8","6657936a03892b97df880b24","705","stimuli/0001000.jpg","0","","prediction_trial","0","","true","","0","true","true","true","true","true","true","[0]","001","000","1","","","","","","",""
"","","","","","image-keyboard-response","189","233680","0.0-164.0","633c7424294f7a26710ca395","665500ab8938657b03fbdba8","6657936a03892b97df880b24","138","stimuli/00010000.jpg"," ","","feedback_trial","0","","","","","","","","","","","","","","","","","","","","",""
"","","","","","image-keyboard-response","190","235433","0.0-165.0","633c7424294f7a26710ca395","665500ab8938657b03fbdba8","6657936a03892b97df880b24","1746","stimuli/0011111.jpg","2","","prediction_trial","0","","false","","0","false","false","true","true","false","false","[0]","011","111","0","","","","","","",""
"","","","","","image-keyboard-response","191","235906","0.0-166.0","633c7424294f7a26710ca395","665500ab8938657b03fbdba8","6657936a03892b97df880b24","465","stimuli/00111110.jpg"," ","","feedback_trial","0","","","","","","","","","","","","","","","","","","","","",""
"","","","","","image-keyboard-response","192","237738","0.0-167.0","633c7424294f7a26710ca395","665500ab8938657b03fbdba8","6657936a03892b97df880b24","1826","stimuli/1010110.jpg","0","","prediction_trial","1","","false","","1","false","false","false","true","false","false","[1]","010","110","0","","","","","","",""
"","","","","","image-keyboard-response","193","238184","0.0-168.0","633c7424294f7a26710ca395","665500ab8938657b03fbdba8","6657936a03892b97df880b24","439","stimuli/10101101.jpg"," ","","feedback_trial","1","","","","","","","","","","","","","","","","","","","","",""
"","","","","","image-keyboard-response","194","239264","0.0-169.0","633c7424294f7a26710ca395","665500ab8938657b03fbdba8","6657936a03892b97df880b24","1073","stimuli/0110001.jpg","0","","prediction_trial","0","","true","","0","true","true","false","false","false","false","[0,1]","110","001","1","","","","","","",""
"","","","","","image-keyboard-response","195","239672","0.0-170.0","633c7424294f7a26710ca395","665500ab8938657b03fbdba8","6657936a03892b97df880b24","401","stimuli/01100010.jpg"," ","","feedback_trial","0","","","","","","","","","","","","","","","","","","","","",""
"","","","","","image-keyboard-response","196","240832","0.0-171.0","633c7424294f7a26710ca395","665500ab8938657b03fbdba8","6657936a03892b97df880b24","1153","stimuli/0110000.jpg","1","","prediction_trial","1","","true","","0","true","true","false","false","false","false","[1,0]","110","000","1","","","","","","",""
"","","","","","image-keyboard-response","197","241339","0.0-172.0","633c7424294f7a26710ca395","665500ab8938657b03fbdba8","6657936a03892b97df880b24","498","stimuli/01100001.jpg"," ","","feedback_trial","1","","","","","","","","","","","","","","","","","","","","",""
"","","","","","image-keyboard-response","198","242321","0.0-173.0","633c7424294f7a26710ca395","665500ab8938657b03fbdba8","6657936a03892b97df880b24","975","stimuli/2100110.jpg","2","","prediction_trial","2","","true","","2","true","true","true","true","true","true","[2]","100","110","1","","","","","","",""
"","","","","","image-keyboard-response","199","242416","0.0-174.0","633c7424294f7a26710ca395","665500ab8938657b03fbdba8","6657936a03892b97df880b24","82","stimuli/21001102.jpg"," ","","feedback_trial","2","","","","","","","","","","","","","","","","","","","","",""
"","","","","","image-keyboard-response","200","243593","0.0-175.0","633c7424294f7a26710ca395","665500ab8938657b03fbdba8","6657936a03892b97df880b24","1171","stimuli/1111000.jpg","2","","prediction_trial","0","","false","","1","true","true","false","false","false","false","[0,1,2]","111","000","0","","","","","","",""
"","","","","","image-keyboard-response","201","244065","0.0-176.0","633c7424294f7a26710ca395","665500ab8938657b03fbdba8","6657936a03892b97df880b24","465","stimuli/11110000.jpg"," ","","feedback_trial","0","","","","","","","","","","","","","","","","","","","","",""
"","","","","","image-keyboard-response","202","244954","0.0-177.0","633c7424294f7a26710ca395","665500ab8938657b03fbdba8","6657936a03892b97df880b24","882","stimuli/2111111.jpg","2","","prediction_trial","1","","false","","2","false","false","false","false","false","false","[2,1,0]","111","111","0","","","","","","",""
"","","","","","image-keyboard-response","203","245403","0.0-178.0","633c7424294f7a26710ca395","665500ab8938657b03fbdba8","6657936a03892b97df880b24","431","stimuli/21111111.jpg"," ","","feedback_trial","2","","","","","","","","","","","","","","","","","","","","",""
"","","","","","image-keyboard-response","204","246161","0.0-179.0","633c7424294f7a26710ca395","665500ab8938657b03fbdba8","6657936a03892b97df880b24","750","stimuli/1100000.jpg","1","","prediction_trial","1","","true","","1","true","true","true","true","true","true","[1]","100","000","1","","","","","","",""
"","","","","","image-keyboard-response","205","246289","0.0-180.0","633c7424294f7a26710ca395","665500ab8938657b03fbdba8","6657936a03892b97df880b24","121","stimuli/11000001.jpg"," ","","feedback_trial","1","","","","","","","","","","","","","","","","","","","","",""
"","","","","","image-keyboard-response","206","247769","0.0-181.0","633c7424294f7a26710ca395","665500ab8938657b03fbdba8","6657936a03892b97df880b24","1473","stimuli/2001101.jpg","0","","prediction_trial","2","","false","","2","false","false","false","true","false","false","[2]","001","101","0","","","","","","",""
"","","","","","image-keyboard-response","207","248219","0.0-182.0","633c7424294f7a26710ca395","665500ab8938657b03fbdba8","6657936a03892b97df880b24","442","stimuli/20011012.jpg"," ","","feedback_trial","2","","","","","","","","","","","","","","","","","","","","",""
"","","","","","image-keyboard-response","208","248906","0.0-183.0","633c7424294f7a26710ca395","665500ab8938657b03fbdba8","6657936a03892b97df880b24","680","stimuli/1001101.jpg","1","","prediction_trial","1","","true","","1","true","true","true","true","true","true","[1]","001","101","1","","","","","","",""
"","","","","","image-keyboard-response","209","249028","0.0-184.0","633c7424294f7a26710ca395","665500ab8938657b03fbdba8","6657936a03892b97df880b24","116","stimuli/10011011.jpg"," ","","feedback_trial","1","","","","","","","","","","","","","","","","","","","","",""
"","","","","","image-keyboard-response","210","250000","0.0-185.0","633c7424294f7a26710ca395","665500ab8938657b03fbdba8","6657936a03892b97df880b24","966","stimuli/2011111.jpg","0","","prediction_trial","1","","false","","2","false","false","false","false","false","false","[1,2]","011","111","0","","","","","","",""
"","","","","","image-keyboard-response","211","250379","0.0-186.0","633c7424294f7a26710ca395","665500ab8938657b03fbdba8","6657936a03892b97df880b24","372","stimuli/20111111.jpg"," ","","feedback_trial","1","","","","","","","","","","","","","","","","","","","","",""
"","","","","","image-keyboard-response","212","251738","0.0-187.0","633c7424294f7a26710ca395","665500ab8938657b03fbdba8","6657936a03892b97df880b24","1352","stimuli/1110110.jpg","0","","prediction_trial","0","","true","","1","false","false","false","false","false","false","[1,0]","110","110","1","","","","","","",""
"","","","","","image-keyboard-response","213","252188","0.0-188.0","633c7424294f7a26710ca395","665500ab8938657b03fbdba8","6657936a03892b97df880b24","442","stimuli/11101100.jpg"," ","","feedback_trial","1","","","","","","","","","","","","","","","","","","","","",""
"","","","","","image-keyboard-response","214","253514","0.0-189.0","633c7424294f7a26710ca395","665500ab8938657b03fbdba8","6657936a03892b97df880b24","1320","stimuli/2110111.jpg","1","","prediction_trial","2","","false","","2","false","false","true","true","false","false","[2]","110","111","0","","","","","","",""
"","","","","","image-keyboard-response","215","254139","0.0-190.0","633c7424294f7a26710ca395","665500ab8938657b03fbdba8","6657936a03892b97df880b24","617","stimuli/21101112.jpg"," ","","feedback_trial","2","","","","","","","","","","","","","","","","","","","","",""
"","","","","","image-keyboard-response","216","254842","0.0-191.0","633c7424294f7a26710ca395","665500ab8938657b03fbdba8","6657936a03892b97df880b24","697","stimuli/2000010.jpg","2","","prediction_trial","2","","true","","2","true","true","true","true","true","true","[2]","000","010","1","","","","","","",""
"","","","","","image-keyboard-response","217","255106","0.0-192.0","633c7424294f7a26710ca395","665500ab8938657b03fbdba8","6657936a03892b97df880b24","257","stimuli/20000102.jpg"," ","","feedback_trial","2","","","","","","","","","","","","","","","","","","","","",""
"","","","","","image-keyboard-response","218","255970","0.0-193.0","633c7424294f7a26710ca395","665500ab8938657b03fbdba8","6657936a03892b97df880b24","857","stimuli/1001111.jpg","1","","prediction_trial","1","","true","","1","false","false","true","true","false","false","[1]","001","111","1","","","","","","",""
"","","","","","image-keyboard-response","219","256435","0.0-194.0","633c7424294f7a26710ca395","665500ab8938657b03fbdba8","6657936a03892b97df880b24","456","stimuli/10011111.jpg"," ","","feedback_trial","1","","","","","","","","","","","","","","","","","","","","",""
"","","","","","image-keyboard-response","220","257410","0.0-195.0","633c7424294f7a26710ca395","665500ab8938657b03fbdba8","6657936a03892b97df880b24","968","stimuli/1010000.jpg","1","","prediction_trial","1","","true","","1","true","true","false","true","false","true","[1]","010","000","1","","","","","","",""
"","","","","","image-keyboard-response","221","257538","0.0-196.0","633c7424294f7a26710ca395","665500ab8938657b03fbdba8","6657936a03892b97df880b24","120","stimuli/10100001.jpg"," ","","feedback_trial","1","","","","","","","","","","","","","","","","","","","","",""
"","","","","","image-keyboard-response","222","258540","0.0-197.0","633c7424294f7a26710ca395","665500ab8938657b03fbdba8","6657936a03892b97df880b24","995","stimuli/1100010.jpg","1","","prediction_trial","1","","true","","1","false","true","true","true","false","true","[1]","100","010","1","","","","","","",""
"","","","","","image-keyboard-response","223","258618","0.0-198.0","633c7424294f7a26710ca395","665500ab8938657b03fbdba8","6657936a03892b97df880b24","71","stimuli/11000101.jpg"," ","","feedback_trial","1","","","","","","","","","","","","","","","","","","","","",""
"","","","","","image-keyboard-response","224","260196","0.0-199.0","633c7424294f7a26710ca395","665500ab8938657b03fbdba8","6657936a03892b97df880b24","1571","stimuli/0011110.jpg","0","","prediction_trial","0","","true","","0","false","false","true","true","false","false","[0]","011","110","1","","","","","","",""
"","","","","","image-keyboard-response","225","260642","0.0-200.0","633c7424294f7a26710ca395","665500ab8938657b03fbdba8","6657936a03892b97df880b24","441","stimuli/00111100.jpg"," ","","feedback_trial","0","","","","","","","","","","","","","","","","","","","","",""
"","","","","","image-keyboard-response","226","261797","0.0-201.0","633c7424294f7a26710ca395","665500ab8938657b03fbdba8","6657936a03892b97df880b24","1148","stimuli/1111001.jpg","1","","prediction_trial","2","","false","","1","true","true","false","false","false","false","[0,1,2]","111","001","0","","","","","","",""
"","","","","","image-keyboard-response","227","262202","0.0-202.0","633c7424294f7a26710ca395","665500ab8938657b03fbdba8","6657936a03892b97df880b24","401","stimuli/11110012.jpg"," ","","feedback_trial","0","","","","","","","","","","","","","","","","","","","","",""
"","","","","","image-keyboard-response","228","264237","0.0-203.0","633c7424294f7a26710ca395","665500ab8938657b03fbdba8","6657936a03892b97df880b24","2027","stimuli/0101000.jpg","0","","prediction_trial","0","","true","","0","true","true","false","false","false","false","[2,0]","101","000","1","","","","","","",""
"","","","","","image-keyboard-response","229","264707","0.0-204.0","633c7424294f7a26710ca395","665500ab8938657b03fbdba8","6657936a03892b97df880b24","462","stimuli/01010000.jpg"," ","","feedback_trial","2","","","","","","","","","","","","","","","","","","","","",""
"","","","","","image-keyboard-response","230","266284","0.0-205.0","633c7424294f7a26710ca395","665500ab8938657b03fbdba8","6657936a03892b97df880b24","1571","stimuli/1100111.jpg","1","","prediction_trial","1","","true","","1","false","false","true","true","false","false","[1]","100","111","1","","","","","","",""
"","","","","","image-keyboard-response","231","266826","0.0-206.0","633c7424294f7a26710ca395","665500ab8938657b03fbdba8","6657936a03892b97df880b24","533","stimuli/11001111.jpg"," ","","feedback_trial","1","","","","","","","","","","","","","","","","","","","","",""
"","","","","","image-keyboard-response","232","267892","0.0-207.0","633c7424294f7a26710ca395","665500ab8938657b03fbdba8","6657936a03892b97df880b24","1059","stimuli/2100001.jpg","2","","prediction_trial","2","","true","","2","false","true","true","true","false","true","[2]","100","001","1","","","","","","",""
"","","","","","image-keyboard-response","233","268100","0.0-208.0","633c7424294f7a26710ca395","665500ab8938657b03fbdba8","6657936a03892b97df880b24","200","stimuli/21000012.jpg"," ","","feedback_trial","2","","","","","","","","","","","","","","","","","","","","",""
"","","","","","image-keyboard-response","234","269561","0.0-209.0","633c7424294f7a26710ca395","665500ab8938657b03fbdba8","6657936a03892b97df880b24","1454","stimuli/2011011.jpg","2","","prediction_trial","1","","false","","2","false","false","false","false","false","false","[1,2]","011","011","0","","","","","","",""
"","","","","","image-keyboard-response","235","270002","0.0-210.0","633c7424294f7a26710ca395","665500ab8938657b03fbdba8","6657936a03892b97df880b24","434","stimuli/20110111.jpg"," ","","feedback_trial","1","","","","","","","","","","","","","","","","","","","","",""
"","","","","","image-keyboard-response","236","270954","0.0-211.0","633c7424294f7a26710ca395","665500ab8938657b03fbdba8","6657936a03892b97df880b24","944","stimuli/2100010.jpg","2","","prediction_trial","2","","true","","2","true","true","true","true","true","true","[2]","100","010","1","","","","","","",""
"","","","","","image-keyboard-response","237","271131","0.0-212.0","633c7424294f7a26710ca395","665500ab8938657b03fbdba8","6657936a03892b97df880b24","170","stimuli/21000102.jpg"," ","","feedback_trial","2","","","","","","","","","","","","","","","","","","","","",""
"","","","","","image-keyboard-response","238","273815","0.0-213.0","633c7424294f7a26710ca395","665500ab8938657b03fbdba8","6657936a03892b97df880b24","2676","stimuli/0001110.jpg","0","","prediction_trial","0","","true","","0","false","false","true","true","false","false","[0]","001","110","1","","","","","","",""
"","","","","","image-keyboard-response","239","274411","0.0-214.0","633c7424294f7a26710ca395","665500ab8938657b03fbdba8","6657936a03892b97df880b24","590","stimuli/00011100.jpg"," ","","feedback_trial","0","","","","","","","","","","","","","","","","","","","","",""
"","","","","","image-keyboard-response","240","276228","0.0-215.0","633c7424294f7a26710ca395","665500ab8938657b03fbdba8","6657936a03892b97df880b24","1809","stimuli/1110011.jpg","1","","prediction_trial","1","","true","","1","false","false","false","false","false","false","[0,1]","110","011","1","","","","","","",""
"","","","","","image-keyboard-response","241","276692","0.0-216.0","633c7424294f7a26710ca395","665500ab8938657b03fbdba8","6657936a03892b97df880b24","457","stimuli/11100111.jpg"," ","","feedback_trial","0","","","","","","","","","","","","","","","","","","","","",""
"","","","","","image-keyboard-response","242","279563","0.0-217.0","633c7424294f7a26710ca395","665500ab8938657b03fbdba8","6657936a03892b97df880b24","2860","stimuli/0111111.jpg","0","","prediction_trial","2","","false","","0","false","false","false","false","false","false","[0,1,2]","111","111","0","","","","","","",""
"","","","","","image-keyboard-response","243","279996","0.0-218.0","633c7424294f7a26710ca395","665500ab8938657b03fbdba8","6657936a03892b97df880b24","424","stimuli/01111112.jpg"," ","","feedback_trial","0","","","","","","","","","","","","","","","","","","","","",""
"","","","","","image-keyboard-response","244","280812","0.0-219.0","633c7424294f7a26710ca395","665500ab8938657b03fbdba8","6657936a03892b97df880b24","808","stimuli/0000011.jpg","0","","prediction_trial","0","","true","","0","true","true","true","true","true","true","[0]","000","011","1","","","","","","",""
"","","","","","image-keyboard-response","245","280995","0.0-220.0","633c7424294f7a26710ca395","665500ab8938657b03fbdba8","6657936a03892b97df880b24","177","stimuli/00000110.jpg"," ","","feedback_trial","0","","","","","","","","","","","","","","","","","","","","",""
"","","","","","image-keyboard-response","246","282060","0.0-221.0","633c7424294f7a26710ca395","665500ab8938657b03fbdba8","6657936a03892b97df880b24","1056","stimuli/0110100.jpg","0","","prediction_trial","1","","false","","0","false","true","false","false","false","false","[1,0]","110","100","0","","","","","","",""
"","","","","","image-keyboard-response","247","282548","0.0-222.0","633c7424294f7a26710ca395","665500ab8938657b03fbdba8","6657936a03892b97df880b24","481","stimuli/01101001.jpg"," ","","feedback_trial","1","","","","","","","","","","","","","","","","","","","","",""
"","","","","","image-keyboard-response","248","283548","0.0-223.0","633c7424294f7a26710ca395","665500ab8938657b03fbdba8","6657936a03892b97df880b24","992","stimuli/0111100.jpg","0","","prediction_trial","1","","false","","0","false","true","false","false","false","false","[0,1,2]","111","100","0","","","","","","",""
"","","","","","image-keyboard-response","249","283924","0.0-224.0","633c7424294f7a26710ca395","665500ab8938657b03fbdba8","6657936a03892b97df880b24","369","stimuli/01111001.jpg"," ","","feedback_trial","0","","","","","","","","","","","","","","","","","","","","",""
"","","","","","image-keyboard-response","250","285150","0.0-225.0","633c7424294f7a26710ca395","665500ab8938657b03fbdba8","6657936a03892b97df880b24","1219","stimuli/1111110.jpg","1","","prediction_trial","2","","false","","1","false","false","false","false","false","false","[0,2,1]","111","110","0","","","","","","",""
"","","","","","image-keyboard-response","251","285637","0.0-226.0","633c7424294f7a26710ca395","665500ab8938657b03fbdba8","6657936a03892b97df880b24","478","stimuli/11111102.jpg"," ","","feedback_trial","0","","","","","","","","","","","","","","","","","","","","",""
"","","","","","image-keyboard-response","252","287020","0.0-227.0","633c7424294f7a26710ca395","665500ab8938657b03fbdba8","6657936a03892b97df880b24","1377","stimuli/2011101.jpg","0","","prediction_trial","1","","false","","2","false","false","false","false","false","false","[1,2]","011","101","0","","","","","","",""
"","","","","","image-keyboard-response","253","287436","0.0-228.0","633c7424294f7a26710ca395","665500ab8938657b03fbdba8","6657936a03892b97df880b24","408","stimuli/20111011.jpg"," ","","feedback_trial","1","","","","","","","","","","","","","","","","","","","","",""
"","","","","","image-keyboard-response","254","288277","0.0-229.0","633c7424294f7a26710ca395","665500ab8938657b03fbdba8","6657936a03892b97df880b24","833","stimuli/2001111.jpg","1","","prediction_trial","2","","false","","2","false","false","false","true","false","false","[2]","001","111","0","","","","","","",""
"","","","","","image-keyboard-response","255","288980","0.0-230.0","633c7424294f7a26710ca395","665500ab8938657b03fbdba8","6657936a03892b97df880b24","696","stimuli/20011112.jpg"," ","","feedback_trial","2","","","","","","","","","","","","","","","","","","","","",""
"","","","","","image-keyboard-response","256","289909","0.0-231.0","633c7424294f7a26710ca395","665500ab8938657b03fbdba8","6657936a03892b97df880b24","921","stimuli/0100100.jpg","0","","prediction_trial","0","","true","","0","false","true","false","true","false","true","[0]","100","100","1","","","","","","",""
"","","","","","image-keyboard-response","257","290204","0.0-232.0","633c7424294f7a26710ca395","665500ab8938657b03fbdba8","6657936a03892b97df880b24","289","stimuli/01001000.jpg"," ","","feedback_trial","0","","","","","","","","","","","","","","","","","","","","",""
"","","","","","image-keyboard-response","258","291419","0.0-233.0","633c7424294f7a26710ca395","665500ab8938657b03fbdba8","6657936a03892b97df880b24","1208","stimuli/1011001.jpg","2","","prediction_trial","1","","false","","1","true","true","false","false","false","false","[2,1]","011","001","0","","","","","","",""
"","","","","","image-keyboard-response","259","291871","0.0-234.0","633c7424294f7a26710ca395","665500ab8938657b03fbdba8","6657936a03892b97df880b24","439","stimuli/10110011.jpg"," ","","feedback_trial","2","","","","","","","","","","","","","","","","","","","","",""
"","","","","","image-keyboard-response","260","292917","0.0-235.0","633c7424294f7a26710ca395","665500ab8938657b03fbdba8","6657936a03892b97df880b24","1038","stimuli/1111010.jpg","1","","prediction_trial","0","","false","","1","false","true","false","false","false","false","[2,0,1]","111","010","0","","","","","","",""
"","","","","","image-keyboard-response","261","293341","0.0-236.0","633c7424294f7a26710ca395","665500ab8938657b03fbdba8","6657936a03892b97df880b24","417","stimuli/11110100.jpg"," ","","feedback_trial","2","","","","","","","","","","","","","","","","","","","","",""
"","","","","","image-keyboard-response","262","294327","0.0-237.0","633c7424294f7a26710ca395","665500ab8938657b03fbdba8","6657936a03892b97df880b24","977","stimuli/2001011.jpg","1","","prediction_trial","2","","false","","2","false","false","false","true","false","false","[2]","001","011","0","","","","","","",""
"","","","","","image-keyboard-response","263","294869","0.0-238.0","633c7424294f7a26710ca395","665500ab8938657b03fbdba8","6657936a03892b97df880b24","535","stimuli/20010112.jpg"," ","","feedback_trial","2","","","","","","","","","","","","","","","","","","","","",""
"","","","","","image-keyboard-response","264","295517","0.0-239.0","633c7424294f7a26710ca395","665500ab8938657b03fbdba8","6657936a03892b97df880b24","641","stimuli/0000010.jpg","0","","prediction_trial","0","","true","","0","true","true","true","true","true","true","[0]","000","010","1","","","","","","",""
"","","","","","image-keyboard-response","265","295669","0.0-240.0","633c7424294f7a26710ca395","665500ab8938657b03fbdba8","6657936a03892b97df880b24","145","stimuli/00000100.jpg"," ","","feedback_trial","0","","","","","","","","","","","","","","","","","","","","",""
"","","","","","image-keyboard-response","266","296750","0.0-241.0","633c7424294f7a26710ca395","665500ab8938657b03fbdba8","6657936a03892b97df880b24","1074","stimuli/1010100.jpg","1","","prediction_trial","1","","true","","1","true","true","false","true","false","true","[1]","010","100","1","","","","","","",""
"","","","","","image-keyboard-response","267","296877","0.0-242.0","633c7424294f7a26710ca395","665500ab8938657b03fbdba8","6657936a03892b97df880b24","119","stimuli/10101001.jpg"," ","","feedback_trial","1","","","","","","","","","","","","","","","","","","","","",""
"","","","","","image-keyboard-response","268","298079","0.0-243.0","633c7424294f7a26710ca395","665500ab8938657b03fbdba8","6657936a03892b97df880b24","1196","stimuli/0011101.jpg","0","","prediction_trial","0","","true","","0","false","false","true","true","false","false","[0]","011","101","1","","","","","","",""
"","","","","","image-keyboard-response","269","298381","0.0-244.0","633c7424294f7a26710ca395","665500ab8938657b03fbdba8","6657936a03892b97df880b24","296","stimuli/00111010.jpg"," ","","feedback_trial","0","","","","","","","","","","","","","","","","","","","","",""
"","","","","","image-keyboard-response","270","299247","0.0-245.0","633c7424294f7a26710ca395","665500ab8938657b03fbdba8","6657936a03892b97df880b24","859","stimuli/1100110.jpg","1","","prediction_trial","1","","true","","1","false","false","true","true","false","false","[1]","100","110","1","","","","","","",""
"","","","","","image-keyboard-response","271","299598","0.0-246.0","633c7424294f7a26710ca395","665500ab8938657b03fbdba8","6657936a03892b97df880b24","344","stimuli/11001101.jpg"," ","","feedback_trial","1","","","","","","","","","","","","","","","","","","","","",""
"","","","","","image-keyboard-response","272","300471","0.0-247.0","633c7424294f7a26710ca395","665500ab8938657b03fbdba8","6657936a03892b97df880b24","864","stimuli/0000111.jpg","1","","prediction_trial","0","","false","","0","false","false","true","true","false","false","[0]","000","111","0","","","","","","",""
"","","","","","image-keyboard-response","273","300949","0.0-248.0","633c7424294f7a26710ca395","665500ab8938657b03fbdba8","6657936a03892b97df880b24","472","stimuli/00001110.jpg"," ","","feedback_trial","0","","","","","","","","","","","","","","","","","","","","",""
"","","","","","image-keyboard-response","274","302616","0.0-249.0","633c7424294f7a26710ca395","665500ab8938657b03fbdba8","6657936a03892b97df880b24","1660","stimuli/0100111.jpg","2","","prediction_trial","0","","false","","0","false","false","false","true","false","false","[0]","100","111","0","","","","","","",""
"","","","","","image-keyboard-response","275","303087","0.0-250.0","633c7424294f7a26710ca395","665500ab8938657b03fbdba8","6657936a03892b97df880b24","463","stimuli/01001110.jpg"," ","","feedback_trial","0","","","","","","","","","","","","","","","","","","","","",""
"","","","","","image-keyboard-response","276","303695","0.0-251.0","633c7424294f7a26710ca395","665500ab8938657b03fbdba8","6657936a03892b97df880b24","597","stimuli/0100000.jpg","0","","prediction_trial","0","","true","","0","true","true","false","true","false","true","[0]","100","000","1","","","","","","",""
"","","","","","image-keyboard-response","277","303981","0.0-252.0","633c7424294f7a26710ca395","665500ab8938657b03fbdba8","6657936a03892b97df880b24","280","stimuli/01000000.jpg"," ","","feedback_trial","0","","","","","","","","","","","","","","","","","","","","",""
"","","","","","image-keyboard-response","278","305294","0.0-253.0","633c7424294f7a26710ca395","665500ab8938657b03fbdba8","6657936a03892b97df880b24","1306","stimuli/2001000.jpg","2","","prediction_trial","2","","true","","2","true","true","false","true","false","true","[2]","001","000","1","","","","","","",""
"","","","","","image-keyboard-response","279","305445","0.0-254.0","633c7424294f7a26710ca395","665500ab8938657b03fbdba8","6657936a03892b97df880b24","143","stimuli/20010002.jpg"," ","","feedback_trial","2","","","","","","","","","","","","","","","","","","","","",""
"","","","","","image-keyboard-response","280","306646","0.0-255.0","633c7424294f7a26710ca395","665500ab8938657b03fbdba8","6657936a03892b97df880b24","1194","stimuli/2101000.jpg","0","","prediction_trial","0","","true","","2","true","true","false","false","false","false","[2,0]","101","000","1","","","","","","",""
"","","","","","image-keyboard-response","281","307110","0.0-256.0","633c7424294f7a26710ca395","665500ab8938657b03fbdba8","6657936a03892b97df880b24","456","stimuli/21010000.jpg"," ","","feedback_trial","2","","","","","","","","","","","","","","","","","","","","",""
"","","","","","image-keyboard-response","282","308248","0.0-257.0","633c7424294f7a26710ca395","665500ab8938657b03fbdba8","6657936a03892b97df880b24","1130","stimuli/0011100.jpg","0","","prediction_trial","0","","true","","0","false","true","true","true","false","true","[0]","011","100","1","","","","","","",""
"","","","","","image-keyboard-response","283","308478","0.0-258.0","633c7424294f7a26710ca395","665500ab8938657b03fbdba8","6657936a03892b97df880b24","223","stimuli/00111000.jpg"," ","","feedback_trial","0","","","","","","","","","","","","","","","","","","","","",""
"","","","","","image-keyboard-response","284","309758","0.0-259.0","633c7424294f7a26710ca395","665500ab8938657b03fbdba8","6657936a03892b97df880b24","1273","stimuli/2110011.jpg","2","","prediction_trial","2","","true","","2","false","false","true","true","false","false","[2]","110","011","1","","","","","","",""
"","","","","","image-keyboard-response","285","310166","0.0-260.0","633c7424294f7a26710ca395","665500ab8938657b03fbdba8","6657936a03892b97df880b24","401","stimuli/21100112.jpg"," ","","feedback_trial","2","","","","","","","","","","","","","","","","","","","","",""
"","","","","","image-keyboard-response","286","311260","0.0-261.0","633c7424294f7a26710ca395","665500ab8938657b03fbdba8","6657936a03892b97df880b24","1087","stimuli/2010011.jpg","1","","prediction_trial","2","","false","","2","false","false","true","true","false","false","[2]","010","011","0","","","","","","",""
"","","","","","image-keyboard-response","287","311728","0.0-262.0","633c7424294f7a26710ca395","665500ab8938657b03fbdba8","6657936a03892b97df880b24","461","stimuli/20100112.jpg"," ","","feedback_trial","2","","","","","","","","","","","","","","","","","","","","",""
"","","","","","image-keyboard-response","288","312479","0.0-263.0","633c7424294f7a26710ca395","665500ab8938657b03fbdba8","6657936a03892b97df880b24","742","stimuli/2000100.jpg","2","","prediction_trial","2","","true","","2","true","true","true","true","true","true","[2]","000","100","1","","","","","","",""
"","","","","","image-keyboard-response","289","312630","0.0-264.0","633c7424294f7a26710ca395","665500ab8938657b03fbdba8","6657936a03892b97df880b24","145","stimuli/20001002.jpg"," ","","feedback_trial","2","","","","","","","","","","","","","","","","","","","","",""
"","","","","","image-keyboard-response","290","313600","0.0-265.0","633c7424294f7a26710ca395","665500ab8938657b03fbdba8","6657936a03892b97df880b24","963","stimuli/1001011.jpg","1","","prediction_trial","1","","true","","1","false","false","true","true","false","false","[1]","001","011","1","","","","","","",""
"","","","","","image-keyboard-response","291","314015","0.0-266.0","633c7424294f7a26710ca395","665500ab8938657b03fbdba8","6657936a03892b97df880b24","408","stimuli/10010111.jpg"," ","","feedback_trial","1","","","","","","","","","","","","","","","","","","","","",""
"","","","","","image-keyboard-response","292","316279","0.0-267.0","633c7424294f7a26710ca395","665500ab8938657b03fbdba8","6657936a03892b97df880b24","2258","stimuli/1011101.jpg","2","","prediction_trial","2","","true","","1","true","true","false","false","false","false","[1,2]","011","101","1","","","","","","",""
"","","","","","image-keyboard-response","293","316679","0.0-268.0","633c7424294f7a26710ca395","665500ab8938657b03fbdba8","6657936a03892b97df880b24","392","stimuli/10111012.jpg"," ","","feedback_trial","1","","","","","","","","","","","","","","","","","","","","",""
"","","","","","image-keyboard-response","294","317776","0.0-269.0","633c7424294f7a26710ca395","665500ab8938657b03fbdba8","6657936a03892b97df880b24","1091","stimuli/0110111.jpg","2","","prediction_trial","0","","false","","0","false","false","false","false","false","false","[0,1]","110","111","0","","","","","","",""
"","","","","","image-keyboard-response","295","318183","0.0-270.0","633c7424294f7a26710ca395","665500ab8938657b03fbdba8","6657936a03892b97df880b24","400","stimuli/01101110.jpg"," ","","feedback_trial","0","","","","","","","","","","","","","","","","","","","","",""
"","","","","","image-keyboard-response","296","319313","0.0-271.0","633c7424294f7a26710ca395","665500ab8938657b03fbdba8","6657936a03892b97df880b24","1121","stimuli/0000101.jpg","0","","prediction_trial","0","","true","","0","false","false","true","true","false","false","[0]","000","101","1","","","","","","",""
"","","","","","image-keyboard-response","297","319729","0.0-272.0","633c7424294f7a26710ca395","665500ab8938657b03fbdba8","6657936a03892b97df880b24","409","stimuli/00001010.jpg"," ","","feedback_trial","0","","","","","","","","","","","","","","","","","","","","",""
"","","","","","image-keyboard-response","298","320745","0.0-273.0","633c7424294f7a26710ca395","665500ab8938657b03fbdba8","6657936a03892b97df880b24","1010","stimuli/1010101.jpg","1","","prediction_trial","1","","true","","1","true","true","false","true","false","true","[1]","010","101","1","","","","","","",""
"","","","","","image-keyboard-response","299","320934","0.0-274.0","633c7424294f7a26710ca395","665500ab8938657b03fbdba8","6657936a03892b97df880b24","184","stimuli/10101011.jpg"," ","","feedback_trial","1","","","","","","","","","","","","","","","","","","","","",""
"","","","","","image-keyboard-response","300","321576","0.0-275.0","633c7424294f7a26710ca395","665500ab8938657b03fbdba8","6657936a03892b97df880b24","634","stimuli/0001010.jpg","0","","prediction_trial","0","","true","","0","true","true","true","true","true","true","[0]","001","010","1","","","","","","",""
"","","","","","image-keyboard-response","301","321671","0.0-276.0","633c7424294f7a26710ca395","665500ab8938657b03fbdba8","6657936a03892b97df880b24","88","stimuli/00010100.jpg"," ","","feedback_trial","0","","","","","","","","","","","","","","","","","","","","",""
"","","","","","image-keyboard-response","302","323609","0.0-277.0","633c7424294f7a26710ca395","665500ab8938657b03fbdba8","6657936a03892b97df880b24","1931","stimuli/1110001.jpg","0","","prediction_trial","1","","false","","1","true","true","false","false","false","false","[1,0]","110","001","0","","","","","","",""
"","","","","","image-keyboard-response","303","324048","0.0-278.0","633c7424294f7a26710ca395","665500ab8938657b03fbdba8","6657936a03892b97df880b24","431","stimuli/11100011.jpg"," ","","feedback_trial","1","","","","","","","","","","","","","","","","","","","","",""
"","","","","","image-keyboard-response","304","325216","0.0-279.0","633c7424294f7a26710ca395","665500ab8938657b03fbdba8","6657936a03892b97df880b24","1160","stimuli/1111011.jpg","2","","prediction_trial","0","","false","","1","false","false","false","false","false","false","[2,1,0]","111","011","0","","","","","","",""
"","","","","","image-keyboard-response","305","325816","0.0-280.0","633c7424294f7a26710ca395","665500ab8938657b03fbdba8","6657936a03892b97df880b24","592","stimuli/11110110.jpg"," ","","feedback_trial","2","","","","","","","","","","","","","","","","","","","","",""
"","","","","","image-keyboard-response","306","328648","0.0-281.0","633c7424294f7a26710ca395","665500ab8938657b03fbdba8","6657936a03892b97df880b24","2825","stimuli/2000011.jpg","1","","prediction_trial","2","","false","","2","false","false","true","true","false","false","[2]","000","011","0","","","","","","",""
"","","","","","image-keyboard-response","307","329208","0.0-282.0","633c7424294f7a26710ca395","665500ab8938657b03fbdba8","6657936a03892b97df880b24","552","stimuli/20000112.jpg"," ","","feedback_trial","2","","","","","","","","","","","","","","","","","","","","",""
"","","","","","image-keyboard-response","308","330531","0.0-283.0","633c7424294f7a26710ca395","665500ab8938657b03fbdba8","6657936a03892b97df880b24","1316","stimuli/2011001.jpg","1","","prediction_trial","2","","false","","2","false","true","false","false","false","false","[2,1]","011","001","0","","","","","","",""
"","","","","","image-keyboard-response","309","331023","0.0-284.0","633c7424294f7a26710ca395","665500ab8938657b03fbdba8","6657936a03892b97df880b24","489","stimuli/20110012.jpg"," ","","feedback_trial","2","","","","","","","","","","","","","","","","","","","","",""
"","","","","","image-keyboard-response","310","331882","0.0-285.0","633c7424294f7a26710ca395","665500ab8938657b03fbdba8","6657936a03892b97df880b24","855","stimuli/1000001.jpg","1","","prediction_trial","1","","true","","1","true","true","true","true","true","true","[1]","000","001","1","","","","","","",""
"","","","","","image-keyboard-response","311","332048","0.0-286.0","633c7424294f7a26710ca395","665500ab8938657b03fbdba8","6657936a03892b97df880b24","160","stimuli/10000011.jpg"," ","","feedback_trial","1","","","","","","","","","","","","","","","","","","","","",""
"","","","","","image-keyboard-response","312","333104","0.0-287.0","633c7424294f7a26710ca395","665500ab8938657b03fbdba8","6657936a03892b97df880b24","1051","stimuli/1011000.jpg","2","","prediction_trial","2","","true","","1","true","true","false","false","false","false","[2,1]","011","000","1","","","","","","",""
"","","","","","image-keyboard-response","313","333553","0.0-288.0","633c7424294f7a26710ca395","665500ab8938657b03fbdba8","6657936a03892b97df880b24","441","stimuli/10110002.jpg"," ","","feedback_trial","2","","","","","","","","","","","","","","","","","","","","",""
"","","","","","image-keyboard-response","314","334674","0.0-289.0","633c7424294f7a26710ca395","665500ab8938657b03fbdba8","6657936a03892b97df880b24","1114","stimuli/2100111.jpg","1","","prediction_trial","2","","false","","2","false","false","true","true","false","false","[2]","100","111","0","","","","","","",""
"","","","","","image-keyboard-response","315","336136","0.0-290.0","633c7424294f7a26710ca395","665500ab8938657b03fbdba8","6657936a03892b97df880b24","1456","stimuli/21001112.jpg"," ","","feedback_trial","2","","","","","","","","","","","","","","","","","","","","",""
"","","","","","image-keyboard-response","316","337450","0.0-291.0","633c7424294f7a26710ca395","665500ab8938657b03fbdba8","6657936a03892b97df880b24","1307","stimuli/2101111.jpg","1","","prediction_trial","0","","false","","2","false","false","false","false","false","false","[0,2]","101","111","0","","","","","","",""
"","","","","","image-keyboard-response","317","337826","0.0-292.0","633c7424294f7a26710ca395","665500ab8938657b03fbdba8","6657936a03892b97df880b24","369","stimuli/21011110.jpg"," ","","feedback_trial","0","","","","","","","","","","","","","","","","","","","","",""
"","","","","","survey-html-form","318","396107","0.0-293.0","633c7424294f7a26710ca395","665500ab8938657b03fbdba8","6657936a03892b97df880b24","58278","","{""feedback"":""The main factor was whether or not Sam was capable of seeing the ball or not. If not, I had to randomly guess which unseen basket he would pick from."",""age"":""39"",""gender"":""Male"",""other_gender"":"""",""race"":""White"",""other_race"":"""",""ethnicity"":""Non-Hispanic""}","","exit_survey","","","","","","","","","","","","","","","","The main factor was whether or not Sam was capable of seeing the ball or not. If not, I had to randomly guess which unseen basket he would pick from.","39","Non-Hispanic","Male","White","0.6527777777777778","0.6527777777777778"
