"success","timeout","failed_images","failed_audio","failed_video","trial_type","trial_index","time_elapsed","internal_node_id","prolific_id","prolific_study_id","prolific_session_id","rt","stimulus","response","view_history","trial","character_choice","stimulus_dict","accuracy","correct_response","ball_pos","ego_ball_visible","ego_can_infer","alter_ball_visible","alter_can_infer","collective_ball_visible","collective_can_infer","search_locations","alter_occluders","ego_occluders","accuracy_bool","feedback","age","ethnicity","gender","race","overall_accuracy","bonus"
"true","false","[]","[]","[]","preload","0","2323","0.0-0.0","5a188836087f2e0001eaf744","665500ab8938657b03fbdba8","665781c06b35f257ed77ec13","","","","","","","","","","","","","","","","","","","","","","","","","","",""
"true","","","","","fullscreen","1","62679","0.0-1.0","5a188836087f2e0001eaf744","665500ab8938657b03fbdba8","665781c06b35f257ed77ec13","","","","","","","","","","","","","","","","","","","","","","","","","","",""
"","","","","","html-button-response","2","73818","0.0-2.0","5a188836087f2e0001eaf744","665500ab8938657b03fbdba8","665781c06b35f257ed77ec13","11138","<p><b>Consent Form</b></p> <div style=""text-align:left;background-color:lightgrey; padding:20px; max-width:900px;""><p>Please consider this information carefully before deciding whether to participate in this research.</p> <p>The purpose of this research is to examine which factors influence social judgment and decision-making. You will be asked to make judgements about individuals and actions in social scenarios. We are simply interested in your judgement. The study will take less than 1 hour to complete, and you will receive less than $20 on Prolific. Your compensation and time commitment are specified in the study description. There are no anticipated risks associated with participating in this study. The effects of participating should be comparable to those you would ordinarily experience from viewing a computer monitor and using a mouse or keyboard for a similar amount of time. At the end of the study, we will provide an explanation of the questions that motivate this line of research and will describe the potential implications. </p><p> Your participation in this study is completely voluntary and you may refuse to participate or you may choose to withdraw at any time without penalty or loss of benefits to you which are otherwise entitled. Your participation in this study will remain confidential. No personally identifiable information will be associated with your data. Also, all analyses of the data will be averaged across all the participants, so your individual responses will never be specifically analyzed. </p><p> If you have questions or concerns about your participation or payment, or want to request a summary of research findings, please contact Dr. Jonathan Phillips at Jonathan.S.Phillips@dartmouth.edu. </p><p> Please save a copy of this form for your records. </p><p><b>Agreement: </b>The nature and purpose of this research have been sufficiently explained and I agree to participate in this study. I understand that I am free to withdraw at any time without incurring any penalty. Please consent by clicking the button below to continue. Otherwise, please exit the study at any time. </p>","0","","","","","","","","","","","","","","","","","","","","","","","",""
"","","","","","instructions","3","144411","0.0-3.0-0.0","5a188836087f2e0001eaf744","665500ab8938657b03fbdba8","665781c06b35f257ed77ec13","70592","","","[{""page_index"":0,""viewing_time"":3189},{""page_index"":1,""viewing_time"":1458},{""page_index"":2,""viewing_time"":1606},{""page_index"":3,""viewing_time"":3872},{""page_index"":4,""viewing_time"":3966},{""page_index"":5,""viewing_time"":2960},{""page_index"":6,""viewing_time"":5204},{""page_index"":7,""viewing_time"":3806},{""page_index"":8,""viewing_time"":4248},{""page_index"":9,""viewing_time"":4966},{""page_index"":10,""viewing_time"":17050},{""page_index"":11,""viewing_time"":8756},{""page_index"":12,""viewing_time"":8468},{""page_index"":13,""viewing_time"":1042}]","intro","","","","","","","","","","","","","","","","","","","","","",""
"","","","","","image-keyboard-response","4","146107","0.0-3.0-1.0","5a188836087f2e0001eaf744","665500ab8938657b03fbdba8","665781c06b35f257ed77ec13","1694","stimuli/2111111.jpg","2","","prediction_practice","2","{""filepath"":""stimuli/2111111.jpg"",""ball_pos"":2,""ego_ball_visible"":false,""ego_can_infer"":false,""alter_ball_visible"":false,""alter_can_infer"":false,""collective_ball_visible"":false,""collective_can_infer"":false,""search_locations"":[1,2,0],""alter_occluders"":""111"",""ego_occluders"":""111""}","true","","","","","","","","","","","","","","","","","","",""
"","","","","","image-keyboard-response","5","147228","0.0-3.0-2.0","5a188836087f2e0001eaf744","665500ab8938657b03fbdba8","665781c06b35f257ed77ec13","1121","stimuli/21111112.jpg"," ","","practrice_feedback","1","","","","","","","","","","","","","","","","","","","","",""
"","","","","","image-keyboard-response","6","150757","0.0-3.0-3.0","5a188836087f2e0001eaf744","665500ab8938657b03fbdba8","665781c06b35f257ed77ec13","3528","stimuli/1100100.jpg","1","","prediction_practice","1","{""filepath"":""stimuli/1100100.jpg"",""ball_pos"":1,""ego_ball_visible"":true,""ego_can_infer"":true,""alter_ball_visible"":true,""alter_can_infer"":true,""collective_ball_visible"":true,""collective_can_infer"":true,""search_locations"":[1],""alter_occluders"":""100"",""ego_occluders"":""100""}","true","","","","","","","","","","","","","","","","","","",""
"","","","","","image-keyboard-response","7","151775","0.0-3.0-4.0","5a188836087f2e0001eaf744","665500ab8938657b03fbdba8","665781c06b35f257ed77ec13","1017","stimuli/11001001.jpg"," ","","practrice_feedback","1","","","","","","","","","","","","","","","","","","","","",""
"","","","","","image-keyboard-response","8","155647","0.0-3.0-5.0","5a188836087f2e0001eaf744","665500ab8938657b03fbdba8","665781c06b35f257ed77ec13","3872","stimuli/0110000.jpg","1","","prediction_practice","0","{""filepath"":""stimuli/0110000.jpg"",""ball_pos"":0,""ego_ball_visible"":true,""ego_can_infer"":true,""alter_ball_visible"":false,""alter_can_infer"":false,""collective_ball_visible"":false,""collective_can_infer"":false,""search_locations"":[0,1],""alter_occluders"":""110"",""ego_occluders"":""000""}","false","","","","","","","","","","","","","","","","","","",""
"","","","","","image-keyboard-response","9","158932","0.0-3.0-6.0","5a188836087f2e0001eaf744","665500ab8938657b03fbdba8","665781c06b35f257ed77ec13","3284","stimuli/01100000.jpg"," ","","practrice_feedback","0","","","","","","","","","","","","","","","","","","","","",""
"","","","","","image-keyboard-response","10","163145","0.0-3.0-7.0","5a188836087f2e0001eaf744","665500ab8938657b03fbdba8","665781c06b35f257ed77ec13","4212","stimuli/1110100.jpg","1","","prediction_practice","1","{""filepath"":""stimuli/1110100.jpg"",""ball_pos"":1,""ego_ball_visible"":true,""ego_can_infer"":true,""alter_ball_visible"":false,""alter_can_infer"":false,""collective_ball_visible"":false,""collective_can_infer"":false,""search_locations"":[0,1],""alter_occluders"":""110"",""ego_occluders"":""100""}","true","","","","","","","","","","","","","","","","","","",""
"","","","","","image-keyboard-response","11","164740","0.0-3.0-8.0","5a188836087f2e0001eaf744","665500ab8938657b03fbdba8","665781c06b35f257ed77ec13","1595","stimuli/11101001.jpg"," ","","practrice_feedback","0","","","","","","","","","","","","","","","","","","","","",""
"","","","","","image-keyboard-response","12","168207","0.0-3.0-9.0","5a188836087f2e0001eaf744","665500ab8938657b03fbdba8","665781c06b35f257ed77ec13","3466","stimuli/0001000.jpg","0","","prediction_practice","0","{""filepath"":""stimuli/0001000.jpg"",""ball_pos"":0,""ego_ball_visible"":true,""ego_can_infer"":true,""alter_ball_visible"":true,""alter_can_infer"":true,""collective_ball_visible"":true,""collective_can_infer"":true,""search_locations"":[0],""alter_occluders"":""001"",""ego_occluders"":""000""}","true","","","","","","","","","","","","","","","","","","",""
"","","","","","image-keyboard-response","13","168843","0.0-3.0-10.0","5a188836087f2e0001eaf744","665500ab8938657b03fbdba8","665781c06b35f257ed77ec13","635","stimuli/00010000.jpg"," ","","practrice_feedback","0","","","","","","","","","","","","","","","","","","","","",""
"","","","","","image-keyboard-response","14","171474","0.0-3.0-11.0","5a188836087f2e0001eaf744","665500ab8938657b03fbdba8","665781c06b35f257ed77ec13","2631","stimuli/1111011.jpg","2","","prediction_practice","2","{""filepath"":""stimuli/1111011.jpg"",""ball_pos"":1,""ego_ball_visible"":false,""ego_can_infer"":false,""alter_ball_visible"":false,""alter_can_infer"":false,""collective_ball_visible"":false,""collective_can_infer"":false,""search_locations"":[2,1,0],""alter_occluders"":""111"",""ego_occluders"":""011""}","true","","","","","","","","","","","","","","","","","","",""
"","","","","","image-keyboard-response","15","173028","0.0-3.0-12.0","5a188836087f2e0001eaf744","665500ab8938657b03fbdba8","665781c06b35f257ed77ec13","1553","stimuli/11110112.jpg"," ","","practrice_feedback","2","","","","","","","","","","","","","","","","","","","","",""
"","","","","","image-keyboard-response","16","174546","0.0-3.0-13.0","5a188836087f2e0001eaf744","665500ab8938657b03fbdba8","665781c06b35f257ed77ec13","1518","stimuli/2100000.jpg","2","","prediction_practice","2","{""filepath"":""stimuli/2100000.jpg"",""ball_pos"":2,""ego_ball_visible"":true,""ego_can_infer"":true,""alter_ball_visible"":true,""alter_can_infer"":true,""collective_ball_visible"":true,""collective_can_infer"":true,""search_locations"":[2],""alter_occluders"":""100"",""ego_occluders"":""000""}","true","","","","","","","","","","","","","","","","","","",""
"","","","","","image-keyboard-response","17","175362","0.0-3.0-14.0","5a188836087f2e0001eaf744","665500ab8938657b03fbdba8","665781c06b35f257ed77ec13","816","stimuli/21000002.jpg"," ","","practrice_feedback","2","","","","","","","","","","","","","","","","","","","","",""
"","","","","","image-keyboard-response","18","178339","0.0-3.0-15.0","5a188836087f2e0001eaf744","665500ab8938657b03fbdba8","665781c06b35f257ed77ec13","2976","stimuli/0000111.jpg","1","","prediction_practice","0","{""filepath"":""stimuli/0000111.jpg"",""ball_pos"":0,""ego_ball_visible"":false,""ego_can_infer"":false,""alter_ball_visible"":true,""alter_can_infer"":true,""collective_ball_visible"":false,""collective_can_infer"":false,""search_locations"":[0],""alter_occluders"":""000"",""ego_occluders"":""111""}","false","","","","","","","","","","","","","","","","","","",""
"","","","","","image-keyboard-response","19","179837","0.0-3.0-16.0","5a188836087f2e0001eaf744","665500ab8938657b03fbdba8","665781c06b35f257ed77ec13","1498","stimuli/00001110.jpg"," ","","practrice_feedback","0","","","","","","","","","","","","","","","","","","","","",""
"","","","","","image-keyboard-response","20","182474","0.0-3.0-17.0","5a188836087f2e0001eaf744","665500ab8938657b03fbdba8","665781c06b35f257ed77ec13","2637","stimuli/0010111.jpg","0","","prediction_practice","0","{""filepath"":""stimuli/0010111.jpg"",""ball_pos"":0,""ego_ball_visible"":false,""ego_can_infer"":false,""alter_ball_visible"":true,""alter_can_infer"":true,""collective_ball_visible"":false,""collective_can_infer"":false,""search_locations"":[0],""alter_occluders"":""010"",""ego_occluders"":""111""}","true","","","","","","","","","","","","","","","","","","",""
"","","","","","image-keyboard-response","21","183376","0.0-3.0-18.0","5a188836087f2e0001eaf744","665500ab8938657b03fbdba8","665781c06b35f257ed77ec13","901","stimuli/00101110.jpg"," ","","practrice_feedback","0","","","","","","","","","","","","","","","","","","","","",""
"","","","","","image-keyboard-response","22","186585","0.0-3.0-19.0","5a188836087f2e0001eaf744","665500ab8938657b03fbdba8","665781c06b35f257ed77ec13","3209","stimuli/0101010.jpg","2","","prediction_practice","2","{""filepath"":""stimuli/0101010.jpg"",""ball_pos"":0,""ego_ball_visible"":true,""ego_can_infer"":true,""alter_ball_visible"":false,""alter_can_infer"":false,""collective_ball_visible"":false,""collective_can_infer"":false,""search_locations"":[2,0],""alter_occluders"":""101"",""ego_occluders"":""010""}","true","","","","","","","","","","","","","","","","","","",""
"","","","","","image-keyboard-response","23","187407","0.0-3.0-20.0","5a188836087f2e0001eaf744","665500ab8938657b03fbdba8","665781c06b35f257ed77ec13","822","stimuli/01010102.jpg"," ","","practrice_feedback","2","","","","","","","","","","","","","","","","","","","","",""
"","","","","","html-button-response","24","197173","0.0-3.0-21.0","5a188836087f2e0001eaf744","665500ab8938657b03fbdba8","665781c06b35f257ed77ec13","9765","Now that you've had some practice, you'll be tested with a couple of easy trials. If you correctly predict Sam's choice, you'll move on to complete the experiment!","0","","","","","","","","","","","","","","","","","","","","","","","",""
"","","","","","image-keyboard-response","25","198369","0.0-3.0-22.0-0.0","5a188836087f2e0001eaf744","665500ab8938657b03fbdba8","665781c06b35f257ed77ec13","1195","stimuli/0000011.jpg","arrowleft","","comprehension_quiz","","","true","arrowleft","","","","","","","","","","","","","","","","","",""
"","","","","","image-keyboard-response","26","199364","0.0-3.0-22.0-1.0","5a188836087f2e0001eaf744","665500ab8938657b03fbdba8","665781c06b35f257ed77ec13","994","stimuli/00000110.jpg"," ","","comprehension_quiz","","","true"," ","","","","","","","","","","","","","","","","","",""
"","","","","","image-keyboard-response","27","201911","0.0-3.0-22.0-2.0","5a188836087f2e0001eaf744","665500ab8938657b03fbdba8","665781c06b35f257ed77ec13","2547","stimuli/1010010.jpg","arrowdown","","comprehension_quiz","","","true","arrowdown","","","","","","","","","","","","","","","","","",""
"","","","","","image-keyboard-response","28","202659","0.0-3.0-22.0-3.0","5a188836087f2e0001eaf744","665500ab8938657b03fbdba8","665781c06b35f257ed77ec13","747","stimuli/10100101.jpg"," ","","comprehension_quiz","","","true"," ","","","","","","","","","","","","","","","","","",""
"","","","","","html-button-response","29","205313","0.0-4.0","5a188836087f2e0001eaf744","665500ab8938657b03fbdba8","665781c06b35f257ed77ec13","2652","The experiment will now begin.","0","","","","","","","","","","","","","","","","","","","","","","","",""
"","","","","","image-keyboard-response","30","207867","0.0-5.0","5a188836087f2e0001eaf744","665500ab8938657b03fbdba8","665781c06b35f257ed77ec13","2554","stimuli/1110110.jpg","0","","prediction_trial","0","","true","","1","false","false","false","false","false","false","[1,0]","110","110","1","","","","","","",""
"","","","","","image-keyboard-response","31","208957","0.0-6.0","5a188836087f2e0001eaf744","665500ab8938657b03fbdba8","665781c06b35f257ed77ec13","1089","stimuli/11101100.jpg"," ","","feedback_trial","1","","","","","","","","","","","","","","","","","","","","",""
"","","","","","image-keyboard-response","32","212276","0.0-7.0","5a188836087f2e0001eaf744","665500ab8938657b03fbdba8","665781c06b35f257ed77ec13","3318","stimuli/0001110.jpg","0","","prediction_trial","0","","true","","0","false","false","true","true","false","false","[0]","001","110","1","","","","","","",""
"","","","","","image-keyboard-response","33","213091","0.0-8.0","5a188836087f2e0001eaf744","665500ab8938657b03fbdba8","665781c06b35f257ed77ec13","814","stimuli/00011100.jpg"," ","","feedback_trial","0","","","","","","","","","","","","","","","","","","","","",""
"","","","","","image-keyboard-response","34","214113","0.0-9.0","5a188836087f2e0001eaf744","665500ab8938657b03fbdba8","665781c06b35f257ed77ec13","1021","stimuli/2000010.jpg","2","","prediction_trial","2","","true","","2","true","true","true","true","true","true","[2]","000","010","1","","","","","","",""
"","","","","","image-keyboard-response","35","214874","0.0-10.0","5a188836087f2e0001eaf744","665500ab8938657b03fbdba8","665781c06b35f257ed77ec13","761","stimuli/20000102.jpg"," ","","feedback_trial","2","","","","","","","","","","","","","","","","","","","","",""
"","","","","","image-keyboard-response","36","219973","0.0-11.0","5a188836087f2e0001eaf744","665500ab8938657b03fbdba8","665781c06b35f257ed77ec13","5099","stimuli/1101011.jpg","1","","prediction_trial","1","","true","","1","false","false","true","true","false","false","[1]","101","011","1","","","","","","",""
"","","","","","image-keyboard-response","37","220781","0.0-12.0","5a188836087f2e0001eaf744","665500ab8938657b03fbdba8","665781c06b35f257ed77ec13","807","stimuli/11010111.jpg"," ","","feedback_trial","1","","","","","","","","","","","","","","","","","","","","",""
"","","","","","image-keyboard-response","38","221707","0.0-13.0","5a188836087f2e0001eaf744","665500ab8938657b03fbdba8","665781c06b35f257ed77ec13","925","stimuli/2110110.jpg","2","","prediction_trial","2","","true","","2","true","true","true","true","true","true","[2]","110","110","1","","","","","","",""
"","","","","","image-keyboard-response","39","222461","0.0-14.0","5a188836087f2e0001eaf744","665500ab8938657b03fbdba8","665781c06b35f257ed77ec13","754","stimuli/21101102.jpg"," ","","feedback_trial","2","","","","","","","","","","","","","","","","","","","","",""
"","","","","","image-keyboard-response","40","224717","0.0-15.0","5a188836087f2e0001eaf744","665500ab8938657b03fbdba8","665781c06b35f257ed77ec13","2255","stimuli/0101111.jpg","2","","prediction_trial","0","","false","","0","false","false","false","false","false","false","[2,0]","101","111","0","","","","","","",""
"","","","","","image-keyboard-response","41","225626","0.0-16.0","5a188836087f2e0001eaf744","665500ab8938657b03fbdba8","665781c06b35f257ed77ec13","909","stimuli/01011110.jpg"," ","","feedback_trial","2","","","","","","","","","","","","","","","","","","","","",""
"","","","","","image-keyboard-response","42","231533","0.0-17.0","5a188836087f2e0001eaf744","665500ab8938657b03fbdba8","665781c06b35f257ed77ec13","5907","stimuli/2100101.jpg","0","","prediction_trial","2","","false","","2","false","false","true","true","false","false","[2]","100","101","0","","","","","","",""
"","","","","","image-keyboard-response","43","235199","0.0-18.0","5a188836087f2e0001eaf744","665500ab8938657b03fbdba8","665781c06b35f257ed77ec13","3664","stimuli/21001012.jpg"," ","","feedback_trial","2","","","","","","","","","","","","","","","","","","","","",""
"","","","","","image-keyboard-response","44","236351","0.0-19.0","5a188836087f2e0001eaf744","665500ab8938657b03fbdba8","665781c06b35f257ed77ec13","1151","stimuli/0000000.jpg","0","","prediction_trial","0","","true","","0","true","true","true","true","true","true","[0]","000","000","1","","","","","","",""
"","","","","","image-keyboard-response","45","237131","0.0-20.0","5a188836087f2e0001eaf744","665500ab8938657b03fbdba8","665781c06b35f257ed77ec13","779","stimuli/00000000.jpg"," ","","feedback_trial","0","","","","","","","","","","","","","","","","","","","","",""
"","","","","","image-keyboard-response","46","241261","0.0-21.0","5a188836087f2e0001eaf744","665500ab8938657b03fbdba8","665781c06b35f257ed77ec13","4129","stimuli/1011110.jpg","1","","prediction_trial","2","","false","","1","false","false","false","false","false","false","[2,1]","011","110","0","","","","","","",""
"","","","","","image-keyboard-response","47","242169","0.0-22.0","5a188836087f2e0001eaf744","665500ab8938657b03fbdba8","665781c06b35f257ed77ec13","907","stimuli/10111102.jpg"," ","","feedback_trial","2","","","","","","","","","","","","","","","","","","","","",""
"","","","","","image-keyboard-response","48","242990","0.0-23.0","5a188836087f2e0001eaf744","665500ab8938657b03fbdba8","665781c06b35f257ed77ec13","821","stimuli/0010011.jpg","0","","prediction_trial","0","","true","","0","true","true","true","true","true","true","[0]","010","011","1","","","","","","",""
"","","","","","image-keyboard-response","49","243500","0.0-24.0","5a188836087f2e0001eaf744","665500ab8938657b03fbdba8","665781c06b35f257ed77ec13","510","stimuli/00100110.jpg"," ","","feedback_trial","0","","","","","","","","","","","","","","","","","","","","",""
"","","","","","image-keyboard-response","50","251252","0.0-25.0","5a188836087f2e0001eaf744","665500ab8938657b03fbdba8","665781c06b35f257ed77ec13","7751","stimuli/1000011.jpg","2","","prediction_trial","1","","false","","1","false","false","true","true","false","false","[1]","000","011","0","","","","","","",""
"","","","","","image-keyboard-response","51","252130","0.0-26.0","5a188836087f2e0001eaf744","665500ab8938657b03fbdba8","665781c06b35f257ed77ec13","877","stimuli/10000111.jpg"," ","","feedback_trial","1","","","","","","","","","","","","","","","","","","","","",""
"","","","","","image-keyboard-response","52","256935","0.0-27.0","5a188836087f2e0001eaf744","665500ab8938657b03fbdba8","665781c06b35f257ed77ec13","4804","stimuli/2010111.jpg","2","","prediction_trial","2","","true","","2","false","false","true","true","false","false","[2]","010","111","1","","","","","","",""
"","","","","","image-keyboard-response","53","257752","0.0-28.0","5a188836087f2e0001eaf744","665500ab8938657b03fbdba8","665781c06b35f257ed77ec13","817","stimuli/20101112.jpg"," ","","feedback_trial","2","","","","","","","","","","","","","","","","","","","","",""
"","","","","","image-keyboard-response","54","260394","0.0-29.0","5a188836087f2e0001eaf744","665500ab8938657b03fbdba8","665781c06b35f257ed77ec13","2641","stimuli/1011100.jpg","1","","prediction_trial","2","","false","","1","true","true","false","false","false","false","[1,2]","011","100","0","","","","","","",""
"","","","","","image-keyboard-response","55","261179","0.0-30.0","5a188836087f2e0001eaf744","665500ab8938657b03fbdba8","665781c06b35f257ed77ec13","785","stimuli/10111002.jpg"," ","","feedback_trial","1","","","","","","","","","","","","","","","","","","","","",""
"","","","","","image-keyboard-response","56","263194","0.0-31.0","5a188836087f2e0001eaf744","665500ab8938657b03fbdba8","665781c06b35f257ed77ec13","2015","stimuli/2111000.jpg","0","","prediction_trial","0","","true","","2","true","true","false","false","false","false","[0,1,2]","111","000","1","","","","","","",""
"","","","","","image-keyboard-response","57","263937","0.0-32.0","5a188836087f2e0001eaf744","665500ab8938657b03fbdba8","665781c06b35f257ed77ec13","741","stimuli/21110000.jpg"," ","","feedback_trial","0","","","","","","","","","","","","","","","","","","","","",""
"","","","","","image-keyboard-response","58","268058","0.0-33.0","5a188836087f2e0001eaf744","665500ab8938657b03fbdba8","665781c06b35f257ed77ec13","4121","stimuli/2100111.jpg","1","","prediction_trial","2","","false","","2","false","false","true","true","false","false","[2]","100","111","0","","","","","","",""
"","","","","","image-keyboard-response","59","268598","0.0-34.0","5a188836087f2e0001eaf744","665500ab8938657b03fbdba8","665781c06b35f257ed77ec13","540","stimuli/21001112.jpg"," ","","feedback_trial","2","","","","","","","","","","","","","","","","","","","","",""
"","","","","","image-keyboard-response","60","269328","0.0-35.0","5a188836087f2e0001eaf744","665500ab8938657b03fbdba8","665781c06b35f257ed77ec13","729","stimuli/0000011.jpg","0","","prediction_trial","0","","true","","0","true","true","true","true","true","true","[0]","000","011","1","","","","","","",""
"","","","","","image-keyboard-response","61","269705","0.0-36.0","5a188836087f2e0001eaf744","665500ab8938657b03fbdba8","665781c06b35f257ed77ec13","376","stimuli/00000110.jpg"," ","","feedback_trial","0","","","","","","","","","","","","","","","","","","","","",""
"","","","","","image-keyboard-response","62","270385","0.0-37.0","5a188836087f2e0001eaf744","665500ab8938657b03fbdba8","665781c06b35f257ed77ec13","679","stimuli/2110000.jpg","2","","prediction_trial","2","","true","","2","true","true","true","true","true","true","[2]","110","000","1","","","","","","",""
"","","","","","image-keyboard-response","63","271001","0.0-38.0","5a188836087f2e0001eaf744","665500ab8938657b03fbdba8","665781c06b35f257ed77ec13","615","stimuli/21100002.jpg"," ","","feedback_trial","2","","","","","","","","","","","","","","","","","","","","",""
"","","","","","image-keyboard-response","64","273979","0.0-39.0","5a188836087f2e0001eaf744","665500ab8938657b03fbdba8","665781c06b35f257ed77ec13","2978","stimuli/0010111.jpg","0","","prediction_trial","0","","true","","0","false","false","true","true","false","false","[0]","010","111","1","","","","","","",""
"","","","","","image-keyboard-response","65","274641","0.0-40.0","5a188836087f2e0001eaf744","665500ab8938657b03fbdba8","665781c06b35f257ed77ec13","661","stimuli/00101110.jpg"," ","","feedback_trial","0","","","","","","","","","","","","","","","","","","","","",""
"","","","","","image-keyboard-response","66","275284","0.0-41.0","5a188836087f2e0001eaf744","665500ab8938657b03fbdba8","665781c06b35f257ed77ec13","642","stimuli/0011010.jpg","0","","prediction_trial","0","","true","","0","true","true","true","true","true","true","[0]","011","010","1","","","","","","",""
"","","","","","image-keyboard-response","67","275663","0.0-42.0","5a188836087f2e0001eaf744","665500ab8938657b03fbdba8","665781c06b35f257ed77ec13","378","stimuli/00110100.jpg"," ","","feedback_trial","0","","","","","","","","","","","","","","","","","","","","",""
"","","","","","image-keyboard-response","68","277158","0.0-43.0","5a188836087f2e0001eaf744","665500ab8938657b03fbdba8","665781c06b35f257ed77ec13","1494","stimuli/2101111.jpg","2","","prediction_trial","0","","false","","2","false","false","false","false","false","false","[2,0]","101","111","0","","","","","","",""
"","","","","","image-keyboard-response","69","278020","0.0-44.0","5a188836087f2e0001eaf744","665500ab8938657b03fbdba8","665781c06b35f257ed77ec13","861","stimuli/21011110.jpg"," ","","feedback_trial","2","","","","","","","","","","","","","","","","","","","","",""
"","","","","","image-keyboard-response","70","280023","0.0-45.0","5a188836087f2e0001eaf744","665500ab8938657b03fbdba8","665781c06b35f257ed77ec13","2002","stimuli/0100000.jpg","0","","prediction_trial","0","","true","","0","true","true","false","true","false","true","[0]","100","000","1","","","","","","",""
"","","","","","image-keyboard-response","71","280381","0.0-46.0","5a188836087f2e0001eaf744","665500ab8938657b03fbdba8","665781c06b35f257ed77ec13","357","stimuli/01000000.jpg"," ","","feedback_trial","0","","","","","","","","","","","","","","","","","","","","",""
"","","","","","image-keyboard-response","72","283876","0.0-47.0","5a188836087f2e0001eaf744","665500ab8938657b03fbdba8","665781c06b35f257ed77ec13","3494","stimuli/0111100.jpg","2","","prediction_trial","2","","true","","0","false","true","false","false","false","false","[0,1,2]","111","100","1","","","","","","",""
"","","","","","image-keyboard-response","73","284415","0.0-48.0","5a188836087f2e0001eaf744","665500ab8938657b03fbdba8","665781c06b35f257ed77ec13","539","stimuli/01111002.jpg"," ","","feedback_trial","0","","","","","","","","","","","","","","","","","","","","",""
"","","","","","image-keyboard-response","74","286882","0.0-49.0","5a188836087f2e0001eaf744","665500ab8938657b03fbdba8","665781c06b35f257ed77ec13","2466","stimuli/2011000.jpg","1","","prediction_trial","1","","true","","2","true","true","false","false","false","false","[2,1]","011","000","1","","","","","","",""
"","","","","","image-keyboard-response","75","287501","0.0-50.0","5a188836087f2e0001eaf744","665500ab8938657b03fbdba8","665781c06b35f257ed77ec13","618","stimuli/20110001.jpg"," ","","feedback_trial","2","","","","","","","","","","","","","","","","","","","","",""
"","","","","","image-keyboard-response","76","288740","0.0-51.0","5a188836087f2e0001eaf744","665500ab8938657b03fbdba8","665781c06b35f257ed77ec13","1239","stimuli/1100100.jpg","1","","prediction_trial","1","","true","","1","true","true","true","true","true","true","[1]","100","100","1","","","","","","",""
"","","","","","image-keyboard-response","77","289108","0.0-52.0","5a188836087f2e0001eaf744","665500ab8938657b03fbdba8","665781c06b35f257ed77ec13","367","stimuli/11001001.jpg"," ","","feedback_trial","1","","","","","","","","","","","","","","","","","","","","",""
"","","","","","image-keyboard-response","78","291414","0.0-53.0","5a188836087f2e0001eaf744","665500ab8938657b03fbdba8","665781c06b35f257ed77ec13","2305","stimuli/0000110.jpg","0","","prediction_trial","0","","true","","0","false","false","true","true","false","false","[0]","000","110","1","","","","","","",""
"","","","","","image-keyboard-response","79","291956","0.0-54.0","5a188836087f2e0001eaf744","665500ab8938657b03fbdba8","665781c06b35f257ed77ec13","542","stimuli/00001100.jpg"," ","","feedback_trial","0","","","","","","","","","","","","","","","","","","","","",""
"","","","","","image-keyboard-response","80","292775","0.0-55.0","5a188836087f2e0001eaf744","665500ab8938657b03fbdba8","665781c06b35f257ed77ec13","818","stimuli/0000111.jpg","2","","prediction_trial","0","","false","","0","false","false","true","true","false","false","[0]","000","111","0","","","","","","",""
"","","","","","image-keyboard-response","81","293655","0.0-56.0","5a188836087f2e0001eaf744","665500ab8938657b03fbdba8","665781c06b35f257ed77ec13","880","stimuli/00001110.jpg"," ","","feedback_trial","0","","","","","","","","","","","","","","","","","","","","",""
"","","","","","image-keyboard-response","82","297135","0.0-57.0","5a188836087f2e0001eaf744","665500ab8938657b03fbdba8","665781c06b35f257ed77ec13","3480","stimuli/0101000.jpg","2","","prediction_trial","0","","false","","0","true","true","false","false","false","false","[2,0]","101","000","0","","","","","","",""
"","","","","","image-keyboard-response","83","298189","0.0-58.0","5a188836087f2e0001eaf744","665500ab8938657b03fbdba8","665781c06b35f257ed77ec13","1053","stimuli/01010000.jpg"," ","","feedback_trial","2","","","","","","","","","","","","","","","","","","","","",""
"","","","","","image-keyboard-response","84","299447","0.0-59.0","5a188836087f2e0001eaf744","665500ab8938657b03fbdba8","665781c06b35f257ed77ec13","1258","stimuli/2101011.jpg","1","","prediction_trial","2","","false","","2","false","false","false","false","false","false","[0,2]","101","011","0","","","","","","",""
"","","","","","image-keyboard-response","85","299977","0.0-60.0","5a188836087f2e0001eaf744","665500ab8938657b03fbdba8","665781c06b35f257ed77ec13","529","stimuli/21010112.jpg"," ","","feedback_trial","0","","","","","","","","","","","","","","","","","","","","",""
"","","","","","image-keyboard-response","86","300989","0.0-61.0","5a188836087f2e0001eaf744","665500ab8938657b03fbdba8","665781c06b35f257ed77ec13","1012","stimuli/1011111.jpg","2","","prediction_trial","2","","true","","1","false","false","false","false","false","false","[2,1]","011","111","1","","","","","","",""
"","","","","","image-keyboard-response","87","301734","0.0-62.0","5a188836087f2e0001eaf744","665500ab8938657b03fbdba8","665781c06b35f257ed77ec13","744","stimuli/10111112.jpg"," ","","feedback_trial","2","","","","","","","","","","","","","","","","","","","","",""
"","","","","","image-keyboard-response","88","302691","0.0-63.0","5a188836087f2e0001eaf744","665500ab8938657b03fbdba8","665781c06b35f257ed77ec13","955","stimuli/1101001.jpg","1","","prediction_trial","1","","true","","1","true","true","true","true","true","true","[1]","101","001","1","","","","","","",""
"","","","","","image-keyboard-response","89","303034","0.0-64.0","5a188836087f2e0001eaf744","665500ab8938657b03fbdba8","665781c06b35f257ed77ec13","342","stimuli/11010011.jpg"," ","","feedback_trial","1","","","","","","","","","","","","","","","","","","","","",""
"","","","","","image-keyboard-response","90","303683","0.0-65.0","5a188836087f2e0001eaf744","665500ab8938657b03fbdba8","665781c06b35f257ed77ec13","648","stimuli/1000101.jpg","1","","prediction_trial","1","","true","","1","true","true","true","true","true","true","[1]","000","101","1","","","","","","",""
"","","","","","image-keyboard-response","91","304125","0.0-66.0","5a188836087f2e0001eaf744","665500ab8938657b03fbdba8","665781c06b35f257ed77ec13","441","stimuli/10001011.jpg"," ","","feedback_trial","1","","","","","","","","","","","","","","","","","","","","",""
"","","","","","image-keyboard-response","92","305954","0.0-67.0","5a188836087f2e0001eaf744","665500ab8938657b03fbdba8","665781c06b35f257ed77ec13","1828","stimuli/0011100.jpg","0","","prediction_trial","0","","true","","0","false","true","true","true","false","true","[0]","011","100","1","","","","","","",""
"","","","","","image-keyboard-response","93","306342","0.0-68.0","5a188836087f2e0001eaf744","665500ab8938657b03fbdba8","665781c06b35f257ed77ec13","388","stimuli/00111000.jpg"," ","","feedback_trial","0","","","","","","","","","","","","","","","","","","","","",""
"","","","","","image-keyboard-response","94","311548","0.0-69.0","5a188836087f2e0001eaf744","665500ab8938657b03fbdba8","665781c06b35f257ed77ec13","5205","stimuli/2011001.jpg","2","","prediction_trial","1","","false","","2","false","true","false","false","false","false","[2,1]","011","001","0","","","","","","",""
"","","","","","image-keyboard-response","95","311993","0.0-70.0","5a188836087f2e0001eaf744","665500ab8938657b03fbdba8","665781c06b35f257ed77ec13","445","stimuli/20110011.jpg"," ","","feedback_trial","2","","","","","","","","","","","","","","","","","","","","",""
"","","","","","image-keyboard-response","96","314092","0.0-71.0","5a188836087f2e0001eaf744","665500ab8938657b03fbdba8","665781c06b35f257ed77ec13","2098","stimuli/1110100.jpg","1","","prediction_trial","0","","false","","1","true","true","false","false","false","false","[0,1]","110","100","0","","","","","","",""
"","","","","","image-keyboard-response","97","314541","0.0-72.0","5a188836087f2e0001eaf744","665500ab8938657b03fbdba8","665781c06b35f257ed77ec13","449","stimuli/11101000.jpg"," ","","feedback_trial","0","","","","","","","","","","","","","","","","","","","","",""
"","","","","","image-keyboard-response","98","316493","0.0-73.0","5a188836087f2e0001eaf744","665500ab8938657b03fbdba8","665781c06b35f257ed77ec13","1952","stimuli/2110011.jpg","2","","prediction_trial","2","","true","","2","false","false","true","true","false","false","[2]","110","011","1","","","","","","",""
"","","","","","image-keyboard-response","99","316853","0.0-74.0","5a188836087f2e0001eaf744","665500ab8938657b03fbdba8","665781c06b35f257ed77ec13","359","stimuli/21100112.jpg"," ","","feedback_trial","2","","","","","","","","","","","","","","","","","","","","",""
"","","","","","image-keyboard-response","100","317663","0.0-75.0","5a188836087f2e0001eaf744","665500ab8938657b03fbdba8","665781c06b35f257ed77ec13","810","stimuli/0010000.jpg","0","","prediction_trial","0","","true","","0","true","true","true","true","true","true","[0]","010","000","1","","","","","","",""
"","","","","","image-keyboard-response","101","317943","0.0-76.0","5a188836087f2e0001eaf744","665500ab8938657b03fbdba8","665781c06b35f257ed77ec13","279","stimuli/00100000.jpg"," ","","feedback_trial","0","","","","","","","","","","","","","","","","","","","","",""
"","","","","","image-keyboard-response","102","322222","0.0-77.0","5a188836087f2e0001eaf744","665500ab8938657b03fbdba8","665781c06b35f257ed77ec13","4278","stimuli/1111010.jpg","0","","prediction_trial","0","","true","","1","false","true","false","false","false","false","[1,0,2]","111","010","1","","","","","","",""
"","","","","","image-keyboard-response","103","322596","0.0-78.0","5a188836087f2e0001eaf744","665500ab8938657b03fbdba8","665781c06b35f257ed77ec13","373","stimuli/11110100.jpg"," ","","feedback_trial","1","","","","","","","","","","","","","","","","","","","","",""
"","","","","","image-keyboard-response","104","323647","0.0-79.0","5a188836087f2e0001eaf744","665500ab8938657b03fbdba8","665781c06b35f257ed77ec13","1050","stimuli/0001011.jpg","0","","prediction_trial","0","","true","","0","true","true","true","true","true","true","[0]","001","011","1","","","","","","",""
"","","","","","image-keyboard-response","105","324081","0.0-80.0","5a188836087f2e0001eaf744","665500ab8938657b03fbdba8","665781c06b35f257ed77ec13","434","stimuli/00010110.jpg"," ","","feedback_trial","0","","","","","","","","","","","","","","","","","","","","",""
"","","","","","image-keyboard-response","106","325989","0.0-81.0","5a188836087f2e0001eaf744","665500ab8938657b03fbdba8","665781c06b35f257ed77ec13","1907","stimuli/1011001.jpg","1","","prediction_trial","1","","true","","1","true","true","false","false","false","false","[1,2]","011","001","1","","","","","","",""
"","","","","","image-keyboard-response","107","326511","0.0-82.0","5a188836087f2e0001eaf744","665500ab8938657b03fbdba8","665781c06b35f257ed77ec13","522","stimuli/10110011.jpg"," ","","feedback_trial","1","","","","","","","","","","","","","","","","","","","","",""
"","","","","","image-keyboard-response","108","328690","0.0-83.0","5a188836087f2e0001eaf744","665500ab8938657b03fbdba8","665781c06b35f257ed77ec13","2178","stimuli/1010011.jpg","1","","prediction_trial","1","","true","","1","false","false","false","true","false","false","[1]","010","011","1","","","","","","",""
"","","","","","image-keyboard-response","109","329280","0.0-84.0","5a188836087f2e0001eaf744","665500ab8938657b03fbdba8","665781c06b35f257ed77ec13","589","stimuli/10100111.jpg"," ","","feedback_trial","1","","","","","","","","","","","","","","","","","","","","",""
"","","","","","image-keyboard-response","110","330145","0.0-85.0","5a188836087f2e0001eaf744","665500ab8938657b03fbdba8","665781c06b35f257ed77ec13","864","stimuli/1000100.jpg","1","","prediction_trial","1","","true","","1","true","true","true","true","true","true","[1]","000","100","1","","","","","","",""
"","","","","","image-keyboard-response","111","330530","0.0-86.0","5a188836087f2e0001eaf744","665500ab8938657b03fbdba8","665781c06b35f257ed77ec13","384","stimuli/10001001.jpg"," ","","feedback_trial","1","","","","","","","","","","","","","","","","","","","","",""
"","","","","","image-keyboard-response","112","331234","0.0-87.0","5a188836087f2e0001eaf744","665500ab8938657b03fbdba8","665781c06b35f257ed77ec13","703","stimuli/2011010.jpg","2","","prediction_trial","1","","false","","2","true","true","false","false","false","false","[2,1]","011","010","0","","","","","","",""
"","","","","","image-keyboard-response","113","333353","0.0-88.0","5a188836087f2e0001eaf744","665500ab8938657b03fbdba8","665781c06b35f257ed77ec13","2118","stimuli/20110101.jpg"," ","","feedback_trial","2","","","","","","","","","","","","","","","","","","","","",""
"","","","","","image-keyboard-response","114","335482","0.0-89.0","5a188836087f2e0001eaf744","665500ab8938657b03fbdba8","665781c06b35f257ed77ec13","2128","stimuli/0111001.jpg","2","","prediction_trial","0","","false","","0","true","true","false","false","false","false","[2,0,1]","111","001","0","","","","","","",""
"","","","","","image-keyboard-response","115","335934","0.0-90.0","5a188836087f2e0001eaf744","665500ab8938657b03fbdba8","665781c06b35f257ed77ec13","452","stimuli/01110010.jpg"," ","","feedback_trial","2","","","","","","","","","","","","","","","","","","","","",""
"","","","","","image-keyboard-response","116","336477","0.0-91.0","5a188836087f2e0001eaf744","665500ab8938657b03fbdba8","665781c06b35f257ed77ec13","542","stimuli/2010010.jpg","2","","prediction_trial","2","","true","","2","true","true","true","true","true","true","[2]","010","010","1","","","","","","",""
"","","","","","image-keyboard-response","117","336940","0.0-92.0","5a188836087f2e0001eaf744","665500ab8938657b03fbdba8","665781c06b35f257ed77ec13","462","stimuli/20100102.jpg"," ","","feedback_trial","2","","","","","","","","","","","","","","","","","","","","",""
"","","","","","image-keyboard-response","118","337451","0.0-93.0","5a188836087f2e0001eaf744","665500ab8938657b03fbdba8","665781c06b35f257ed77ec13","510","stimuli/2000110.jpg","2","","prediction_trial","2","","true","","2","true","true","true","true","true","true","[2]","000","110","1","","","","","","",""
"","","","","","image-keyboard-response","119","337830","0.0-94.0","5a188836087f2e0001eaf744","665500ab8938657b03fbdba8","665781c06b35f257ed77ec13","378","stimuli/20001102.jpg"," ","","feedback_trial","2","","","","","","","","","","","","","","","","","","","","",""
"","","","","","image-keyboard-response","120","340088","0.0-95.0","5a188836087f2e0001eaf744","665500ab8938657b03fbdba8","665781c06b35f257ed77ec13","2257","stimuli/0111010.jpg","1","","prediction_trial","2","","false","","0","true","true","false","false","false","false","[1,0,2]","111","010","0","","","","","","",""
"","","","","","image-keyboard-response","121","341656","0.0-96.0","5a188836087f2e0001eaf744","665500ab8938657b03fbdba8","665781c06b35f257ed77ec13","1568","stimuli/01110102.jpg"," ","","feedback_trial","1","","","","","","","","","","","","","","","","","","","","",""
"","","","","","image-keyboard-response","122","342440","0.0-97.0","5a188836087f2e0001eaf744","665500ab8938657b03fbdba8","665781c06b35f257ed77ec13","783","stimuli/0000010.jpg","0","","prediction_trial","0","","true","","0","true","true","true","true","true","true","[0]","000","010","1","","","","","","",""
"","","","","","image-keyboard-response","123","342870","0.0-98.0","5a188836087f2e0001eaf744","665500ab8938657b03fbdba8","665781c06b35f257ed77ec13","430","stimuli/00000100.jpg"," ","","feedback_trial","0","","","","","","","","","","","","","","","","","","","","",""
"","","","","","image-keyboard-response","124","345560","0.0-99.0","5a188836087f2e0001eaf744","665500ab8938657b03fbdba8","665781c06b35f257ed77ec13","2688","stimuli/1010001.jpg","1","","prediction_trial","1","","true","","1","true","true","false","true","false","true","[1]","010","001","1","","","","","","",""
"","","","","","image-keyboard-response","125","345937","0.0-100.0","5a188836087f2e0001eaf744","665500ab8938657b03fbdba8","665781c06b35f257ed77ec13","377","stimuli/10100011.jpg"," ","","feedback_trial","1","","","","","","","","","","","","","","","","","","","","",""
"","","","","","image-keyboard-response","126","348111","0.0-101.0","5a188836087f2e0001eaf744","665500ab8938657b03fbdba8","665781c06b35f257ed77ec13","2174","stimuli/1111001.jpg","1","","prediction_trial","1","","true","","1","true","true","false","false","false","false","[0,2,1]","111","001","1","","","","","","",""
"","","","","","image-keyboard-response","127","348635","0.0-102.0","5a188836087f2e0001eaf744","665500ab8938657b03fbdba8","665781c06b35f257ed77ec13","523","stimuli/11110011.jpg"," ","","feedback_trial","0","","","","","","","","","","","","","","","","","","","","",""
"","","","","","image-keyboard-response","128","350850","0.0-103.0","5a188836087f2e0001eaf744","665500ab8938657b03fbdba8","665781c06b35f257ed77ec13","2215","stimuli/2101100.jpg","0","","prediction_trial","2","","false","","2","true","true","false","false","false","false","[0,2]","101","100","0","","","","","","",""
"","","","","","image-keyboard-response","129","351696","0.0-104.0","5a188836087f2e0001eaf744","665500ab8938657b03fbdba8","665781c06b35f257ed77ec13","845","stimuli/21011002.jpg"," ","","feedback_trial","0","","","","","","","","","","","","","","","","","","","","",""
"","","","","","image-keyboard-response","130","352388","0.0-105.0","5a188836087f2e0001eaf744","665500ab8938657b03fbdba8","665781c06b35f257ed77ec13","691","stimuli/2000100.jpg","2","","prediction_trial","2","","true","","2","true","true","true","true","true","true","[2]","000","100","1","","","","","","",""
"","","","","","image-keyboard-response","131","352791","0.0-106.0","5a188836087f2e0001eaf744","665500ab8938657b03fbdba8","665781c06b35f257ed77ec13","402","stimuli/20001002.jpg"," ","","feedback_trial","2","","","","","","","","","","","","","","","","","","","","",""
"","","","","","image-keyboard-response","132","354534","0.0-107.0","5a188836087f2e0001eaf744","665500ab8938657b03fbdba8","665781c06b35f257ed77ec13","1742","stimuli/1010000.jpg","1","","prediction_trial","1","","true","","1","true","true","false","true","false","true","[1]","010","000","1","","","","","","",""
"","","","","","image-keyboard-response","133","354916","0.0-108.0","5a188836087f2e0001eaf744","665500ab8938657b03fbdba8","665781c06b35f257ed77ec13","382","stimuli/10100001.jpg"," ","","feedback_trial","1","","","","","","","","","","","","","","","","","","","","",""
"","","","","","image-keyboard-response","134","356074","0.0-109.0","5a188836087f2e0001eaf744","665500ab8938657b03fbdba8","665781c06b35f257ed77ec13","1157","stimuli/2011111.jpg","2","","prediction_trial","2","","true","","2","false","false","false","false","false","false","[1,2]","011","111","1","","","","","","",""
"","","","","","image-keyboard-response","135","356743","0.0-110.0","5a188836087f2e0001eaf744","665500ab8938657b03fbdba8","665781c06b35f257ed77ec13","668","stimuli/20111112.jpg"," ","","feedback_trial","1","","","","","","","","","","","","","","","","","","","","",""
"","","","","","image-keyboard-response","136","357603","0.0-111.0","5a188836087f2e0001eaf744","665500ab8938657b03fbdba8","665781c06b35f257ed77ec13","859","stimuli/0010110.jpg","1","","prediction_trial","0","","false","","0","false","false","true","true","false","false","[0]","010","110","0","","","","","","",""
"","","","","","image-keyboard-response","137","358364","0.0-112.0","5a188836087f2e0001eaf744","665500ab8938657b03fbdba8","665781c06b35f257ed77ec13","761","stimuli/00101100.jpg"," ","","feedback_trial","0","","","","","","","","","","","","","","","","","","","","",""
"","","","","","image-keyboard-response","138","362075","0.0-113.0","5a188836087f2e0001eaf744","665500ab8938657b03fbdba8","665781c06b35f257ed77ec13","3710","stimuli/2111111.jpg","2","","prediction_trial","0","","false","","2","false","false","false","false","false","false","[1,2,0]","111","111","0","","","","","","",""
"","","","","","image-keyboard-response","139","362627","0.0-114.0","5a188836087f2e0001eaf744","665500ab8938657b03fbdba8","665781c06b35f257ed77ec13","552","stimuli/21111110.jpg"," ","","feedback_trial","1","","","","","","","","","","","","","","","","","","","","",""
"","","","","","image-keyboard-response","140","363378","0.0-115.0","5a188836087f2e0001eaf744","665500ab8938657b03fbdba8","665781c06b35f257ed77ec13","750","stimuli/1001100.jpg","1","","prediction_trial","1","","true","","1","true","true","true","true","true","true","[1]","001","100","1","","","","","","",""
"","","","","","image-keyboard-response","141","363730","0.0-116.0","5a188836087f2e0001eaf744","665500ab8938657b03fbdba8","665781c06b35f257ed77ec13","352","stimuli/10011001.jpg"," ","","feedback_trial","1","","","","","","","","","","","","","","","","","","","","",""
"","","","","","image-keyboard-response","142","364855","0.0-117.0","5a188836087f2e0001eaf744","665500ab8938657b03fbdba8","665781c06b35f257ed77ec13","1125","stimuli/1110101.jpg","0","","prediction_trial","1","","false","","1","true","true","false","false","false","false","[0,1]","110","101","0","","","","","","",""
"","","","","","image-keyboard-response","143","365960","0.0-118.0","5a188836087f2e0001eaf744","665500ab8938657b03fbdba8","665781c06b35f257ed77ec13","1105","stimuli/11101011.jpg"," ","","feedback_trial","0","","","","","","","","","","","","","","","","","","","","",""
"","","","","","image-keyboard-response","144","367950","0.0-119.0","5a188836087f2e0001eaf744","665500ab8938657b03fbdba8","665781c06b35f257ed77ec13","1989","stimuli/2101000.jpg","0","","prediction_trial","0","","true","","2","true","true","false","false","false","false","[2,0]","101","000","1","","","","","","",""
"","","","","","image-keyboard-response","145","368517","0.0-120.0","5a188836087f2e0001eaf744","665500ab8938657b03fbdba8","665781c06b35f257ed77ec13","566","stimuli/21010000.jpg"," ","","feedback_trial","2","","","","","","","","","","","","","","","","","","","","",""
"","","","","","image-keyboard-response","146","369862","0.0-121.0","5a188836087f2e0001eaf744","665500ab8938657b03fbdba8","665781c06b35f257ed77ec13","1344","stimuli/1100001.jpg","1","","prediction_trial","1","","true","","1","true","true","true","true","true","true","[1]","100","001","1","","","","","","",""
"","","","","","image-keyboard-response","147","370256","0.0-122.0","5a188836087f2e0001eaf744","665500ab8938657b03fbdba8","665781c06b35f257ed77ec13","393","stimuli/11000011.jpg"," ","","feedback_trial","1","","","","","","","","","","","","","","","","","","","","",""
"","","","","","image-keyboard-response","148","370996","0.0-123.0","5a188836087f2e0001eaf744","665500ab8938657b03fbdba8","665781c06b35f257ed77ec13","740","stimuli/0011001.jpg","0","","prediction_trial","0","","true","","0","true","true","true","true","true","true","[0]","011","001","1","","","","","","",""
"","","","","","image-keyboard-response","149","371373","0.0-124.0","5a188836087f2e0001eaf744","665500ab8938657b03fbdba8","665781c06b35f257ed77ec13","376","stimuli/00110010.jpg"," ","","feedback_trial","0","","","","","","","","","","","","","","","","","","","","",""
"","","","","","image-keyboard-response","150","376133","0.0-125.0","5a188836087f2e0001eaf744","665500ab8938657b03fbdba8","665781c06b35f257ed77ec13","4759","stimuli/0111101.jpg","2","","prediction_trial","0","","false","","0","false","false","false","false","false","false","[2,0,1]","111","101","0","","","","","","",""
"","","","","","image-keyboard-response","151","376901","0.0-126.0","5a188836087f2e0001eaf744","665500ab8938657b03fbdba8","665781c06b35f257ed77ec13","767","stimuli/01111010.jpg"," ","","feedback_trial","2","","","","","","","","","","","","","","","","","","","","",""
"","","","","","image-keyboard-response","152","379004","0.0-127.0","5a188836087f2e0001eaf744","665500ab8938657b03fbdba8","665781c06b35f257ed77ec13","2103","stimuli/0110100.jpg","1","","prediction_trial","0","","false","","0","false","true","false","false","false","false","[1,0]","110","100","0","","","","","","",""
"","","","","","image-keyboard-response","153","379459","0.0-128.0","5a188836087f2e0001eaf744","665500ab8938657b03fbdba8","665781c06b35f257ed77ec13","454","stimuli/01101000.jpg"," ","","feedback_trial","1","","","","","","","","","","","","","","","","","","","","",""
"","","","","","image-keyboard-response","154","380986","0.0-129.0","5a188836087f2e0001eaf744","665500ab8938657b03fbdba8","665781c06b35f257ed77ec13","1526","stimuli/2001000.jpg","2","","prediction_trial","2","","true","","2","true","true","false","true","false","true","[2]","001","000","1","","","","","","",""
"","","","","","image-keyboard-response","155","381379","0.0-130.0","5a188836087f2e0001eaf744","665500ab8938657b03fbdba8","665781c06b35f257ed77ec13","393","stimuli/20010002.jpg"," ","","feedback_trial","2","","","","","","","","","","","","","","","","","","","","",""
"","","","","","image-keyboard-response","156","382738","0.0-131.0","5a188836087f2e0001eaf744","665500ab8938657b03fbdba8","665781c06b35f257ed77ec13","1358","stimuli/2010110.jpg","2","","prediction_trial","2","","true","","2","true","true","true","true","true","true","[2]","010","110","1","","","","","","",""
"","","","","","image-keyboard-response","157","383133","0.0-132.0","5a188836087f2e0001eaf744","665500ab8938657b03fbdba8","665781c06b35f257ed77ec13","394","stimuli/20101102.jpg"," ","","feedback_trial","2","","","","","","","","","","","","","","","","","","","","",""
"","","","","","image-keyboard-response","158","386233","0.0-133.0","5a188836087f2e0001eaf744","665500ab8938657b03fbdba8","665781c06b35f257ed77ec13","3099","stimuli/0111000.jpg","1","","prediction_trial","1","","true","","0","true","true","false","false","false","false","[1,0,2]","111","000","1","","","","","","",""
"","","","","","image-keyboard-response","159","387145","0.0-134.0","5a188836087f2e0001eaf744","665500ab8938657b03fbdba8","665781c06b35f257ed77ec13","912","stimuli/01110001.jpg"," ","","feedback_trial","1","","","","","","","","","","","","","","","","","","","","",""
"","","","","","image-keyboard-response","160","388023","0.0-135.0","5a188836087f2e0001eaf744","665500ab8938657b03fbdba8","665781c06b35f257ed77ec13","877","stimuli/1000001.jpg","1","","prediction_trial","1","","true","","1","true","true","true","true","true","true","[1]","000","001","1","","","","","","",""
"","","","","","image-keyboard-response","161","388395","0.0-136.0","5a188836087f2e0001eaf744","665500ab8938657b03fbdba8","665781c06b35f257ed77ec13","371","stimuli/10000011.jpg"," ","","feedback_trial","1","","","","","","","","","","","","","","","","","","","","",""
"","","","","","image-keyboard-response","162","389729","0.0-137.0","5a188836087f2e0001eaf744","665500ab8938657b03fbdba8","665781c06b35f257ed77ec13","1333","stimuli/1011011.jpg","1","","prediction_trial","1","","true","","1","false","false","false","false","false","false","[2,1]","011","011","1","","","","","","",""
"","","","","","image-keyboard-response","163","390204","0.0-138.0","5a188836087f2e0001eaf744","665500ab8938657b03fbdba8","665781c06b35f257ed77ec13","474","stimuli/10110111.jpg"," ","","feedback_trial","2","","","","","","","","","","","","","","","","","","","","",""
"","","","","","image-keyboard-response","164","391358","0.0-139.0","5a188836087f2e0001eaf744","665500ab8938657b03fbdba8","665781c06b35f257ed77ec13","1153","stimuli/1001111.jpg","1","","prediction_trial","1","","true","","1","false","false","true","true","false","false","[1]","001","111","1","","","","","","",""
"","","","","","image-keyboard-response","165","391811","0.0-140.0","5a188836087f2e0001eaf744","665500ab8938657b03fbdba8","665781c06b35f257ed77ec13","452","stimuli/10011111.jpg"," ","","feedback_trial","1","","","","","","","","","","","","","","","","","","","","",""
"","","","","","image-keyboard-response","166","394063","0.0-141.0","5a188836087f2e0001eaf744","665500ab8938657b03fbdba8","665781c06b35f257ed77ec13","2251","stimuli/1010111.jpg","2","","prediction_trial","1","","false","","1","false","false","false","true","false","false","[1]","010","111","0","","","","","","",""
"","","","","","image-keyboard-response","167","395627","0.0-142.0","5a188836087f2e0001eaf744","665500ab8938657b03fbdba8","665781c06b35f257ed77ec13","1564","stimuli/10101111.jpg"," ","","feedback_trial","1","","","","","","","","","","","","","","","","","","","","",""
"","","","","","image-keyboard-response","168","396948","0.0-143.0","5a188836087f2e0001eaf744","665500ab8938657b03fbdba8","665781c06b35f257ed77ec13","1320","stimuli/1100111.jpg","1","","prediction_trial","1","","true","","1","false","false","true","true","false","false","[1]","100","111","1","","","","","","",""
"","","","","","image-keyboard-response","169","397722","0.0-144.0","5a188836087f2e0001eaf744","665500ab8938657b03fbdba8","665781c06b35f257ed77ec13","774","stimuli/11001111.jpg"," ","","feedback_trial","1","","","","","","","","","","","","","","","","","","","","",""
"","","","","","image-keyboard-response","170","400447","0.0-145.0","5a188836087f2e0001eaf744","665500ab8938657b03fbdba8","665781c06b35f257ed77ec13","2724","stimuli/0101100.jpg","0","","prediction_trial","0","","true","","0","false","true","false","false","false","false","[2,0]","101","100","1","","","","","","",""
"","","","","","image-keyboard-response","171","400947","0.0-146.0","5a188836087f2e0001eaf744","665500ab8938657b03fbdba8","665781c06b35f257ed77ec13","499","stimuli/01011000.jpg"," ","","feedback_trial","2","","","","","","","","","","","","","","","","","","","","",""
"","","","","","image-keyboard-response","172","405723","0.0-147.0","5a188836087f2e0001eaf744","665500ab8938657b03fbdba8","665781c06b35f257ed77ec13","4776","stimuli/2010001.jpg","2","","prediction_trial","2","","true","","2","false","true","true","true","false","true","[2]","010","001","1","","","","","","",""
"","","","","","image-keyboard-response","173","406217","0.0-148.0","5a188836087f2e0001eaf744","665500ab8938657b03fbdba8","665781c06b35f257ed77ec13","493","stimuli/20100012.jpg"," ","","feedback_trial","2","","","","","","","","","","","","","","","","","","","","",""
"","","","","","image-keyboard-response","174","409751","0.0-149.0","5a188836087f2e0001eaf744","665500ab8938657b03fbdba8","665781c06b35f257ed77ec13","3533","stimuli/0110010.jpg","1","","prediction_trial","1","","true","","0","true","true","false","false","false","false","[0,1]","110","010","1","","","","","","",""
"","","","","","image-keyboard-response","175","410278","0.0-150.0","5a188836087f2e0001eaf744","665500ab8938657b03fbdba8","665781c06b35f257ed77ec13","527","stimuli/01100101.jpg"," ","","feedback_trial","0","","","","","","","","","","","","","","","","","","","","",""
"","","","","","image-keyboard-response","176","412014","0.0-151.0","5a188836087f2e0001eaf744","665500ab8938657b03fbdba8","665781c06b35f257ed77ec13","1736","stimuli/2100100.jpg","2","","prediction_trial","2","","true","","2","true","true","true","true","true","true","[2]","100","100","1","","","","","","",""
"","","","","","image-keyboard-response","177","412390","0.0-152.0","5a188836087f2e0001eaf744","665500ab8938657b03fbdba8","665781c06b35f257ed77ec13","375","stimuli/21001002.jpg"," ","","feedback_trial","2","","","","","","","","","","","","","","","","","","","","",""
"","","","","","image-keyboard-response","178","413604","0.0-153.0","5a188836087f2e0001eaf744","665500ab8938657b03fbdba8","665781c06b35f257ed77ec13","1213","stimuli/2111110.jpg","1","","prediction_trial","1","","true","","2","true","true","false","false","false","false","[1,2,0]","111","110","1","","","","","","",""
"","","","","","image-keyboard-response","179","414080","0.0-154.0","5a188836087f2e0001eaf744","665500ab8938657b03fbdba8","665781c06b35f257ed77ec13","476","stimuli/21111101.jpg"," ","","feedback_trial","1","","","","","","","","","","","","","","","","","","","","",""
"","","","","","image-keyboard-response","180","416599","0.0-155.0","5a188836087f2e0001eaf744","665500ab8938657b03fbdba8","665781c06b35f257ed77ec13","2518","stimuli/0110110.jpg","1","","prediction_trial","0","","false","","0","false","false","false","false","false","false","[0,1]","110","110","0","","","","","","",""
"","","","","","image-keyboard-response","181","417528","0.0-156.0","5a188836087f2e0001eaf744","665500ab8938657b03fbdba8","665781c06b35f257ed77ec13","928","stimuli/01101100.jpg"," ","","feedback_trial","0","","","","","","","","","","","","","","","","","","","","",""
"","","","","","image-keyboard-response","182","420420","0.0-157.0","5a188836087f2e0001eaf744","665500ab8938657b03fbdba8","665781c06b35f257ed77ec13","2891","stimuli/2100001.jpg","2","","prediction_trial","2","","true","","2","false","true","true","true","false","true","[2]","100","001","1","","","","","","",""
"","","","","","image-keyboard-response","183","420861","0.0-158.0","5a188836087f2e0001eaf744","665500ab8938657b03fbdba8","665781c06b35f257ed77ec13","440","stimuli/21000012.jpg"," ","","feedback_trial","2","","","","","","","","","","","","","","","","","","","","",""
"","","","","","image-keyboard-response","184","422634","0.0-159.0","5a188836087f2e0001eaf744","665500ab8938657b03fbdba8","665781c06b35f257ed77ec13","1772","stimuli/2000001.jpg","2","","prediction_trial","2","","true","","2","false","true","true","true","false","true","[2]","000","001","1","","","","","","",""
"","","","","","image-keyboard-response","185","423020","0.0-160.0","5a188836087f2e0001eaf744","665500ab8938657b03fbdba8","665781c06b35f257ed77ec13","385","stimuli/20000012.jpg"," ","","feedback_trial","2","","","","","","","","","","","","","","","","","","","","",""
"","","","","","image-keyboard-response","186","424390","0.0-161.0","5a188836087f2e0001eaf744","665500ab8938657b03fbdba8","665781c06b35f257ed77ec13","1369","stimuli/2111011.jpg","1","","prediction_trial","2","","false","","2","false","false","false","false","false","false","[1,2,0]","111","011","0","","","","","","",""
"","","","","","image-keyboard-response","187","424932","0.0-162.0","5a188836087f2e0001eaf744","665500ab8938657b03fbdba8","665781c06b35f257ed77ec13","542","stimuli/21110112.jpg"," ","","feedback_trial","1","","","","","","","","","","","","","","","","","","","","",""
"","","","","","image-keyboard-response","188","429075","0.0-163.0","5a188836087f2e0001eaf744","665500ab8938657b03fbdba8","665781c06b35f257ed77ec13","4142","stimuli/0010101.jpg","0","","prediction_trial","0","","true","","0","false","false","true","true","false","false","[0]","010","101","1","","","","","","",""
"","","","","","image-keyboard-response","189","429690","0.0-164.0","5a188836087f2e0001eaf744","665500ab8938657b03fbdba8","665781c06b35f257ed77ec13","615","stimuli/00101010.jpg"," ","","feedback_trial","0","","","","","","","","","","","","","","","","","","","","",""
"","","","","","image-keyboard-response","190","432838","0.0-165.0","5a188836087f2e0001eaf744","665500ab8938657b03fbdba8","665781c06b35f257ed77ec13","3147","stimuli/1100011.jpg","2","","prediction_trial","1","","false","","1","false","false","true","true","false","false","[1]","100","011","0","","","","","","",""
"","","","","","image-keyboard-response","191","433460","0.0-166.0","5a188836087f2e0001eaf744","665500ab8938657b03fbdba8","665781c06b35f257ed77ec13","622","stimuli/11000111.jpg"," ","","feedback_trial","1","","","","","","","","","","","","","","","","","","","","",""
"","","","","","image-keyboard-response","192","434175","0.0-167.0","5a188836087f2e0001eaf744","665500ab8938657b03fbdba8","665781c06b35f257ed77ec13","714","stimuli/1000000.jpg","1","","prediction_trial","1","","true","","1","true","true","true","true","true","true","[1]","000","000","1","","","","","","",""
"","","","","","image-keyboard-response","193","434578","0.0-168.0","5a188836087f2e0001eaf744","665500ab8938657b03fbdba8","665781c06b35f257ed77ec13","403","stimuli/10000001.jpg"," ","","feedback_trial","1","","","","","","","","","","","","","","","","","","","","",""
"","","","","","image-keyboard-response","194","436391","0.0-169.0","5a188836087f2e0001eaf744","665500ab8938657b03fbdba8","665781c06b35f257ed77ec13","1812","stimuli/2111100.jpg","1","","prediction_trial","1","","true","","2","true","true","false","false","false","false","[0,2,1]","111","100","1","","","","","","",""
"","","","","","image-keyboard-response","195","436844","0.0-170.0","5a188836087f2e0001eaf744","665500ab8938657b03fbdba8","665781c06b35f257ed77ec13","451","stimuli/21111001.jpg"," ","","feedback_trial","0","","","","","","","","","","","","","","","","","","","","",""
"","","","","","image-keyboard-response","196","438897","0.0-171.0","5a188836087f2e0001eaf744","665500ab8938657b03fbdba8","665781c06b35f257ed77ec13","2053","stimuli/0000001.jpg","0","","prediction_trial","0","","true","","0","true","true","true","true","true","true","[0]","000","001","1","","","","","","",""
"","","","","","image-keyboard-response","197","439212","0.0-172.0","5a188836087f2e0001eaf744","665500ab8938657b03fbdba8","665781c06b35f257ed77ec13","314","stimuli/00000010.jpg"," ","","feedback_trial","0","","","","","","","","","","","","","","","","","","","","",""
"","","","","","image-keyboard-response","198","440289","0.0-173.0","5a188836087f2e0001eaf744","665500ab8938657b03fbdba8","665781c06b35f257ed77ec13","1076","stimuli/2110100.jpg","1","","prediction_trial","2","","false","","2","true","true","true","true","true","true","[2]","110","100","0","","","","","","",""
"","","","","","image-keyboard-response","199","440793","0.0-174.0","5a188836087f2e0001eaf744","665500ab8938657b03fbdba8","665781c06b35f257ed77ec13","504","stimuli/21101002.jpg"," ","","feedback_trial","2","","","","","","","","","","","","","","","","","","","","",""
"","","","","","image-keyboard-response","200","441576","0.0-175.0","5a188836087f2e0001eaf744","665500ab8938657b03fbdba8","665781c06b35f257ed77ec13","782","stimuli/2011011.jpg","1","","prediction_trial","1","","true","","2","false","false","false","false","false","false","[1,2]","011","011","1","","","","","","",""
"","","","","","image-keyboard-response","201","441950","0.0-176.0","5a188836087f2e0001eaf744","665500ab8938657b03fbdba8","665781c06b35f257ed77ec13","374","stimuli/20110111.jpg"," ","","feedback_trial","1","","","","","","","","","","","","","","","","","","","","",""
"","","","","","image-keyboard-response","202","442851","0.0-177.0","5a188836087f2e0001eaf744","665500ab8938657b03fbdba8","665781c06b35f257ed77ec13","901","stimuli/0100001.jpg","0","","prediction_trial","0","","true","","0","true","true","false","true","false","true","[0]","100","001","1","","","","","","",""
"","","","","","image-keyboard-response","203","443304","0.0-178.0","5a188836087f2e0001eaf744","665500ab8938657b03fbdba8","665781c06b35f257ed77ec13","452","stimuli/01000010.jpg"," ","","feedback_trial","0","","","","","","","","","","","","","","","","","","","","",""
"","","","","","image-keyboard-response","204","444500","0.0-179.0","5a188836087f2e0001eaf744","665500ab8938657b03fbdba8","665781c06b35f257ed77ec13","1195","stimuli/1111110.jpg","1","","prediction_trial","0","","false","","1","false","false","false","false","false","false","[1,2,0]","111","110","0","","","","","","",""
"","","","","","image-keyboard-response","205","447505","0.0-180.0","5a188836087f2e0001eaf744","665500ab8938657b03fbdba8","665781c06b35f257ed77ec13","3005","stimuli/11111100.jpg"," ","","feedback_trial","1","","","","","","","","","","","","","","","","","","","","",""
"","","","","","image-keyboard-response","206","449469","0.0-181.0","5a188836087f2e0001eaf744","665500ab8938657b03fbdba8","665781c06b35f257ed77ec13","1963","stimuli/1110000.jpg","1","","prediction_trial","1","","true","","1","true","true","false","false","false","false","[0,1]","110","000","1","","","","","","",""
"","","","","","image-keyboard-response","207","449982","0.0-182.0","5a188836087f2e0001eaf744","665500ab8938657b03fbdba8","665781c06b35f257ed77ec13","513","stimuli/11100001.jpg"," ","","feedback_trial","0","","","","","","","","","","","","","","","","","","","","",""
"","","","","","image-keyboard-response","208","451138","0.0-183.0","5a188836087f2e0001eaf744","665500ab8938657b03fbdba8","665781c06b35f257ed77ec13","1155","stimuli/1101000.jpg","1","","prediction_trial","1","","true","","1","true","true","true","true","true","true","[1]","101","000","1","","","","","","",""
"","","","","","image-keyboard-response","209","451511","0.0-184.0","5a188836087f2e0001eaf744","665500ab8938657b03fbdba8","665781c06b35f257ed77ec13","373","stimuli/11010001.jpg"," ","","feedback_trial","1","","","","","","","","","","","","","","","","","","","","",""
"","","","","","image-keyboard-response","210","452842","0.0-185.0","5a188836087f2e0001eaf744","665500ab8938657b03fbdba8","665781c06b35f257ed77ec13","1330","stimuli/2111101.jpg","1","","prediction_trial","2","","false","","2","false","false","false","false","false","false","[0,1,2]","111","101","0","","","","","","",""
"","","","","","image-keyboard-response","211","453340","0.0-186.0","5a188836087f2e0001eaf744","665500ab8938657b03fbdba8","665781c06b35f257ed77ec13","497","stimuli/21111012.jpg"," ","","feedback_trial","0","","","","","","","","","","","","","","","","","","","","",""
"","","","","","image-keyboard-response","212","454615","0.0-187.0","5a188836087f2e0001eaf744","665500ab8938657b03fbdba8","665781c06b35f257ed77ec13","1274","stimuli/2010000.jpg","2","","prediction_trial","2","","true","","2","true","true","true","true","true","true","[2]","010","000","1","","","","","","",""
"","","","","","image-keyboard-response","213","454971","0.0-188.0","5a188836087f2e0001eaf744","665500ab8938657b03fbdba8","665781c06b35f257ed77ec13","355","stimuli/20100002.jpg"," ","","feedback_trial","2","","","","","","","","","","","","","","","","","","","","",""
"","","","","","image-keyboard-response","214","457629","0.0-189.0","5a188836087f2e0001eaf744","665500ab8938657b03fbdba8","665781c06b35f257ed77ec13","2657","stimuli/1101110.jpg","0","","prediction_trial","1","","false","","1","false","false","true","true","false","false","[1]","101","110","0","","","","","","",""
"","","","","","image-keyboard-response","215","458923","0.0-190.0","5a188836087f2e0001eaf744","665500ab8938657b03fbdba8","665781c06b35f257ed77ec13","1293","stimuli/11011101.jpg"," ","","feedback_trial","1","","","","","","","","","","","","","","","","","","","","",""
"","","","","","image-keyboard-response","216","462753","0.0-191.0","5a188836087f2e0001eaf744","665500ab8938657b03fbdba8","665781c06b35f257ed77ec13","3829","stimuli/1001010.jpg","1","","prediction_trial","1","","true","","1","false","true","true","true","false","true","[1]","001","010","1","","","","","","",""
"","","","","","image-keyboard-response","217","463214","0.0-192.0","5a188836087f2e0001eaf744","665500ab8938657b03fbdba8","665781c06b35f257ed77ec13","461","stimuli/10010101.jpg"," ","","feedback_trial","1","","","","","","","","","","","","","","","","","","","","",""
"","","","","","image-keyboard-response","218","464304","0.0-193.0","5a188836087f2e0001eaf744","665500ab8938657b03fbdba8","665781c06b35f257ed77ec13","1088","stimuli/2111001.jpg","1","","prediction_trial","2","","false","","2","false","true","false","false","false","false","[2,0,1]","111","001","0","","","","","","",""
"","","","","","image-keyboard-response","219","465116","0.0-194.0","5a188836087f2e0001eaf744","665500ab8938657b03fbdba8","665781c06b35f257ed77ec13","811","stimuli/21110012.jpg"," ","","feedback_trial","2","","","","","","","","","","","","","","","","","","","","",""
"","","","","","image-keyboard-response","220","467332","0.0-195.0","5a188836087f2e0001eaf744","665500ab8938657b03fbdba8","665781c06b35f257ed77ec13","2216","stimuli/2110001.jpg","2","","prediction_trial","2","","true","","2","false","true","true","true","false","true","[2]","110","001","1","","","","","","",""
"","","","","","image-keyboard-response","221","468038","0.0-196.0","5a188836087f2e0001eaf744","665500ab8938657b03fbdba8","665781c06b35f257ed77ec13","705","stimuli/21100012.jpg"," ","","feedback_trial","2","","","","","","","","","","","","","","","","","","","","",""
"","","","","","image-keyboard-response","222","469449","0.0-197.0","5a188836087f2e0001eaf744","665500ab8938657b03fbdba8","665781c06b35f257ed77ec13","1411","stimuli/0101001.jpg","0","","prediction_trial","0","","true","","0","true","true","false","false","false","false","[2,0]","101","001","1","","","","","","",""
"","","","","","image-keyboard-response","223","470112","0.0-198.0","5a188836087f2e0001eaf744","665500ab8938657b03fbdba8","665781c06b35f257ed77ec13","662","stimuli/01010010.jpg"," ","","feedback_trial","2","","","","","","","","","","","","","","","","","","","","",""
"","","","","","image-keyboard-response","224","471200","0.0-199.0","5a188836087f2e0001eaf744","665500ab8938657b03fbdba8","665781c06b35f257ed77ec13","1088","stimuli/0100111.jpg","1","","prediction_trial","0","","false","","0","false","false","false","true","false","false","[0]","100","111","0","","","","","","",""
"","","","","","image-keyboard-response","225","471786","0.0-200.0","5a188836087f2e0001eaf744","665500ab8938657b03fbdba8","665781c06b35f257ed77ec13","585","stimuli/01001110.jpg"," ","","feedback_trial","0","","","","","","","","","","","","","","","","","","","","",""
"","","","","","image-keyboard-response","226","472716","0.0-201.0","5a188836087f2e0001eaf744","665500ab8938657b03fbdba8","665781c06b35f257ed77ec13","929","stimuli/1110001.jpg","0","","prediction_trial","0","","true","","1","true","true","false","false","false","false","[1,0]","110","001","1","","","","","","",""
"","","","","","image-keyboard-response","227","473131","0.0-202.0","5a188836087f2e0001eaf744","665500ab8938657b03fbdba8","665781c06b35f257ed77ec13","414","stimuli/11100010.jpg"," ","","feedback_trial","1","","","","","","","","","","","","","","","","","","","","",""
"","","","","","image-keyboard-response","228","473777","0.0-203.0","5a188836087f2e0001eaf744","665500ab8938657b03fbdba8","665781c06b35f257ed77ec13","645","stimuli/1001000.jpg","1","","prediction_trial","1","","true","","1","true","true","true","true","true","true","[1]","001","000","1","","","","","","",""
"","","","","","image-keyboard-response","229","474203","0.0-204.0","5a188836087f2e0001eaf744","665500ab8938657b03fbdba8","665781c06b35f257ed77ec13","425","stimuli/10010001.jpg"," ","","feedback_trial","1","","","","","","","","","","","","","","","","","","","","",""
"","","","","","image-keyboard-response","230","476488","0.0-205.0","5a188836087f2e0001eaf744","665500ab8938657b03fbdba8","665781c06b35f257ed77ec13","2284","stimuli/0100110.jpg","0","","prediction_trial","0","","true","","0","false","false","false","true","false","false","[0]","100","110","1","","","","","","",""
"","","","","","image-keyboard-response","231","476962","0.0-206.0","5a188836087f2e0001eaf744","665500ab8938657b03fbdba8","665781c06b35f257ed77ec13","473","stimuli/01001100.jpg"," ","","feedback_trial","0","","","","","","","","","","","","","","","","","","","","",""
"","","","","","image-keyboard-response","232","477742","0.0-207.0","5a188836087f2e0001eaf744","665500ab8938657b03fbdba8","665781c06b35f257ed77ec13","780","stimuli/2100010.jpg","2","","prediction_trial","2","","true","","2","true","true","true","true","true","true","[2]","100","010","1","","","","","","",""
"","","","","","image-keyboard-response","233","478114","0.0-208.0","5a188836087f2e0001eaf744","665500ab8938657b03fbdba8","665781c06b35f257ed77ec13","371","stimuli/21000102.jpg"," ","","feedback_trial","2","","","","","","","","","","","","","","","","","","","","",""
"","","","","","image-keyboard-response","234","480739","0.0-209.0","5a188836087f2e0001eaf744","665500ab8938657b03fbdba8","665781c06b35f257ed77ec13","2625","stimuli/0111110.jpg","1","","prediction_trial","1","","true","","0","false","false","false","false","false","false","[1,2,0]","111","110","1","","","","","","",""
"","","","","","image-keyboard-response","235","481140","0.0-210.0","5a188836087f2e0001eaf744","665500ab8938657b03fbdba8","665781c06b35f257ed77ec13","400","stimuli/01111101.jpg"," ","","feedback_trial","1","","","","","","","","","","","","","","","","","","","","",""
"","","","","","image-keyboard-response","236","484527","0.0-211.0","5a188836087f2e0001eaf744","665500ab8938657b03fbdba8","665781c06b35f257ed77ec13","3386","stimuli/1001011.jpg","2","","prediction_trial","1","","false","","1","false","false","true","true","false","false","[1]","001","011","0","","","","","","",""
"","","","","","image-keyboard-response","237","485400","0.0-212.0","5a188836087f2e0001eaf744","665500ab8938657b03fbdba8","665781c06b35f257ed77ec13","872","stimuli/10010111.jpg"," ","","feedback_trial","1","","","","","","","","","","","","","","","","","","","","",""
"","","","","","image-keyboard-response","238","486408","0.0-213.0","5a188836087f2e0001eaf744","665500ab8938657b03fbdba8","665781c06b35f257ed77ec13","1007","stimuli/1010100.jpg","1","","prediction_trial","1","","true","","1","true","true","false","true","false","true","[1]","010","100","1","","","","","","",""
"","","","","","image-keyboard-response","239","486760","0.0-214.0","5a188836087f2e0001eaf744","665500ab8938657b03fbdba8","665781c06b35f257ed77ec13","351","stimuli/10101001.jpg"," ","","feedback_trial","1","","","","","","","","","","","","","","","","","","","","",""
"","","","","","image-keyboard-response","240","487317","0.0-215.0","5a188836087f2e0001eaf744","665500ab8938657b03fbdba8","665781c06b35f257ed77ec13","557","stimuli/0110001.jpg","0","","prediction_trial","0","","true","","0","true","true","false","false","false","false","[1,0]","110","001","1","","","","","","",""
"","","","","","image-keyboard-response","241","487695","0.0-216.0","5a188836087f2e0001eaf744","665500ab8938657b03fbdba8","665781c06b35f257ed77ec13","378","stimuli/01100010.jpg"," ","","feedback_trial","1","","","","","","","","","","","","","","","","","","","","",""
"","","","","","image-keyboard-response","242","488186","0.0-217.0","5a188836087f2e0001eaf744","665500ab8938657b03fbdba8","665781c06b35f257ed77ec13","490","stimuli/1110010.jpg","1","","prediction_trial","1","","true","","1","false","true","false","false","false","false","[0,1]","110","010","1","","","","","","",""
"","","","","","image-keyboard-response","243","488610","0.0-218.0","5a188836087f2e0001eaf744","665500ab8938657b03fbdba8","665781c06b35f257ed77ec13","423","stimuli/11100101.jpg"," ","","feedback_trial","0","","","","","","","","","","","","","","","","","","","","",""
"","","","","","image-keyboard-response","244","489425","0.0-219.0","5a188836087f2e0001eaf744","665500ab8938657b03fbdba8","665781c06b35f257ed77ec13","814","stimuli/1100101.jpg","1","","prediction_trial","1","","true","","1","true","true","true","true","true","true","[1]","100","101","1","","","","","","",""
"","","","","","image-keyboard-response","245","489733","0.0-220.0","5a188836087f2e0001eaf744","665500ab8938657b03fbdba8","665781c06b35f257ed77ec13","307","stimuli/11001011.jpg"," ","","feedback_trial","1","","","","","","","","","","","","","","","","","","","","",""
"","","","","","image-keyboard-response","246","492198","0.0-221.0","5a188836087f2e0001eaf744","665500ab8938657b03fbdba8","665781c06b35f257ed77ec13","2464","stimuli/1011010.jpg","1","","prediction_trial","2","","false","","1","false","true","false","false","false","false","[1,2]","011","010","0","","","","","","",""
"","","","","","image-keyboard-response","247","492609","0.0-222.0","5a188836087f2e0001eaf744","665500ab8938657b03fbdba8","665781c06b35f257ed77ec13","410","stimuli/10110102.jpg"," ","","feedback_trial","1","","","","","","","","","","","","","","","","","","","","",""
"","","","","","image-keyboard-response","248","495383","0.0-223.0","5a188836087f2e0001eaf744","665500ab8938657b03fbdba8","665781c06b35f257ed77ec13","2773","stimuli/0001100.jpg","0","","prediction_trial","0","","true","","0","false","true","true","true","false","true","[0]","001","100","1","","","","","","",""
"","","","","","image-keyboard-response","249","495838","0.0-224.0","5a188836087f2e0001eaf744","665500ab8938657b03fbdba8","665781c06b35f257ed77ec13","455","stimuli/00011000.jpg"," ","","feedback_trial","0","","","","","","","","","","","","","","","","","","","","",""
"","","","","","image-keyboard-response","250","498258","0.0-225.0","5a188836087f2e0001eaf744","665500ab8938657b03fbdba8","665781c06b35f257ed77ec13","2419","stimuli/2000011.jpg","2","","prediction_trial","2","","true","","2","false","false","true","true","false","false","[2]","000","011","1","","","","","","",""
"","","","","","image-keyboard-response","251","498919","0.0-226.0","5a188836087f2e0001eaf744","665500ab8938657b03fbdba8","665781c06b35f257ed77ec13","660","stimuli/20000112.jpg"," ","","feedback_trial","2","","","","","","","","","","","","","","","","","","","","",""
"","","","","","image-keyboard-response","252","500602","0.0-227.0","5a188836087f2e0001eaf744","665500ab8938657b03fbdba8","665781c06b35f257ed77ec13","1682","stimuli/1011000.jpg","1","","prediction_trial","1","","true","","1","true","true","false","false","false","false","[1,2]","011","000","1","","","","","","",""
"","","","","","image-keyboard-response","253","500988","0.0-228.0","5a188836087f2e0001eaf744","665500ab8938657b03fbdba8","665781c06b35f257ed77ec13","386","stimuli/10110001.jpg"," ","","feedback_trial","1","","","","","","","","","","","","","","","","","","","","",""
"","","","","","image-keyboard-response","254","503572","0.0-229.0","5a188836087f2e0001eaf744","665500ab8938657b03fbdba8","665781c06b35f257ed77ec13","2583","stimuli/0001000.jpg","0","","prediction_trial","0","","true","","0","true","true","true","true","true","true","[0]","001","000","1","","","","","","",""
"","","","","","image-keyboard-response","255","503923","0.0-230.0","5a188836087f2e0001eaf744","665500ab8938657b03fbdba8","665781c06b35f257ed77ec13","351","stimuli/00010000.jpg"," ","","feedback_trial","0","","","","","","","","","","","","","","","","","","","","",""
"","","","","","image-keyboard-response","256","507318","0.0-231.0","5a188836087f2e0001eaf744","665500ab8938657b03fbdba8","665781c06b35f257ed77ec13","3395","stimuli/1100010.jpg","1","","prediction_trial","1","","true","","1","false","true","true","true","false","true","[1]","100","010","1","","","","","","",""
"","","","","","image-keyboard-response","257","507634","0.0-232.0","5a188836087f2e0001eaf744","665500ab8938657b03fbdba8","665781c06b35f257ed77ec13","315","stimuli/11000101.jpg"," ","","feedback_trial","1","","","","","","","","","","","","","","","","","","","","",""
"","","","","","image-keyboard-response","258","509301","0.0-233.0","5a188836087f2e0001eaf744","665500ab8938657b03fbdba8","665781c06b35f257ed77ec13","1667","stimuli/1101010.jpg","1","","prediction_trial","1","","true","","1","false","true","true","true","false","true","[1]","101","010","1","","","","","","",""
"","","","","","image-keyboard-response","259","509947","0.0-234.0","5a188836087f2e0001eaf744","665500ab8938657b03fbdba8","665781c06b35f257ed77ec13","645","stimuli/11010101.jpg"," ","","feedback_trial","1","","","","","","","","","","","","","","","","","","","","",""
"","","","","","image-keyboard-response","260","512151","0.0-235.0","5a188836087f2e0001eaf744","665500ab8938657b03fbdba8","665781c06b35f257ed77ec13","2203","stimuli/0110011.jpg","1","","prediction_trial","0","","false","","0","true","true","false","false","false","false","[0,1]","110","011","0","","","","","","",""
"","","","","","image-keyboard-response","261","512684","0.0-236.0","5a188836087f2e0001eaf744","665500ab8938657b03fbdba8","665781c06b35f257ed77ec13","532","stimuli/01100110.jpg"," ","","feedback_trial","0","","","","","","","","","","","","","","","","","","","","",""
"","","","","","image-keyboard-response","262","514875","0.0-237.0","5a188836087f2e0001eaf744","665500ab8938657b03fbdba8","665781c06b35f257ed77ec13","2190","stimuli/1010101.jpg","2","","prediction_trial","1","","false","","1","true","true","false","true","false","true","[1]","010","101","0","","","","","","",""
"","","","","","image-keyboard-response","263","515757","0.0-238.0","5a188836087f2e0001eaf744","665500ab8938657b03fbdba8","665781c06b35f257ed77ec13","881","stimuli/10101011.jpg"," ","","feedback_trial","1","","","","","","","","","","","","","","","","","","","","",""
"","","","","","image-keyboard-response","264","518670","0.0-239.0","5a188836087f2e0001eaf744","665500ab8938657b03fbdba8","665781c06b35f257ed77ec13","2913","stimuli/0100011.jpg","0","","prediction_trial","0","","true","","0","true","true","false","true","false","true","[0]","100","011","1","","","","","","",""
"","","","","","image-keyboard-response","265","519048","0.0-240.0","5a188836087f2e0001eaf744","665500ab8938657b03fbdba8","665781c06b35f257ed77ec13","377","stimuli/01000110.jpg"," ","","feedback_trial","0","","","","","","","","","","","","","","","","","","","","",""
"","","","","","image-keyboard-response","266","520591","0.0-241.0","5a188836087f2e0001eaf744","665500ab8938657b03fbdba8","665781c06b35f257ed77ec13","1542","stimuli/1001101.jpg","1","","prediction_trial","1","","true","","1","true","true","true","true","true","true","[1]","001","101","1","","","","","","",""
"","","","","","image-keyboard-response","267","520944","0.0-242.0","5a188836087f2e0001eaf744","665500ab8938657b03fbdba8","665781c06b35f257ed77ec13","352","stimuli/10011011.jpg"," ","","feedback_trial","1","","","","","","","","","","","","","","","","","","","","",""
"","","","","","image-keyboard-response","268","522368","0.0-243.0","5a188836087f2e0001eaf744","665500ab8938657b03fbdba8","665781c06b35f257ed77ec13","1424","stimuli/1011101.jpg","1","","prediction_trial","1","","true","","1","true","true","false","false","false","false","[2,1]","011","101","1","","","","","","",""
"","","","","","image-keyboard-response","269","522904","0.0-244.0","5a188836087f2e0001eaf744","665500ab8938657b03fbdba8","665781c06b35f257ed77ec13","535","stimuli/10111011.jpg"," ","","feedback_trial","2","","","","","","","","","","","","","","","","","","","","",""
"","","","","","image-keyboard-response","270","524685","0.0-245.0","5a188836087f2e0001eaf744","665500ab8938657b03fbdba8","665781c06b35f257ed77ec13","1780","stimuli/2110010.jpg","2","","prediction_trial","2","","true","","2","true","true","true","true","true","true","[2]","110","010","1","","","","","","",""
"","","","","","image-keyboard-response","271","525040","0.0-246.0","5a188836087f2e0001eaf744","665500ab8938657b03fbdba8","665781c06b35f257ed77ec13","354","stimuli/21100102.jpg"," ","","feedback_trial","2","","","","","","","","","","","","","","","","","","","","",""
"","","","","","image-keyboard-response","272","526255","0.0-247.0","5a188836087f2e0001eaf744","665500ab8938657b03fbdba8","665781c06b35f257ed77ec13","1214","stimuli/0100100.jpg","0","","prediction_trial","0","","true","","0","false","true","false","true","false","true","[0]","100","100","1","","","","","","",""
"","","","","","image-keyboard-response","273","526606","0.0-248.0","5a188836087f2e0001eaf744","665500ab8938657b03fbdba8","665781c06b35f257ed77ec13","351","stimuli/01001000.jpg"," ","","feedback_trial","0","","","","","","","","","","","","","","","","","","","","",""
"","","","","","image-keyboard-response","274","528931","0.0-249.0","5a188836087f2e0001eaf744","665500ab8938657b03fbdba8","665781c06b35f257ed77ec13","2324","stimuli/2000111.jpg","2","","prediction_trial","2","","true","","2","false","false","true","true","false","false","[2]","000","111","1","","","","","","",""
"","","","","","image-keyboard-response","275","529585","0.0-250.0","5a188836087f2e0001eaf744","665500ab8938657b03fbdba8","665781c06b35f257ed77ec13","654","stimuli/20001112.jpg"," ","","feedback_trial","2","","","","","","","","","","","","","","","","","","","","",""
"","","","","","image-keyboard-response","276","532077","0.0-251.0","5a188836087f2e0001eaf744","665500ab8938657b03fbdba8","665781c06b35f257ed77ec13","2492","stimuli/2001011.jpg","1","","prediction_trial","2","","false","","2","false","false","false","true","false","false","[2]","001","011","0","","","","","","",""
"","","","","","image-keyboard-response","277","532498","0.0-252.0","5a188836087f2e0001eaf744","665500ab8938657b03fbdba8","665781c06b35f257ed77ec13","421","stimuli/20010112.jpg"," ","","feedback_trial","2","","","","","","","","","","","","","","","","","","","","",""
"","","","","","image-keyboard-response","278","535241","0.0-253.0","5a188836087f2e0001eaf744","665500ab8938657b03fbdba8","665781c06b35f257ed77ec13","2742","stimuli/1001110.jpg","0","","prediction_trial","1","","false","","1","false","false","true","true","false","false","[1]","001","110","0","","","","","","",""
"","","","","","image-keyboard-response","279","535761","0.0-254.0","5a188836087f2e0001eaf744","665500ab8938657b03fbdba8","665781c06b35f257ed77ec13","520","stimuli/10011101.jpg"," ","","feedback_trial","1","","","","","","","","","","","","","","","","","","","","",""
"","","","","","image-keyboard-response","280","537264","0.0-255.0","5a188836087f2e0001eaf744","665500ab8938657b03fbdba8","665781c06b35f257ed77ec13","1502","stimuli/2110111.jpg","1","","prediction_trial","2","","false","","2","false","false","true","true","false","false","[2]","110","111","0","","","","","","",""
"","","","","","image-keyboard-response","281","537703","0.0-256.0","5a188836087f2e0001eaf744","665500ab8938657b03fbdba8","665781c06b35f257ed77ec13","437","stimuli/21101112.jpg"," ","","feedback_trial","2","","","","","","","","","","","","","","","","","","","","",""
"","","","","","image-keyboard-response","282","538518","0.0-257.0","5a188836087f2e0001eaf744","665500ab8938657b03fbdba8","665781c06b35f257ed77ec13","815","stimuli/2001110.jpg","0","","prediction_trial","2","","false","","2","true","true","false","true","false","true","[2]","001","110","0","","","","","","",""
"","","","","","image-keyboard-response","283","538992","0.0-258.0","5a188836087f2e0001eaf744","665500ab8938657b03fbdba8","665781c06b35f257ed77ec13","473","stimuli/20011102.jpg"," ","","feedback_trial","2","","","","","","","","","","","","","","","","","","","","",""
"","","","","","image-keyboard-response","284","540031","0.0-259.0","5a188836087f2e0001eaf744","665500ab8938657b03fbdba8","665781c06b35f257ed77ec13","1038","stimuli/2100011.jpg","2","","prediction_trial","2","","true","","2","false","false","true","true","false","false","[2]","100","011","1","","","","","","",""
"","","","","","image-keyboard-response","285","540632","0.0-260.0","5a188836087f2e0001eaf744","665500ab8938657b03fbdba8","665781c06b35f257ed77ec13","600","stimuli/21000112.jpg"," ","","feedback_trial","2","","","","","","","","","","","","","","","","","","","","",""
"","","","","","image-keyboard-response","286","543502","0.0-261.0","5a188836087f2e0001eaf744","665500ab8938657b03fbdba8","665781c06b35f257ed77ec13","2869","stimuli/2101110.jpg","0","","prediction_trial","2","","false","","2","true","true","false","false","false","false","[2,0]","101","110","0","","","","","","",""
"","","","","","image-keyboard-response","287","545998","0.0-262.0","5a188836087f2e0001eaf744","665500ab8938657b03fbdba8","665781c06b35f257ed77ec13","2496","stimuli/21011102.jpg"," ","","feedback_trial","2","","","","","","","","","","","","","","","","","","","","",""
"","","","","","image-keyboard-response","288","547239","0.0-263.0","5a188836087f2e0001eaf744","665500ab8938657b03fbdba8","665781c06b35f257ed77ec13","1240","stimuli/0011000.jpg","0","","prediction_trial","0","","true","","0","true","true","true","true","true","true","[0]","011","000","1","","","","","","",""
"","","","","","image-keyboard-response","289","547687","0.0-264.0","5a188836087f2e0001eaf744","665500ab8938657b03fbdba8","665781c06b35f257ed77ec13","448","stimuli/00110000.jpg"," ","","feedback_trial","0","","","","","","","","","","","","","","","","","","","","",""
"","","","","","image-keyboard-response","290","548874","0.0-265.0","5a188836087f2e0001eaf744","665500ab8938657b03fbdba8","665781c06b35f257ed77ec13","1186","stimuli/0111011.jpg","1","","prediction_trial","0","","false","","0","true","true","false","false","false","false","[0,1,2]","111","011","0","","","","","","",""
"","","","","","image-keyboard-response","291","549366","0.0-266.0","5a188836087f2e0001eaf744","665500ab8938657b03fbdba8","665781c06b35f257ed77ec13","491","stimuli/01110110.jpg"," ","","feedback_trial","0","","","","","","","","","","","","","","","","","","","","",""
"","","","","","image-keyboard-response","292","551266","0.0-267.0","5a188836087f2e0001eaf744","665500ab8938657b03fbdba8","665781c06b35f257ed77ec13","1899","stimuli/2011101.jpg","2","","prediction_trial","1","","false","","2","false","false","false","false","false","false","[1,2]","011","101","0","","","","","","",""
"","","","","","image-keyboard-response","293","551820","0.0-268.0","5a188836087f2e0001eaf744","665500ab8938657b03fbdba8","665781c06b35f257ed77ec13","553","stimuli/20111011.jpg"," ","","feedback_trial","1","","","","","","","","","","","","","","","","","","","","",""
"","","","","","image-keyboard-response","294","555133","0.0-269.0","5a188836087f2e0001eaf744","665500ab8938657b03fbdba8","665781c06b35f257ed77ec13","3313","stimuli/2001101.jpg","2","","prediction_trial","2","","true","","2","false","false","false","true","false","false","[2]","001","101","1","","","","","","",""
"","","","","","image-keyboard-response","295","555662","0.0-270.0","5a188836087f2e0001eaf744","665500ab8938657b03fbdba8","665781c06b35f257ed77ec13","529","stimuli/20011012.jpg"," ","","feedback_trial","2","","","","","","","","","","","","","","","","","","","","",""
"","","","","","image-keyboard-response","296","557533","0.0-271.0","5a188836087f2e0001eaf744","665500ab8938657b03fbdba8","665781c06b35f257ed77ec13","1870","stimuli/1000111.jpg","0","","prediction_trial","1","","false","","1","false","false","true","true","false","false","[1]","000","111","0","","","","","","",""
"","","","","","image-keyboard-response","297","558002","0.0-272.0","5a188836087f2e0001eaf744","665500ab8938657b03fbdba8","665781c06b35f257ed77ec13","469","stimuli/10001111.jpg"," ","","feedback_trial","1","","","","","","","","","","","","","","","","","","","","",""
"","","","","","image-keyboard-response","298","559594","0.0-273.0","5a188836087f2e0001eaf744","665500ab8938657b03fbdba8","665781c06b35f257ed77ec13","1591","stimuli/2101101.jpg","0","","prediction_trial","2","","false","","2","false","false","false","false","false","false","[0,2]","101","101","0","","","","","","",""
"","","","","","image-keyboard-response","299","560007","0.0-274.0","5a188836087f2e0001eaf744","665500ab8938657b03fbdba8","665781c06b35f257ed77ec13","412","stimuli/21011012.jpg"," ","","feedback_trial","0","","","","","","","","","","","","","","","","","","","","",""
"","","","","","image-keyboard-response","300","560894","0.0-275.0","5a188836087f2e0001eaf744","665500ab8938657b03fbdba8","665781c06b35f257ed77ec13","887","stimuli/1100000.jpg","1","","prediction_trial","1","","true","","1","true","true","true","true","true","true","[1]","100","000","1","","","","","","",""
"","","","","","image-keyboard-response","301","561232","0.0-276.0","5a188836087f2e0001eaf744","665500ab8938657b03fbdba8","665781c06b35f257ed77ec13","337","stimuli/11000001.jpg"," ","","feedback_trial","1","","","","","","","","","","","","","","","","","","","","",""
"","","","","","image-keyboard-response","302","561953","0.0-277.0","5a188836087f2e0001eaf744","665500ab8938657b03fbdba8","665781c06b35f257ed77ec13","721","stimuli/2010100.jpg","2","","prediction_trial","2","","true","","2","true","true","true","true","true","true","[2]","010","100","1","","","","","","",""
"","","","","","image-keyboard-response","303","562343","0.0-278.0","5a188836087f2e0001eaf744","665500ab8938657b03fbdba8","665781c06b35f257ed77ec13","389","stimuli/20101002.jpg"," ","","feedback_trial","2","","","","","","","","","","","","","","","","","","","","",""
"","","","","","image-keyboard-response","304","563787","0.0-279.0","5a188836087f2e0001eaf744","665500ab8938657b03fbdba8","665781c06b35f257ed77ec13","1443","stimuli/0101101.jpg","2","","prediction_trial","2","","true","","0","false","false","false","false","false","false","[0,2]","101","101","1","","","","","","",""
"","","","","","image-keyboard-response","305","564306","0.0-280.0","5a188836087f2e0001eaf744","665500ab8938657b03fbdba8","665781c06b35f257ed77ec13","519","stimuli/01011012.jpg"," ","","feedback_trial","0","","","","","","","","","","","","","","","","","","","","",""
"","","","","","image-keyboard-response","306","565593","0.0-281.0","5a188836087f2e0001eaf744","665500ab8938657b03fbdba8","665781c06b35f257ed77ec13","1286","stimuli/0110101.jpg","0","","prediction_trial","1","","false","","0","false","false","false","false","false","false","[1,0]","110","101","0","","","","","","",""
"","","","","","image-keyboard-response","307","566015","0.0-282.0","5a188836087f2e0001eaf744","665500ab8938657b03fbdba8","665781c06b35f257ed77ec13","421","stimuli/01101011.jpg"," ","","feedback_trial","1","","","","","","","","","","","","","","","","","","","","",""
"","","","","","image-keyboard-response","308","568345","0.0-283.0","5a188836087f2e0001eaf744","665500ab8938657b03fbdba8","665781c06b35f257ed77ec13","2329","stimuli/2110101.jpg","2","","prediction_trial","2","","true","","2","false","false","true","true","false","false","[2]","110","101","1","","","","","","",""
"","","","","","image-keyboard-response","309","568766","0.0-284.0","5a188836087f2e0001eaf744","665500ab8938657b03fbdba8","665781c06b35f257ed77ec13","421","stimuli/21101012.jpg"," ","","feedback_trial","2","","","","","","","","","","","","","","","","","","","","",""
"","","","","","image-keyboard-response","310","569542","0.0-285.0","5a188836087f2e0001eaf744","665500ab8938657b03fbdba8","665781c06b35f257ed77ec13","775","stimuli/0001010.jpg","0","","prediction_trial","0","","true","","0","true","true","true","true","true","true","[0]","001","010","1","","","","","","",""
"","","","","","image-keyboard-response","311","569926","0.0-286.0","5a188836087f2e0001eaf744","665500ab8938657b03fbdba8","665781c06b35f257ed77ec13","383","stimuli/00010100.jpg"," ","","feedback_trial","0","","","","","","","","","","","","","","","","","","","","",""
"","","","","","image-keyboard-response","312","570700","0.0-287.0","5a188836087f2e0001eaf744","665500ab8938657b03fbdba8","665781c06b35f257ed77ec13","774","stimuli/2100000.jpg","2","","prediction_trial","2","","true","","2","true","true","true","true","true","true","[2]","100","000","1","","","","","","",""
"","","","","","image-keyboard-response","313","571090","0.0-288.0","5a188836087f2e0001eaf744","665500ab8938657b03fbdba8","665781c06b35f257ed77ec13","390","stimuli/21000002.jpg"," ","","feedback_trial","2","","","","","","","","","","","","","","","","","","","","",""
"","","","","","image-keyboard-response","314","573295","0.0-289.0","5a188836087f2e0001eaf744","665500ab8938657b03fbdba8","665781c06b35f257ed77ec13","2205","stimuli/1111100.jpg","1","","prediction_trial","0","","false","","1","true","true","false","false","false","false","[2,0,1]","111","100","0","","","","","","",""
"","","","","","image-keyboard-response","315","573912","0.0-290.0","5a188836087f2e0001eaf744","665500ab8938657b03fbdba8","665781c06b35f257ed77ec13","616","stimuli/11111000.jpg"," ","","feedback_trial","2","","","","","","","","","","","","","","","","","","","","",""
"","","","","","image-keyboard-response","316","575549","0.0-291.0","5a188836087f2e0001eaf744","665500ab8938657b03fbdba8","665781c06b35f257ed77ec13","1636","stimuli/0011101.jpg","0","","prediction_trial","0","","true","","0","false","false","true","true","false","false","[0]","011","101","1","","","","","","",""
"","","","","","image-keyboard-response","317","575950","0.0-292.0","5a188836087f2e0001eaf744","665500ab8938657b03fbdba8","665781c06b35f257ed77ec13","401","stimuli/00111010.jpg"," ","","feedback_trial","0","","","","","","","","","","","","","","","","","","","","",""
"","","","","","survey-html-form","318","593295","0.0-293.0","5a188836087f2e0001eaf744","665500ab8938657b03fbdba8","665781c06b35f257ed77ec13","17343","","{""feedback"":""no questions or comments"",""age"":""38"",""gender"":""Female"",""other_gender"":"""",""race"":""Black/African American"",""other_race"":"""",""ethnicity"":""Non-Hispanic""}","","exit_survey","","","","","","","","","","","","","","","","no questions or comments","38","Non-Hispanic","Female","Black/African American","0.6805555555555556","0.6805555555555556"
