"success","timeout","failed_images","failed_audio","failed_video","trial_type","trial_index","time_elapsed","internal_node_id","prolific_id","prolific_study_id","prolific_session_id","rt","stimulus","response","view_history","trial","character_choice","stimulus_dict","accuracy","correct_response","ball_pos","ego_ball_visible","ego_can_infer","alter_ball_visible","alter_can_infer","collective_ball_visible","collective_can_infer","search_locations","alter_occluders","ego_occluders","accuracy_bool","feedback","age","ethnicity","gender","race","overall_accuracy","bonus"
"true","false","[]","[]","[]","preload","0","29669","0.0-0.0","644e757b60476ac7d5a7717a","665500ab8938657b03fbdba8","6657936e5d33de58ac3f0016","","","","","","","","","","","","","","","","","","","","","","","","","","",""
"true","","","","","fullscreen","1","33392","0.0-1.0","644e757b60476ac7d5a7717a","665500ab8938657b03fbdba8","6657936e5d33de58ac3f0016","","","","","","","","","","","","","","","","","","","","","","","","","","",""
"","","","","","html-button-response","2","43703","0.0-2.0","644e757b60476ac7d5a7717a","665500ab8938657b03fbdba8","6657936e5d33de58ac3f0016","10305","<p><b>Consent Form</b></p> <div style=""text-align:left;background-color:lightgrey; padding:20px; max-width:900px;""><p>Please consider this information carefully before deciding whether to participate in this research.</p> <p>The purpose of this research is to examine which factors influence social judgment and decision-making. You will be asked to make judgements about individuals and actions in social scenarios. We are simply interested in your judgement. The study will take less than 1 hour to complete, and you will receive less than $20 on Prolific. Your compensation and time commitment are specified in the study description. There are no anticipated risks associated with participating in this study. The effects of participating should be comparable to those you would ordinarily experience from viewing a computer monitor and using a mouse or keyboard for a similar amount of time. At the end of the study, we will provide an explanation of the questions that motivate this line of research and will describe the potential implications. </p><p> Your participation in this study is completely voluntary and you may refuse to participate or you may choose to withdraw at any time without penalty or loss of benefits to you which are otherwise entitled. Your participation in this study will remain confidential. No personally identifiable information will be associated with your data. Also, all analyses of the data will be averaged across all the participants, so your individual responses will never be specifically analyzed. </p><p> If you have questions or concerns about your participation or payment, or want to request a summary of research findings, please contact Dr. Jonathan Phillips at Jonathan.S.Phillips@dartmouth.edu. </p><p> Please save a copy of this form for your records. </p><p><b>Agreement: </b>The nature and purpose of this research have been sufficiently explained and I agree to participate in this study. I understand that I am free to withdraw at any time without incurring any penalty. Please consent by clicking the button below to continue. Otherwise, please exit the study at any time. </p>","0","","","","","","","","","","","","","","","","","","","","","","","",""
"","","","","","instructions","3","128001","0.0-3.0-0.0","644e757b60476ac7d5a7717a","665500ab8938657b03fbdba8","6657936e5d33de58ac3f0016","84293","","","[{""page_index"":0,""viewing_time"":1987},{""page_index"":1,""viewing_time"":3875},{""page_index"":2,""viewing_time"":3617},{""page_index"":3,""viewing_time"":8957},{""page_index"":4,""viewing_time"":4044},{""page_index"":5,""viewing_time"":4511},{""page_index"":6,""viewing_time"":5838},{""page_index"":7,""viewing_time"":4395},{""page_index"":8,""viewing_time"":5212},{""page_index"":9,""viewing_time"":5066},{""page_index"":10,""viewing_time"":16668},{""page_index"":11,""viewing_time"":10182},{""page_index"":12,""viewing_time"":8131},{""page_index"":13,""viewing_time"":1808}]","intro","","","","","","","","","","","","","","","","","","","","","",""
"","","","","","image-keyboard-response","4","133093","0.0-3.0-1.0","644e757b60476ac7d5a7717a","665500ab8938657b03fbdba8","6657936e5d33de58ac3f0016","5034","stimuli/1001000.jpg","1","","prediction_practice","1","{""filepath"":""stimuli/1001000.jpg"",""ball_pos"":1,""ego_ball_visible"":true,""ego_can_infer"":true,""alter_ball_visible"":true,""alter_can_infer"":true,""collective_ball_visible"":true,""collective_can_infer"":true,""search_locations"":[1],""alter_occluders"":""001"",""ego_occluders"":""000""}","true","","","","","","","","","","","","","","","","","","",""
"","","","","","image-keyboard-response","5","135562","0.0-3.0-2.0","644e757b60476ac7d5a7717a","665500ab8938657b03fbdba8","6657936e5d33de58ac3f0016","2463","stimuli/10010001.jpg"," ","","practrice_feedback","1","","","","","","","","","","","","","","","","","","","","",""
"","","","","","image-keyboard-response","6","137460","0.0-3.0-3.0","644e757b60476ac7d5a7717a","665500ab8938657b03fbdba8","6657936e5d33de58ac3f0016","1895","stimuli/2100000.jpg","2","","prediction_practice","2","{""filepath"":""stimuli/2100000.jpg"",""ball_pos"":2,""ego_ball_visible"":true,""ego_can_infer"":true,""alter_ball_visible"":true,""alter_can_infer"":true,""collective_ball_visible"":true,""collective_can_infer"":true,""search_locations"":[2],""alter_occluders"":""100"",""ego_occluders"":""000""}","true","","","","","","","","","","","","","","","","","","",""
"","","","","","image-keyboard-response","7","138975","0.0-3.0-4.0","644e757b60476ac7d5a7717a","665500ab8938657b03fbdba8","6657936e5d33de58ac3f0016","1513","stimuli/21000002.jpg"," ","","practrice_feedback","2","","","","","","","","","","","","","","","","","","","","",""
"","","","","","image-keyboard-response","8","147744","0.0-3.0-5.0","644e757b60476ac7d5a7717a","665500ab8938657b03fbdba8","6657936e5d33de58ac3f0016","8766","stimuli/2100011.jpg","1","","prediction_practice","2","{""filepath"":""stimuli/2100011.jpg"",""ball_pos"":2,""ego_ball_visible"":false,""ego_can_infer"":false,""alter_ball_visible"":true,""alter_can_infer"":true,""collective_ball_visible"":false,""collective_can_infer"":false,""search_locations"":[2],""alter_occluders"":""100"",""ego_occluders"":""011""}","false","","","","","","","","","","","","","","","","","","",""
"","","","","","image-keyboard-response","9","150285","0.0-3.0-6.0","644e757b60476ac7d5a7717a","665500ab8938657b03fbdba8","6657936e5d33de58ac3f0016","2533","stimuli/21000112.jpg"," ","","practrice_feedback","2","","","","","","","","","","","","","","","","","","","","",""
"","","","","","image-keyboard-response","10","155093","0.0-3.0-7.0","644e757b60476ac7d5a7717a","665500ab8938657b03fbdba8","6657936e5d33de58ac3f0016","4805","stimuli/0110110.jpg","1","","prediction_practice","0","{""filepath"":""stimuli/0110110.jpg"",""ball_pos"":0,""ego_ball_visible"":false,""ego_can_infer"":false,""alter_ball_visible"":false,""alter_can_infer"":false,""collective_ball_visible"":false,""collective_can_infer"":false,""search_locations"":[1,0],""alter_occluders"":""110"",""ego_occluders"":""110""}","false","","","","","","","","","","","","","","","","","","",""
"","","","","","image-keyboard-response","11","156907","0.0-3.0-8.0","644e757b60476ac7d5a7717a","665500ab8938657b03fbdba8","6657936e5d33de58ac3f0016","1810","stimuli/01101100.jpg"," ","","practrice_feedback","1","","","","","","","","","","","","","","","","","","","","",""
"","","","","","image-keyboard-response","12","161407","0.0-3.0-9.0","644e757b60476ac7d5a7717a","665500ab8938657b03fbdba8","6657936e5d33de58ac3f0016","4494","stimuli/1011100.jpg","1","","prediction_practice","1","{""filepath"":""stimuli/1011100.jpg"",""ball_pos"":1,""ego_ball_visible"":true,""ego_can_infer"":true,""alter_ball_visible"":false,""alter_can_infer"":false,""collective_ball_visible"":false,""collective_can_infer"":false,""search_locations"":[1,2],""alter_occluders"":""011"",""ego_occluders"":""100""}","true","","","","","","","","","","","","","","","","","","",""
"","","","","","image-keyboard-response","13","163277","0.0-3.0-10.0","644e757b60476ac7d5a7717a","665500ab8938657b03fbdba8","6657936e5d33de58ac3f0016","1864","stimuli/10111001.jpg"," ","","practrice_feedback","1","","","","","","","","","","","","","","","","","","","","",""
"","","","","","image-keyboard-response","14","166866","0.0-3.0-11.0","644e757b60476ac7d5a7717a","665500ab8938657b03fbdba8","6657936e5d33de58ac3f0016","3558","stimuli/0101000.jpg","0","","prediction_practice","0","{""filepath"":""stimuli/0101000.jpg"",""ball_pos"":0,""ego_ball_visible"":true,""ego_can_infer"":true,""alter_ball_visible"":false,""alter_can_infer"":false,""collective_ball_visible"":false,""collective_can_infer"":false,""search_locations"":[2,0],""alter_occluders"":""101"",""ego_occluders"":""000""}","true","","","","","","","","","","","","","","","","","","",""
"","","","","","image-keyboard-response","15","168536","0.0-3.0-12.0","644e757b60476ac7d5a7717a","665500ab8938657b03fbdba8","6657936e5d33de58ac3f0016","1667","stimuli/01010000.jpg"," ","","practrice_feedback","2","","","","","","","","","","","","","","","","","","","","",""
"","","","","","image-keyboard-response","16","174928","0.0-3.0-13.0","644e757b60476ac7d5a7717a","665500ab8938657b03fbdba8","6657936e5d33de58ac3f0016","6388","stimuli/2110011.jpg","1","","prediction_practice","2","{""filepath"":""stimuli/2110011.jpg"",""ball_pos"":2,""ego_ball_visible"":false,""ego_can_infer"":false,""alter_ball_visible"":true,""alter_can_infer"":true,""collective_ball_visible"":false,""collective_can_infer"":false,""search_locations"":[2],""alter_occluders"":""110"",""ego_occluders"":""011""}","false","","","","","","","","","","","","","","","","","","",""
"","","","","","image-keyboard-response","17","176311","0.0-3.0-14.0","644e757b60476ac7d5a7717a","665500ab8938657b03fbdba8","6657936e5d33de58ac3f0016","1379","stimuli/21100112.jpg"," ","","practrice_feedback","2","","","","","","","","","","","","","","","","","","","","",""
"","","","","","image-keyboard-response","18","182116","0.0-3.0-15.0","644e757b60476ac7d5a7717a","665500ab8938657b03fbdba8","6657936e5d33de58ac3f0016","5802","stimuli/1111001.jpg","1","","prediction_practice","1","{""filepath"":""stimuli/1111001.jpg"",""ball_pos"":1,""ego_ball_visible"":true,""ego_can_infer"":true,""alter_ball_visible"":false,""alter_can_infer"":false,""collective_ball_visible"":false,""collective_can_infer"":false,""search_locations"":[0,1,2],""alter_occluders"":""111"",""ego_occluders"":""001""}","true","","","","","","","","","","","","","","","","","","",""
"","","","","","image-keyboard-response","19","183621","0.0-3.0-16.0","644e757b60476ac7d5a7717a","665500ab8938657b03fbdba8","6657936e5d33de58ac3f0016","1500","stimuli/11110011.jpg"," ","","practrice_feedback","0","","","","","","","","","","","","","","","","","","","","",""
"","","","","","image-keyboard-response","20","185017","0.0-3.0-17.0","644e757b60476ac7d5a7717a","665500ab8938657b03fbdba8","6657936e5d33de58ac3f0016","1393","stimuli/1100100.jpg","1","","prediction_practice","1","{""filepath"":""stimuli/1100100.jpg"",""ball_pos"":1,""ego_ball_visible"":true,""ego_can_infer"":true,""alter_ball_visible"":true,""alter_can_infer"":true,""collective_ball_visible"":true,""collective_can_infer"":true,""search_locations"":[1],""alter_occluders"":""100"",""ego_occluders"":""100""}","true","","","","","","","","","","","","","","","","","","",""
"","","","","","image-keyboard-response","21","185810","0.0-3.0-18.0","644e757b60476ac7d5a7717a","665500ab8938657b03fbdba8","6657936e5d33de58ac3f0016","789","stimuli/11001001.jpg"," ","","practrice_feedback","1","","","","","","","","","","","","","","","","","","","","",""
"","","","","","image-keyboard-response","22","189477","0.0-3.0-19.0","644e757b60476ac7d5a7717a","665500ab8938657b03fbdba8","6657936e5d33de58ac3f0016","3664","stimuli/2101101.jpg","0","","prediction_practice","2","{""filepath"":""stimuli/2101101.jpg"",""ball_pos"":2,""ego_ball_visible"":false,""ego_can_infer"":false,""alter_ball_visible"":false,""alter_can_infer"":false,""collective_ball_visible"":false,""collective_can_infer"":false,""search_locations"":[2,0],""alter_occluders"":""101"",""ego_occluders"":""101""}","false","","","","","","","","","","","","","","","","","","",""
"","","","","","image-keyboard-response","23","190375","0.0-3.0-20.0","644e757b60476ac7d5a7717a","665500ab8938657b03fbdba8","6657936e5d33de58ac3f0016","893","stimuli/21011012.jpg"," ","","practrice_feedback","2","","","","","","","","","","","","","","","","","","","","",""
"","","","","","html-button-response","24","197602","0.0-3.0-21.0","644e757b60476ac7d5a7717a","665500ab8938657b03fbdba8","6657936e5d33de58ac3f0016","7223","Now that you've had some practice, you'll be tested with a couple of easy trials. If you correctly predict Sam's choice, you'll move on to complete the experiment!","0","","","","","","","","","","","","","","","","","","","","","","","",""
"","","","","","image-keyboard-response","25","199535","0.0-3.0-22.0-0.0","644e757b60476ac7d5a7717a","665500ab8938657b03fbdba8","6657936e5d33de58ac3f0016","1928","stimuli/0000011.jpg","arrowleft","","comprehension_quiz","","","true","arrowleft","","","","","","","","","","","","","","","","","",""
"","","","","","image-keyboard-response","26","200674","0.0-3.0-22.0-1.0","644e757b60476ac7d5a7717a","665500ab8938657b03fbdba8","6657936e5d33de58ac3f0016","1128","stimuli/00000110.jpg"," ","","comprehension_quiz","","","true"," ","","","","","","","","","","","","","","","","","",""
"","","","","","image-keyboard-response","27","203699","0.0-3.0-22.0-2.0","644e757b60476ac7d5a7717a","665500ab8938657b03fbdba8","6657936e5d33de58ac3f0016","3021","stimuli/1010010.jpg","arrowdown","","comprehension_quiz","","","true","arrowdown","","","","","","","","","","","","","","","","","",""
"","","","","","image-keyboard-response","28","204937","0.0-3.0-22.0-3.0","644e757b60476ac7d5a7717a","665500ab8938657b03fbdba8","6657936e5d33de58ac3f0016","1236","stimuli/10100101.jpg"," ","","comprehension_quiz","","","true"," ","","","","","","","","","","","","","","","","","",""
"","","","","","html-button-response","29","207604","0.0-4.0","644e757b60476ac7d5a7717a","665500ab8938657b03fbdba8","6657936e5d33de58ac3f0016","2661","The experiment will now begin.","0","","","","","","","","","","","","","","","","","","","","","","","",""
"","","","","","image-keyboard-response","30","210138","0.0-5.0","644e757b60476ac7d5a7717a","665500ab8938657b03fbdba8","6657936e5d33de58ac3f0016","2529","stimuli/2000001.jpg","2","","prediction_trial","2","","true","","2","false","true","true","true","false","true","[2]","000","001","1","","","","","","",""
"","","","","","image-keyboard-response","31","211244","0.0-6.0","644e757b60476ac7d5a7717a","665500ab8938657b03fbdba8","6657936e5d33de58ac3f0016","1098","stimuli/20000012.jpg"," ","","feedback_trial","2","","","","","","","","","","","","","","","","","","","","",""
"","","","","","image-keyboard-response","32","216832","0.0-7.0","644e757b60476ac7d5a7717a","665500ab8938657b03fbdba8","6657936e5d33de58ac3f0016","5583","stimuli/1110111.jpg","2","","prediction_trial","1","","false","","1","false","false","false","false","false","false","[1,0]","110","111","0","","","","","","",""
"","","","","","image-keyboard-response","33","218225","0.0-8.0","644e757b60476ac7d5a7717a","665500ab8938657b03fbdba8","6657936e5d33de58ac3f0016","1388","stimuli/11101111.jpg"," ","","feedback_trial","1","","","","","","","","","","","","","","","","","","","","",""
"","","","","","image-keyboard-response","34","222462","0.0-9.0","644e757b60476ac7d5a7717a","665500ab8938657b03fbdba8","6657936e5d33de58ac3f0016","4233","stimuli/0111010.jpg","1","","prediction_trial","2","","false","","0","true","true","false","false","false","false","[2,0,1]","111","010","0","","","","","","",""
"","","","","","image-keyboard-response","35","224317","0.0-10.0","644e757b60476ac7d5a7717a","665500ab8938657b03fbdba8","6657936e5d33de58ac3f0016","1850","stimuli/01110102.jpg"," ","","feedback_trial","2","","","","","","","","","","","","","","","","","","","","",""
"","","","","","image-keyboard-response","36","227219","0.0-11.0","644e757b60476ac7d5a7717a","665500ab8938657b03fbdba8","6657936e5d33de58ac3f0016","2899","stimuli/2110011.jpg","2","","prediction_trial","2","","true","","2","false","false","true","true","false","false","[2]","110","011","1","","","","","","",""
"","","","","","image-keyboard-response","37","228366","0.0-12.0","644e757b60476ac7d5a7717a","665500ab8938657b03fbdba8","6657936e5d33de58ac3f0016","1140","stimuli/21100112.jpg"," ","","feedback_trial","2","","","","","","","","","","","","","","","","","","","","",""
"","","","","","image-keyboard-response","38","235630","0.0-13.0","644e757b60476ac7d5a7717a","665500ab8938657b03fbdba8","6657936e5d33de58ac3f0016","7252","stimuli/0101101.jpg","0","","prediction_trial","2","","false","","0","false","false","false","false","false","false","[2,0]","101","101","0","","","","","","",""
"","","","","","image-keyboard-response","39","237114","0.0-14.0","644e757b60476ac7d5a7717a","665500ab8938657b03fbdba8","6657936e5d33de58ac3f0016","1478","stimuli/01011012.jpg"," ","","feedback_trial","2","","","","","","","","","","","","","","","","","","","","",""
"","","","","","image-keyboard-response","40","239034","0.0-15.0","644e757b60476ac7d5a7717a","665500ab8938657b03fbdba8","6657936e5d33de58ac3f0016","1918","stimuli/0011101.jpg","0","","prediction_trial","0","","true","","0","false","false","true","true","false","false","[0]","011","101","1","","","","","","",""
"","","","","","image-keyboard-response","41","240217","0.0-16.0","644e757b60476ac7d5a7717a","665500ab8938657b03fbdba8","6657936e5d33de58ac3f0016","1178","stimuli/00111010.jpg"," ","","feedback_trial","0","","","","","","","","","","","","","","","","","","","","",""
"","","","","","image-keyboard-response","42","243296","0.0-17.0","644e757b60476ac7d5a7717a","665500ab8938657b03fbdba8","6657936e5d33de58ac3f0016","3076","stimuli/1111110.jpg","0","","prediction_trial","2","","false","","1","false","false","false","false","false","false","[2,0,1]","111","110","0","","","","","","",""
"","","","","","image-keyboard-response","43","244299","0.0-18.0","644e757b60476ac7d5a7717a","665500ab8938657b03fbdba8","6657936e5d33de58ac3f0016","1000","stimuli/11111102.jpg"," ","","feedback_trial","2","","","","","","","","","","","","","","","","","","","","",""
"","","","","","image-keyboard-response","44","247118","0.0-19.0","644e757b60476ac7d5a7717a","665500ab8938657b03fbdba8","6657936e5d33de58ac3f0016","2814","stimuli/0010111.jpg","0","","prediction_trial","0","","true","","0","false","false","true","true","false","false","[0]","010","111","1","","","","","","",""
"","","","","","image-keyboard-response","45","248093","0.0-20.0","644e757b60476ac7d5a7717a","665500ab8938657b03fbdba8","6657936e5d33de58ac3f0016","970","stimuli/00101110.jpg"," ","","feedback_trial","0","","","","","","","","","","","","","","","","","","","","",""
"","","","","","image-keyboard-response","46","252653","0.0-21.0","644e757b60476ac7d5a7717a","665500ab8938657b03fbdba8","6657936e5d33de58ac3f0016","4556","stimuli/1011100.jpg","1","","prediction_trial","2","","false","","1","true","true","false","false","false","false","[1,2]","011","100","0","","","","","","",""
"","","","","","image-keyboard-response","47","253808","0.0-22.0","644e757b60476ac7d5a7717a","665500ab8938657b03fbdba8","6657936e5d33de58ac3f0016","1152","stimuli/10111002.jpg"," ","","feedback_trial","1","","","","","","","","","","","","","","","","","","","","",""
"","","","","","image-keyboard-response","48","255521","0.0-23.0","644e757b60476ac7d5a7717a","665500ab8938657b03fbdba8","6657936e5d33de58ac3f0016","1710","stimuli/1101100.jpg","1","","prediction_trial","1","","true","","1","true","true","true","true","true","true","[1]","101","100","1","","","","","","",""
"","","","","","image-keyboard-response","49","256206","0.0-24.0","644e757b60476ac7d5a7717a","665500ab8938657b03fbdba8","6657936e5d33de58ac3f0016","679","stimuli/11011001.jpg"," ","","feedback_trial","1","","","","","","","","","","","","","","","","","","","","",""
"","","","","","image-keyboard-response","50","258042","0.0-25.0","644e757b60476ac7d5a7717a","665500ab8938657b03fbdba8","6657936e5d33de58ac3f0016","1830","stimuli/2010100.jpg","2","","prediction_trial","2","","true","","2","true","true","true","true","true","true","[2]","010","100","1","","","","","","",""
"","","","","","image-keyboard-response","51","258775","0.0-26.0","644e757b60476ac7d5a7717a","665500ab8938657b03fbdba8","6657936e5d33de58ac3f0016","727","stimuli/20101002.jpg"," ","","feedback_trial","2","","","","","","","","","","","","","","","","","","","","",""
"","","","","","image-keyboard-response","52","261782","0.0-27.0","644e757b60476ac7d5a7717a","665500ab8938657b03fbdba8","6657936e5d33de58ac3f0016","3003","stimuli/2011010.jpg","2","","prediction_trial","1","","false","","2","true","true","false","false","false","false","[2,1]","011","010","0","","","","","","",""
"","","","","","image-keyboard-response","53","262942","0.0-28.0","644e757b60476ac7d5a7717a","665500ab8938657b03fbdba8","6657936e5d33de58ac3f0016","1157","stimuli/20110101.jpg"," ","","feedback_trial","2","","","","","","","","","","","","","","","","","","","","",""
"","","","","","image-keyboard-response","54","265483","0.0-29.0","644e757b60476ac7d5a7717a","665500ab8938657b03fbdba8","6657936e5d33de58ac3f0016","2538","stimuli/1101010.jpg","0","","prediction_trial","1","","false","","1","false","true","true","true","false","true","[1]","101","010","0","","","","","","",""
"","","","","","image-keyboard-response","55","267804","0.0-30.0","644e757b60476ac7d5a7717a","665500ab8938657b03fbdba8","6657936e5d33de58ac3f0016","2319","stimuli/11010101.jpg"," ","","feedback_trial","1","","","","","","","","","","","","","","","","","","","","",""
"","","","","","image-keyboard-response","56","270500","0.0-31.0","644e757b60476ac7d5a7717a","665500ab8938657b03fbdba8","6657936e5d33de58ac3f0016","2693","stimuli/0100011.jpg","0","","prediction_trial","0","","true","","0","true","true","false","true","false","true","[0]","100","011","1","","","","","","",""
"","","","","","image-keyboard-response","57","271573","0.0-32.0","644e757b60476ac7d5a7717a","665500ab8938657b03fbdba8","6657936e5d33de58ac3f0016","1070","stimuli/01000110.jpg"," ","","feedback_trial","0","","","","","","","","","","","","","","","","","","","","",""
"","","","","","image-keyboard-response","58","272716","0.0-33.0","644e757b60476ac7d5a7717a","665500ab8938657b03fbdba8","6657936e5d33de58ac3f0016","1139","stimuli/0111000.jpg","0","","prediction_trial","1","","false","","0","true","true","false","false","false","false","[0,2,1]","111","000","0","","","","","","",""
"","","","","","image-keyboard-response","59","273374","0.0-34.0","644e757b60476ac7d5a7717a","665500ab8938657b03fbdba8","6657936e5d33de58ac3f0016","655","stimuli/01110001.jpg"," ","","feedback_trial","0","","","","","","","","","","","","","","","","","","","","",""
"","","","","","image-keyboard-response","60","275163","0.0-35.0","644e757b60476ac7d5a7717a","665500ab8938657b03fbdba8","6657936e5d33de58ac3f0016","1762","stimuli/2100101.jpg","0","","prediction_trial","2","","false","","2","false","false","true","true","false","false","[2]","100","101","0","","","","","","",""
"","","","","","image-keyboard-response","61","275951","0.0-36.0","644e757b60476ac7d5a7717a","665500ab8938657b03fbdba8","6657936e5d33de58ac3f0016","785","stimuli/21001012.jpg"," ","","feedback_trial","2","","","","","","","","","","","","","","","","","","","","",""
"","","","","","image-keyboard-response","62","278026","0.0-37.0","644e757b60476ac7d5a7717a","665500ab8938657b03fbdba8","6657936e5d33de58ac3f0016","2071","stimuli/0110011.jpg","0","","prediction_trial","0","","true","","0","true","true","false","false","false","false","[1,0]","110","011","1","","","","","","",""
"","","","","","image-keyboard-response","63","278798","0.0-38.0","644e757b60476ac7d5a7717a","665500ab8938657b03fbdba8","6657936e5d33de58ac3f0016","770","stimuli/01100110.jpg"," ","","feedback_trial","1","","","","","","","","","","","","","","","","","","","","",""
"","","","","","image-keyboard-response","64","280103","0.0-39.0","644e757b60476ac7d5a7717a","665500ab8938657b03fbdba8","6657936e5d33de58ac3f0016","1302","stimuli/0000001.jpg","0","","prediction_trial","0","","true","","0","true","true","true","true","true","true","[0]","000","001","1","","","","","","",""
"","","","","","image-keyboard-response","65","280921","0.0-40.0","644e757b60476ac7d5a7717a","665500ab8938657b03fbdba8","6657936e5d33de58ac3f0016","812","stimuli/00000010.jpg"," ","","feedback_trial","0","","","","","","","","","","","","","","","","","","","","",""
"","","","","","image-keyboard-response","66","282277","0.0-41.0","644e757b60476ac7d5a7717a","665500ab8938657b03fbdba8","6657936e5d33de58ac3f0016","1352","stimuli/0010100.jpg","0","","prediction_trial","0","","true","","0","false","true","true","true","false","true","[0]","010","100","1","","","","","","",""
"","","","","","image-keyboard-response","67","283022","0.0-42.0","644e757b60476ac7d5a7717a","665500ab8938657b03fbdba8","6657936e5d33de58ac3f0016","741","stimuli/00101000.jpg"," ","","feedback_trial","0","","","","","","","","","","","","","","","","","","","","",""
"","","","","","image-keyboard-response","68","285951","0.0-43.0","644e757b60476ac7d5a7717a","665500ab8938657b03fbdba8","6657936e5d33de58ac3f0016","2924","stimuli/2011000.jpg","2","","prediction_trial","1","","false","","2","true","true","false","false","false","false","[2,1]","011","000","0","","","","","","",""
"","","","","","image-keyboard-response","69","287115","0.0-44.0","644e757b60476ac7d5a7717a","665500ab8938657b03fbdba8","6657936e5d33de58ac3f0016","1160","stimuli/20110001.jpg"," ","","feedback_trial","2","","","","","","","","","","","","","","","","","","","","",""
"","","","","","image-keyboard-response","70","289152","0.0-45.0","644e757b60476ac7d5a7717a","665500ab8938657b03fbdba8","6657936e5d33de58ac3f0016","2035","stimuli/2101000.jpg","2","","prediction_trial","2","","true","","2","true","true","false","false","false","false","[2,0]","101","000","1","","","","","","",""
"","","","","","image-keyboard-response","71","290171","0.0-46.0","644e757b60476ac7d5a7717a","665500ab8938657b03fbdba8","6657936e5d33de58ac3f0016","1014","stimuli/21010002.jpg"," ","","feedback_trial","2","","","","","","","","","","","","","","","","","","","","",""
"","","","","","image-keyboard-response","72","293412","0.0-47.0","644e757b60476ac7d5a7717a","665500ab8938657b03fbdba8","6657936e5d33de58ac3f0016","3236","stimuli/2010101.jpg","2","","prediction_trial","2","","true","","2","false","false","true","true","false","false","[2]","010","101","1","","","","","","",""
"","","","","","image-keyboard-response","73","294453","0.0-48.0","644e757b60476ac7d5a7717a","665500ab8938657b03fbdba8","6657936e5d33de58ac3f0016","1037","stimuli/20101012.jpg"," ","","feedback_trial","2","","","","","","","","","","","","","","","","","","","","",""
"","","","","","image-keyboard-response","74","296992","0.0-49.0","644e757b60476ac7d5a7717a","665500ab8938657b03fbdba8","6657936e5d33de58ac3f0016","2534","stimuli/2101101.jpg","2","","prediction_trial","0","","false","","2","false","false","false","false","false","false","[2,0]","101","101","0","","","","","","",""
"","","","","","image-keyboard-response","75","298306","0.0-50.0","644e757b60476ac7d5a7717a","665500ab8938657b03fbdba8","6657936e5d33de58ac3f0016","1310","stimuli/21011010.jpg"," ","","feedback_trial","2","","","","","","","","","","","","","","","","","","","","",""
"","","","","","image-keyboard-response","76","301465","0.0-51.0","644e757b60476ac7d5a7717a","665500ab8938657b03fbdba8","6657936e5d33de58ac3f0016","3156","stimuli/1011010.jpg","2","","prediction_trial","1","","false","","1","false","true","false","false","false","false","[1,2]","011","010","0","","","","","","",""
"","","","","","image-keyboard-response","77","303809","0.0-52.0","644e757b60476ac7d5a7717a","665500ab8938657b03fbdba8","6657936e5d33de58ac3f0016","2341","stimuli/10110101.jpg"," ","","feedback_trial","1","","","","","","","","","","","","","","","","","","","","",""
"","","","","","image-keyboard-response","78","307667","0.0-53.0","644e757b60476ac7d5a7717a","665500ab8938657b03fbdba8","6657936e5d33de58ac3f0016","3856","stimuli/1010110.jpg","0","","prediction_trial","1","","false","","1","false","false","false","true","false","false","[1]","010","110","0","","","","","","",""
"","","","","","image-keyboard-response","79","308760","0.0-54.0","644e757b60476ac7d5a7717a","665500ab8938657b03fbdba8","6657936e5d33de58ac3f0016","1088","stimuli/10101101.jpg"," ","","feedback_trial","1","","","","","","","","","","","","","","","","","","","","",""
"","","","","","image-keyboard-response","80","309912","0.0-55.0","644e757b60476ac7d5a7717a","665500ab8938657b03fbdba8","6657936e5d33de58ac3f0016","1148","stimuli/0011000.jpg","0","","prediction_trial","0","","true","","0","true","true","true","true","true","true","[0]","011","000","1","","","","","","",""
"","","","","","image-keyboard-response","81","310643","0.0-56.0","644e757b60476ac7d5a7717a","665500ab8938657b03fbdba8","6657936e5d33de58ac3f0016","727","stimuli/00110000.jpg"," ","","feedback_trial","0","","","","","","","","","","","","","","","","","","","","",""
"","","","","","image-keyboard-response","82","313596","0.0-57.0","644e757b60476ac7d5a7717a","665500ab8938657b03fbdba8","6657936e5d33de58ac3f0016","2942","stimuli/0100001.jpg","0","","prediction_trial","0","","true","","0","true","true","false","true","false","true","[0]","100","001","1","","","","","","",""
"","","","","","image-keyboard-response","83","314539","0.0-58.0","644e757b60476ac7d5a7717a","665500ab8938657b03fbdba8","6657936e5d33de58ac3f0016","939","stimuli/01000010.jpg"," ","","feedback_trial","0","","","","","","","","","","","","","","","","","","","","",""
"","","","","","image-keyboard-response","84","315657","0.0-59.0","644e757b60476ac7d5a7717a","665500ab8938657b03fbdba8","6657936e5d33de58ac3f0016","1113","stimuli/2100010.jpg","2","","prediction_trial","2","","true","","2","true","true","true","true","true","true","[2]","100","010","1","","","","","","",""
"","","","","","image-keyboard-response","85","316361","0.0-60.0","644e757b60476ac7d5a7717a","665500ab8938657b03fbdba8","6657936e5d33de58ac3f0016","700","stimuli/21000102.jpg"," ","","feedback_trial","2","","","","","","","","","","","","","","","","","","","","",""
"","","","","","image-keyboard-response","86","320706","0.0-61.0","644e757b60476ac7d5a7717a","665500ab8938657b03fbdba8","6657936e5d33de58ac3f0016","4342","stimuli/0000110.jpg","0","","prediction_trial","0","","true","","0","false","false","true","true","false","false","[0]","000","110","1","","","","","","",""
"","","","","","image-keyboard-response","87","321596","0.0-62.0","644e757b60476ac7d5a7717a","665500ab8938657b03fbdba8","6657936e5d33de58ac3f0016","886","stimuli/00001100.jpg"," ","","feedback_trial","0","","","","","","","","","","","","","","","","","","","","",""
"","","","","","image-keyboard-response","88","326363","0.0-63.0","644e757b60476ac7d5a7717a","665500ab8938657b03fbdba8","6657936e5d33de58ac3f0016","4763","stimuli/0001111.jpg","0","","prediction_trial","0","","true","","0","false","false","true","true","false","false","[0]","001","111","1","","","","","","",""
"","","","","","image-keyboard-response","89","327325","0.0-64.0","644e757b60476ac7d5a7717a","665500ab8938657b03fbdba8","6657936e5d33de58ac3f0016","959","stimuli/00011110.jpg"," ","","feedback_trial","0","","","","","","","","","","","","","","","","","","","","",""
"","","","","","image-keyboard-response","90","329897","0.0-65.0","644e757b60476ac7d5a7717a","665500ab8938657b03fbdba8","6657936e5d33de58ac3f0016","2567","stimuli/2111101.jpg","0","","prediction_trial","1","","false","","2","false","false","false","false","false","false","[1,0,2]","111","101","0","","","","","","",""
"","","","","","image-keyboard-response","91","330789","0.0-66.0","644e757b60476ac7d5a7717a","665500ab8938657b03fbdba8","6657936e5d33de58ac3f0016","890","stimuli/21111011.jpg"," ","","feedback_trial","1","","","","","","","","","","","","","","","","","","","","",""
"","","","","","image-keyboard-response","92","332758","0.0-67.0","644e757b60476ac7d5a7717a","665500ab8938657b03fbdba8","6657936e5d33de58ac3f0016","1965","stimuli/1111100.jpg","0","","prediction_trial","2","","false","","1","true","true","false","false","false","false","[2,0,1]","111","100","0","","","","","","",""
"","","","","","image-keyboard-response","93","334169","0.0-68.0","644e757b60476ac7d5a7717a","665500ab8938657b03fbdba8","6657936e5d33de58ac3f0016","1406","stimuli/11111002.jpg"," ","","feedback_trial","2","","","","","","","","","","","","","","","","","","","","",""
"","","","","","image-keyboard-response","94","337447","0.0-69.0","644e757b60476ac7d5a7717a","665500ab8938657b03fbdba8","6657936e5d33de58ac3f0016","3273","stimuli/2111001.jpg","0","","prediction_trial","0","","true","","2","false","true","false","false","false","false","[1,0,2]","111","001","1","","","","","","",""
"","","","","","image-keyboard-response","95","338623","0.0-70.0","644e757b60476ac7d5a7717a","665500ab8938657b03fbdba8","6657936e5d33de58ac3f0016","1171","stimuli/21110010.jpg"," ","","feedback_trial","1","","","","","","","","","","","","","","","","","","","","",""
"","","","","","image-keyboard-response","96","339861","0.0-71.0","644e757b60476ac7d5a7717a","665500ab8938657b03fbdba8","6657936e5d33de58ac3f0016","1235","stimuli/2000010.jpg","2","","prediction_trial","2","","true","","2","true","true","true","true","true","true","[2]","000","010","1","","","","","","",""
"","","","","","image-keyboard-response","97","340495","0.0-72.0","644e757b60476ac7d5a7717a","665500ab8938657b03fbdba8","6657936e5d33de58ac3f0016","630","stimuli/20000102.jpg"," ","","feedback_trial","2","","","","","","","","","","","","","","","","","","","","",""
"","","","","","image-keyboard-response","98","341694","0.0-73.0","644e757b60476ac7d5a7717a","665500ab8938657b03fbdba8","6657936e5d33de58ac3f0016","1192","stimuli/1101101.jpg","1","","prediction_trial","1","","true","","1","true","true","true","true","true","true","[1]","101","101","1","","","","","","",""
"","","","","","image-keyboard-response","99","342265","0.0-74.0","644e757b60476ac7d5a7717a","665500ab8938657b03fbdba8","6657936e5d33de58ac3f0016","567","stimuli/11011011.jpg"," ","","feedback_trial","1","","","","","","","","","","","","","","","","","","","","",""
"","","","","","image-keyboard-response","100","345690","0.0-75.0","644e757b60476ac7d5a7717a","665500ab8938657b03fbdba8","6657936e5d33de58ac3f0016","3420","stimuli/2110101.jpg","0","","prediction_trial","2","","false","","2","false","false","true","true","false","false","[2]","110","101","0","","","","","","",""
"","","","","","image-keyboard-response","101","346750","0.0-76.0","644e757b60476ac7d5a7717a","665500ab8938657b03fbdba8","6657936e5d33de58ac3f0016","1056","stimuli/21101012.jpg"," ","","feedback_trial","2","","","","","","","","","","","","","","","","","","","","",""
"","","","","","image-keyboard-response","102","348778","0.0-77.0","644e757b60476ac7d5a7717a","665500ab8938657b03fbdba8","6657936e5d33de58ac3f0016","2027","stimuli/2001000.jpg","2","","prediction_trial","2","","true","","2","true","true","false","true","false","true","[2]","001","000","1","","","","","","",""
"","","","","","image-keyboard-response","103","349872","0.0-78.0","644e757b60476ac7d5a7717a","665500ab8938657b03fbdba8","6657936e5d33de58ac3f0016","1090","stimuli/20010002.jpg"," ","","feedback_trial","2","","","","","","","","","","","","","","","","","","","","",""
"","","","","","image-keyboard-response","104","351834","0.0-79.0","644e757b60476ac7d5a7717a","665500ab8938657b03fbdba8","6657936e5d33de58ac3f0016","1953","stimuli/1011001.jpg","2","","prediction_trial","1","","false","","1","true","true","false","false","false","false","[2,1]","011","001","0","","","","","","",""
"","","","","","image-keyboard-response","105","352895","0.0-80.0","644e757b60476ac7d5a7717a","665500ab8938657b03fbdba8","6657936e5d33de58ac3f0016","1055","stimuli/10110011.jpg"," ","","feedback_trial","2","","","","","","","","","","","","","","","","","","","","",""
"","","","","","image-keyboard-response","106","358010","0.0-81.0","644e757b60476ac7d5a7717a","665500ab8938657b03fbdba8","6657936e5d33de58ac3f0016","5111","stimuli/0101111.jpg","2","","prediction_trial","0","","false","","0","false","false","false","false","false","false","[0,2]","101","111","0","","","","","","",""
"","","","","","image-keyboard-response","107","359082","0.0-82.0","644e757b60476ac7d5a7717a","665500ab8938657b03fbdba8","6657936e5d33de58ac3f0016","1070","stimuli/01011110.jpg"," ","","feedback_trial","0","","","","","","","","","","","","","","","","","","","","",""
"","","","","","image-keyboard-response","108","361835","0.0-83.0","644e757b60476ac7d5a7717a","665500ab8938657b03fbdba8","6657936e5d33de58ac3f0016","2747","stimuli/2000111.jpg","1","","prediction_trial","2","","false","","2","false","false","true","true","false","false","[2]","000","111","0","","","","","","",""
"","","","","","image-keyboard-response","109","363847","0.0-84.0","644e757b60476ac7d5a7717a","665500ab8938657b03fbdba8","6657936e5d33de58ac3f0016","2008","stimuli/20001112.jpg"," ","","feedback_trial","2","","","","","","","","","","","","","","","","","","","","",""
"","","","","","image-keyboard-response","110","365879","0.0-85.0","644e757b60476ac7d5a7717a","665500ab8938657b03fbdba8","6657936e5d33de58ac3f0016","2027","stimuli/2001100.jpg","2","","prediction_trial","2","","true","","2","true","true","false","true","false","true","[2]","001","100","1","","","","","","",""
"","","","","","image-keyboard-response","111","366701","0.0-86.0","644e757b60476ac7d5a7717a","665500ab8938657b03fbdba8","6657936e5d33de58ac3f0016","819","stimuli/20011002.jpg"," ","","feedback_trial","2","","","","","","","","","","","","","","","","","","","","",""
"","","","","","image-keyboard-response","112","368774","0.0-87.0","644e757b60476ac7d5a7717a","665500ab8938657b03fbdba8","6657936e5d33de58ac3f0016","2069","stimuli/0011011.jpg","0","","prediction_trial","0","","true","","0","true","true","true","true","true","true","[0]","011","011","1","","","","","","",""
"","","","","","image-keyboard-response","113","369565","0.0-88.0","644e757b60476ac7d5a7717a","665500ab8938657b03fbdba8","6657936e5d33de58ac3f0016","786","stimuli/00110110.jpg"," ","","feedback_trial","0","","","","","","","","","","","","","","","","","","","","",""
"","","","","","image-keyboard-response","114","371987","0.0-89.0","644e757b60476ac7d5a7717a","665500ab8938657b03fbdba8","6657936e5d33de58ac3f0016","2418","stimuli/0110101.jpg","2","","prediction_trial","1","","false","","0","false","false","false","false","false","false","[1,0]","110","101","0","","","","","","",""
"","","","","","image-keyboard-response","115","374048","0.0-90.0","644e757b60476ac7d5a7717a","665500ab8938657b03fbdba8","6657936e5d33de58ac3f0016","2055","stimuli/01101011.jpg"," ","","feedback_trial","1","","","","","","","","","","","","","","","","","","","","",""
"","","","","","image-keyboard-response","116","375261","0.0-91.0","644e757b60476ac7d5a7717a","665500ab8938657b03fbdba8","6657936e5d33de58ac3f0016","1207","stimuli/2111111.jpg","2","","prediction_trial","0","","false","","2","false","false","false","false","false","false","[0,1,2]","111","111","0","","","","","","",""
"","","","","","image-keyboard-response","117","376130","0.0-92.0","644e757b60476ac7d5a7717a","665500ab8938657b03fbdba8","6657936e5d33de58ac3f0016","866","stimuli/21111110.jpg"," ","","feedback_trial","0","","","","","","","","","","","","","","","","","","","","",""
"","","","","","image-keyboard-response","118","376855","0.0-93.0","644e757b60476ac7d5a7717a","665500ab8938657b03fbdba8","6657936e5d33de58ac3f0016","721","stimuli/2111100.jpg","2","","prediction_trial","2","","true","","2","true","true","false","false","false","false","[1,2,0]","111","100","1","","","","","","",""
"","","","","","image-keyboard-response","119","377699","0.0-94.0","644e757b60476ac7d5a7717a","665500ab8938657b03fbdba8","6657936e5d33de58ac3f0016","840","stimuli/21111002.jpg"," ","","feedback_trial","1","","","","","","","","","","","","","","","","","","","","",""
"","","","","","image-keyboard-response","120","380529","0.0-95.0","644e757b60476ac7d5a7717a","665500ab8938657b03fbdba8","6657936e5d33de58ac3f0016","2828","stimuli/0100000.jpg","0","","prediction_trial","0","","true","","0","true","true","false","true","false","true","[0]","100","000","1","","","","","","",""
"","","","","","image-keyboard-response","121","381628","0.0-96.0","644e757b60476ac7d5a7717a","665500ab8938657b03fbdba8","6657936e5d33de58ac3f0016","1092","stimuli/01000000.jpg"," ","","feedback_trial","0","","","","","","","","","","","","","","","","","","","","",""
"","","","","","image-keyboard-response","122","383647","0.0-97.0","644e757b60476ac7d5a7717a","665500ab8938657b03fbdba8","6657936e5d33de58ac3f0016","2015","stimuli/2001010.jpg","2","","prediction_trial","2","","true","","2","true","true","false","true","false","true","[2]","001","010","1","","","","","","",""
"","","","","","image-keyboard-response","123","384200","0.0-98.0","644e757b60476ac7d5a7717a","665500ab8938657b03fbdba8","6657936e5d33de58ac3f0016","549","stimuli/20010102.jpg"," ","","feedback_trial","2","","","","","","","","","","","","","","","","","","","","",""
"","","","","","image-keyboard-response","124","386271","0.0-99.0","644e757b60476ac7d5a7717a","665500ab8938657b03fbdba8","6657936e5d33de58ac3f0016","2067","stimuli/2000101.jpg","2","","prediction_trial","2","","true","","2","false","false","true","true","false","false","[2]","000","101","1","","","","","","",""
"","","","","","image-keyboard-response","125","387188","0.0-100.0","644e757b60476ac7d5a7717a","665500ab8938657b03fbdba8","6657936e5d33de58ac3f0016","912","stimuli/20001012.jpg"," ","","feedback_trial","2","","","","","","","","","","","","","","","","","","","","",""
"","","","","","image-keyboard-response","126","389371","0.0-101.0","644e757b60476ac7d5a7717a","665500ab8938657b03fbdba8","6657936e5d33de58ac3f0016","2168","stimuli/1011011.jpg","2","","prediction_trial","2","","true","","1","false","false","false","false","false","false","[1,2]","011","011","1","","","","","","",""
"","","","","","image-keyboard-response","127","390208","0.0-102.0","644e757b60476ac7d5a7717a","665500ab8938657b03fbdba8","6657936e5d33de58ac3f0016","832","stimuli/10110112.jpg"," ","","feedback_trial","1","","","","","","","","","","","","","","","","","","","","",""
"","","","","","image-keyboard-response","128","391473","0.0-103.0","644e757b60476ac7d5a7717a","665500ab8938657b03fbdba8","6657936e5d33de58ac3f0016","1261","stimuli/2010000.jpg","2","","prediction_trial","2","","true","","2","true","true","true","true","true","true","[2]","010","000","1","","","","","","",""
"","","","","","image-keyboard-response","129","392138","0.0-104.0","644e757b60476ac7d5a7717a","665500ab8938657b03fbdba8","6657936e5d33de58ac3f0016","662","stimuli/20100002.jpg"," ","","feedback_trial","2","","","","","","","","","","","","","","","","","","","","",""
"","","","","","image-keyboard-response","130","393239","0.0-105.0","644e757b60476ac7d5a7717a","665500ab8938657b03fbdba8","6657936e5d33de58ac3f0016","1097","stimuli/1000100.jpg","1","","prediction_trial","1","","true","","1","true","true","true","true","true","true","[1]","000","100","1","","","","","","",""
"","","","","","image-keyboard-response","131","393875","0.0-106.0","644e757b60476ac7d5a7717a","665500ab8938657b03fbdba8","6657936e5d33de58ac3f0016","631","stimuli/10001001.jpg"," ","","feedback_trial","1","","","","","","","","","","","","","","","","","","","","",""
"","","","","","image-keyboard-response","132","395610","0.0-107.0","644e757b60476ac7d5a7717a","665500ab8938657b03fbdba8","6657936e5d33de58ac3f0016","1732","stimuli/1010100.jpg","1","","prediction_trial","1","","true","","1","true","true","false","true","false","true","[1]","010","100","1","","","","","","",""
"","","","","","image-keyboard-response","133","396577","0.0-108.0","644e757b60476ac7d5a7717a","665500ab8938657b03fbdba8","6657936e5d33de58ac3f0016","964","stimuli/10101001.jpg"," ","","feedback_trial","1","","","","","","","","","","","","","","","","","","","","",""
"","","","","","image-keyboard-response","134","398039","0.0-109.0","644e757b60476ac7d5a7717a","665500ab8938657b03fbdba8","6657936e5d33de58ac3f0016","1456","stimuli/1100100.jpg","1","","prediction_trial","1","","true","","1","true","true","true","true","true","true","[1]","100","100","1","","","","","","",""
"","","","","","image-keyboard-response","135","398544","0.0-110.0","644e757b60476ac7d5a7717a","665500ab8938657b03fbdba8","6657936e5d33de58ac3f0016","501","stimuli/11001001.jpg"," ","","feedback_trial","1","","","","","","","","","","","","","","","","","","","","",""
"","","","","","image-keyboard-response","136","400235","0.0-111.0","644e757b60476ac7d5a7717a","665500ab8938657b03fbdba8","6657936e5d33de58ac3f0016","1687","stimuli/0110111.jpg","2","","prediction_trial","1","","false","","0","false","false","false","false","false","false","[0,1]","110","111","0","","","","","","",""
"","","","","","image-keyboard-response","137","401021","0.0-112.0","644e757b60476ac7d5a7717a","665500ab8938657b03fbdba8","6657936e5d33de58ac3f0016","780","stimuli/01101111.jpg"," ","","feedback_trial","0","","","","","","","","","","","","","","","","","","","","",""
"","","","","","image-keyboard-response","138","402786","0.0-113.0","644e757b60476ac7d5a7717a","665500ab8938657b03fbdba8","6657936e5d33de58ac3f0016","1760","stimuli/1111010.jpg","2","","prediction_trial","2","","true","","1","false","true","false","false","false","false","[1,0,2]","111","010","1","","","","","","",""
"","","","","","image-keyboard-response","139","403674","0.0-114.0","644e757b60476ac7d5a7717a","665500ab8938657b03fbdba8","6657936e5d33de58ac3f0016","884","stimuli/11110102.jpg"," ","","feedback_trial","1","","","","","","","","","","","","","","","","","","","","",""
"","","","","","image-keyboard-response","140","405038","0.0-115.0","644e757b60476ac7d5a7717a","665500ab8938657b03fbdba8","6657936e5d33de58ac3f0016","1360","stimuli/1011000.jpg","2","","prediction_trial","2","","true","","1","true","true","false","false","false","false","[1,2]","011","000","1","","","","","","",""
"","","","","","image-keyboard-response","141","405996","0.0-116.0","644e757b60476ac7d5a7717a","665500ab8938657b03fbdba8","6657936e5d33de58ac3f0016","954","stimuli/10110002.jpg"," ","","feedback_trial","1","","","","","","","","","","","","","","","","","","","","",""
"","","","","","image-keyboard-response","142","407247","0.0-117.0","644e757b60476ac7d5a7717a","665500ab8938657b03fbdba8","6657936e5d33de58ac3f0016","1247","stimuli/2011011.jpg","2","","prediction_trial","2","","true","","2","false","false","false","false","false","false","[1,2]","011","011","1","","","","","","",""
"","","","","","image-keyboard-response","143","408125","0.0-118.0","644e757b60476ac7d5a7717a","665500ab8938657b03fbdba8","6657936e5d33de58ac3f0016","874","stimuli/20110112.jpg"," ","","feedback_trial","1","","","","","","","","","","","","","","","","","","","","",""
"","","","","","image-keyboard-response","144","409273","0.0-119.0","644e757b60476ac7d5a7717a","665500ab8938657b03fbdba8","6657936e5d33de58ac3f0016","1143","stimuli/1000101.jpg","1","","prediction_trial","1","","true","","1","true","true","true","true","true","true","[1]","000","101","1","","","","","","",""
"","","","","","image-keyboard-response","145","410000","0.0-120.0","644e757b60476ac7d5a7717a","665500ab8938657b03fbdba8","6657936e5d33de58ac3f0016","724","stimuli/10001011.jpg"," ","","feedback_trial","1","","","","","","","","","","","","","","","","","","","","",""
"","","","","","image-keyboard-response","146","411440","0.0-121.0","644e757b60476ac7d5a7717a","665500ab8938657b03fbdba8","6657936e5d33de58ac3f0016","1436","stimuli/0101100.jpg","2","","prediction_trial","0","","false","","0","false","true","false","false","false","false","[2,0]","101","100","0","","","","","","",""
"","","","","","image-keyboard-response","147","412323","0.0-122.0","644e757b60476ac7d5a7717a","665500ab8938657b03fbdba8","6657936e5d33de58ac3f0016","879","stimuli/01011000.jpg"," ","","feedback_trial","2","","","","","","","","","","","","","","","","","","","","",""
"","","","","","image-keyboard-response","148","414039","0.0-123.0","644e757b60476ac7d5a7717a","665500ab8938657b03fbdba8","6657936e5d33de58ac3f0016","1695","stimuli/1100101.jpg","1","","prediction_trial","1","","true","","1","true","true","true","true","true","true","[1]","100","101","1","","","","","","",""
"","","","","","image-keyboard-response","149","415573","0.0-124.0","644e757b60476ac7d5a7717a","665500ab8938657b03fbdba8","6657936e5d33de58ac3f0016","1529","stimuli/11001011.jpg"," ","","feedback_trial","1","","","","","","","","","","","","","","","","","","","","",""
"","","","","","image-keyboard-response","150","420314","0.0-125.0","644e757b60476ac7d5a7717a","665500ab8938657b03fbdba8","6657936e5d33de58ac3f0016","4737","stimuli/1000110.jpg","0","","prediction_trial","1","","false","","1","false","false","true","true","false","false","[1]","000","110","0","","","","","","",""
"","","","","","image-keyboard-response","151","421821","0.0-126.0","644e757b60476ac7d5a7717a","665500ab8938657b03fbdba8","6657936e5d33de58ac3f0016","1503","stimuli/10001101.jpg"," ","","feedback_trial","1","","","","","","","","","","","","","","","","","","","","",""
"","","","","","image-keyboard-response","152","424759","0.0-127.0","644e757b60476ac7d5a7717a","665500ab8938657b03fbdba8","6657936e5d33de58ac3f0016","2935","stimuli/1001111.jpg","2","","prediction_trial","1","","false","","1","false","false","true","true","false","false","[1]","001","111","0","","","","","","",""
"","","","","","image-keyboard-response","153","426537","0.0-128.0","644e757b60476ac7d5a7717a","665500ab8938657b03fbdba8","6657936e5d33de58ac3f0016","1775","stimuli/10011111.jpg"," ","","feedback_trial","1","","","","","","","","","","","","","","","","","","","","",""
"","","","","","image-keyboard-response","154","428926","0.0-129.0","644e757b60476ac7d5a7717a","665500ab8938657b03fbdba8","6657936e5d33de58ac3f0016","2388","stimuli/2011100.jpg","2","","prediction_trial","2","","true","","2","true","true","false","false","false","false","[2,1]","011","100","1","","","","","","",""
"","","","","","image-keyboard-response","155","429721","0.0-130.0","644e757b60476ac7d5a7717a","665500ab8938657b03fbdba8","6657936e5d33de58ac3f0016","792","stimuli/20111002.jpg"," ","","feedback_trial","2","","","","","","","","","","","","","","","","","","","","",""
"","","","","","image-keyboard-response","156","431208","0.0-131.0","644e757b60476ac7d5a7717a","665500ab8938657b03fbdba8","6657936e5d33de58ac3f0016","1483","stimuli/0111101.jpg","2","","prediction_trial","1","","false","","0","false","false","false","false","false","false","[1,2,0]","111","101","0","","","","","","",""
"","","","","","image-keyboard-response","157","431906","0.0-132.0","644e757b60476ac7d5a7717a","665500ab8938657b03fbdba8","6657936e5d33de58ac3f0016","694","stimuli/01111011.jpg"," ","","feedback_trial","1","","","","","","","","","","","","","","","","","","","","",""
"","","","","","image-keyboard-response","158","433698","0.0-133.0","644e757b60476ac7d5a7717a","665500ab8938657b03fbdba8","6657936e5d33de58ac3f0016","1788","stimuli/2011001.jpg","2","","prediction_trial","1","","false","","2","false","true","false","false","false","false","[1,2]","011","001","0","","","","","","",""
"","","","","","image-keyboard-response","159","434408","0.0-134.0","644e757b60476ac7d5a7717a","665500ab8938657b03fbdba8","6657936e5d33de58ac3f0016","704","stimuli/20110011.jpg"," ","","feedback_trial","1","","","","","","","","","","","","","","","","","","","","",""
"","","","","","image-keyboard-response","160","435202","0.0-135.0","644e757b60476ac7d5a7717a","665500ab8938657b03fbdba8","6657936e5d33de58ac3f0016","790","stimuli/2110100.jpg","2","","prediction_trial","2","","true","","2","true","true","true","true","true","true","[2]","110","100","1","","","","","","",""
"","","","","","image-keyboard-response","161","435957","0.0-136.0","644e757b60476ac7d5a7717a","665500ab8938657b03fbdba8","6657936e5d33de58ac3f0016","751","stimuli/21101002.jpg"," ","","feedback_trial","2","","","","","","","","","","","","","","","","","","","","",""
"","","","","","image-keyboard-response","162","437727","0.0-137.0","644e757b60476ac7d5a7717a","665500ab8938657b03fbdba8","6657936e5d33de58ac3f0016","1766","stimuli/0110000.jpg","0","","prediction_trial","1","","false","","0","true","true","false","false","false","false","[1,0]","110","000","0","","","","","","",""
"","","","","","image-keyboard-response","163","438670","0.0-138.0","644e757b60476ac7d5a7717a","665500ab8938657b03fbdba8","6657936e5d33de58ac3f0016","940","stimuli/01100001.jpg"," ","","feedback_trial","1","","","","","","","","","","","","","","","","","","","","",""
"","","","","","image-keyboard-response","164","440944","0.0-139.0","644e757b60476ac7d5a7717a","665500ab8938657b03fbdba8","6657936e5d33de58ac3f0016","2270","stimuli/2001001.jpg","2","","prediction_trial","2","","true","","2","false","true","false","true","false","true","[2]","001","001","1","","","","","","",""
"","","","","","image-keyboard-response","165","441581","0.0-140.0","644e757b60476ac7d5a7717a","665500ab8938657b03fbdba8","6657936e5d33de58ac3f0016","633","stimuli/20010012.jpg"," ","","feedback_trial","2","","","","","","","","","","","","","","","","","","","","",""
"","","","","","image-keyboard-response","166","442905","0.0-141.0","644e757b60476ac7d5a7717a","665500ab8938657b03fbdba8","6657936e5d33de58ac3f0016","1321","stimuli/0000011.jpg","0","","prediction_trial","0","","true","","0","true","true","true","true","true","true","[0]","000","011","1","","","","","","",""
"","","","","","image-keyboard-response","167","443517","0.0-142.0","644e757b60476ac7d5a7717a","665500ab8938657b03fbdba8","6657936e5d33de58ac3f0016","608","stimuli/00000110.jpg"," ","","feedback_trial","0","","","","","","","","","","","","","","","","","","","","",""
"","","","","","image-keyboard-response","168","445098","0.0-143.0","644e757b60476ac7d5a7717a","665500ab8938657b03fbdba8","6657936e5d33de58ac3f0016","1577","stimuli/2111010.jpg","2","","prediction_trial","2","","true","","2","true","true","false","false","false","false","[0,1,2]","111","010","1","","","","","","",""
"","","","","","image-keyboard-response","169","445866","0.0-144.0","644e757b60476ac7d5a7717a","665500ab8938657b03fbdba8","6657936e5d33de58ac3f0016","764","stimuli/21110102.jpg"," ","","feedback_trial","0","","","","","","","","","","","","","","","","","","","","",""
"","","","","","image-keyboard-response","170","448019","0.0-145.0","644e757b60476ac7d5a7717a","665500ab8938657b03fbdba8","6657936e5d33de58ac3f0016","2150","stimuli/2101001.jpg","2","","prediction_trial","2","","true","","2","false","true","false","false","false","false","[0,2]","101","001","1","","","","","","",""
"","","","","","image-keyboard-response","171","448756","0.0-146.0","644e757b60476ac7d5a7717a","665500ab8938657b03fbdba8","6657936e5d33de58ac3f0016","732","stimuli/21010012.jpg"," ","","feedback_trial","0","","","","","","","","","","","","","","","","","","","","",""
"","","","","","image-keyboard-response","172","451661","0.0-147.0","644e757b60476ac7d5a7717a","665500ab8938657b03fbdba8","6657936e5d33de58ac3f0016","2902","stimuli/1110001.jpg","0","","prediction_trial","1","","false","","1","true","true","false","false","false","false","[1,0]","110","001","0","","","","","","",""
"","","","","","image-keyboard-response","173","452348","0.0-148.0","644e757b60476ac7d5a7717a","665500ab8938657b03fbdba8","6657936e5d33de58ac3f0016","683","stimuli/11100011.jpg"," ","","feedback_trial","1","","","","","","","","","","","","","","","","","","","","",""
"","","","","","image-keyboard-response","174","453611","0.0-149.0","644e757b60476ac7d5a7717a","665500ab8938657b03fbdba8","6657936e5d33de58ac3f0016","1260","stimuli/0001000.jpg","0","","prediction_trial","0","","true","","0","true","true","true","true","true","true","[0]","001","000","1","","","","","","",""
"","","","","","image-keyboard-response","175","454168","0.0-150.0","644e757b60476ac7d5a7717a","665500ab8938657b03fbdba8","6657936e5d33de58ac3f0016","551","stimuli/00010000.jpg"," ","","feedback_trial","0","","","","","","","","","","","","","","","","","","","","",""
"","","","","","image-keyboard-response","176","456061","0.0-151.0","644e757b60476ac7d5a7717a","665500ab8938657b03fbdba8","6657936e5d33de58ac3f0016","1889","stimuli/1010111.jpg","1","","prediction_trial","1","","true","","1","false","false","false","true","false","false","[1]","010","111","1","","","","","","",""
"","","","","","image-keyboard-response","177","457415","0.0-152.0","644e757b60476ac7d5a7717a","665500ab8938657b03fbdba8","6657936e5d33de58ac3f0016","1350","stimuli/10101111.jpg"," ","","feedback_trial","1","","","","","","","","","","","","","","","","","","","","",""
"","","","","","image-keyboard-response","178","459139","0.0-153.0","644e757b60476ac7d5a7717a","665500ab8938657b03fbdba8","6657936e5d33de58ac3f0016","1720","stimuli/1010101.jpg","1","","prediction_trial","1","","true","","1","true","true","false","true","false","true","[1]","010","101","1","","","","","","",""
"","","","","","image-keyboard-response","179","460748","0.0-154.0","644e757b60476ac7d5a7717a","665500ab8938657b03fbdba8","6657936e5d33de58ac3f0016","1603","stimuli/10101011.jpg"," ","","feedback_trial","1","","","","","","","","","","","","","","","","","","","","",""
"","","","","","image-keyboard-response","180","463103","0.0-155.0","644e757b60476ac7d5a7717a","665500ab8938657b03fbdba8","6657936e5d33de58ac3f0016","2352","stimuli/1110010.jpg","1","","prediction_trial","1","","true","","1","false","true","false","false","false","false","[1,0]","110","010","1","","","","","","",""
"","","","","","image-keyboard-response","181","463972","0.0-156.0","644e757b60476ac7d5a7717a","665500ab8938657b03fbdba8","6657936e5d33de58ac3f0016","851","stimuli/11100101.jpg"," ","","feedback_trial","1","","","","","","","","","","","","","","","","","","","","",""
"","","","","","image-keyboard-response","182","465172","0.0-157.0","644e757b60476ac7d5a7717a","665500ab8938657b03fbdba8","6657936e5d33de58ac3f0016","1195","stimuli/0010000.jpg","0","","prediction_trial","0","","true","","0","true","true","true","true","true","true","[0]","010","000","1","","","","","","",""
"","","","","","image-keyboard-response","183","465870","0.0-158.0","644e757b60476ac7d5a7717a","665500ab8938657b03fbdba8","6657936e5d33de58ac3f0016","694","stimuli/00100000.jpg"," ","","feedback_trial","0","","","","","","","","","","","","","","","","","","","","",""
"","","","","","image-keyboard-response","184","467344","0.0-159.0","644e757b60476ac7d5a7717a","665500ab8938657b03fbdba8","6657936e5d33de58ac3f0016","1470","stimuli/2001110.jpg","2","","prediction_trial","2","","true","","2","true","true","false","true","false","true","[2]","001","110","1","","","","","","",""
"","","","","","image-keyboard-response","185","468469","0.0-160.0","644e757b60476ac7d5a7717a","665500ab8938657b03fbdba8","6657936e5d33de58ac3f0016","1121","stimuli/20011102.jpg"," ","","feedback_trial","2","","","","","","","","","","","","","","","","","","","","",""
"","","","","","image-keyboard-response","186","470813","0.0-161.0","644e757b60476ac7d5a7717a","665500ab8938657b03fbdba8","6657936e5d33de58ac3f0016","2338","stimuli/2011110.jpg","2","","prediction_trial","2","","true","","2","true","true","false","false","false","false","[1,2]","011","110","1","","","","","","",""
"","","","","","image-keyboard-response","187","471264","0.0-162.0","644e757b60476ac7d5a7717a","665500ab8938657b03fbdba8","6657936e5d33de58ac3f0016","448","stimuli/20111102.jpg"," ","","feedback_trial","1","","","","","","","","","","","","","","","","","","","","",""
"","","","","","image-keyboard-response","188","474085","0.0-163.0","644e757b60476ac7d5a7717a","665500ab8938657b03fbdba8","6657936e5d33de58ac3f0016","2817","stimuli/0111111.jpg","1","","prediction_trial","1","","true","","0","false","false","false","false","false","false","[0,2,1]","111","111","1","","","","","","",""
"","","","","","image-keyboard-response","189","474955","0.0-164.0","644e757b60476ac7d5a7717a","665500ab8938657b03fbdba8","6657936e5d33de58ac3f0016","866","stimuli/01111111.jpg"," ","","feedback_trial","0","","","","","","","","","","","","","","","","","","","","",""
"","","","","","image-keyboard-response","190","477575","0.0-165.0","644e757b60476ac7d5a7717a","665500ab8938657b03fbdba8","6657936e5d33de58ac3f0016","2617","stimuli/0110110.jpg","1","","prediction_trial","1","","true","","0","false","false","false","false","false","false","[1,0]","110","110","1","","","","","","",""
"","","","","","image-keyboard-response","191","478247","0.0-166.0","644e757b60476ac7d5a7717a","665500ab8938657b03fbdba8","6657936e5d33de58ac3f0016","666","stimuli/01101101.jpg"," ","","feedback_trial","1","","","","","","","","","","","","","","","","","","","","",""
"","","","","","image-keyboard-response","192","479877","0.0-167.0","644e757b60476ac7d5a7717a","665500ab8938657b03fbdba8","6657936e5d33de58ac3f0016","1598","stimuli/2111011.jpg","1","","prediction_trial","1","","true","","2","false","false","false","false","false","false","[0,2,1]","111","011","1","","","","","","",""
"","","","","","image-keyboard-response","193","480539","0.0-168.0","644e757b60476ac7d5a7717a","665500ab8938657b03fbdba8","6657936e5d33de58ac3f0016","658","stimuli/21110111.jpg"," ","","feedback_trial","0","","","","","","","","","","","","","","","","","","","","",""
"","","","","","image-keyboard-response","194","482851","0.0-169.0","644e757b60476ac7d5a7717a","665500ab8938657b03fbdba8","6657936e5d33de58ac3f0016","2310","stimuli/0100101.jpg","2","","prediction_trial","0","","false","","0","false","false","false","true","false","false","[0]","100","101","0","","","","","","",""
"","","","","","image-keyboard-response","195","483704","0.0-170.0","644e757b60476ac7d5a7717a","665500ab8938657b03fbdba8","6657936e5d33de58ac3f0016","847","stimuli/01001010.jpg"," ","","feedback_trial","0","","","","","","","","","","","","","","","","","","","","",""
"","","","","","image-keyboard-response","196","485347","0.0-171.0","644e757b60476ac7d5a7717a","665500ab8938657b03fbdba8","6657936e5d33de58ac3f0016","1639","stimuli/1110110.jpg","1","","prediction_trial","1","","true","","1","false","false","false","false","false","false","[1,0]","110","110","1","","","","","","",""
"","","","","","image-keyboard-response","197","486193","0.0-172.0","644e757b60476ac7d5a7717a","665500ab8938657b03fbdba8","6657936e5d33de58ac3f0016","842","stimuli/11101101.jpg"," ","","feedback_trial","1","","","","","","","","","","","","","","","","","","","","",""
"","","","","","image-keyboard-response","198","487051","0.0-173.0","644e757b60476ac7d5a7717a","665500ab8938657b03fbdba8","6657936e5d33de58ac3f0016","852","stimuli/1000000.jpg","1","","prediction_trial","1","","true","","1","true","true","true","true","true","true","[1]","000","000","1","","","","","","",""
"","","","","","image-keyboard-response","199","487783","0.0-174.0","644e757b60476ac7d5a7717a","665500ab8938657b03fbdba8","6657936e5d33de58ac3f0016","728","stimuli/10000001.jpg"," ","","feedback_trial","1","","","","","","","","","","","","","","","","","","","","",""
"","","","","","image-keyboard-response","200","488871","0.0-175.0","644e757b60476ac7d5a7717a","665500ab8938657b03fbdba8","6657936e5d33de58ac3f0016","1084","stimuli/1111001.jpg","1","","prediction_trial","2","","false","","1","true","true","false","false","false","false","[0,1,2]","111","001","0","","","","","","",""
"","","","","","image-keyboard-response","201","490082","0.0-176.0","644e757b60476ac7d5a7717a","665500ab8938657b03fbdba8","6657936e5d33de58ac3f0016","1206","stimuli/11110012.jpg"," ","","feedback_trial","0","","","","","","","","","","","","","","","","","","","","",""
"","","","","","image-keyboard-response","202","491525","0.0-177.0","644e757b60476ac7d5a7717a","665500ab8938657b03fbdba8","6657936e5d33de58ac3f0016","1440","stimuli/0100100.jpg","0","","prediction_trial","0","","true","","0","false","true","false","true","false","true","[0]","100","100","1","","","","","","",""
"","","","","","image-keyboard-response","203","492280","0.0-178.0","644e757b60476ac7d5a7717a","665500ab8938657b03fbdba8","6657936e5d33de58ac3f0016","744","stimuli/01001000.jpg"," ","","feedback_trial","0","","","","","","","","","","","","","","","","","","","","",""
"","","","","","image-keyboard-response","204","494587","0.0-179.0","644e757b60476ac7d5a7717a","665500ab8938657b03fbdba8","6657936e5d33de58ac3f0016","2301","stimuli/0110001.jpg","1","","prediction_trial","0","","false","","0","true","true","false","false","false","false","[0,1]","110","001","0","","","","","","",""
"","","","","","image-keyboard-response","205","495383","0.0-180.0","644e757b60476ac7d5a7717a","665500ab8938657b03fbdba8","6657936e5d33de58ac3f0016","793","stimuli/01100010.jpg"," ","","feedback_trial","0","","","","","","","","","","","","","","","","","","","","",""
"","","","","","image-keyboard-response","206","497407","0.0-181.0","644e757b60476ac7d5a7717a","665500ab8938657b03fbdba8","6657936e5d33de58ac3f0016","2021","stimuli/0100110.jpg","1","","prediction_trial","0","","false","","0","false","false","false","true","false","false","[0]","100","110","0","","","","","","",""
"","","","","","image-keyboard-response","207","498613","0.0-182.0","644e757b60476ac7d5a7717a","665500ab8938657b03fbdba8","6657936e5d33de58ac3f0016","1203","stimuli/01001100.jpg"," ","","feedback_trial","0","","","","","","","","","","","","","","","","","","","","",""
"","","","","","image-keyboard-response","208","500817","0.0-183.0","644e757b60476ac7d5a7717a","665500ab8938657b03fbdba8","6657936e5d33de58ac3f0016","2199","stimuli/0001110.jpg","1","","prediction_trial","0","","false","","0","false","false","true","true","false","false","[0]","001","110","0","","","","","","",""
"","","","","","image-keyboard-response","209","501740","0.0-184.0","644e757b60476ac7d5a7717a","665500ab8938657b03fbdba8","6657936e5d33de58ac3f0016","920","stimuli/00011100.jpg"," ","","feedback_trial","0","","","","","","","","","","","","","","","","","","","","",""
"","","","","","image-keyboard-response","210","505022","0.0-185.0","644e757b60476ac7d5a7717a","665500ab8938657b03fbdba8","6657936e5d33de58ac3f0016","3278","stimuli/0101010.jpg","0","","prediction_trial","0","","true","","0","true","true","false","false","false","false","[2,0]","101","010","1","","","","","","",""
"","","","","","image-keyboard-response","211","506240","0.0-186.0","644e757b60476ac7d5a7717a","665500ab8938657b03fbdba8","6657936e5d33de58ac3f0016","1213","stimuli/01010100.jpg"," ","","feedback_trial","2","","","","","","","","","","","","","","","","","","","","",""
"","","","","","image-keyboard-response","212","508358","0.0-187.0","644e757b60476ac7d5a7717a","665500ab8938657b03fbdba8","6657936e5d33de58ac3f0016","2113","stimuli/2101100.jpg","2","","prediction_trial","2","","true","","2","true","true","false","false","false","false","[2,0]","101","100","1","","","","","","",""
"","","","","","image-keyboard-response","213","509184","0.0-188.0","644e757b60476ac7d5a7717a","665500ab8938657b03fbdba8","6657936e5d33de58ac3f0016","822","stimuli/21011002.jpg"," ","","feedback_trial","2","","","","","","","","","","","","","","","","","","","","",""
"","","","","","image-keyboard-response","214","511877","0.0-189.0","644e757b60476ac7d5a7717a","665500ab8938657b03fbdba8","6657936e5d33de58ac3f0016","2669","stimuli/0011111.jpg","1","","prediction_trial","0","","false","","0","false","false","true","true","false","false","[0]","011","111","0","","","","","","",""
"","","","","","image-keyboard-response","215","512808","0.0-190.0","644e757b60476ac7d5a7717a","665500ab8938657b03fbdba8","6657936e5d33de58ac3f0016","925","stimuli/00111110.jpg"," ","","feedback_trial","0","","","","","","","","","","","","","","","","","","","","",""
"","","","","","image-keyboard-response","216","514144","0.0-191.0","644e757b60476ac7d5a7717a","665500ab8938657b03fbdba8","6657936e5d33de58ac3f0016","1332","stimuli/1000011.jpg","1","","prediction_trial","1","","true","","1","false","false","true","true","false","false","[1]","000","011","1","","","","","","",""
"","","","","","image-keyboard-response","217","514957","0.0-192.0","644e757b60476ac7d5a7717a","665500ab8938657b03fbdba8","6657936e5d33de58ac3f0016","809","stimuli/10000111.jpg"," ","","feedback_trial","1","","","","","","","","","","","","","","","","","","","","",""
"","","","","","image-keyboard-response","218","517622","0.0-193.0","644e757b60476ac7d5a7717a","665500ab8938657b03fbdba8","6657936e5d33de58ac3f0016","2662","stimuli/1110101.jpg","1","","prediction_trial","1","","true","","1","true","true","false","false","false","false","[0,1]","110","101","1","","","","","","",""
"","","","","","image-keyboard-response","219","518307","0.0-194.0","644e757b60476ac7d5a7717a","665500ab8938657b03fbdba8","6657936e5d33de58ac3f0016","680","stimuli/11101011.jpg"," ","","feedback_trial","0","","","","","","","","","","","","","","","","","","","","",""
"","","","","","image-keyboard-response","220","519957","0.0-195.0","644e757b60476ac7d5a7717a","665500ab8938657b03fbdba8","6657936e5d33de58ac3f0016","1647","stimuli/1001001.jpg","1","","prediction_trial","1","","true","","1","true","true","true","true","true","true","[1]","001","001","1","","","","","","",""
"","","","","","image-keyboard-response","221","521152","0.0-196.0","644e757b60476ac7d5a7717a","665500ab8938657b03fbdba8","6657936e5d33de58ac3f0016","1191","stimuli/10010011.jpg"," ","","feedback_trial","1","","","","","","","","","","","","","","","","","","","","",""
"","","","","","image-keyboard-response","222","522447","0.0-197.0","644e757b60476ac7d5a7717a","665500ab8938657b03fbdba8","6657936e5d33de58ac3f0016","1291","stimuli/1110100.jpg","1","","prediction_trial","1","","true","","1","true","true","false","false","false","false","[0,1]","110","100","1","","","","","","",""
"","","","","","image-keyboard-response","223","523045","0.0-198.0","644e757b60476ac7d5a7717a","665500ab8938657b03fbdba8","6657936e5d33de58ac3f0016","593","stimuli/11101001.jpg"," ","","feedback_trial","0","","","","","","","","","","","","","","","","","","","","",""
"","","","","","image-keyboard-response","224","523786","0.0-199.0","644e757b60476ac7d5a7717a","665500ab8938657b03fbdba8","6657936e5d33de58ac3f0016","736","stimuli/1100000.jpg","1","","prediction_trial","1","","true","","1","true","true","true","true","true","true","[1]","100","000","1","","","","","","",""
"","","","","","image-keyboard-response","225","524278","0.0-200.0","644e757b60476ac7d5a7717a","665500ab8938657b03fbdba8","6657936e5d33de58ac3f0016","479","stimuli/11000001.jpg"," ","","feedback_trial","1","","","","","","","","","","","","","","","","","","","","",""
"","","","","","image-keyboard-response","226","525376","0.0-201.0","644e757b60476ac7d5a7717a","665500ab8938657b03fbdba8","6657936e5d33de58ac3f0016","1093","stimuli/1011111.jpg","1","","prediction_trial","1","","true","","1","false","false","false","false","false","false","[2,1]","011","111","1","","","","","","",""
"","","","","","image-keyboard-response","227","525938","0.0-202.0","644e757b60476ac7d5a7717a","665500ab8938657b03fbdba8","6657936e5d33de58ac3f0016","557","stimuli/10111111.jpg"," ","","feedback_trial","2","","","","","","","","","","","","","","","","","","","","",""
"","","","","","image-keyboard-response","228","527487","0.0-203.0","644e757b60476ac7d5a7717a","665500ab8938657b03fbdba8","6657936e5d33de58ac3f0016","1544","stimuli/2110111.jpg","1","","prediction_trial","2","","false","","2","false","false","true","true","false","false","[2]","110","111","0","","","","","","",""
"","","","","","image-keyboard-response","229","528166","0.0-204.0","644e757b60476ac7d5a7717a","665500ab8938657b03fbdba8","6657936e5d33de58ac3f0016","674","stimuli/21101112.jpg"," ","","feedback_trial","2","","","","","","","","","","","","","","","","","","","","",""
"","","","","","image-keyboard-response","230","529027","0.0-205.0","644e757b60476ac7d5a7717a","665500ab8938657b03fbdba8","6657936e5d33de58ac3f0016","857","stimuli/1101000.jpg","1","","prediction_trial","1","","true","","1","true","true","true","true","true","true","[1]","101","000","1","","","","","","",""
"","","","","","image-keyboard-response","231","529689","0.0-206.0","644e757b60476ac7d5a7717a","665500ab8938657b03fbdba8","6657936e5d33de58ac3f0016","659","stimuli/11010001.jpg"," ","","feedback_trial","1","","","","","","","","","","","","","","","","","","","","",""
"","","","","","image-keyboard-response","232","530793","0.0-207.0","644e757b60476ac7d5a7717a","665500ab8938657b03fbdba8","6657936e5d33de58ac3f0016","1101","stimuli/0001101.jpg","1","","prediction_trial","0","","false","","0","false","false","true","true","false","false","[0]","001","101","0","","","","","","",""
"","","","","","image-keyboard-response","233","531412","0.0-208.0","644e757b60476ac7d5a7717a","665500ab8938657b03fbdba8","6657936e5d33de58ac3f0016","615","stimuli/00011010.jpg"," ","","feedback_trial","0","","","","","","","","","","","","","","","","","","","","",""
"","","","","","image-keyboard-response","234","532629","0.0-209.0","644e757b60476ac7d5a7717a","665500ab8938657b03fbdba8","6657936e5d33de58ac3f0016","1214","stimuli/1010011.jpg","1","","prediction_trial","1","","true","","1","false","false","false","true","false","false","[1]","010","011","1","","","","","","",""
"","","","","","image-keyboard-response","235","533540","0.0-210.0","644e757b60476ac7d5a7717a","665500ab8938657b03fbdba8","6657936e5d33de58ac3f0016","907","stimuli/10100111.jpg"," ","","feedback_trial","1","","","","","","","","","","","","","","","","","","","","",""
"","","","","","image-keyboard-response","236","534865","0.0-211.0","644e757b60476ac7d5a7717a","665500ab8938657b03fbdba8","6657936e5d33de58ac3f0016","1312","stimuli/0011010.jpg","0","","prediction_trial","0","","true","","0","true","true","true","true","true","true","[0]","011","010","1","","","","","","",""
"","","","","","image-keyboard-response","237","535434","0.0-212.0","644e757b60476ac7d5a7717a","665500ab8938657b03fbdba8","6657936e5d33de58ac3f0016","565","stimuli/00110100.jpg"," ","","feedback_trial","0","","","","","","","","","","","","","","","","","","","","",""
"","","","","","image-keyboard-response","238","538181","0.0-213.0","644e757b60476ac7d5a7717a","665500ab8938657b03fbdba8","6657936e5d33de58ac3f0016","2743","stimuli/0000100.jpg","0","","prediction_trial","0","","true","","0","false","true","true","true","false","true","[0]","000","100","1","","","","","","",""
"","","","","","image-keyboard-response","239","539003","0.0-214.0","644e757b60476ac7d5a7717a","665500ab8938657b03fbdba8","6657936e5d33de58ac3f0016","817","stimuli/00001000.jpg"," ","","feedback_trial","0","","","","","","","","","","","","","","","","","","","","",""
"","","","","","image-keyboard-response","240","540485","0.0-215.0","644e757b60476ac7d5a7717a","665500ab8938657b03fbdba8","6657936e5d33de58ac3f0016","1478","stimuli/1001100.jpg","1","","prediction_trial","1","","true","","1","true","true","true","true","true","true","[1]","001","100","1","","","","","","",""
"","","","","","image-keyboard-response","241","541036","0.0-216.0","644e757b60476ac7d5a7717a","665500ab8938657b03fbdba8","6657936e5d33de58ac3f0016","546","stimuli/10011001.jpg"," ","","feedback_trial","1","","","","","","","","","","","","","","","","","","","","",""
"","","","","","image-keyboard-response","242","542140","0.0-217.0","644e757b60476ac7d5a7717a","665500ab8938657b03fbdba8","6657936e5d33de58ac3f0016","1100","stimuli/2100110.jpg","2","","prediction_trial","2","","true","","2","true","true","true","true","true","true","[2]","100","110","1","","","","","","",""
"","","","","","image-keyboard-response","243","542636","0.0-218.0","644e757b60476ac7d5a7717a","665500ab8938657b03fbdba8","6657936e5d33de58ac3f0016","491","stimuli/21001102.jpg"," ","","feedback_trial","2","","","","","","","","","","","","","","","","","","","","",""
"","","","","","image-keyboard-response","244","544233","0.0-219.0","644e757b60476ac7d5a7717a","665500ab8938657b03fbdba8","6657936e5d33de58ac3f0016","1593","stimuli/0011110.jpg","1","","prediction_trial","0","","false","","0","false","false","true","true","false","false","[0]","011","110","0","","","","","","",""
"","","","","","image-keyboard-response","245","545225","0.0-220.0","644e757b60476ac7d5a7717a","665500ab8938657b03fbdba8","6657936e5d33de58ac3f0016","985","stimuli/00111100.jpg"," ","","feedback_trial","0","","","","","","","","","","","","","","","","","","","","",""
"","","","","","image-keyboard-response","246","547436","0.0-221.0","644e757b60476ac7d5a7717a","665500ab8938657b03fbdba8","6657936e5d33de58ac3f0016","2207","stimuli/1010001.jpg","1","","prediction_trial","1","","true","","1","true","true","false","true","false","true","[1]","010","001","1","","","","","","",""
"","","","","","image-keyboard-response","247","547930","0.0-222.0","644e757b60476ac7d5a7717a","665500ab8938657b03fbdba8","6657936e5d33de58ac3f0016","483","stimuli/10100011.jpg"," ","","feedback_trial","1","","","","","","","","","","","","","","","","","","","","",""
"","","","","","image-keyboard-response","248","549014","0.0-223.0","644e757b60476ac7d5a7717a","665500ab8938657b03fbdba8","6657936e5d33de58ac3f0016","1081","stimuli/1001101.jpg","1","","prediction_trial","1","","true","","1","true","true","true","true","true","true","[1]","001","101","1","","","","","","",""
"","","","","","image-keyboard-response","249","549508","0.0-224.0","644e757b60476ac7d5a7717a","665500ab8938657b03fbdba8","6657936e5d33de58ac3f0016","488","stimuli/10011011.jpg"," ","","feedback_trial","1","","","","","","","","","","","","","","","","","","","","",""
"","","","","","image-keyboard-response","250","550811","0.0-225.0","644e757b60476ac7d5a7717a","665500ab8938657b03fbdba8","6657936e5d33de58ac3f0016","1299","stimuli/1111101.jpg","1","","prediction_trial","0","","false","","1","true","true","false","false","false","false","[1,0,2]","111","101","0","","","","","","",""
"","","","","","image-keyboard-response","251","551698","0.0-226.0","644e757b60476ac7d5a7717a","665500ab8938657b03fbdba8","6657936e5d33de58ac3f0016","882","stimuli/11111010.jpg"," ","","feedback_trial","1","","","","","","","","","","","","","","","","","","","","",""
"","","","","","image-keyboard-response","252","552496","0.0-227.0","644e757b60476ac7d5a7717a","665500ab8938657b03fbdba8","6657936e5d33de58ac3f0016","795","stimuli/1101111.jpg","1","","prediction_trial","1","","true","","1","false","false","true","true","false","false","[1]","101","111","1","","","","","","",""
"","","","","","image-keyboard-response","253","553232","0.0-228.0","644e757b60476ac7d5a7717a","665500ab8938657b03fbdba8","6657936e5d33de58ac3f0016","733","stimuli/11011111.jpg"," ","","feedback_trial","1","","","","","","","","","","","","","","","","","","","","",""
"","","","","","image-keyboard-response","254","554253","0.0-229.0","644e757b60476ac7d5a7717a","665500ab8938657b03fbdba8","6657936e5d33de58ac3f0016","1017","stimuli/1111111.jpg","1","","prediction_trial","2","","false","","1","false","false","false","false","false","false","[2,1,0]","111","111","0","","","","","","",""
"","","","","","image-keyboard-response","255","555459","0.0-230.0","644e757b60476ac7d5a7717a","665500ab8938657b03fbdba8","6657936e5d33de58ac3f0016","1202","stimuli/11111112.jpg"," ","","feedback_trial","2","","","","","","","","","","","","","","","","","","","","",""
"","","","","","image-keyboard-response","256","556194","0.0-231.0","644e757b60476ac7d5a7717a","665500ab8938657b03fbdba8","6657936e5d33de58ac3f0016","731","stimuli/1000001.jpg","1","","prediction_trial","1","","true","","1","true","true","true","true","true","true","[1]","000","001","1","","","","","","",""
"","","","","","image-keyboard-response","257","556692","0.0-232.0","644e757b60476ac7d5a7717a","665500ab8938657b03fbdba8","6657936e5d33de58ac3f0016","494","stimuli/10000011.jpg"," ","","feedback_trial","1","","","","","","","","","","","","","","","","","","","","",""
"","","","","","image-keyboard-response","258","560542","0.0-233.0","644e757b60476ac7d5a7717a","665500ab8938657b03fbdba8","6657936e5d33de58ac3f0016","3835","stimuli/2011101.jpg","1","","prediction_trial","1","","true","","2","false","false","false","false","false","false","[1,2]","011","101","1","","","","","","",""
"","","","","","image-keyboard-response","259","561103","0.0-234.0","644e757b60476ac7d5a7717a","665500ab8938657b03fbdba8","6657936e5d33de58ac3f0016","559","stimuli/20111011.jpg"," ","","feedback_trial","1","","","","","","","","","","","","","","","","","","","","",""
"","","","","","image-keyboard-response","260","562446","0.0-235.0","644e757b60476ac7d5a7717a","665500ab8938657b03fbdba8","6657936e5d33de58ac3f0016","1338","stimuli/0000111.jpg","1","","prediction_trial","0","","false","","0","false","false","true","true","false","false","[0]","000","111","0","","","","","","",""
"","","","","","image-keyboard-response","261","563302","0.0-236.0","644e757b60476ac7d5a7717a","665500ab8938657b03fbdba8","6657936e5d33de58ac3f0016","853","stimuli/00001110.jpg"," ","","feedback_trial","0","","","","","","","","","","","","","","","","","","","","",""
"","","","","","image-keyboard-response","262","563843","0.0-237.0","644e757b60476ac7d5a7717a","665500ab8938657b03fbdba8","6657936e5d33de58ac3f0016","537","stimuli/1101001.jpg","1","","prediction_trial","1","","true","","1","true","true","true","true","true","true","[1]","101","001","1","","","","","","",""
"","","","","","image-keyboard-response","263","564421","0.0-238.0","644e757b60476ac7d5a7717a","665500ab8938657b03fbdba8","6657936e5d33de58ac3f0016","572","stimuli/11010011.jpg"," ","","feedback_trial","1","","","","","","","","","","","","","","","","","","","","",""
"","","","","","image-keyboard-response","264","565739","0.0-239.0","644e757b60476ac7d5a7717a","665500ab8938657b03fbdba8","6657936e5d33de58ac3f0016","1314","stimuli/2100100.jpg","2","","prediction_trial","2","","true","","2","true","true","true","true","true","true","[2]","100","100","1","","","","","","",""
"","","","","","image-keyboard-response","265","566592","0.0-240.0","644e757b60476ac7d5a7717a","665500ab8938657b03fbdba8","6657936e5d33de58ac3f0016","849","stimuli/21001002.jpg"," ","","feedback_trial","2","","","","","","","","","","","","","","","","","","","","",""
"","","","","","image-keyboard-response","266","568668","0.0-241.0","644e757b60476ac7d5a7717a","665500ab8938657b03fbdba8","6657936e5d33de58ac3f0016","2073","stimuli/1100011.jpg","1","","prediction_trial","1","","true","","1","false","false","true","true","false","false","[1]","100","011","1","","","","","","",""
"","","","","","image-keyboard-response","267","569254","0.0-242.0","644e757b60476ac7d5a7717a","665500ab8938657b03fbdba8","6657936e5d33de58ac3f0016","582","stimuli/11000111.jpg"," ","","feedback_trial","1","","","","","","","","","","","","","","","","","","","","",""
"","","","","","image-keyboard-response","268","570534","0.0-243.0","644e757b60476ac7d5a7717a","665500ab8938657b03fbdba8","6657936e5d33de58ac3f0016","1277","stimuli/2000011.jpg","1","","prediction_trial","2","","false","","2","false","false","true","true","false","false","[2]","000","011","0","","","","","","",""
"","","","","","image-keyboard-response","269","571257","0.0-244.0","644e757b60476ac7d5a7717a","665500ab8938657b03fbdba8","6657936e5d33de58ac3f0016","709","stimuli/20000112.jpg"," ","","feedback_trial","2","","","","","","","","","","","","","","","","","","","","",""
"","","","","","image-keyboard-response","270","572715","0.0-245.0","644e757b60476ac7d5a7717a","665500ab8938657b03fbdba8","6657936e5d33de58ac3f0016","1453","stimuli/0000101.jpg","2","","prediction_trial","0","","false","","0","false","false","true","true","false","false","[0]","000","101","0","","","","","","",""
"","","","","","image-keyboard-response","271","573460","0.0-246.0","644e757b60476ac7d5a7717a","665500ab8938657b03fbdba8","6657936e5d33de58ac3f0016","743","stimuli/00001010.jpg"," ","","feedback_trial","0","","","","","","","","","","","","","","","","","","","","",""
"","","","","","image-keyboard-response","272","576428","0.0-247.0","644e757b60476ac7d5a7717a","665500ab8938657b03fbdba8","6657936e5d33de58ac3f0016","2963","stimuli/0010101.jpg","2","","prediction_trial","0","","false","","0","false","false","true","true","false","false","[0]","010","101","0","","","","","","",""
"","","","","","image-keyboard-response","273","577567","0.0-248.0","644e757b60476ac7d5a7717a","665500ab8938657b03fbdba8","6657936e5d33de58ac3f0016","1135","stimuli/00101010.jpg"," ","","feedback_trial","0","","","","","","","","","","","","","","","","","","","","",""
"","","","","","image-keyboard-response","274","578852","0.0-249.0","644e757b60476ac7d5a7717a","665500ab8938657b03fbdba8","6657936e5d33de58ac3f0016","1280","stimuli/0000010.jpg","0","","prediction_trial","0","","true","","0","true","true","true","true","true","true","[0]","000","010","1","","","","","","",""
"","","","","","image-keyboard-response","275","579351","0.0-250.0","644e757b60476ac7d5a7717a","665500ab8938657b03fbdba8","6657936e5d33de58ac3f0016","494","stimuli/00000100.jpg"," ","","feedback_trial","0","","","","","","","","","","","","","","","","","","","","",""
"","","","","","image-keyboard-response","276","580982","0.0-251.0","644e757b60476ac7d5a7717a","665500ab8938657b03fbdba8","6657936e5d33de58ac3f0016","1627","stimuli/1101110.jpg","1","","prediction_trial","1","","true","","1","false","false","true","true","false","false","[1]","101","110","1","","","","","","",""
"","","","","","image-keyboard-response","277","582016","0.0-252.0","644e757b60476ac7d5a7717a","665500ab8938657b03fbdba8","6657936e5d33de58ac3f0016","1030","stimuli/11011101.jpg"," ","","feedback_trial","1","","","","","","","","","","","","","","","","","","","","",""
"","","","","","image-keyboard-response","278","583346","0.0-253.0","644e757b60476ac7d5a7717a","665500ab8938657b03fbdba8","6657936e5d33de58ac3f0016","1327","stimuli/2001011.jpg","1","","prediction_trial","2","","false","","2","false","false","false","true","false","false","[2]","001","011","0","","","","","","",""
"","","","","","image-keyboard-response","279","584195","0.0-254.0","644e757b60476ac7d5a7717a","665500ab8938657b03fbdba8","6657936e5d33de58ac3f0016","845","stimuli/20010112.jpg"," ","","feedback_trial","2","","","","","","","","","","","","","","","","","","","","",""
"","","","","","image-keyboard-response","280","585485","0.0-255.0","644e757b60476ac7d5a7717a","665500ab8938657b03fbdba8","6657936e5d33de58ac3f0016","1277","stimuli/1001011.jpg","1","","prediction_trial","1","","true","","1","false","false","true","true","false","false","[1]","001","011","1","","","","","","",""
"","","","","","image-keyboard-response","281","586173","0.0-256.0","644e757b60476ac7d5a7717a","665500ab8938657b03fbdba8","6657936e5d33de58ac3f0016","683","stimuli/10010111.jpg"," ","","feedback_trial","1","","","","","","","","","","","","","","","","","","","","",""
"","","","","","image-keyboard-response","282","587737","0.0-257.0","644e757b60476ac7d5a7717a","665500ab8938657b03fbdba8","6657936e5d33de58ac3f0016","1560","stimuli/2010001.jpg","2","","prediction_trial","2","","true","","2","false","true","true","true","false","true","[2]","010","001","1","","","","","","",""
"","","","","","image-keyboard-response","283","588516","0.0-258.0","644e757b60476ac7d5a7717a","665500ab8938657b03fbdba8","6657936e5d33de58ac3f0016","776","stimuli/20100012.jpg"," ","","feedback_trial","2","","","","","","","","","","","","","","","","","","","","",""
"","","","","","image-keyboard-response","284","591153","0.0-259.0","644e757b60476ac7d5a7717a","665500ab8938657b03fbdba8","6657936e5d33de58ac3f0016","2634","stimuli/2101111.jpg","1","","prediction_trial","2","","false","","2","false","false","false","false","false","false","[2,0]","101","111","0","","","","","","",""
"","","","","","image-keyboard-response","285","591812","0.0-260.0","644e757b60476ac7d5a7717a","665500ab8938657b03fbdba8","6657936e5d33de58ac3f0016","654","stimuli/21011112.jpg"," ","","feedback_trial","2","","","","","","","","","","","","","","","","","","","","",""
"","","","","","image-keyboard-response","286","593249","0.0-261.0","644e757b60476ac7d5a7717a","665500ab8938657b03fbdba8","6657936e5d33de58ac3f0016","1435","stimuli/1110000.jpg","1","","prediction_trial","0","","false","","1","true","true","false","false","false","false","[0,1]","110","000","0","","","","","","",""
"","","","","","image-keyboard-response","287","594075","0.0-262.0","644e757b60476ac7d5a7717a","665500ab8938657b03fbdba8","6657936e5d33de58ac3f0016","821","stimuli/11100000.jpg"," ","","feedback_trial","0","","","","","","","","","","","","","","","","","","","","",""
"","","","","","image-keyboard-response","288","595486","0.0-263.0","644e757b60476ac7d5a7717a","665500ab8938657b03fbdba8","6657936e5d33de58ac3f0016","1406","stimuli/0000000.jpg","0","","prediction_trial","0","","true","","0","true","true","true","true","true","true","[0]","000","000","1","","","","","","",""
"","","","","","image-keyboard-response","289","596039","0.0-264.0","644e757b60476ac7d5a7717a","665500ab8938657b03fbdba8","6657936e5d33de58ac3f0016","549","stimuli/00000000.jpg"," ","","feedback_trial","0","","","","","","","","","","","","","","","","","","","","",""
"","","","","","image-keyboard-response","290","597394","0.0-265.0","644e757b60476ac7d5a7717a","665500ab8938657b03fbdba8","6657936e5d33de58ac3f0016","1351","stimuli/0011001.jpg","0","","prediction_trial","0","","true","","0","true","true","true","true","true","true","[0]","011","001","1","","","","","","",""
"","","","","","image-keyboard-response","291","597832","0.0-266.0","644e757b60476ac7d5a7717a","665500ab8938657b03fbdba8","6657936e5d33de58ac3f0016","431","stimuli/00110010.jpg"," ","","feedback_trial","0","","","","","","","","","","","","","","","","","","","","",""
"","","","","","image-keyboard-response","292","598762","0.0-267.0","644e757b60476ac7d5a7717a","665500ab8938657b03fbdba8","6657936e5d33de58ac3f0016","926","stimuli/2100000.jpg","2","","prediction_trial","2","","true","","2","true","true","true","true","true","true","[2]","100","000","1","","","","","","",""
"","","","","","image-keyboard-response","293","599221","0.0-268.0","644e757b60476ac7d5a7717a","665500ab8938657b03fbdba8","6657936e5d33de58ac3f0016","454","stimuli/21000002.jpg"," ","","feedback_trial","2","","","","","","","","","","","","","","","","","","","","",""
"","","","","","image-keyboard-response","294","602841","0.0-269.0","644e757b60476ac7d5a7717a","665500ab8938657b03fbdba8","6657936e5d33de58ac3f0016","3616","stimuli/0010110.jpg","1","","prediction_trial","0","","false","","0","false","false","true","true","false","false","[0]","010","110","0","","","","","","",""
"","","","","","image-keyboard-response","295","603662","0.0-270.0","644e757b60476ac7d5a7717a","665500ab8938657b03fbdba8","6657936e5d33de58ac3f0016","815","stimuli/00101100.jpg"," ","","feedback_trial","0","","","","","","","","","","","","","","","","","","","","",""
"","","","","","image-keyboard-response","296","604760","0.0-271.0","644e757b60476ac7d5a7717a","665500ab8938657b03fbdba8","6657936e5d33de58ac3f0016","1094","stimuli/2110000.jpg","2","","prediction_trial","2","","true","","2","true","true","true","true","true","true","[2]","110","000","1","","","","","","",""
"","","","","","image-keyboard-response","297","606351","0.0-272.0","644e757b60476ac7d5a7717a","665500ab8938657b03fbdba8","6657936e5d33de58ac3f0016","1585","stimuli/21100002.jpg"," ","","feedback_trial","2","","","","","","","","","","","","","","","","","","","","",""
"","","","","","image-keyboard-response","298","607943","0.0-273.0","644e757b60476ac7d5a7717a","665500ab8938657b03fbdba8","6657936e5d33de58ac3f0016","1587","stimuli/2010111.jpg","1","","prediction_trial","2","","false","","2","false","false","true","true","false","false","[2]","010","111","0","","","","","","",""
"","","","","","image-keyboard-response","299","608544","0.0-274.0","644e757b60476ac7d5a7717a","665500ab8938657b03fbdba8","6657936e5d33de58ac3f0016","597","stimuli/20101112.jpg"," ","","feedback_trial","2","","","","","","","","","","","","","","","","","","","","",""
"","","","","","image-keyboard-response","300","609839","0.0-275.0","644e757b60476ac7d5a7717a","665500ab8938657b03fbdba8","6657936e5d33de58ac3f0016","1291","stimuli/2100111.jpg","1","","prediction_trial","2","","false","","2","false","false","true","true","false","false","[2]","100","111","0","","","","","","",""
"","","","","","image-keyboard-response","301","610739","0.0-276.0","644e757b60476ac7d5a7717a","665500ab8938657b03fbdba8","6657936e5d33de58ac3f0016","894","stimuli/21001112.jpg"," ","","feedback_trial","2","","","","","","","","","","","","","","","","","","","","",""
"","","","","","image-keyboard-response","302","611638","0.0-277.0","644e757b60476ac7d5a7717a","665500ab8938657b03fbdba8","6657936e5d33de58ac3f0016","885","stimuli/1011101.jpg","1","","prediction_trial","2","","false","","1","true","true","false","false","false","false","[1,2]","011","101","0","","","","","","",""
"","","","","","image-keyboard-response","303","612644","0.0-278.0","644e757b60476ac7d5a7717a","665500ab8938657b03fbdba8","6657936e5d33de58ac3f0016","1001","stimuli/10111012.jpg"," ","","feedback_trial","1","","","","","","","","","","","","","","","","","","","","",""
"","","","","","image-keyboard-response","304","614808","0.0-279.0","644e757b60476ac7d5a7717a","665500ab8938657b03fbdba8","6657936e5d33de58ac3f0016","2161","stimuli/0100010.jpg","0","","prediction_trial","0","","true","","0","true","true","false","true","false","true","[0]","100","010","1","","","","","","",""
"","","","","","image-keyboard-response","305","615738","0.0-280.0","644e757b60476ac7d5a7717a","665500ab8938657b03fbdba8","6657936e5d33de58ac3f0016","926","stimuli/01000100.jpg"," ","","feedback_trial","0","","","","","","","","","","","","","","","","","","","","",""
"","","","","","image-keyboard-response","306","616707","0.0-281.0","644e757b60476ac7d5a7717a","665500ab8938657b03fbdba8","6657936e5d33de58ac3f0016","965","stimuli/0110010.jpg","0","","prediction_trial","1","","false","","0","true","true","false","false","false","false","[0,1]","110","010","0","","","","","","",""
"","","","","","image-keyboard-response","307","618093","0.0-282.0","644e757b60476ac7d5a7717a","665500ab8938657b03fbdba8","6657936e5d33de58ac3f0016","1382","stimuli/01100101.jpg"," ","","feedback_trial","0","","","","","","","","","","","","","","","","","","","","",""
"","","","","","image-keyboard-response","308","619225","0.0-283.0","644e757b60476ac7d5a7717a","665500ab8938657b03fbdba8","6657936e5d33de58ac3f0016","1128","stimuli/2000000.jpg","2","","prediction_trial","2","","true","","2","true","true","true","true","true","true","[2]","000","000","1","","","","","","",""
"","","","","","image-keyboard-response","309","619907","0.0-284.0","644e757b60476ac7d5a7717a","665500ab8938657b03fbdba8","6657936e5d33de58ac3f0016","676","stimuli/20000002.jpg"," ","","feedback_trial","2","","","","","","","","","","","","","","","","","","","","",""
"","","","","","image-keyboard-response","310","622070","0.0-285.0","644e757b60476ac7d5a7717a","665500ab8938657b03fbdba8","6657936e5d33de58ac3f0016","2159","stimuli/2111000.jpg","2","","prediction_trial","1","","false","","2","true","true","false","false","false","false","[2,1,0]","111","000","0","","","","","","",""
"","","","","","image-keyboard-response","311","626201","0.0-286.0","644e757b60476ac7d5a7717a","665500ab8938657b03fbdba8","6657936e5d33de58ac3f0016","4128","stimuli/21110001.jpg"," ","","feedback_trial","2","","","","","","","","","","","","","","","","","","","","",""
"","","","","","image-keyboard-response","312","628509","0.0-287.0","644e757b60476ac7d5a7717a","665500ab8938657b03fbdba8","6657936e5d33de58ac3f0016","2303","stimuli/2010011.jpg","1","","prediction_trial","2","","false","","2","false","false","true","true","false","false","[2]","010","011","0","","","","","","",""
"","","","","","image-keyboard-response","313","629503","0.0-288.0","644e757b60476ac7d5a7717a","665500ab8938657b03fbdba8","6657936e5d33de58ac3f0016","989","stimuli/20100112.jpg"," ","","feedback_trial","2","","","","","","","","","","","","","","","","","","","","",""
"","","","","","image-keyboard-response","314","635218","0.0-289.0","644e757b60476ac7d5a7717a","665500ab8938657b03fbdba8","6657936e5d33de58ac3f0016","5710","stimuli/0001100.jpg","0","","prediction_trial","0","","true","","0","false","true","true","true","false","true","[0]","001","100","1","","","","","","",""
"","","","","","image-keyboard-response","315","636194","0.0-290.0","644e757b60476ac7d5a7717a","665500ab8938657b03fbdba8","6657936e5d33de58ac3f0016","970","stimuli/00011000.jpg"," ","","feedback_trial","0","","","","","","","","","","","","","","","","","","","","",""
"","","","","","image-keyboard-response","316","639237","0.0-291.0","644e757b60476ac7d5a7717a","665500ab8938657b03fbdba8","6657936e5d33de58ac3f0016","3039","stimuli/2001101.jpg","2","","prediction_trial","2","","true","","2","false","false","false","true","false","false","[2]","001","101","1","","","","","","",""
"","","","","","image-keyboard-response","317","640263","0.0-292.0","644e757b60476ac7d5a7717a","665500ab8938657b03fbdba8","6657936e5d33de58ac3f0016","1023","stimuli/20011012.jpg"," ","","feedback_trial","2","","","","","","","","","","","","","","","","","","","","",""
"","","","","","survey-html-form","318","700328","0.0-293.0","644e757b60476ac7d5a7717a","665500ab8938657b03fbdba8","6657936e5d33de58ac3f0016","60041","","{""feedback"":""Deduction first and then tried to predict a pattern in his choices."",""age"":""59"",""gender"":""Male"",""other_gender"":"""",""race"":""White"",""other_race"":"""",""ethnicity"":""Non-Hispanic""}","","exit_survey","","","","","","","","","","","","","","","","Deduction first and then tried to predict a pattern in his choices.","59","Non-Hispanic","Male","White","0.625","0.625"
