"success","timeout","failed_images","failed_audio","failed_video","trial_type","trial_index","time_elapsed","internal_node_id","prolific_id","prolific_study_id","prolific_session_id","rt","stimulus","response","view_history","trial","character_choice","stimulus_dict","accuracy","correct_response","ball_pos","ego_ball_visible","ego_can_infer","alter_ball_visible","alter_can_infer","collective_ball_visible","collective_can_infer","search_locations","alter_occluders","ego_occluders","accuracy_bool","feedback","age","ethnicity","gender","race","overall_accuracy","bonus"
"true","false","[]","[]","[]","preload","0","4776","0.0-0.0","5ec195df3f2aec276ff0bf33","665500ab8938657b03fbdba8","665792f1acebdfee506c15ca","","","","","","","","","","","","","","","","","","","","","","","","","","",""
"true","","","","","fullscreen","1","8850","0.0-1.0","5ec195df3f2aec276ff0bf33","665500ab8938657b03fbdba8","665792f1acebdfee506c15ca","","","","","","","","","","","","","","","","","","","","","","","","","","",""
"","","","","","html-button-response","2","19157","0.0-2.0","5ec195df3f2aec276ff0bf33","665500ab8938657b03fbdba8","665792f1acebdfee506c15ca","10304","<p><b>Consent Form</b></p> <div style=""text-align:left;background-color:lightgrey; padding:20px; max-width:900px;""><p>Please consider this information carefully before deciding whether to participate in this research.</p> <p>The purpose of this research is to examine which factors influence social judgment and decision-making. You will be asked to make judgements about individuals and actions in social scenarios. We are simply interested in your judgement. The study will take less than 1 hour to complete, and you will receive less than $20 on Prolific. Your compensation and time commitment are specified in the study description. There are no anticipated risks associated with participating in this study. The effects of participating should be comparable to those you would ordinarily experience from viewing a computer monitor and using a mouse or keyboard for a similar amount of time. At the end of the study, we will provide an explanation of the questions that motivate this line of research and will describe the potential implications. </p><p> Your participation in this study is completely voluntary and you may refuse to participate or you may choose to withdraw at any time without penalty or loss of benefits to you which are otherwise entitled. Your participation in this study will remain confidential. No personally identifiable information will be associated with your data. Also, all analyses of the data will be averaged across all the participants, so your individual responses will never be specifically analyzed. </p><p> If you have questions or concerns about your participation or payment, or want to request a summary of research findings, please contact Dr. Jonathan Phillips at Jonathan.S.Phillips@dartmouth.edu. </p><p> Please save a copy of this form for your records. </p><p><b>Agreement: </b>The nature and purpose of this research have been sufficiently explained and I agree to participate in this study. I understand that I am free to withdraw at any time without incurring any penalty. Please consent by clicking the button below to continue. Otherwise, please exit the study at any time. </p>","0","","","","","","","","","","","","","","","","","","","","","","","",""
"","","","","","instructions","3","81989","0.0-3.0-0.0","5ec195df3f2aec276ff0bf33","665500ab8938657b03fbdba8","665792f1acebdfee506c15ca","62829","","","[{""page_index"":0,""viewing_time"":2575},{""page_index"":1,""viewing_time"":2944},{""page_index"":2,""viewing_time"":2538},{""page_index"":3,""viewing_time"":4864},{""page_index"":4,""viewing_time"":2912},{""page_index"":5,""viewing_time"":2812},{""page_index"":6,""viewing_time"":4710},{""page_index"":7,""viewing_time"":3268},{""page_index"":8,""viewing_time"":3028},{""page_index"":9,""viewing_time"":2766},{""page_index"":10,""viewing_time"":18618},{""page_index"":11,""viewing_time"":5594},{""page_index"":12,""viewing_time"":4500},{""page_index"":13,""viewing_time"":1696}]","intro","","","","","","","","","","","","","","","","","","","","","",""
"","","","","","image-keyboard-response","4","85978","0.0-3.0-1.0","5ec195df3f2aec276ff0bf33","665500ab8938657b03fbdba8","665792f1acebdfee506c15ca","3977","stimuli/2011010.jpg","2","","prediction_practice","2","{""filepath"":""stimuli/2011010.jpg"",""ball_pos"":2,""ego_ball_visible"":true,""ego_can_infer"":true,""alter_ball_visible"":false,""alter_can_infer"":false,""collective_ball_visible"":false,""collective_can_infer"":false,""search_locations"":[1,2],""alter_occluders"":""011"",""ego_occluders"":""010""}","true","","","","","","","","","","","","","","","","","","",""
"","","","","","image-keyboard-response","5","88700","0.0-3.0-2.0","5ec195df3f2aec276ff0bf33","665500ab8938657b03fbdba8","665792f1acebdfee506c15ca","2720","stimuli/20110102.jpg"," ","","practrice_feedback","1","","","","","","","","","","","","","","","","","","","","",""
"","","","","","image-keyboard-response","6","92979","0.0-3.0-3.0","5ec195df3f2aec276ff0bf33","665500ab8938657b03fbdba8","665792f1acebdfee506c15ca","4276","stimuli/1001000.jpg","1","","prediction_practice","1","{""filepath"":""stimuli/1001000.jpg"",""ball_pos"":1,""ego_ball_visible"":true,""ego_can_infer"":true,""alter_ball_visible"":true,""alter_can_infer"":true,""collective_ball_visible"":true,""collective_can_infer"":true,""search_locations"":[1],""alter_occluders"":""001"",""ego_occluders"":""000""}","true","","","","","","","","","","","","","","","","","","",""
"","","","","","image-keyboard-response","7","93618","0.0-3.0-4.0","5ec195df3f2aec276ff0bf33","665500ab8938657b03fbdba8","665792f1acebdfee506c15ca","637","stimuli/10010001.jpg"," ","","practrice_feedback","1","","","","","","","","","","","","","","","","","","","","",""
"","","","","","image-keyboard-response","8","95841","0.0-3.0-5.0","5ec195df3f2aec276ff0bf33","665500ab8938657b03fbdba8","665792f1acebdfee506c15ca","2220","stimuli/0001111.jpg","0","","prediction_practice","0","{""filepath"":""stimuli/0001111.jpg"",""ball_pos"":0,""ego_ball_visible"":false,""ego_can_infer"":false,""alter_ball_visible"":true,""alter_can_infer"":true,""collective_ball_visible"":false,""collective_can_infer"":false,""search_locations"":[0],""alter_occluders"":""001"",""ego_occluders"":""111""}","true","","","","","","","","","","","","","","","","","","",""
"","","","","","image-keyboard-response","9","96383","0.0-3.0-6.0","5ec195df3f2aec276ff0bf33","665500ab8938657b03fbdba8","665792f1acebdfee506c15ca","540","stimuli/00011110.jpg"," ","","practrice_feedback","0","","","","","","","","","","","","","","","","","","","","",""
"","","","","","image-keyboard-response","10","98303","0.0-3.0-7.0","5ec195df3f2aec276ff0bf33","665500ab8938657b03fbdba8","665792f1acebdfee506c15ca","1917","stimuli/2010001.jpg","2","","prediction_practice","2","{""filepath"":""stimuli/2010001.jpg"",""ball_pos"":2,""ego_ball_visible"":false,""ego_can_infer"":true,""alter_ball_visible"":true,""alter_can_infer"":true,""collective_ball_visible"":false,""collective_can_infer"":true,""search_locations"":[2],""alter_occluders"":""010"",""ego_occluders"":""001""}","true","","","","","","","","","","","","","","","","","","",""
"","","","","","image-keyboard-response","11","98792","0.0-3.0-8.0","5ec195df3f2aec276ff0bf33","665500ab8938657b03fbdba8","665792f1acebdfee506c15ca","487","stimuli/20100012.jpg"," ","","practrice_feedback","2","","","","","","","","","","","","","","","","","","","","",""
"","","","","","image-keyboard-response","12","101353","0.0-3.0-9.0","5ec195df3f2aec276ff0bf33","665500ab8938657b03fbdba8","665792f1acebdfee506c15ca","2552","stimuli/2111110.jpg","1","","prediction_practice","2","{""filepath"":""stimuli/2111110.jpg"",""ball_pos"":2,""ego_ball_visible"":true,""ego_can_infer"":true,""alter_ball_visible"":false,""alter_can_infer"":false,""collective_ball_visible"":false,""collective_can_infer"":false,""search_locations"":[2,0,1],""alter_occluders"":""111"",""ego_occluders"":""110""}","false","","","","","","","","","","","","","","","","","","",""
"","","","","","image-keyboard-response","13","101795","0.0-3.0-10.0","5ec195df3f2aec276ff0bf33","665500ab8938657b03fbdba8","665792f1acebdfee506c15ca","440","stimuli/21111102.jpg"," ","","practrice_feedback","2","","","","","","","","","","","","","","","","","","","","",""
"","","","","","image-keyboard-response","14","103260","0.0-3.0-11.0","5ec195df3f2aec276ff0bf33","665500ab8938657b03fbdba8","665792f1acebdfee506c15ca","1462","stimuli/0110011.jpg","0","","prediction_practice","1","{""filepath"":""stimuli/0110011.jpg"",""ball_pos"":0,""ego_ball_visible"":true,""ego_can_infer"":true,""alter_ball_visible"":false,""alter_can_infer"":false,""collective_ball_visible"":false,""collective_can_infer"":false,""search_locations"":[1,0],""alter_occluders"":""110"",""ego_occluders"":""011""}","false","","","","","","","","","","","","","","","","","","",""
"","","","","","image-keyboard-response","15","103715","0.0-3.0-12.0","5ec195df3f2aec276ff0bf33","665500ab8938657b03fbdba8","665792f1acebdfee506c15ca","454","stimuli/01100111.jpg"," ","","practrice_feedback","1","","","","","","","","","","","","","","","","","","","","",""
"","","","","","image-keyboard-response","16","107195","0.0-3.0-13.0","5ec195df3f2aec276ff0bf33","665500ab8938657b03fbdba8","665792f1acebdfee506c15ca","3477","stimuli/1110110.jpg","1","","prediction_practice","1","{""filepath"":""stimuli/1110110.jpg"",""ball_pos"":1,""ego_ball_visible"":false,""ego_can_infer"":false,""alter_ball_visible"":false,""alter_can_infer"":false,""collective_ball_visible"":false,""collective_can_infer"":false,""search_locations"":[1,0],""alter_occluders"":""110"",""ego_occluders"":""110""}","true","","","","","","","","","","","","","","","","","","",""
"","","","","","image-keyboard-response","17","107778","0.0-3.0-14.0","5ec195df3f2aec276ff0bf33","665500ab8938657b03fbdba8","665792f1acebdfee506c15ca","582","stimuli/11101101.jpg"," ","","practrice_feedback","1","","","","","","","","","","","","","","","","","","","","",""
"","","","","","image-keyboard-response","18","109535","0.0-3.0-15.0","5ec195df3f2aec276ff0bf33","665500ab8938657b03fbdba8","665792f1acebdfee506c15ca","1754","stimuli/2100010.jpg","2","","prediction_practice","2","{""filepath"":""stimuli/2100010.jpg"",""ball_pos"":2,""ego_ball_visible"":true,""ego_can_infer"":true,""alter_ball_visible"":true,""alter_can_infer"":true,""collective_ball_visible"":true,""collective_can_infer"":true,""search_locations"":[2],""alter_occluders"":""100"",""ego_occluders"":""010""}","true","","","","","","","","","","","","","","","","","","",""
"","","","","","image-keyboard-response","19","109976","0.0-3.0-16.0","5ec195df3f2aec276ff0bf33","665500ab8938657b03fbdba8","665792f1acebdfee506c15ca","439","stimuli/21000102.jpg"," ","","practrice_feedback","2","","","","","","","","","","","","","","","","","","","","",""
"","","","","","image-keyboard-response","20","111685","0.0-3.0-17.0","5ec195df3f2aec276ff0bf33","665500ab8938657b03fbdba8","665792f1acebdfee506c15ca","1708","stimuli/1011101.jpg","1","","prediction_practice","2","{""filepath"":""stimuli/1011101.jpg"",""ball_pos"":1,""ego_ball_visible"":true,""ego_can_infer"":true,""alter_ball_visible"":false,""alter_can_infer"":false,""collective_ball_visible"":false,""collective_can_infer"":false,""search_locations"":[2,1],""alter_occluders"":""011"",""ego_occluders"":""101""}","false","","","","","","","","","","","","","","","","","","",""
"","","","","","image-keyboard-response","21","115214","0.0-3.0-18.0","5ec195df3f2aec276ff0bf33","665500ab8938657b03fbdba8","665792f1acebdfee506c15ca","3527","stimuli/10111012.jpg"," ","","practrice_feedback","2","","","","","","","","","","","","","","","","","","","","",""
"","","","","","image-keyboard-response","22","117819","0.0-3.0-19.0","5ec195df3f2aec276ff0bf33","665500ab8938657b03fbdba8","665792f1acebdfee506c15ca","2602","stimuli/1001101.jpg","1","","prediction_practice","1","{""filepath"":""stimuli/1001101.jpg"",""ball_pos"":1,""ego_ball_visible"":true,""ego_can_infer"":true,""alter_ball_visible"":true,""alter_can_infer"":true,""collective_ball_visible"":true,""collective_can_infer"":true,""search_locations"":[1],""alter_occluders"":""001"",""ego_occluders"":""101""}","true","","","","","","","","","","","","","","","","","","",""
"","","","","","image-keyboard-response","23","118467","0.0-3.0-20.0","5ec195df3f2aec276ff0bf33","665500ab8938657b03fbdba8","665792f1acebdfee506c15ca","646","stimuli/10011011.jpg"," ","","practrice_feedback","1","","","","","","","","","","","","","","","","","","","","",""
"","","","","","html-button-response","24","126666","0.0-3.0-21.0","5ec195df3f2aec276ff0bf33","665500ab8938657b03fbdba8","665792f1acebdfee506c15ca","8197","Now that you've had some practice, you'll be tested with a couple of easy trials. If you correctly predict Sam's choice, you'll move on to complete the experiment!","0","","","","","","","","","","","","","","","","","","","","","","","",""
"","","","","","image-keyboard-response","25","128338","0.0-3.0-22.0-0.0","5ec195df3f2aec276ff0bf33","665500ab8938657b03fbdba8","665792f1acebdfee506c15ca","1670","stimuli/0000011.jpg","arrowleft","","comprehension_quiz","","","true","arrowleft","","","","","","","","","","","","","","","","","",""
"","","","","","image-keyboard-response","26","129245","0.0-3.0-22.0-1.0","5ec195df3f2aec276ff0bf33","665500ab8938657b03fbdba8","665792f1acebdfee506c15ca","904","stimuli/00000110.jpg"," ","","comprehension_quiz","","","true"," ","","","","","","","","","","","","","","","","","",""
"","","","","","image-keyboard-response","27","135898","0.0-3.0-22.0-2.0","5ec195df3f2aec276ff0bf33","665500ab8938657b03fbdba8","665792f1acebdfee506c15ca","6650","stimuli/1010010.jpg","arrowright","","comprehension_quiz","","","false","arrowdown","","","","","","","","","","","","","","","","","",""
"","","","","","image-keyboard-response","28","139122","0.0-3.0-22.0-3.0","5ec195df3f2aec276ff0bf33","665500ab8938657b03fbdba8","665792f1acebdfee506c15ca","3222","stimuli/10100101.jpg"," ","","comprehension_quiz","","","true"," ","","","","","","","","","","","","","","","","","",""
"","","","","","html-button-response","29","143251","0.0-3.0-23.0-0.0","5ec195df3f2aec276ff0bf33","665500ab8938657b03fbdba8","665792f1acebdfee506c15ca","4125","<p> Oops! You have answered one or more questions incorrectly.</p><p> Please Review the instructions again before continuing with the experiment </p>","0","","fail_message","","","false","","","","","","","","","","","","","","","","","","",""
"","","","","","instructions","30","189160","0.0-3.1-0.1","5ec195df3f2aec276ff0bf33","665500ab8938657b03fbdba8","665792f1acebdfee506c15ca","45905","","","[{""page_index"":0,""viewing_time"":2590},{""page_index"":1,""viewing_time"":2168},{""page_index"":2,""viewing_time"":2617},{""page_index"":3,""viewing_time"":2910},{""page_index"":4,""viewing_time"":1814},{""page_index"":5,""viewing_time"":2038},{""page_index"":6,""viewing_time"":2530},{""page_index"":7,""viewing_time"":2127},{""page_index"":8,""viewing_time"":2580},{""page_index"":9,""viewing_time"":3531},{""page_index"":10,""viewing_time"":10091},{""page_index"":11,""viewing_time"":7023},{""page_index"":12,""viewing_time"":2795},{""page_index"":13,""viewing_time"":1090}]","intro","","","","","","","","","","","","","","","","","","","","","",""
"","","","","","image-keyboard-response","31","190941","0.0-3.1-1.1","5ec195df3f2aec276ff0bf33","665500ab8938657b03fbdba8","665792f1acebdfee506c15ca","1777","stimuli/2011010.jpg","2","","prediction_practice","2","{""filepath"":""stimuli/2011010.jpg"",""ball_pos"":2,""ego_ball_visible"":true,""ego_can_infer"":true,""alter_ball_visible"":false,""alter_can_infer"":false,""collective_ball_visible"":false,""collective_can_infer"":false,""search_locations"":[1,2],""alter_occluders"":""011"",""ego_occluders"":""010""}","true","","","","","","","","","","","","","","","","","","",""
"","","","","","image-keyboard-response","32","192726","0.0-3.1-2.1","5ec195df3f2aec276ff0bf33","665500ab8938657b03fbdba8","665792f1acebdfee506c15ca","1783","stimuli/20110102.jpg"," ","","practrice_feedback","1","","","","","","","","","","","","","","","","","","","","",""
"","","","","","image-keyboard-response","33","194510","0.0-3.1-3.1","5ec195df3f2aec276ff0bf33","665500ab8938657b03fbdba8","665792f1acebdfee506c15ca","1766","stimuli/1001000.jpg","1","","prediction_practice","1","{""filepath"":""stimuli/1001000.jpg"",""ball_pos"":1,""ego_ball_visible"":true,""ego_can_infer"":true,""alter_ball_visible"":true,""alter_can_infer"":true,""collective_ball_visible"":true,""collective_can_infer"":true,""search_locations"":[1],""alter_occluders"":""001"",""ego_occluders"":""000""}","true","","","","","","","","","","","","","","","","","","",""
"","","","","","image-keyboard-response","34","195282","0.0-3.1-4.1","5ec195df3f2aec276ff0bf33","665500ab8938657b03fbdba8","665792f1acebdfee506c15ca","770","stimuli/10010001.jpg"," ","","practrice_feedback","1","","","","","","","","","","","","","","","","","","","","",""
"","","","","","image-keyboard-response","35","197421","0.0-3.1-5.1","5ec195df3f2aec276ff0bf33","665500ab8938657b03fbdba8","665792f1acebdfee506c15ca","2136","stimuli/0001111.jpg","1","","prediction_practice","0","{""filepath"":""stimuli/0001111.jpg"",""ball_pos"":0,""ego_ball_visible"":false,""ego_can_infer"":false,""alter_ball_visible"":true,""alter_can_infer"":true,""collective_ball_visible"":false,""collective_can_infer"":false,""search_locations"":[0],""alter_occluders"":""001"",""ego_occluders"":""111""}","false","","","","","","","","","","","","","","","","","","",""
"","","","","","image-keyboard-response","36","199125","0.0-3.1-6.1","5ec195df3f2aec276ff0bf33","665500ab8938657b03fbdba8","665792f1acebdfee506c15ca","1700","stimuli/00011110.jpg"," ","","practrice_feedback","0","","","","","","","","","","","","","","","","","","","","",""
"","","","","","image-keyboard-response","37","200907","0.0-3.1-7.1","5ec195df3f2aec276ff0bf33","665500ab8938657b03fbdba8","665792f1acebdfee506c15ca","1779","stimuli/2010001.jpg","2","","prediction_practice","2","{""filepath"":""stimuli/2010001.jpg"",""ball_pos"":2,""ego_ball_visible"":false,""ego_can_infer"":true,""alter_ball_visible"":true,""alter_can_infer"":true,""collective_ball_visible"":false,""collective_can_infer"":true,""search_locations"":[2],""alter_occluders"":""010"",""ego_occluders"":""001""}","true","","","","","","","","","","","","","","","","","","",""
"","","","","","image-keyboard-response","38","202502","0.0-3.1-8.1","5ec195df3f2aec276ff0bf33","665500ab8938657b03fbdba8","665792f1acebdfee506c15ca","1592","stimuli/20100012.jpg"," ","","practrice_feedback","2","","","","","","","","","","","","","","","","","","","","",""
"","","","","","image-keyboard-response","39","206039","0.0-3.1-9.1","5ec195df3f2aec276ff0bf33","665500ab8938657b03fbdba8","665792f1acebdfee506c15ca","3534","stimuli/2111110.jpg","2","","prediction_practice","2","{""filepath"":""stimuli/2111110.jpg"",""ball_pos"":2,""ego_ball_visible"":true,""ego_can_infer"":true,""alter_ball_visible"":false,""alter_can_infer"":false,""collective_ball_visible"":false,""collective_can_infer"":false,""search_locations"":[2,0,1],""alter_occluders"":""111"",""ego_occluders"":""110""}","true","","","","","","","","","","","","","","","","","","",""
"","","","","","image-keyboard-response","40","206784","0.0-3.1-10.1","5ec195df3f2aec276ff0bf33","665500ab8938657b03fbdba8","665792f1acebdfee506c15ca","742","stimuli/21111102.jpg"," ","","practrice_feedback","2","","","","","","","","","","","","","","","","","","","","",""
"","","","","","image-keyboard-response","41","208069","0.0-3.1-11.1","5ec195df3f2aec276ff0bf33","665500ab8938657b03fbdba8","665792f1acebdfee506c15ca","1282","stimuli/0110011.jpg","0","","prediction_practice","1","{""filepath"":""stimuli/0110011.jpg"",""ball_pos"":0,""ego_ball_visible"":true,""ego_can_infer"":true,""alter_ball_visible"":false,""alter_can_infer"":false,""collective_ball_visible"":false,""collective_can_infer"":false,""search_locations"":[1,0],""alter_occluders"":""110"",""ego_occluders"":""011""}","false","","","","","","","","","","","","","","","","","","",""
"","","","","","image-keyboard-response","42","213727","0.0-3.1-12.1","5ec195df3f2aec276ff0bf33","665500ab8938657b03fbdba8","665792f1acebdfee506c15ca","5654","stimuli/01100111.jpg"," ","","practrice_feedback","1","","","","","","","","","","","","","","","","","","","","",""
"","","","","","image-keyboard-response","43","216664","0.0-3.1-13.1","5ec195df3f2aec276ff0bf33","665500ab8938657b03fbdba8","665792f1acebdfee506c15ca","2935","stimuli/1110110.jpg","0","","prediction_practice","1","{""filepath"":""stimuli/1110110.jpg"",""ball_pos"":1,""ego_ball_visible"":false,""ego_can_infer"":false,""alter_ball_visible"":false,""alter_can_infer"":false,""collective_ball_visible"":false,""collective_can_infer"":false,""search_locations"":[1,0],""alter_occluders"":""110"",""ego_occluders"":""110""}","false","","","","","","","","","","","","","","","","","","",""
"","","","","","image-keyboard-response","44","219642","0.0-3.1-14.1","5ec195df3f2aec276ff0bf33","665500ab8938657b03fbdba8","665792f1acebdfee506c15ca","2976","stimuli/11101101.jpg"," ","","practrice_feedback","1","","","","","","","","","","","","","","","","","","","","",""
"","","","","","image-keyboard-response","45","221632","0.0-3.1-15.1","5ec195df3f2aec276ff0bf33","665500ab8938657b03fbdba8","665792f1acebdfee506c15ca","1987","stimuli/2100010.jpg","2","","prediction_practice","2","{""filepath"":""stimuli/2100010.jpg"",""ball_pos"":2,""ego_ball_visible"":true,""ego_can_infer"":true,""alter_ball_visible"":true,""alter_can_infer"":true,""collective_ball_visible"":true,""collective_can_infer"":true,""search_locations"":[2],""alter_occluders"":""100"",""ego_occluders"":""010""}","true","","","","","","","","","","","","","","","","","","",""
"","","","","","image-keyboard-response","46","222317","0.0-3.1-16.1","5ec195df3f2aec276ff0bf33","665500ab8938657b03fbdba8","665792f1acebdfee506c15ca","684","stimuli/21000102.jpg"," ","","practrice_feedback","2","","","","","","","","","","","","","","","","","","","","",""
"","","","","","image-keyboard-response","47","224113","0.0-3.1-17.1","5ec195df3f2aec276ff0bf33","665500ab8938657b03fbdba8","665792f1acebdfee506c15ca","1794","stimuli/1011101.jpg","1","","prediction_practice","2","{""filepath"":""stimuli/1011101.jpg"",""ball_pos"":1,""ego_ball_visible"":true,""ego_can_infer"":true,""alter_ball_visible"":false,""alter_can_infer"":false,""collective_ball_visible"":false,""collective_can_infer"":false,""search_locations"":[2,1],""alter_occluders"":""011"",""ego_occluders"":""101""}","false","","","","","","","","","","","","","","","","","","",""
"","","","","","image-keyboard-response","48","228841","0.0-3.1-18.1","5ec195df3f2aec276ff0bf33","665500ab8938657b03fbdba8","665792f1acebdfee506c15ca","4726","stimuli/10111012.jpg"," ","","practrice_feedback","2","","","","","","","","","","","","","","","","","","","","",""
"","","","","","image-keyboard-response","49","230558","0.0-3.1-19.1","5ec195df3f2aec276ff0bf33","665500ab8938657b03fbdba8","665792f1acebdfee506c15ca","1715","stimuli/1001101.jpg","1","","prediction_practice","1","{""filepath"":""stimuli/1001101.jpg"",""ball_pos"":1,""ego_ball_visible"":true,""ego_can_infer"":true,""alter_ball_visible"":true,""alter_can_infer"":true,""collective_ball_visible"":true,""collective_can_infer"":true,""search_locations"":[1],""alter_occluders"":""001"",""ego_occluders"":""101""}","true","","","","","","","","","","","","","","","","","","",""
"","","","","","image-keyboard-response","50","231270","0.0-3.1-20.1","5ec195df3f2aec276ff0bf33","665500ab8938657b03fbdba8","665792f1acebdfee506c15ca","710","stimuli/10011011.jpg"," ","","practrice_feedback","1","","","","","","","","","","","","","","","","","","","","",""
"","","","","","html-button-response","51","241852","0.0-3.1-21.1","5ec195df3f2aec276ff0bf33","665500ab8938657b03fbdba8","665792f1acebdfee506c15ca","10580","Now that you've had some practice, you'll be tested with a couple of easy trials. If you correctly predict Sam's choice, you'll move on to complete the experiment!","0","","","","","","","","","","","","","","","","","","","","","","","",""
"","","","","","image-keyboard-response","52","244109","0.0-3.1-22.1-0.1","5ec195df3f2aec276ff0bf33","665500ab8938657b03fbdba8","665792f1acebdfee506c15ca","2249","stimuli/0000011.jpg","arrowleft","","comprehension_quiz","","","true","arrowleft","","","","","","","","","","","","","","","","","",""
"","","","","","image-keyboard-response","53","246085","0.0-3.1-22.1-1.1","5ec195df3f2aec276ff0bf33","665500ab8938657b03fbdba8","665792f1acebdfee506c15ca","1974","stimuli/00000110.jpg"," ","","comprehension_quiz","","","true"," ","","","","","","","","","","","","","","","","","",""
"","","","","","image-keyboard-response","54","248595","0.0-3.1-22.1-2.1","5ec195df3f2aec276ff0bf33","665500ab8938657b03fbdba8","665792f1acebdfee506c15ca","2507","stimuli/1010010.jpg","arrowdown","","comprehension_quiz","","","true","arrowdown","","","","","","","","","","","","","","","","","",""
"","","","","","image-keyboard-response","55","249857","0.0-3.1-22.1-3.1","5ec195df3f2aec276ff0bf33","665500ab8938657b03fbdba8","665792f1acebdfee506c15ca","1260","stimuli/10100101.jpg"," ","","comprehension_quiz","","","true"," ","","","","","","","","","","","","","","","","","",""
"","","","","","html-button-response","56","251852","0.0-4.0","5ec195df3f2aec276ff0bf33","665500ab8938657b03fbdba8","665792f1acebdfee506c15ca","1993","The experiment will now begin.","0","","","","","","","","","","","","","","","","","","","","","","","",""
"","","","","","image-keyboard-response","57","255611","0.0-5.0","5ec195df3f2aec276ff0bf33","665500ab8938657b03fbdba8","665792f1acebdfee506c15ca","3757","stimuli/1101111.jpg","1","","prediction_trial","1","","true","","1","false","false","true","true","false","false","[1]","101","111","1","","","","","","",""
"","","","","","image-keyboard-response","58","257265","0.0-6.0","5ec195df3f2aec276ff0bf33","665500ab8938657b03fbdba8","665792f1acebdfee506c15ca","1649","stimuli/11011111.jpg"," ","","feedback_trial","1","","","","","","","","","","","","","","","","","","","","",""
"","","","","","image-keyboard-response","59","259410","0.0-7.0","5ec195df3f2aec276ff0bf33","665500ab8938657b03fbdba8","665792f1acebdfee506c15ca","2143","stimuli/1001001.jpg","1","","prediction_trial","1","","true","","1","true","true","true","true","true","true","[1]","001","001","1","","","","","","",""
"","","","","","image-keyboard-response","60","260266","0.0-8.0","5ec195df3f2aec276ff0bf33","665500ab8938657b03fbdba8","665792f1acebdfee506c15ca","854","stimuli/10010011.jpg"," ","","feedback_trial","1","","","","","","","","","","","","","","","","","","","","",""
"","","","","","image-keyboard-response","61","262382","0.0-9.0","5ec195df3f2aec276ff0bf33","665500ab8938657b03fbdba8","665792f1acebdfee506c15ca","2115","stimuli/0010000.jpg","0","","prediction_trial","0","","true","","0","true","true","true","true","true","true","[0]","010","000","1","","","","","","",""
"","","","","","image-keyboard-response","62","263396","0.0-10.0","5ec195df3f2aec276ff0bf33","665500ab8938657b03fbdba8","665792f1acebdfee506c15ca","1009","stimuli/00100000.jpg"," ","","feedback_trial","0","","","","","","","","","","","","","","","","","","","","",""
"","","","","","image-keyboard-response","63","265512","0.0-11.0","5ec195df3f2aec276ff0bf33","665500ab8938657b03fbdba8","665792f1acebdfee506c15ca","2114","stimuli/2001110.jpg","2","","prediction_trial","2","","true","","2","true","true","false","true","false","true","[2]","001","110","1","","","","","","",""
"","","","","","image-keyboard-response","64","266345","0.0-12.0","5ec195df3f2aec276ff0bf33","665500ab8938657b03fbdba8","665792f1acebdfee506c15ca","831","stimuli/20011102.jpg"," ","","feedback_trial","2","","","","","","","","","","","","","","","","","","","","",""
"","","","","","image-keyboard-response","65","267905","0.0-13.0","5ec195df3f2aec276ff0bf33","665500ab8938657b03fbdba8","665792f1acebdfee506c15ca","1559","stimuli/2010110.jpg","2","","prediction_trial","2","","true","","2","true","true","true","true","true","true","[2]","010","110","1","","","","","","",""
"","","","","","image-keyboard-response","66","268849","0.0-14.0","5ec195df3f2aec276ff0bf33","665500ab8938657b03fbdba8","665792f1acebdfee506c15ca","942","stimuli/20101102.jpg"," ","","feedback_trial","2","","","","","","","","","","","","","","","","","","","","",""
"","","","","","image-keyboard-response","67","271332","0.0-15.0","5ec195df3f2aec276ff0bf33","665500ab8938657b03fbdba8","665792f1acebdfee506c15ca","2480","stimuli/0011000.jpg","0","","prediction_trial","0","","true","","0","true","true","true","true","true","true","[0]","011","000","1","","","","","","",""
"","","","","","image-keyboard-response","68","271876","0.0-16.0","5ec195df3f2aec276ff0bf33","665500ab8938657b03fbdba8","665792f1acebdfee506c15ca","542","stimuli/00110000.jpg"," ","","feedback_trial","0","","","","","","","","","","","","","","","","","","","","",""
"","","","","","image-keyboard-response","69","273893","0.0-17.0","5ec195df3f2aec276ff0bf33","665500ab8938657b03fbdba8","665792f1acebdfee506c15ca","2016","stimuli/2000001.jpg","2","","prediction_trial","2","","true","","2","false","true","true","true","false","true","[2]","000","001","1","","","","","","",""
"","","","","","image-keyboard-response","70","274468","0.0-18.0","5ec195df3f2aec276ff0bf33","665500ab8938657b03fbdba8","665792f1acebdfee506c15ca","573","stimuli/20000012.jpg"," ","","feedback_trial","2","","","","","","","","","","","","","","","","","","","","",""
"","","","","","image-keyboard-response","71","276215","0.0-19.0","5ec195df3f2aec276ff0bf33","665500ab8938657b03fbdba8","665792f1acebdfee506c15ca","1744","stimuli/2111001.jpg","2","","prediction_trial","2","","true","","2","false","true","false","false","false","false","[0,1,2]","111","001","1","","","","","","",""
"","","","","","image-keyboard-response","72","276831","0.0-20.0","5ec195df3f2aec276ff0bf33","665500ab8938657b03fbdba8","665792f1acebdfee506c15ca","614","stimuli/21110012.jpg"," ","","feedback_trial","0","","","","","","","","","","","","","","","","","","","","",""
"","","","","","image-keyboard-response","73","278591","0.0-21.0","5ec195df3f2aec276ff0bf33","665500ab8938657b03fbdba8","665792f1acebdfee506c15ca","1758","stimuli/0101001.jpg","0","","prediction_trial","2","","false","","0","true","true","false","false","false","false","[0,2]","101","001","0","","","","","","",""
"","","","","","image-keyboard-response","74","281448","0.0-22.0","5ec195df3f2aec276ff0bf33","665500ab8938657b03fbdba8","665792f1acebdfee506c15ca","2854","stimuli/01010012.jpg"," ","","feedback_trial","0","","","","","","","","","","","","","","","","","","","","",""
"","","","","","image-keyboard-response","75","283093","0.0-23.0","5ec195df3f2aec276ff0bf33","665500ab8938657b03fbdba8","665792f1acebdfee506c15ca","1643","stimuli/0001000.jpg","0","","prediction_trial","0","","true","","0","true","true","true","true","true","true","[0]","001","000","1","","","","","","",""
"","","","","","image-keyboard-response","76","284032","0.0-24.0","5ec195df3f2aec276ff0bf33","665500ab8938657b03fbdba8","665792f1acebdfee506c15ca","938","stimuli/00010000.jpg"," ","","feedback_trial","0","","","","","","","","","","","","","","","","","","","","",""
"","","","","","image-keyboard-response","77","285945","0.0-25.0","5ec195df3f2aec276ff0bf33","665500ab8938657b03fbdba8","665792f1acebdfee506c15ca","1910","stimuli/0000101.jpg","0","","prediction_trial","0","","true","","0","false","false","true","true","false","false","[0]","000","101","1","","","","","","",""
"","","","","","image-keyboard-response","78","286972","0.0-26.0","5ec195df3f2aec276ff0bf33","665500ab8938657b03fbdba8","665792f1acebdfee506c15ca","1024","stimuli/00001010.jpg"," ","","feedback_trial","0","","","","","","","","","","","","","","","","","","","","",""
"","","","","","image-keyboard-response","79","288504","0.0-27.0","5ec195df3f2aec276ff0bf33","665500ab8938657b03fbdba8","665792f1acebdfee506c15ca","1529","stimuli/0101100.jpg","0","","prediction_trial","2","","false","","0","false","true","false","false","false","false","[0,2]","101","100","0","","","","","","",""
"","","","","","image-keyboard-response","80","290672","0.0-28.0","5ec195df3f2aec276ff0bf33","665500ab8938657b03fbdba8","665792f1acebdfee506c15ca","2166","stimuli/01011002.jpg"," ","","feedback_trial","0","","","","","","","","","","","","","","","","","","","","",""
"","","","","","image-keyboard-response","81","296166","0.0-29.0","5ec195df3f2aec276ff0bf33","665500ab8938657b03fbdba8","665792f1acebdfee506c15ca","5493","stimuli/1111100.jpg","1","","prediction_trial","1","","true","","1","true","true","false","false","false","false","[1,0,2]","111","100","1","","","","","","",""
"","","","","","image-keyboard-response","82","297114","0.0-30.0","5ec195df3f2aec276ff0bf33","665500ab8938657b03fbdba8","665792f1acebdfee506c15ca","946","stimuli/11111001.jpg"," ","","feedback_trial","1","","","","","","","","","","","","","","","","","","","","",""
"","","","","","image-keyboard-response","83","298570","0.0-31.0","5ec195df3f2aec276ff0bf33","665500ab8938657b03fbdba8","665792f1acebdfee506c15ca","1454","stimuli/0100100.jpg","0","","prediction_trial","0","","true","","0","false","true","false","true","false","true","[0]","100","100","1","","","","","","",""
"","","","","","image-keyboard-response","84","299460","0.0-32.0","5ec195df3f2aec276ff0bf33","665500ab8938657b03fbdba8","665792f1acebdfee506c15ca","888","stimuli/01001000.jpg"," ","","feedback_trial","0","","","","","","","","","","","","","","","","","","","","",""
"","","","","","image-keyboard-response","85","301668","0.0-33.0","5ec195df3f2aec276ff0bf33","665500ab8938657b03fbdba8","665792f1acebdfee506c15ca","2205","stimuli/2001111.jpg","1","","prediction_trial","2","","false","","2","false","false","false","true","false","false","[2]","001","111","0","","","","","","",""
"","","","","","image-keyboard-response","86","303096","0.0-34.0","5ec195df3f2aec276ff0bf33","665500ab8938657b03fbdba8","665792f1acebdfee506c15ca","1426","stimuli/20011112.jpg"," ","","feedback_trial","2","","","","","","","","","","","","","","","","","","","","",""
"","","","","","image-keyboard-response","87","305667","0.0-35.0","5ec195df3f2aec276ff0bf33","665500ab8938657b03fbdba8","665792f1acebdfee506c15ca","2569","stimuli/2111100.jpg","2","","prediction_trial","1","","false","","2","true","true","false","false","false","false","[2,1,0]","111","100","0","","","","","","",""
"","","","","","image-keyboard-response","88","307386","0.0-36.0","5ec195df3f2aec276ff0bf33","665500ab8938657b03fbdba8","665792f1acebdfee506c15ca","1716","stimuli/21111001.jpg"," ","","feedback_trial","2","","","","","","","","","","","","","","","","","","","","",""
"","","","","","image-keyboard-response","89","314676","0.0-37.0","5ec195df3f2aec276ff0bf33","665500ab8938657b03fbdba8","665792f1acebdfee506c15ca","7287","stimuli/0010101.jpg","2","","prediction_trial","0","","false","","0","false","false","true","true","false","false","[0]","010","101","0","","","","","","",""
"","","","","","image-keyboard-response","90","316117","0.0-38.0","5ec195df3f2aec276ff0bf33","665500ab8938657b03fbdba8","665792f1acebdfee506c15ca","1438","stimuli/00101010.jpg"," ","","feedback_trial","0","","","","","","","","","","","","","","","","","","","","",""
"","","","","","image-keyboard-response","91","317493","0.0-39.0","5ec195df3f2aec276ff0bf33","665500ab8938657b03fbdba8","665792f1acebdfee506c15ca","1374","stimuli/0001110.jpg","1","","prediction_trial","0","","false","","0","false","false","true","true","false","false","[0]","001","110","0","","","","","","",""
"","","","","","image-keyboard-response","92","319095","0.0-40.0","5ec195df3f2aec276ff0bf33","665500ab8938657b03fbdba8","665792f1acebdfee506c15ca","1600","stimuli/00011100.jpg"," ","","feedback_trial","0","","","","","","","","","","","","","","","","","","","","",""
"","","","","","image-keyboard-response","93","321075","0.0-41.0","5ec195df3f2aec276ff0bf33","665500ab8938657b03fbdba8","665792f1acebdfee506c15ca","1978","stimuli/2100001.jpg","2","","prediction_trial","2","","true","","2","false","true","true","true","false","true","[2]","100","001","1","","","","","","",""
"","","","","","image-keyboard-response","94","321659","0.0-42.0","5ec195df3f2aec276ff0bf33","665500ab8938657b03fbdba8","665792f1acebdfee506c15ca","582","stimuli/21000012.jpg"," ","","feedback_trial","2","","","","","","","","","","","","","","","","","","","","",""
"","","","","","image-keyboard-response","95","322946","0.0-43.0","5ec195df3f2aec276ff0bf33","665500ab8938657b03fbdba8","665792f1acebdfee506c15ca","1285","stimuli/0011010.jpg","0","","prediction_trial","0","","true","","0","true","true","true","true","true","true","[0]","011","010","1","","","","","","",""
"","","","","","image-keyboard-response","96","323540","0.0-44.0","5ec195df3f2aec276ff0bf33","665500ab8938657b03fbdba8","665792f1acebdfee506c15ca","592","stimuli/00110100.jpg"," ","","feedback_trial","0","","","","","","","","","","","","","","","","","","","","",""
"","","","","","image-keyboard-response","97","325361","0.0-45.0","5ec195df3f2aec276ff0bf33","665500ab8938657b03fbdba8","665792f1acebdfee506c15ca","1818","stimuli/2001101.jpg","0","","prediction_trial","2","","false","","2","false","false","false","true","false","false","[2]","001","101","0","","","","","","",""
"","","","","","image-keyboard-response","98","326420","0.0-46.0","5ec195df3f2aec276ff0bf33","665500ab8938657b03fbdba8","665792f1acebdfee506c15ca","1057","stimuli/20011012.jpg"," ","","feedback_trial","2","","","","","","","","","","","","","","","","","","","","",""
"","","","","","image-keyboard-response","99","327288","0.0-47.0","5ec195df3f2aec276ff0bf33","665500ab8938657b03fbdba8","665792f1acebdfee506c15ca","865","stimuli/1001101.jpg","0","","prediction_trial","1","","false","","1","true","true","true","true","true","true","[1]","001","101","0","","","","","","",""
"","","","","","image-keyboard-response","100","328299","0.0-48.0","5ec195df3f2aec276ff0bf33","665500ab8938657b03fbdba8","665792f1acebdfee506c15ca","1008","stimuli/10011011.jpg"," ","","feedback_trial","1","","","","","","","","","","","","","","","","","","","","",""
"","","","","","image-keyboard-response","101","330086","0.0-49.0","5ec195df3f2aec276ff0bf33","665500ab8938657b03fbdba8","665792f1acebdfee506c15ca","1785","stimuli/2111011.jpg","1","","prediction_trial","0","","false","","2","false","false","false","false","false","false","[0,1,2]","111","011","0","","","","","","",""
"","","","","","image-keyboard-response","102","332338","0.0-50.0","5ec195df3f2aec276ff0bf33","665500ab8938657b03fbdba8","665792f1acebdfee506c15ca","2250","stimuli/21110110.jpg"," ","","feedback_trial","0","","","","","","","","","","","","","","","","","","","","",""
"","","","","","image-keyboard-response","103","334623","0.0-51.0","5ec195df3f2aec276ff0bf33","665500ab8938657b03fbdba8","665792f1acebdfee506c15ca","2283","stimuli/1001010.jpg","1","","prediction_trial","1","","true","","1","false","true","true","true","false","true","[1]","001","010","1","","","","","","",""
"","","","","","image-keyboard-response","104","335302","0.0-52.0","5ec195df3f2aec276ff0bf33","665500ab8938657b03fbdba8","665792f1acebdfee506c15ca","677","stimuli/10010101.jpg"," ","","feedback_trial","1","","","","","","","","","","","","","","","","","","","","",""
"","","","","","image-keyboard-response","105","336352","0.0-53.0","5ec195df3f2aec276ff0bf33","665500ab8938657b03fbdba8","665792f1acebdfee506c15ca","1048","stimuli/0101111.jpg","1","","prediction_trial","0","","false","","0","false","false","false","false","false","false","[2,0]","101","111","0","","","","","","",""
"","","","","","image-keyboard-response","106","339133","0.0-54.0","5ec195df3f2aec276ff0bf33","665500ab8938657b03fbdba8","665792f1acebdfee506c15ca","2778","stimuli/01011110.jpg"," ","","feedback_trial","2","","","","","","","","","","","","","","","","","","","","",""
"","","","","","image-keyboard-response","107","340379","0.0-55.0","5ec195df3f2aec276ff0bf33","665500ab8938657b03fbdba8","665792f1acebdfee506c15ca","1235","stimuli/2110100.jpg","2","","prediction_trial","2","","true","","2","true","true","true","true","true","true","[2]","110","100","1","","","","","","",""
"","","","","","image-keyboard-response","108","341010","0.0-56.0","5ec195df3f2aec276ff0bf33","665500ab8938657b03fbdba8","665792f1acebdfee506c15ca","629","stimuli/21101002.jpg"," ","","feedback_trial","2","","","","","","","","","","","","","","","","","","","","",""
"","","","","","image-keyboard-response","109","341922","0.0-57.0","5ec195df3f2aec276ff0bf33","665500ab8938657b03fbdba8","665792f1acebdfee506c15ca","909","stimuli/0011111.jpg","2","","prediction_trial","0","","false","","0","false","false","true","true","false","false","[0]","011","111","0","","","","","","",""
"","","","","","image-keyboard-response","110","346913","0.0-58.0","5ec195df3f2aec276ff0bf33","665500ab8938657b03fbdba8","665792f1acebdfee506c15ca","4989","stimuli/00111110.jpg"," ","","feedback_trial","0","","","","","","","","","","","","","","","","","","","","",""
"","","","","","image-keyboard-response","111","348735","0.0-59.0","5ec195df3f2aec276ff0bf33","665500ab8938657b03fbdba8","665792f1acebdfee506c15ca","1819","stimuli/1000011.jpg","1","","prediction_trial","1","","true","","1","false","false","true","true","false","false","[1]","000","011","1","","","","","","",""
"","","","","","image-keyboard-response","112","349655","0.0-60.0","5ec195df3f2aec276ff0bf33","665500ab8938657b03fbdba8","665792f1acebdfee506c15ca","918","stimuli/10000111.jpg"," ","","feedback_trial","1","","","","","","","","","","","","","","","","","","","","",""
"","","","","","image-keyboard-response","113","350535","0.0-61.0","5ec195df3f2aec276ff0bf33","665500ab8938657b03fbdba8","665792f1acebdfee506c15ca","877","stimuli/1010101.jpg","1","","prediction_trial","1","","true","","1","true","true","false","true","false","true","[1]","010","101","1","","","","","","",""
"","","","","","image-keyboard-response","114","351237","0.0-62.0","5ec195df3f2aec276ff0bf33","665500ab8938657b03fbdba8","665792f1acebdfee506c15ca","699","stimuli/10101011.jpg"," ","","feedback_trial","1","","","","","","","","","","","","","","","","","","","","",""
"","","","","","image-keyboard-response","115","352900","0.0-63.0","5ec195df3f2aec276ff0bf33","665500ab8938657b03fbdba8","665792f1acebdfee506c15ca","1661","stimuli/0000000.jpg","0","","prediction_trial","0","","true","","0","true","true","true","true","true","true","[0]","000","000","1","","","","","","",""
"","","","","","image-keyboard-response","116","353553","0.0-64.0","5ec195df3f2aec276ff0bf33","665500ab8938657b03fbdba8","665792f1acebdfee506c15ca","650","stimuli/00000000.jpg"," ","","feedback_trial","0","","","","","","","","","","","","","","","","","","","","",""
"","","","","","image-keyboard-response","117","354958","0.0-65.0","5ec195df3f2aec276ff0bf33","665500ab8938657b03fbdba8","665792f1acebdfee506c15ca","1403","stimuli/0000100.jpg","0","","prediction_trial","0","","true","","0","false","true","true","true","false","true","[0]","000","100","1","","","","","","",""
"","","","","","image-keyboard-response","118","355547","0.0-66.0","5ec195df3f2aec276ff0bf33","665500ab8938657b03fbdba8","665792f1acebdfee506c15ca","586","stimuli/00001000.jpg"," ","","feedback_trial","0","","","","","","","","","","","","","","","","","","","","",""
"","","","","","image-keyboard-response","119","357337","0.0-67.0","5ec195df3f2aec276ff0bf33","665500ab8938657b03fbdba8","665792f1acebdfee506c15ca","1788","stimuli/0100001.jpg","0","","prediction_trial","0","","true","","0","true","true","false","true","false","true","[0]","100","001","1","","","","","","",""
"","","","","","image-keyboard-response","120","357969","0.0-68.0","5ec195df3f2aec276ff0bf33","665500ab8938657b03fbdba8","665792f1acebdfee506c15ca","629","stimuli/01000010.jpg"," ","","feedback_trial","0","","","","","","","","","","","","","","","","","","","","",""
"","","","","","image-keyboard-response","121","358876","0.0-69.0","5ec195df3f2aec276ff0bf33","665500ab8938657b03fbdba8","665792f1acebdfee506c15ca","905","stimuli/0110010.jpg","0","","prediction_trial","1","","false","","0","true","true","false","false","false","false","[0,1]","110","010","0","","","","","","",""
"","","","","","image-keyboard-response","122","360339","0.0-70.0","5ec195df3f2aec276ff0bf33","665500ab8938657b03fbdba8","665792f1acebdfee506c15ca","1462","stimuli/01100101.jpg"," ","","feedback_trial","0","","","","","","","","","","","","","","","","","","","","",""
"","","","","","image-keyboard-response","123","362585","0.0-71.0","5ec195df3f2aec276ff0bf33","665500ab8938657b03fbdba8","665792f1acebdfee506c15ca","2243","stimuli/1111010.jpg","1","","prediction_trial","2","","false","","1","false","true","false","false","false","false","[0,1,2]","111","010","0","","","","","","",""
"","","","","","image-keyboard-response","124","363528","0.0-72.0","5ec195df3f2aec276ff0bf33","665500ab8938657b03fbdba8","665792f1acebdfee506c15ca","941","stimuli/11110102.jpg"," ","","feedback_trial","0","","","","","","","","","","","","","","","","","","","","",""
"","","","","","image-keyboard-response","125","364175","0.0-73.0","5ec195df3f2aec276ff0bf33","665500ab8938657b03fbdba8","665792f1acebdfee506c15ca","645","stimuli/1011100.jpg","1","","prediction_trial","1","","true","","1","true","true","false","false","false","false","[2,1]","011","100","1","","","","","","",""
"","","","","","image-keyboard-response","126","364757","0.0-74.0","5ec195df3f2aec276ff0bf33","665500ab8938657b03fbdba8","665792f1acebdfee506c15ca","580","stimuli/10111001.jpg"," ","","feedback_trial","2","","","","","","","","","","","","","","","","","","","","",""
"","","","","","image-keyboard-response","127","365809","0.0-75.0","5ec195df3f2aec276ff0bf33","665500ab8938657b03fbdba8","665792f1acebdfee506c15ca","1049","stimuli/0101110.jpg","1","","prediction_trial","0","","false","","0","false","false","false","false","false","false","[0,2]","101","110","0","","","","","","",""
"","","","","","image-keyboard-response","128","366755","0.0-76.0","5ec195df3f2aec276ff0bf33","665500ab8938657b03fbdba8","665792f1acebdfee506c15ca","945","stimuli/01011100.jpg"," ","","feedback_trial","0","","","","","","","","","","","","","","","","","","","","",""
"","","","","","image-keyboard-response","129","367979","0.0-77.0","5ec195df3f2aec276ff0bf33","665500ab8938657b03fbdba8","665792f1acebdfee506c15ca","1220","stimuli/2110011.jpg","1","","prediction_trial","2","","false","","2","false","false","true","true","false","false","[2]","110","011","0","","","","","","",""
"","","","","","image-keyboard-response","130","368747","0.0-78.0","5ec195df3f2aec276ff0bf33","665500ab8938657b03fbdba8","665792f1acebdfee506c15ca","766","stimuli/21100112.jpg"," ","","feedback_trial","2","","","","","","","","","","","","","","","","","","","","",""
"","","","","","image-keyboard-response","131","370154","0.0-79.0","5ec195df3f2aec276ff0bf33","665500ab8938657b03fbdba8","665792f1acebdfee506c15ca","1404","stimuli/1011111.jpg","1","","prediction_trial","1","","true","","1","false","false","false","false","false","false","[2,1]","011","111","1","","","","","","",""
"","","","","","image-keyboard-response","132","370754","0.0-80.0","5ec195df3f2aec276ff0bf33","665500ab8938657b03fbdba8","665792f1acebdfee506c15ca","598","stimuli/10111111.jpg"," ","","feedback_trial","2","","","","","","","","","","","","","","","","","","","","",""
"","","","","","image-keyboard-response","133","372474","0.0-81.0","5ec195df3f2aec276ff0bf33","665500ab8938657b03fbdba8","665792f1acebdfee506c15ca","1718","stimuli/1100111.jpg","1","","prediction_trial","1","","true","","1","false","false","true","true","false","false","[1]","100","111","1","","","","","","",""
"","","","","","image-keyboard-response","134","373095","0.0-82.0","5ec195df3f2aec276ff0bf33","665500ab8938657b03fbdba8","665792f1acebdfee506c15ca","617","stimuli/11001111.jpg"," ","","feedback_trial","1","","","","","","","","","","","","","","","","","","","","",""
"","","","","","image-keyboard-response","135","374746","0.0-83.0","5ec195df3f2aec276ff0bf33","665500ab8938657b03fbdba8","665792f1acebdfee506c15ca","1650","stimuli/0101000.jpg","0","","prediction_trial","2","","false","","0","true","true","false","false","false","false","[2,0]","101","000","0","","","","","","",""
"","","","","","image-keyboard-response","136","375584","0.0-84.0","5ec195df3f2aec276ff0bf33","665500ab8938657b03fbdba8","665792f1acebdfee506c15ca","835","stimuli/01010002.jpg"," ","","feedback_trial","2","","","","","","","","","","","","","","","","","","","","",""
"","","","","","image-keyboard-response","137","376535","0.0-85.0","5ec195df3f2aec276ff0bf33","665500ab8938657b03fbdba8","665792f1acebdfee506c15ca","948","stimuli/0100111.jpg","0","","prediction_trial","0","","true","","0","false","false","false","true","false","false","[0]","100","111","1","","","","","","",""
"","","","","","image-keyboard-response","138","377084","0.0-86.0","5ec195df3f2aec276ff0bf33","665500ab8938657b03fbdba8","665792f1acebdfee506c15ca","546","stimuli/01001110.jpg"," ","","feedback_trial","0","","","","","","","","","","","","","","","","","","","","",""
"","","","","","image-keyboard-response","139","378477","0.0-87.0","5ec195df3f2aec276ff0bf33","665500ab8938657b03fbdba8","665792f1acebdfee506c15ca","1391","stimuli/2010011.jpg","1","","prediction_trial","2","","false","","2","false","false","true","true","false","false","[2]","010","011","0","","","","","","",""
"","","","","","image-keyboard-response","140","379291","0.0-88.0","5ec195df3f2aec276ff0bf33","665500ab8938657b03fbdba8","665792f1acebdfee506c15ca","811","stimuli/20100112.jpg"," ","","feedback_trial","2","","","","","","","","","","","","","","","","","","","","",""
"","","","","","image-keyboard-response","141","379955","0.0-89.0","5ec195df3f2aec276ff0bf33","665500ab8938657b03fbdba8","665792f1acebdfee506c15ca","662","stimuli/0001010.jpg","1","","prediction_trial","0","","false","","0","true","true","true","true","true","true","[0]","001","010","0","","","","","","",""
"","","","","","image-keyboard-response","142","380869","0.0-90.0","5ec195df3f2aec276ff0bf33","665500ab8938657b03fbdba8","665792f1acebdfee506c15ca","912","stimuli/00010100.jpg"," ","","feedback_trial","0","","","","","","","","","","","","","","","","","","","","",""
"","","","","","image-keyboard-response","143","382111","0.0-91.0","5ec195df3f2aec276ff0bf33","665500ab8938657b03fbdba8","665792f1acebdfee506c15ca","1232","stimuli/0100011.jpg","0","","prediction_trial","0","","true","","0","true","true","false","true","false","true","[0]","100","011","1","","","","","","",""
"","","","","","image-keyboard-response","144","383151","0.0-92.0","5ec195df3f2aec276ff0bf33","665500ab8938657b03fbdba8","665792f1acebdfee506c15ca","1038","stimuli/01000110.jpg"," ","","feedback_trial","0","","","","","","","","","","","","","","","","","","","","",""
"","","","","","image-keyboard-response","145","384285","0.0-93.0","5ec195df3f2aec276ff0bf33","665500ab8938657b03fbdba8","665792f1acebdfee506c15ca","1132","stimuli/0011011.jpg","0","","prediction_trial","0","","true","","0","true","true","true","true","true","true","[0]","011","011","1","","","","","","",""
"","","","","","image-keyboard-response","146","384761","0.0-94.0","5ec195df3f2aec276ff0bf33","665500ab8938657b03fbdba8","665792f1acebdfee506c15ca","473","stimuli/00110110.jpg"," ","","feedback_trial","0","","","","","","","","","","","","","","","","","","","","",""
"","","","","","image-keyboard-response","147","386115","0.0-95.0","5ec195df3f2aec276ff0bf33","665500ab8938657b03fbdba8","665792f1acebdfee506c15ca","1351","stimuli/1110100.jpg","1","","prediction_trial","0","","false","","1","true","true","false","false","false","false","[0,1]","110","100","0","","","","","","",""
"","","","","","image-keyboard-response","148","386959","0.0-96.0","5ec195df3f2aec276ff0bf33","665500ab8938657b03fbdba8","665792f1acebdfee506c15ca","841","stimuli/11101000.jpg"," ","","feedback_trial","0","","","","","","","","","","","","","","","","","","","","",""
"","","","","","image-keyboard-response","149","388096","0.0-97.0","5ec195df3f2aec276ff0bf33","665500ab8938657b03fbdba8","665792f1acebdfee506c15ca","1135","stimuli/1010001.jpg","1","","prediction_trial","1","","true","","1","true","true","false","true","false","true","[1]","010","001","1","","","","","","",""
"","","","","","image-keyboard-response","150","388625","0.0-98.0","5ec195df3f2aec276ff0bf33","665500ab8938657b03fbdba8","665792f1acebdfee506c15ca","526","stimuli/10100011.jpg"," ","","feedback_trial","1","","","","","","","","","","","","","","","","","","","","",""
"","","","","","image-keyboard-response","151","390015","0.0-99.0","5ec195df3f2aec276ff0bf33","665500ab8938657b03fbdba8","665792f1acebdfee506c15ca","1387","stimuli/0100101.jpg","2","","prediction_trial","0","","false","","0","false","false","false","true","false","false","[0]","100","101","0","","","","","","",""
"","","","","","image-keyboard-response","152","390767","0.0-100.0","5ec195df3f2aec276ff0bf33","665500ab8938657b03fbdba8","665792f1acebdfee506c15ca","749","stimuli/01001010.jpg"," ","","feedback_trial","0","","","","","","","","","","","","","","","","","","","","",""
"","","","","","image-keyboard-response","153","392103","0.0-101.0","5ec195df3f2aec276ff0bf33","665500ab8938657b03fbdba8","665792f1acebdfee506c15ca","1333","stimuli/0100000.jpg","0","","prediction_trial","0","","true","","0","true","true","false","true","false","true","[0]","100","000","1","","","","","","",""
"","","","","","image-keyboard-response","154","392635","0.0-102.0","5ec195df3f2aec276ff0bf33","665500ab8938657b03fbdba8","665792f1acebdfee506c15ca","530","stimuli/01000000.jpg"," ","","feedback_trial","0","","","","","","","","","","","","","","","","","","","","",""
"","","","","","image-keyboard-response","155","393739","0.0-103.0","5ec195df3f2aec276ff0bf33","665500ab8938657b03fbdba8","665792f1acebdfee506c15ca","1102","stimuli/0101011.jpg","1","","prediction_trial","2","","false","","0","true","true","false","false","false","false","[0,2]","101","011","0","","","","","","",""
"","","","","","image-keyboard-response","156","394473","0.0-104.0","5ec195df3f2aec276ff0bf33","665500ab8938657b03fbdba8","665792f1acebdfee506c15ca","731","stimuli/01010112.jpg"," ","","feedback_trial","0","","","","","","","","","","","","","","","","","","","","",""
"","","","","","image-keyboard-response","157","395777","0.0-105.0","5ec195df3f2aec276ff0bf33","665500ab8938657b03fbdba8","665792f1acebdfee506c15ca","1302","stimuli/0001101.jpg","2","","prediction_trial","0","","false","","0","false","false","true","true","false","false","[0]","001","101","0","","","","","","",""
"","","","","","image-keyboard-response","158","396709","0.0-106.0","5ec195df3f2aec276ff0bf33","665500ab8938657b03fbdba8","665792f1acebdfee506c15ca","929","stimuli/00011010.jpg"," ","","feedback_trial","0","","","","","","","","","","","","","","","","","","","","",""
"","","","","","image-keyboard-response","159","397366","0.0-107.0","5ec195df3f2aec276ff0bf33","665500ab8938657b03fbdba8","665792f1acebdfee506c15ca","654","stimuli/0000111.jpg","2","","prediction_trial","0","","false","","0","false","false","true","true","false","false","[0]","000","111","0","","","","","","",""
"","","","","","image-keyboard-response","160","397983","0.0-108.0","5ec195df3f2aec276ff0bf33","665500ab8938657b03fbdba8","665792f1acebdfee506c15ca","614","stimuli/00001110.jpg"," ","","feedback_trial","0","","","","","","","","","","","","","","","","","","","","",""
"","","","","","image-keyboard-response","161","398928","0.0-109.0","5ec195df3f2aec276ff0bf33","665500ab8938657b03fbdba8","665792f1acebdfee506c15ca","941","stimuli/2001100.jpg","2","","prediction_trial","2","","true","","2","true","true","false","true","false","true","[2]","001","100","1","","","","","","",""
"","","","","","image-keyboard-response","162","399485","0.0-110.0","5ec195df3f2aec276ff0bf33","665500ab8938657b03fbdba8","665792f1acebdfee506c15ca","554","stimuli/20011002.jpg"," ","","feedback_trial","2","","","","","","","","","","","","","","","","","","","","",""
"","","","","","image-keyboard-response","163","400080","0.0-111.0","5ec195df3f2aec276ff0bf33","665500ab8938657b03fbdba8","665792f1acebdfee506c15ca","592","stimuli/2101100.jpg","2","","prediction_trial","2","","true","","2","true","true","false","false","false","false","[0,2]","101","100","1","","","","","","",""
"","","","","","image-keyboard-response","164","400569","0.0-112.0","5ec195df3f2aec276ff0bf33","665500ab8938657b03fbdba8","665792f1acebdfee506c15ca","487","stimuli/21011002.jpg"," ","","feedback_trial","0","","","","","","","","","","","","","","","","","","","","",""
"","","","","","image-keyboard-response","165","401481","0.0-113.0","5ec195df3f2aec276ff0bf33","665500ab8938657b03fbdba8","665792f1acebdfee506c15ca","909","stimuli/0110000.jpg","0","","prediction_trial","1","","false","","0","true","true","false","false","false","false","[1,0]","110","000","0","","","","","","",""
"","","","","","image-keyboard-response","166","401896","0.0-114.0","5ec195df3f2aec276ff0bf33","665500ab8938657b03fbdba8","665792f1acebdfee506c15ca","413","stimuli/01100001.jpg"," ","","feedback_trial","1","","","","","","","","","","","","","","","","","","","","",""
"","","","","","image-keyboard-response","167","402950","0.0-115.0","5ec195df3f2aec276ff0bf33","665500ab8938657b03fbdba8","665792f1acebdfee506c15ca","1051","stimuli/2110000.jpg","2","","prediction_trial","2","","true","","2","true","true","true","true","true","true","[2]","110","000","1","","","","","","",""
"","","","","","image-keyboard-response","168","403367","0.0-116.0","5ec195df3f2aec276ff0bf33","665500ab8938657b03fbdba8","665792f1acebdfee506c15ca","414","stimuli/21100002.jpg"," ","","feedback_trial","2","","","","","","","","","","","","","","","","","","","","",""
"","","","","","image-keyboard-response","169","404646","0.0-117.0","5ec195df3f2aec276ff0bf33","665500ab8938657b03fbdba8","665792f1acebdfee506c15ca","1277","stimuli/2001001.jpg","2","","prediction_trial","2","","true","","2","false","true","false","true","false","true","[2]","001","001","1","","","","","","",""
"","","","","","image-keyboard-response","170","405058","0.0-118.0","5ec195df3f2aec276ff0bf33","665500ab8938657b03fbdba8","665792f1acebdfee506c15ca","408","stimuli/20010012.jpg"," ","","feedback_trial","2","","","","","","","","","","","","","","","","","","","","",""
"","","","","","image-keyboard-response","171","405986","0.0-119.0","5ec195df3f2aec276ff0bf33","665500ab8938657b03fbdba8","665792f1acebdfee506c15ca","924","stimuli/1111000.jpg","1","","prediction_trial","1","","true","","1","true","true","false","false","false","false","[1,0,2]","111","000","1","","","","","","",""
"","","","","","image-keyboard-response","172","406397","0.0-120.0","5ec195df3f2aec276ff0bf33","665500ab8938657b03fbdba8","665792f1acebdfee506c15ca","409","stimuli/11110001.jpg"," ","","feedback_trial","1","","","","","","","","","","","","","","","","","","","","",""
"","","","","","image-keyboard-response","173","407832","0.0-121.0","5ec195df3f2aec276ff0bf33","665500ab8938657b03fbdba8","665792f1acebdfee506c15ca","1433","stimuli/1111001.jpg","1","","prediction_trial","0","","false","","1","true","true","false","false","false","false","[0,1,2]","111","001","0","","","","","","",""
"","","","","","image-keyboard-response","174","409340","0.0-122.0","5ec195df3f2aec276ff0bf33","665500ab8938657b03fbdba8","665792f1acebdfee506c15ca","1506","stimuli/11110010.jpg"," ","","feedback_trial","0","","","","","","","","","","","","","","","","","","","","",""
"","","","","","image-keyboard-response","175","410778","0.0-123.0","5ec195df3f2aec276ff0bf33","665500ab8938657b03fbdba8","665792f1acebdfee506c15ca","1435","stimuli/2011101.jpg","0","","prediction_trial","1","","false","","2","false","false","false","false","false","false","[2,1]","011","101","0","","","","","","",""
"","","","","","image-keyboard-response","176","411571","0.0-124.0","5ec195df3f2aec276ff0bf33","665500ab8938657b03fbdba8","665792f1acebdfee506c15ca","791","stimuli/20111011.jpg"," ","","feedback_trial","2","","","","","","","","","","","","","","","","","","","","",""
"","","","","","image-keyboard-response","177","412002","0.0-125.0","5ec195df3f2aec276ff0bf33","665500ab8938657b03fbdba8","665792f1acebdfee506c15ca","430","stimuli/2000011.jpg","0","","prediction_trial","2","","false","","2","false","false","true","true","false","false","[2]","000","011","0","","","","","","",""
"","","","","","image-keyboard-response","178","412627","0.0-126.0","5ec195df3f2aec276ff0bf33","665500ab8938657b03fbdba8","665792f1acebdfee506c15ca","622","stimuli/20000112.jpg"," ","","feedback_trial","2","","","","","","","","","","","","","","","","","","","","",""
"","","","","","image-keyboard-response","179","413903","0.0-127.0","5ec195df3f2aec276ff0bf33","665500ab8938657b03fbdba8","665792f1acebdfee506c15ca","1273","stimuli/1110001.jpg","1","","prediction_trial","1","","true","","1","true","true","false","false","false","false","[1,0]","110","001","1","","","","","","",""
"","","","","","image-keyboard-response","180","414400","0.0-128.0","5ec195df3f2aec276ff0bf33","665500ab8938657b03fbdba8","665792f1acebdfee506c15ca","494","stimuli/11100011.jpg"," ","","feedback_trial","1","","","","","","","","","","","","","","","","","","","","",""
"","","","","","image-keyboard-response","181","415663","0.0-129.0","5ec195df3f2aec276ff0bf33","665500ab8938657b03fbdba8","665792f1acebdfee506c15ca","1260","stimuli/0100110.jpg","1","","prediction_trial","0","","false","","0","false","false","false","true","false","false","[0]","100","110","0","","","","","","",""
"","","","","","image-keyboard-response","182","416445","0.0-130.0","5ec195df3f2aec276ff0bf33","665500ab8938657b03fbdba8","665792f1acebdfee506c15ca","780","stimuli/01001100.jpg"," ","","feedback_trial","0","","","","","","","","","","","","","","","","","","","","",""
"","","","","","image-keyboard-response","183","417051","0.0-131.0","5ec195df3f2aec276ff0bf33","665500ab8938657b03fbdba8","665792f1acebdfee506c15ca","604","stimuli/1110010.jpg","1","","prediction_trial","0","","false","","1","false","true","false","false","false","false","[1,0]","110","010","0","","","","","","",""
"","","","","","image-keyboard-response","184","417722","0.0-132.0","5ec195df3f2aec276ff0bf33","665500ab8938657b03fbdba8","665792f1acebdfee506c15ca","668","stimuli/11100100.jpg"," ","","feedback_trial","1","","","","","","","","","","","","","","","","","","","","",""
"","","","","","image-keyboard-response","185","419553","0.0-133.0","5ec195df3f2aec276ff0bf33","665500ab8938657b03fbdba8","665792f1acebdfee506c15ca","1828","stimuli/2010101.jpg","2","","prediction_trial","2","","true","","2","false","false","true","true","false","false","[2]","010","101","1","","","","","","",""
"","","","","","image-keyboard-response","186","419998","0.0-134.0","5ec195df3f2aec276ff0bf33","665500ab8938657b03fbdba8","665792f1acebdfee506c15ca","443","stimuli/20101012.jpg"," ","","feedback_trial","2","","","","","","","","","","","","","","","","","","","","",""
"","","","","","image-keyboard-response","187","421178","0.0-135.0","5ec195df3f2aec276ff0bf33","665500ab8938657b03fbdba8","665792f1acebdfee506c15ca","1177","stimuli/2110001.jpg","2","","prediction_trial","2","","true","","2","false","true","true","true","false","true","[2]","110","001","1","","","","","","",""
"","","","","","image-keyboard-response","188","421665","0.0-136.0","5ec195df3f2aec276ff0bf33","665500ab8938657b03fbdba8","665792f1acebdfee506c15ca","484","stimuli/21100012.jpg"," ","","feedback_trial","2","","","","","","","","","","","","","","","","","","","","",""
"","","","","","image-keyboard-response","189","423287","0.0-137.0","5ec195df3f2aec276ff0bf33","665500ab8938657b03fbdba8","665792f1acebdfee506c15ca","1620","stimuli/0010111.jpg","2","","prediction_trial","0","","false","","0","false","false","true","true","false","false","[0]","010","111","0","","","","","","",""
"","","","","","image-keyboard-response","190","423873","0.0-138.0","5ec195df3f2aec276ff0bf33","665500ab8938657b03fbdba8","665792f1acebdfee506c15ca","584","stimuli/00101110.jpg"," ","","feedback_trial","0","","","","","","","","","","","","","","","","","","","","",""
"","","","","","image-keyboard-response","191","424696","0.0-139.0","5ec195df3f2aec276ff0bf33","665500ab8938657b03fbdba8","665792f1acebdfee506c15ca","821","stimuli/1011011.jpg","2","","prediction_trial","2","","true","","1","false","false","false","false","false","false","[2,1]","011","011","1","","","","","","",""
"","","","","","image-keyboard-response","192","425190","0.0-140.0","5ec195df3f2aec276ff0bf33","665500ab8938657b03fbdba8","665792f1acebdfee506c15ca","492","stimuli/10110112.jpg"," ","","feedback_trial","2","","","","","","","","","","","","","","","","","","","","",""
"","","","","","image-keyboard-response","193","426584","0.0-141.0","5ec195df3f2aec276ff0bf33","665500ab8938657b03fbdba8","665792f1acebdfee506c15ca","1391","stimuli/0111100.jpg","0","","prediction_trial","2","","false","","0","false","true","false","false","false","false","[2,1,0]","111","100","0","","","","","","",""
"","","","","","image-keyboard-response","194","427444","0.0-142.0","5ec195df3f2aec276ff0bf33","665500ab8938657b03fbdba8","665792f1acebdfee506c15ca","858","stimuli/01111002.jpg"," ","","feedback_trial","2","","","","","","","","","","","","","","","","","","","","",""
"","","","","","image-keyboard-response","195","428329","0.0-143.0","5ec195df3f2aec276ff0bf33","665500ab8938657b03fbdba8","665792f1acebdfee506c15ca","882","stimuli/1101110.jpg","0","","prediction_trial","1","","false","","1","false","false","true","true","false","false","[1]","101","110","0","","","","","","",""
"","","","","","image-keyboard-response","196","429147","0.0-144.0","5ec195df3f2aec276ff0bf33","665500ab8938657b03fbdba8","665792f1acebdfee506c15ca","815","stimuli/11011101.jpg"," ","","feedback_trial","1","","","","","","","","","","","","","","","","","","","","",""
"","","","","","image-keyboard-response","197","430656","0.0-145.0","5ec195df3f2aec276ff0bf33","665500ab8938657b03fbdba8","665792f1acebdfee506c15ca","1506","stimuli/1111111.jpg","1","","prediction_trial","2","","false","","1","false","false","false","false","false","false","[1,2,0]","111","111","0","","","","","","",""
"","","","","","image-keyboard-response","198","431430","0.0-146.0","5ec195df3f2aec276ff0bf33","665500ab8938657b03fbdba8","665792f1acebdfee506c15ca","772","stimuli/11111112.jpg"," ","","feedback_trial","1","","","","","","","","","","","","","","","","","","","","",""
"","","","","","image-keyboard-response","199","431987","0.0-147.0","5ec195df3f2aec276ff0bf33","665500ab8938657b03fbdba8","665792f1acebdfee506c15ca","554","stimuli/1100010.jpg","1","","prediction_trial","1","","true","","1","false","true","true","true","false","true","[1]","100","010","1","","","","","","",""
"","","","","","image-keyboard-response","200","432532","0.0-148.0","5ec195df3f2aec276ff0bf33","665500ab8938657b03fbdba8","665792f1acebdfee506c15ca","542","stimuli/11000101.jpg"," ","","feedback_trial","1","","","","","","","","","","","","","","","","","","","","",""
"","","","","","image-keyboard-response","201","434422","0.0-149.0","5ec195df3f2aec276ff0bf33","665500ab8938657b03fbdba8","665792f1acebdfee506c15ca","1888","stimuli/0001111.jpg","1","","prediction_trial","0","","false","","0","false","false","true","true","false","false","[0]","001","111","0","","","","","","",""
"","","","","","image-keyboard-response","202","435189","0.0-150.0","5ec195df3f2aec276ff0bf33","665500ab8938657b03fbdba8","665792f1acebdfee506c15ca","765","stimuli/00011110.jpg"," ","","feedback_trial","0","","","","","","","","","","","","","","","","","","","","",""
"","","","","","image-keyboard-response","203","435961","0.0-151.0","5ec195df3f2aec276ff0bf33","665500ab8938657b03fbdba8","665792f1acebdfee506c15ca","770","stimuli/1000101.jpg","1","","prediction_trial","1","","true","","1","true","true","true","true","true","true","[1]","000","101","1","","","","","","",""
"","","","","","image-keyboard-response","204","436456","0.0-152.0","5ec195df3f2aec276ff0bf33","665500ab8938657b03fbdba8","665792f1acebdfee506c15ca","493","stimuli/10001011.jpg"," ","","feedback_trial","1","","","","","","","","","","","","","","","","","","","","",""
"","","","","","image-keyboard-response","205","438168","0.0-153.0","5ec195df3f2aec276ff0bf33","665500ab8938657b03fbdba8","665792f1acebdfee506c15ca","1710","stimuli/1100011.jpg","2","","prediction_trial","1","","false","","1","false","false","true","true","false","false","[1]","100","011","0","","","","","","",""
"","","","","","image-keyboard-response","206","439086","0.0-154.0","5ec195df3f2aec276ff0bf33","665500ab8938657b03fbdba8","665792f1acebdfee506c15ca","915","stimuli/11000111.jpg"," ","","feedback_trial","1","","","","","","","","","","","","","","","","","","","","",""
"","","","","","image-keyboard-response","207","440055","0.0-155.0","5ec195df3f2aec276ff0bf33","665500ab8938657b03fbdba8","665792f1acebdfee506c15ca","965","stimuli/2110111.jpg","2","","prediction_trial","2","","true","","2","false","false","true","true","false","false","[2]","110","111","1","","","","","","",""
"","","","","","image-keyboard-response","208","440523","0.0-156.0","5ec195df3f2aec276ff0bf33","665500ab8938657b03fbdba8","665792f1acebdfee506c15ca","466","stimuli/21101112.jpg"," ","","feedback_trial","2","","","","","","","","","","","","","","","","","","","","",""
"","","","","","image-keyboard-response","209","441333","0.0-157.0","5ec195df3f2aec276ff0bf33","665500ab8938657b03fbdba8","665792f1acebdfee506c15ca","808","stimuli/2101010.jpg","2","","prediction_trial","0","","false","","2","true","true","false","false","false","false","[0,2]","101","010","0","","","","","","",""
"","","","","","image-keyboard-response","210","441981","0.0-158.0","5ec195df3f2aec276ff0bf33","665500ab8938657b03fbdba8","665792f1acebdfee506c15ca","645","stimuli/21010100.jpg"," ","","feedback_trial","0","","","","","","","","","","","","","","","","","","","","",""
"","","","","","image-keyboard-response","211","442756","0.0-159.0","5ec195df3f2aec276ff0bf33","665500ab8938657b03fbdba8","665792f1acebdfee506c15ca","773","stimuli/1000111.jpg","2","","prediction_trial","1","","false","","1","false","false","true","true","false","false","[1]","000","111","0","","","","","","",""
"","","","","","image-keyboard-response","212","443865","0.0-160.0","5ec195df3f2aec276ff0bf33","665500ab8938657b03fbdba8","665792f1acebdfee506c15ca","1107","stimuli/10001111.jpg"," ","","feedback_trial","1","","","","","","","","","","","","","","","","","","","","",""
"","","","","","image-keyboard-response","213","444773","0.0-161.0","5ec195df3f2aec276ff0bf33","665500ab8938657b03fbdba8","665792f1acebdfee506c15ca","906","stimuli/0000110.jpg","1","","prediction_trial","0","","false","","0","false","false","true","true","false","false","[0]","000","110","0","","","","","","",""
"","","","","","image-keyboard-response","214","445507","0.0-162.0","5ec195df3f2aec276ff0bf33","665500ab8938657b03fbdba8","665792f1acebdfee506c15ca","731","stimuli/00001100.jpg"," ","","feedback_trial","0","","","","","","","","","","","","","","","","","","","","",""
"","","","","","image-keyboard-response","215","445924","0.0-163.0","5ec195df3f2aec276ff0bf33","665500ab8938657b03fbdba8","665792f1acebdfee506c15ca","414","stimuli/2100010.jpg","1","","prediction_trial","2","","false","","2","true","true","true","true","true","true","[2]","100","010","0","","","","","","",""
"","","","","","image-keyboard-response","216","446376","0.0-164.0","5ec195df3f2aec276ff0bf33","665500ab8938657b03fbdba8","665792f1acebdfee506c15ca","449","stimuli/21000102.jpg"," ","","feedback_trial","2","","","","","","","","","","","","","","","","","","","","",""
"","","","","","image-keyboard-response","217","447662","0.0-165.0","5ec195df3f2aec276ff0bf33","665500ab8938657b03fbdba8","665792f1acebdfee506c15ca","1284","stimuli/2011000.jpg","2","","prediction_trial","2","","true","","2","true","true","false","false","false","false","[1,2]","011","000","1","","","","","","",""
"","","","","","image-keyboard-response","218","448127","0.0-166.0","5ec195df3f2aec276ff0bf33","665500ab8938657b03fbdba8","665792f1acebdfee506c15ca","462","stimuli/20110002.jpg"," ","","feedback_trial","1","","","","","","","","","","","","","","","","","","","","",""
"","","","","","image-keyboard-response","219","449517","0.0-167.0","5ec195df3f2aec276ff0bf33","665500ab8938657b03fbdba8","665792f1acebdfee506c15ca","1387","stimuli/2011111.jpg","2","","prediction_trial","1","","false","","2","false","false","false","false","false","false","[1,2]","011","111","0","","","","","","",""
"","","","","","image-keyboard-response","220","450052","0.0-168.0","5ec195df3f2aec276ff0bf33","665500ab8938657b03fbdba8","665792f1acebdfee506c15ca","533","stimuli/20111111.jpg"," ","","feedback_trial","1","","","","","","","","","","","","","","","","","","","","",""
"","","","","","image-keyboard-response","221","451389","0.0-169.0","5ec195df3f2aec276ff0bf33","665500ab8938657b03fbdba8","665792f1acebdfee506c15ca","1335","stimuli/1010010.jpg","1","","prediction_trial","1","","true","","1","false","true","false","true","false","true","[1]","010","010","1","","","","","","",""
"","","","","","image-keyboard-response","222","452042","0.0-170.0","5ec195df3f2aec276ff0bf33","665500ab8938657b03fbdba8","665792f1acebdfee506c15ca","651","stimuli/10100101.jpg"," ","","feedback_trial","1","","","","","","","","","","","","","","","","","","","","",""
"","","","","","image-keyboard-response","223","453857","0.0-171.0","5ec195df3f2aec276ff0bf33","665500ab8938657b03fbdba8","665792f1acebdfee506c15ca","1813","stimuli/0000011.jpg","0","","prediction_trial","0","","true","","0","true","true","true","true","true","true","[0]","000","011","1","","","","","","",""
"","","","","","image-keyboard-response","224","454302","0.0-172.0","5ec195df3f2aec276ff0bf33","665500ab8938657b03fbdba8","665792f1acebdfee506c15ca","442","stimuli/00000110.jpg"," ","","feedback_trial","0","","","","","","","","","","","","","","","","","","","","",""
"","","","","","image-keyboard-response","225","455484","0.0-173.0","5ec195df3f2aec276ff0bf33","665500ab8938657b03fbdba8","665792f1acebdfee506c15ca","1178","stimuli/2111101.jpg","0","","prediction_trial","1","","false","","2","false","false","false","false","false","false","[2,1,0]","111","101","0","","","","","","",""
"","","","","","image-keyboard-response","226","455942","0.0-174.0","5ec195df3f2aec276ff0bf33","665500ab8938657b03fbdba8","665792f1acebdfee506c15ca","455","stimuli/21111011.jpg"," ","","feedback_trial","2","","","","","","","","","","","","","","","","","","","","",""
"","","","","","image-keyboard-response","227","456954","0.0-175.0","5ec195df3f2aec276ff0bf33","665500ab8938657b03fbdba8","665792f1acebdfee506c15ca","1010","stimuli/2111010.jpg","2","","prediction_trial","2","","true","","2","true","true","false","false","false","false","[2,0,1]","111","010","1","","","","","","",""
"","","","","","image-keyboard-response","228","457433","0.0-176.0","5ec195df3f2aec276ff0bf33","665500ab8938657b03fbdba8","665792f1acebdfee506c15ca","476","stimuli/21110102.jpg"," ","","feedback_trial","2","","","","","","","","","","","","","","","","","","","","",""
"","","","","","image-keyboard-response","229","458309","0.0-177.0","5ec195df3f2aec276ff0bf33","665500ab8938657b03fbdba8","665792f1acebdfee506c15ca","874","stimuli/1000100.jpg","1","","prediction_trial","1","","true","","1","true","true","true","true","true","true","[1]","000","100","1","","","","","","",""
"","","","","","image-keyboard-response","230","458791","0.0-178.0","5ec195df3f2aec276ff0bf33","665500ab8938657b03fbdba8","665792f1acebdfee506c15ca","479","stimuli/10001001.jpg"," ","","feedback_trial","1","","","","","","","","","","","","","","","","","","","","",""
"","","","","","image-keyboard-response","231","459732","0.0-179.0","5ec195df3f2aec276ff0bf33","665500ab8938657b03fbdba8","665792f1acebdfee506c15ca","939","stimuli/0001001.jpg","0","","prediction_trial","0","","true","","0","true","true","true","true","true","true","[0]","001","001","1","","","","","","",""
"","","","","","image-keyboard-response","232","460208","0.0-180.0","5ec195df3f2aec276ff0bf33","665500ab8938657b03fbdba8","665792f1acebdfee506c15ca","473","stimuli/00010010.jpg"," ","","feedback_trial","0","","","","","","","","","","","","","","","","","","","","",""
"","","","","","image-keyboard-response","233","461233","0.0-181.0","5ec195df3f2aec276ff0bf33","665500ab8938657b03fbdba8","665792f1acebdfee506c15ca","1022","stimuli/1111101.jpg","1","","prediction_trial","1","","true","","1","true","true","false","false","false","false","[1,0,2]","111","101","1","","","","","","",""
"","","","","","image-keyboard-response","234","461736","0.0-182.0","5ec195df3f2aec276ff0bf33","665500ab8938657b03fbdba8","665792f1acebdfee506c15ca","500","stimuli/11111011.jpg"," ","","feedback_trial","1","","","","","","","","","","","","","","","","","","","","",""
"","","","","","image-keyboard-response","235","462712","0.0-183.0","5ec195df3f2aec276ff0bf33","665500ab8938657b03fbdba8","665792f1acebdfee506c15ca","974","stimuli/1101101.jpg","1","","prediction_trial","1","","true","","1","true","true","true","true","true","true","[1]","101","101","1","","","","","","",""
"","","","","","image-keyboard-response","236","463193","0.0-184.0","5ec195df3f2aec276ff0bf33","665500ab8938657b03fbdba8","665792f1acebdfee506c15ca","479","stimuli/11011011.jpg"," ","","feedback_trial","1","","","","","","","","","","","","","","","","","","","","",""
"","","","","","image-keyboard-response","237","464653","0.0-185.0","5ec195df3f2aec276ff0bf33","665500ab8938657b03fbdba8","665792f1acebdfee506c15ca","1458","stimuli/0110111.jpg","2","","prediction_trial","0","","false","","0","false","false","false","false","false","false","[0,1]","110","111","0","","","","","","",""
"","","","","","image-keyboard-response","238","465430","0.0-186.0","5ec195df3f2aec276ff0bf33","665500ab8938657b03fbdba8","665792f1acebdfee506c15ca","775","stimuli/01101110.jpg"," ","","feedback_trial","0","","","","","","","","","","","","","","","","","","","","",""
"","","","","","image-keyboard-response","239","466908","0.0-187.0","5ec195df3f2aec276ff0bf33","665500ab8938657b03fbdba8","665792f1acebdfee506c15ca","1475","stimuli/0010100.jpg","0","","prediction_trial","0","","true","","0","false","true","true","true","false","true","[0]","010","100","1","","","","","","",""
"","","","","","image-keyboard-response","240","467402","0.0-188.0","5ec195df3f2aec276ff0bf33","665500ab8938657b03fbdba8","665792f1acebdfee506c15ca","492","stimuli/00101000.jpg"," ","","feedback_trial","0","","","","","","","","","","","","","","","","","","","","",""
"","","","","","image-keyboard-response","241","468401","0.0-189.0","5ec195df3f2aec276ff0bf33","665500ab8938657b03fbdba8","665792f1acebdfee506c15ca","996","stimuli/2001010.jpg","2","","prediction_trial","2","","true","","2","true","true","false","true","false","true","[2]","001","010","1","","","","","","",""
"","","","","","image-keyboard-response","242","468980","0.0-190.0","5ec195df3f2aec276ff0bf33","665500ab8938657b03fbdba8","665792f1acebdfee506c15ca","576","stimuli/20010102.jpg"," ","","feedback_trial","2","","","","","","","","","","","","","","","","","","","","",""
"","","","","","image-keyboard-response","243","470311","0.0-191.0","5ec195df3f2aec276ff0bf33","665500ab8938657b03fbdba8","665792f1acebdfee506c15ca","1329","stimuli/1111110.jpg","1","","prediction_trial","1","","true","","1","false","false","false","false","false","false","[0,1,2]","111","110","1","","","","","","",""
"","","","","","image-keyboard-response","244","470850","0.0-192.0","5ec195df3f2aec276ff0bf33","665500ab8938657b03fbdba8","665792f1acebdfee506c15ca","537","stimuli/11111101.jpg"," ","","feedback_trial","0","","","","","","","","","","","","","","","","","","","","",""
"","","","","","image-keyboard-response","245","472190","0.0-193.0","5ec195df3f2aec276ff0bf33","665500ab8938657b03fbdba8","665792f1acebdfee506c15ca","1337","stimuli/0101010.jpg","0","","prediction_trial","0","","true","","0","true","true","false","false","false","false","[2,0]","101","010","1","","","","","","",""
"","","","","","image-keyboard-response","246","472673","0.0-194.0","5ec195df3f2aec276ff0bf33","665500ab8938657b03fbdba8","665792f1acebdfee506c15ca","481","stimuli/01010100.jpg"," ","","feedback_trial","2","","","","","","","","","","","","","","","","","","","","",""
"","","","","","image-keyboard-response","247","473902","0.0-195.0","5ec195df3f2aec276ff0bf33","665500ab8938657b03fbdba8","665792f1acebdfee506c15ca","1225","stimuli/0101101.jpg","0","","prediction_trial","2","","false","","0","false","false","false","false","false","false","[0,2]","101","101","0","","","","","","",""
"","","","","","image-keyboard-response","248","474502","0.0-196.0","5ec195df3f2aec276ff0bf33","665500ab8938657b03fbdba8","665792f1acebdfee506c15ca","598","stimuli/01011012.jpg"," ","","feedback_trial","0","","","","","","","","","","","","","","","","","","","","",""
"","","","","","image-keyboard-response","249","475745","0.0-197.0","5ec195df3f2aec276ff0bf33","665500ab8938657b03fbdba8","665792f1acebdfee506c15ca","1240","stimuli/2110010.jpg","2","","prediction_trial","2","","true","","2","true","true","true","true","true","true","[2]","110","010","1","","","","","","",""
"","","","","","image-keyboard-response","250","476301","0.0-198.0","5ec195df3f2aec276ff0bf33","665500ab8938657b03fbdba8","665792f1acebdfee506c15ca","554","stimuli/21100102.jpg"," ","","feedback_trial","2","","","","","","","","","","","","","","","","","","","","",""
"","","","","","image-keyboard-response","251","477378","0.0-199.0","5ec195df3f2aec276ff0bf33","665500ab8938657b03fbdba8","665792f1acebdfee506c15ca","1073","stimuli/0111101.jpg","2","","prediction_trial","1","","false","","0","false","false","false","false","false","false","[1,0,2]","111","101","0","","","","","","",""
"","","","","","image-keyboard-response","252","477973","0.0-200.0","5ec195df3f2aec276ff0bf33","665500ab8938657b03fbdba8","665792f1acebdfee506c15ca","592","stimuli/01111011.jpg"," ","","feedback_trial","1","","","","","","","","","","","","","","","","","","","","",""
"","","","","","image-keyboard-response","253","478864","0.0-201.0","5ec195df3f2aec276ff0bf33","665500ab8938657b03fbdba8","665792f1acebdfee506c15ca","889","stimuli/2101001.jpg","2","","prediction_trial","2","","true","","2","false","true","false","false","false","false","[2,0]","101","001","1","","","","","","",""
"","","","","","image-keyboard-response","254","479371","0.0-202.0","5ec195df3f2aec276ff0bf33","665500ab8938657b03fbdba8","665792f1acebdfee506c15ca","505","stimuli/21010012.jpg"," ","","feedback_trial","2","","","","","","","","","","","","","","","","","","","","",""
"","","","","","image-keyboard-response","255","480372","0.0-203.0","5ec195df3f2aec276ff0bf33","665500ab8938657b03fbdba8","665792f1acebdfee506c15ca","998","stimuli/1100000.jpg","1","","prediction_trial","1","","true","","1","true","true","true","true","true","true","[1]","100","000","1","","","","","","",""
"","","","","","image-keyboard-response","256","480821","0.0-204.0","5ec195df3f2aec276ff0bf33","665500ab8938657b03fbdba8","665792f1acebdfee506c15ca","446","stimuli/11000001.jpg"," ","","feedback_trial","1","","","","","","","","","","","","","","","","","","","","",""
"","","","","","image-keyboard-response","257","481766","0.0-205.0","5ec195df3f2aec276ff0bf33","665500ab8938657b03fbdba8","665792f1acebdfee506c15ca","942","stimuli/0010011.jpg","0","","prediction_trial","0","","true","","0","true","true","true","true","true","true","[0]","010","011","1","","","","","","",""
"","","","","","image-keyboard-response","258","482226","0.0-206.0","5ec195df3f2aec276ff0bf33","665500ab8938657b03fbdba8","665792f1acebdfee506c15ca","457","stimuli/00100110.jpg"," ","","feedback_trial","0","","","","","","","","","","","","","","","","","","","","",""
"","","","","","image-keyboard-response","259","483247","0.0-207.0","5ec195df3f2aec276ff0bf33","665500ab8938657b03fbdba8","665792f1acebdfee506c15ca","1019","stimuli/2000010.jpg","2","","prediction_trial","2","","true","","2","true","true","true","true","true","true","[2]","000","010","1","","","","","","",""
"","","","","","image-keyboard-response","260","483952","0.0-208.0","5ec195df3f2aec276ff0bf33","665500ab8938657b03fbdba8","665792f1acebdfee506c15ca","701","stimuli/20000102.jpg"," ","","feedback_trial","2","","","","","","","","","","","","","","","","","","","","",""
"","","","","","image-keyboard-response","261","485628","0.0-209.0","5ec195df3f2aec276ff0bf33","665500ab8938657b03fbdba8","665792f1acebdfee506c15ca","1674","stimuli/0011100.jpg","0","","prediction_trial","0","","true","","0","false","true","true","true","false","true","[0]","011","100","1","","","","","","",""
"","","","","","image-keyboard-response","262","486392","0.0-210.0","5ec195df3f2aec276ff0bf33","665500ab8938657b03fbdba8","665792f1acebdfee506c15ca","761","stimuli/00111000.jpg"," ","","feedback_trial","0","","","","","","","","","","","","","","","","","","","","",""
"","","","","","image-keyboard-response","263","487787","0.0-211.0","5ec195df3f2aec276ff0bf33","665500ab8938657b03fbdba8","665792f1acebdfee506c15ca","1392","stimuli/1010000.jpg","1","","prediction_trial","1","","true","","1","true","true","false","true","false","true","[1]","010","000","1","","","","","","",""
"","","","","","image-keyboard-response","264","488278","0.0-212.0","5ec195df3f2aec276ff0bf33","665500ab8938657b03fbdba8","665792f1acebdfee506c15ca","490","stimuli/10100001.jpg"," ","","feedback_trial","1","","","","","","","","","","","","","","","","","","","","",""
"","","","","","image-keyboard-response","265","489861","0.0-213.0","5ec195df3f2aec276ff0bf33","665500ab8938657b03fbdba8","665792f1acebdfee506c15ca","1581","stimuli/2100101.jpg","0","","prediction_trial","2","","false","","2","false","false","true","true","false","false","[2]","100","101","0","","","","","","",""
"","","","","","image-keyboard-response","266","490625","0.0-214.0","5ec195df3f2aec276ff0bf33","665500ab8938657b03fbdba8","665792f1acebdfee506c15ca","762","stimuli/21001012.jpg"," ","","feedback_trial","2","","","","","","","","","","","","","","","","","","","","",""
"","","","","","image-keyboard-response","267","491879","0.0-215.0","5ec195df3f2aec276ff0bf33","665500ab8938657b03fbdba8","665792f1acebdfee506c15ca","1252","stimuli/1011001.jpg","1","","prediction_trial","1","","true","","1","true","true","false","false","false","false","[1,2]","011","001","1","","","","","","",""
"","","","","","image-keyboard-response","268","492340","0.0-216.0","5ec195df3f2aec276ff0bf33","665500ab8938657b03fbdba8","665792f1acebdfee506c15ca","459","stimuli/10110011.jpg"," ","","feedback_trial","1","","","","","","","","","","","","","","","","","","","","",""
"","","","","","image-keyboard-response","269","493779","0.0-217.0","5ec195df3f2aec276ff0bf33","665500ab8938657b03fbdba8","665792f1acebdfee506c15ca","1433","stimuli/0011101.jpg","2","","prediction_trial","0","","false","","0","false","false","true","true","false","false","[0]","011","101","0","","","","","","",""
"","","","","","image-keyboard-response","270","494459","0.0-218.0","5ec195df3f2aec276ff0bf33","665500ab8938657b03fbdba8","665792f1acebdfee506c15ca","678","stimuli/00111010.jpg"," ","","feedback_trial","0","","","","","","","","","","","","","","","","","","","","",""
"","","","","","image-keyboard-response","271","494982","0.0-219.0","5ec195df3f2aec276ff0bf33","665500ab8938657b03fbdba8","665792f1acebdfee506c15ca","520","stimuli/2001011.jpg","2","","prediction_trial","2","","true","","2","false","false","false","true","false","false","[2]","001","011","1","","","","","","",""
"","","","","","image-keyboard-response","272","495453","0.0-220.0","5ec195df3f2aec276ff0bf33","665500ab8938657b03fbdba8","665792f1acebdfee506c15ca","468","stimuli/20010112.jpg"," ","","feedback_trial","2","","","","","","","","","","","","","","","","","","","","",""
"","","","","","image-keyboard-response","273","496364","0.0-221.0","5ec195df3f2aec276ff0bf33","665500ab8938657b03fbdba8","665792f1acebdfee506c15ca","909","stimuli/1101100.jpg","1","","prediction_trial","1","","true","","1","true","true","true","true","true","true","[1]","101","100","1","","","","","","",""
"","","","","","image-keyboard-response","274","496829","0.0-222.0","5ec195df3f2aec276ff0bf33","665500ab8938657b03fbdba8","665792f1acebdfee506c15ca","462","stimuli/11011001.jpg"," ","","feedback_trial","1","","","","","","","","","","","","","","","","","","","","",""
"","","","","","image-keyboard-response","275","497950","0.0-223.0","5ec195df3f2aec276ff0bf33","665500ab8938657b03fbdba8","665792f1acebdfee506c15ca","1119","stimuli/0110100.jpg","0","","prediction_trial","0","","true","","0","false","true","false","false","false","false","[0,1]","110","100","1","","","","","","",""
"","","","","","image-keyboard-response","276","498441","0.0-224.0","5ec195df3f2aec276ff0bf33","665500ab8938657b03fbdba8","665792f1acebdfee506c15ca","488","stimuli/01101000.jpg"," ","","feedback_trial","0","","","","","","","","","","","","","","","","","","","","",""
"","","","","","image-keyboard-response","277","499761","0.0-225.0","5ec195df3f2aec276ff0bf33","665500ab8938657b03fbdba8","665792f1acebdfee506c15ca","1318","stimuli/2111111.jpg","1","","prediction_trial","1","","true","","2","false","false","false","false","false","false","[0,1,2]","111","111","1","","","","","","",""
"","","","","","image-keyboard-response","278","500568","0.0-226.0","5ec195df3f2aec276ff0bf33","665500ab8938657b03fbdba8","665792f1acebdfee506c15ca","804","stimuli/21111111.jpg"," ","","feedback_trial","0","","","","","","","","","","","","","","","","","","","","",""
"","","","","","image-keyboard-response","279","502120","0.0-227.0","5ec195df3f2aec276ff0bf33","665500ab8938657b03fbdba8","665792f1acebdfee506c15ca","1549","stimuli/1000010.jpg","1","","prediction_trial","1","","true","","1","false","true","true","true","false","true","[1]","000","010","1","","","","","","",""
"","","","","","image-keyboard-response","280","502748","0.0-228.0","5ec195df3f2aec276ff0bf33","665500ab8938657b03fbdba8","665792f1acebdfee506c15ca","626","stimuli/10000101.jpg"," ","","feedback_trial","1","","","","","","","","","","","","","","","","","","","","",""
"","","","","","image-keyboard-response","281","504078","0.0-229.0","5ec195df3f2aec276ff0bf33","665500ab8938657b03fbdba8","665792f1acebdfee506c15ca","1327","stimuli/0010010.jpg","0","","prediction_trial","0","","true","","0","true","true","true","true","true","true","[0]","010","010","1","","","","","","",""
"","","","","","image-keyboard-response","282","504576","0.0-230.0","5ec195df3f2aec276ff0bf33","665500ab8938657b03fbdba8","665792f1acebdfee506c15ca","495","stimuli/00100100.jpg"," ","","feedback_trial","0","","","","","","","","","","","","","","","","","","","","",""
"","","","","","image-keyboard-response","283","505904","0.0-231.0","5ec195df3f2aec276ff0bf33","665500ab8938657b03fbdba8","665792f1acebdfee506c15ca","1325","stimuli/1101010.jpg","1","","prediction_trial","1","","true","","1","false","true","true","true","false","true","[1]","101","010","1","","","","","","",""
"","","","","","image-keyboard-response","284","506558","0.0-232.0","5ec195df3f2aec276ff0bf33","665500ab8938657b03fbdba8","665792f1acebdfee506c15ca","652","stimuli/11010101.jpg"," ","","feedback_trial","1","","","","","","","","","","","","","","","","","","","","",""
"","","","","","image-keyboard-response","285","508149","0.0-233.0","5ec195df3f2aec276ff0bf33","665500ab8938657b03fbdba8","665792f1acebdfee506c15ca","1589","stimuli/1100100.jpg","1","","prediction_trial","1","","true","","1","true","true","true","true","true","true","[1]","100","100","1","","","","","","",""
"","","","","","image-keyboard-response","286","508657","0.0-234.0","5ec195df3f2aec276ff0bf33","665500ab8938657b03fbdba8","665792f1acebdfee506c15ca","504","stimuli/11001001.jpg"," ","","feedback_trial","1","","","","","","","","","","","","","","","","","","","","",""
"","","","","","image-keyboard-response","287","509894","0.0-235.0","5ec195df3f2aec276ff0bf33","665500ab8938657b03fbdba8","665792f1acebdfee506c15ca","1234","stimuli/0010110.jpg","1","","prediction_trial","0","","false","","0","false","false","true","true","false","false","[0]","010","110","0","","","","","","",""
"","","","","","image-keyboard-response","288","510755","0.0-236.0","5ec195df3f2aec276ff0bf33","665500ab8938657b03fbdba8","665792f1acebdfee506c15ca","859","stimuli/00101100.jpg"," ","","feedback_trial","0","","","","","","","","","","","","","","","","","","","","",""
"","","","","","image-keyboard-response","289","512302","0.0-237.0","5ec195df3f2aec276ff0bf33","665500ab8938657b03fbdba8","665792f1acebdfee506c15ca","1545","stimuli/2010001.jpg","2","","prediction_trial","2","","true","","2","false","true","true","true","false","true","[2]","010","001","1","","","","","","",""
"","","","","","image-keyboard-response","290","512790","0.0-238.0","5ec195df3f2aec276ff0bf33","665500ab8938657b03fbdba8","665792f1acebdfee506c15ca","485","stimuli/20100012.jpg"," ","","feedback_trial","2","","","","","","","","","","","","","","","","","","","","",""
"","","","","","image-keyboard-response","291","514167","0.0-239.0","5ec195df3f2aec276ff0bf33","665500ab8938657b03fbdba8","665792f1acebdfee506c15ca","1374","stimuli/1111011.jpg","1","","prediction_trial","2","","false","","1","false","false","false","false","false","false","[1,0,2]","111","011","0","","","","","","",""
"","","","","","image-keyboard-response","292","514896","0.0-240.0","5ec195df3f2aec276ff0bf33","665500ab8938657b03fbdba8","665792f1acebdfee506c15ca","726","stimuli/11110112.jpg"," ","","feedback_trial","1","","","","","","","","","","","","","","","","","","","","",""
"","","","","","image-keyboard-response","293","515973","0.0-241.0","5ec195df3f2aec276ff0bf33","665500ab8938657b03fbdba8","665792f1acebdfee506c15ca","1075","stimuli/1101001.jpg","1","","prediction_trial","1","","true","","1","true","true","true","true","true","true","[1]","101","001","1","","","","","","",""
"","","","","","image-keyboard-response","294","516713","0.0-242.0","5ec195df3f2aec276ff0bf33","665500ab8938657b03fbdba8","665792f1acebdfee506c15ca","738","stimuli/11010011.jpg"," ","","feedback_trial","1","","","","","","","","","","","","","","","","","","","","",""
"","","","","","image-keyboard-response","295","517989","0.0-243.0","5ec195df3f2aec276ff0bf33","665500ab8938657b03fbdba8","665792f1acebdfee506c15ca","1274","stimuli/1001110.jpg","0","","prediction_trial","1","","false","","1","false","false","true","true","false","false","[1]","001","110","0","","","","","","",""
"","","","","","image-keyboard-response","296","518603","0.0-244.0","5ec195df3f2aec276ff0bf33","665500ab8938657b03fbdba8","665792f1acebdfee506c15ca","611","stimuli/10011101.jpg"," ","","feedback_trial","1","","","","","","","","","","","","","","","","","","","","",""
"","","","","","image-keyboard-response","297","519716","0.0-245.0","5ec195df3f2aec276ff0bf33","665500ab8938657b03fbdba8","665792f1acebdfee506c15ca","1111","stimuli/2000000.jpg","2","","prediction_trial","2","","true","","2","true","true","true","true","true","true","[2]","000","000","1","","","","","","",""
"","","","","","image-keyboard-response","298","520151","0.0-246.0","5ec195df3f2aec276ff0bf33","665500ab8938657b03fbdba8","665792f1acebdfee506c15ca","433","stimuli/20000002.jpg"," ","","feedback_trial","2","","","","","","","","","","","","","","","","","","","","",""
"","","","","","image-keyboard-response","299","521157","0.0-247.0","5ec195df3f2aec276ff0bf33","665500ab8938657b03fbdba8","665792f1acebdfee506c15ca","1003","stimuli/2110110.jpg","2","","prediction_trial","2","","true","","2","true","true","true","true","true","true","[2]","110","110","1","","","","","","",""
"","","","","","image-keyboard-response","300","521542","0.0-248.0","5ec195df3f2aec276ff0bf33","665500ab8938657b03fbdba8","665792f1acebdfee506c15ca","383","stimuli/21101102.jpg"," ","","feedback_trial","2","","","","","","","","","","","","","","","","","","","","",""
"","","","","","image-keyboard-response","301","522558","0.0-249.0","5ec195df3f2aec276ff0bf33","665500ab8938657b03fbdba8","665792f1acebdfee506c15ca","1014","stimuli/0111000.jpg","0","","prediction_trial","0","","true","","0","true","true","false","false","false","false","[2,0,1]","111","000","1","","","","","","",""
"","","","","","image-keyboard-response","302","522977","0.0-250.0","5ec195df3f2aec276ff0bf33","665500ab8938657b03fbdba8","665792f1acebdfee506c15ca","416","stimuli/01110000.jpg"," ","","feedback_trial","2","","","","","","","","","","","","","","","","","","","","",""
"","","","","","image-keyboard-response","303","524283","0.0-251.0","5ec195df3f2aec276ff0bf33","665500ab8938657b03fbdba8","665792f1acebdfee506c15ca","1304","stimuli/1110011.jpg","1","","prediction_trial","1","","true","","1","false","false","false","false","false","false","[0,1]","110","011","1","","","","","","",""
"","","","","","image-keyboard-response","304","524976","0.0-252.0","5ec195df3f2aec276ff0bf33","665500ab8938657b03fbdba8","665792f1acebdfee506c15ca","690","stimuli/11100111.jpg"," ","","feedback_trial","0","","","","","","","","","","","","","","","","","","","","",""
"","","","","","image-keyboard-response","305","526457","0.0-253.0","5ec195df3f2aec276ff0bf33","665500ab8938657b03fbdba8","665792f1acebdfee506c15ca","1460","stimuli/0100010.jpg","0","","prediction_trial","0","","true","","0","true","true","false","true","false","true","[0]","100","010","1","","","","","","",""
"","","","","","image-keyboard-response","306","527251","0.0-254.0","5ec195df3f2aec276ff0bf33","665500ab8938657b03fbdba8","665792f1acebdfee506c15ca","792","stimuli/01000100.jpg"," ","","feedback_trial","0","","","","","","","","","","","","","","","","","","","","",""
"","","","","","image-keyboard-response","307","528511","0.0-255.0","5ec195df3f2aec276ff0bf33","665500ab8938657b03fbdba8","665792f1acebdfee506c15ca","1257","stimuli/1100110.jpg","0","","prediction_trial","1","","false","","1","false","false","true","true","false","false","[1]","100","110","0","","","","","","",""
"","","","","","image-keyboard-response","308","529234","0.0-256.0","5ec195df3f2aec276ff0bf33","665500ab8938657b03fbdba8","665792f1acebdfee506c15ca","721","stimuli/11001101.jpg"," ","","feedback_trial","1","","","","","","","","","","","","","","","","","","","","",""
"","","","","","image-keyboard-response","309","530727","0.0-257.0","5ec195df3f2aec276ff0bf33","665500ab8938657b03fbdba8","665792f1acebdfee506c15ca","1490","stimuli/2101011.jpg","1","","prediction_trial","2","","false","","2","false","false","false","false","false","false","[0,2]","101","011","0","","","","","","",""
