"success","timeout","failed_images","failed_audio","failed_video","trial_type","trial_index","time_elapsed","internal_node_id","prolific_id","prolific_study_id","prolific_session_id","rt","stimulus","response","view_history","trial","character_choice","stimulus_dict","accuracy","correct_response","ball_pos","ego_ball_visible","ego_can_infer","alter_ball_visible","alter_can_infer","collective_ball_visible","collective_can_infer","search_locations","alter_occluders","ego_occluders","accuracy_bool","feedback","age","ethnicity","gender","race","overall_accuracy","bonus"
"true","false","[]","[]","[]","preload","0","39532","0.0-0.0","632beb3e071d0d5eec133b60","665500ab8938657b03fbdba8","6657937227f74ca16eb424da","","","","","","","","","","","","","","","","","","","","","","","","","","",""
"true","","","","","fullscreen","1","62318","0.0-1.0","632beb3e071d0d5eec133b60","665500ab8938657b03fbdba8","6657937227f74ca16eb424da","","","","","","","","","","","","","","","","","","","","","","","","","","",""
"","","","","","html-button-response","2","65456","0.0-2.0","632beb3e071d0d5eec133b60","665500ab8938657b03fbdba8","6657937227f74ca16eb424da","3135","<p><b>Consent Form</b></p> <div style=""text-align:left;background-color:lightgrey; padding:20px; max-width:900px;""><p>Please consider this information carefully before deciding whether to participate in this research.</p> <p>The purpose of this research is to examine which factors influence social judgment and decision-making. You will be asked to make judgements about individuals and actions in social scenarios. We are simply interested in your judgement. The study will take less than 1 hour to complete, and you will receive less than $20 on Prolific. Your compensation and time commitment are specified in the study description. There are no anticipated risks associated with participating in this study. The effects of participating should be comparable to those you would ordinarily experience from viewing a computer monitor and using a mouse or keyboard for a similar amount of time. At the end of the study, we will provide an explanation of the questions that motivate this line of research and will describe the potential implications. </p><p> Your participation in this study is completely voluntary and you may refuse to participate or you may choose to withdraw at any time without penalty or loss of benefits to you which are otherwise entitled. Your participation in this study will remain confidential. No personally identifiable information will be associated with your data. Also, all analyses of the data will be averaged across all the participants, so your individual responses will never be specifically analyzed. </p><p> If you have questions or concerns about your participation or payment, or want to request a summary of research findings, please contact Dr. Jonathan Phillips at Jonathan.S.Phillips@dartmouth.edu. </p><p> Please save a copy of this form for your records. </p><p><b>Agreement: </b>The nature and purpose of this research have been sufficiently explained and I agree to participate in this study. I understand that I am free to withdraw at any time without incurring any penalty. Please consent by clicking the button below to continue. Otherwise, please exit the study at any time. </p>","0","","","","","","","","","","","","","","","","","","","","","","","",""
"","","","","","instructions","3","141281","0.0-3.0-0.0","632beb3e071d0d5eec133b60","665500ab8938657b03fbdba8","6657937227f74ca16eb424da","75822","","","[{""page_index"":0,""viewing_time"":3272},{""page_index"":1,""viewing_time"":3233},{""page_index"":2,""viewing_time"":3300},{""page_index"":3,""viewing_time"":5664},{""page_index"":4,""viewing_time"":6802},{""page_index"":5,""viewing_time"":3849},{""page_index"":6,""viewing_time"":6267},{""page_index"":7,""viewing_time"":4667},{""page_index"":8,""viewing_time"":4333},{""page_index"":9,""viewing_time"":2518},{""page_index"":10,""viewing_time"":9481},{""page_index"":11,""viewing_time"":6498},{""page_index"":12,""viewing_time"":13402},{""page_index"":13,""viewing_time"":2535}]","intro","","","","","","","","","","","","","","","","","","","","","",""
"","","","","","image-keyboard-response","4","143440","0.0-3.0-1.0","632beb3e071d0d5eec133b60","665500ab8938657b03fbdba8","6657937227f74ca16eb424da","2153","stimuli/0100111.jpg","0","","prediction_practice","0","{""filepath"":""stimuli/0100111.jpg"",""ball_pos"":0,""ego_ball_visible"":false,""ego_can_infer"":false,""alter_ball_visible"":false,""alter_can_infer"":true,""collective_ball_visible"":false,""collective_can_infer"":false,""search_locations"":[0],""alter_occluders"":""100"",""ego_occluders"":""111""}","true","","","","","","","","","","","","","","","","","","",""
"","","","","","image-keyboard-response","5","143910","0.0-3.0-2.0","632beb3e071d0d5eec133b60","665500ab8938657b03fbdba8","6657937227f74ca16eb424da","468","stimuli/01001110.jpg"," ","","practrice_feedback","0","","","","","","","","","","","","","","","","","","","","",""
"","","","","","image-keyboard-response","6","148010","0.0-3.0-3.0","632beb3e071d0d5eec133b60","665500ab8938657b03fbdba8","6657937227f74ca16eb424da","4099","stimuli/0011010.jpg","0","","prediction_practice","0","{""filepath"":""stimuli/0011010.jpg"",""ball_pos"":0,""ego_ball_visible"":true,""ego_can_infer"":true,""alter_ball_visible"":true,""alter_can_infer"":true,""collective_ball_visible"":true,""collective_can_infer"":true,""search_locations"":[0],""alter_occluders"":""011"",""ego_occluders"":""010""}","true","","","","","","","","","","","","","","","","","","",""
"","","","","","image-keyboard-response","7","148725","0.0-3.0-4.0","632beb3e071d0d5eec133b60","665500ab8938657b03fbdba8","6657937227f74ca16eb424da","713","stimuli/00110100.jpg"," ","","practrice_feedback","0","","","","","","","","","","","","","","","","","","","","",""
"","","","","","image-keyboard-response","8","149643","0.0-3.0-5.0","632beb3e071d0d5eec133b60","665500ab8938657b03fbdba8","6657937227f74ca16eb424da","917","stimuli/0011011.jpg","0","","prediction_practice","0","{""filepath"":""stimuli/0011011.jpg"",""ball_pos"":0,""ego_ball_visible"":true,""ego_can_infer"":true,""alter_ball_visible"":true,""alter_can_infer"":true,""collective_ball_visible"":true,""collective_can_infer"":true,""search_locations"":[0],""alter_occluders"":""011"",""ego_occluders"":""011""}","true","","","","","","","","","","","","","","","","","","",""
"","","","","","image-keyboard-response","9","149899","0.0-3.0-6.0","632beb3e071d0d5eec133b60","665500ab8938657b03fbdba8","6657937227f74ca16eb424da","255","stimuli/00110110.jpg"," ","","practrice_feedback","0","","","","","","","","","","","","","","","","","","","","",""
"","","","","","image-keyboard-response","10","151656","0.0-3.0-7.0","632beb3e071d0d5eec133b60","665500ab8938657b03fbdba8","6657937227f74ca16eb424da","1756","stimuli/2101011.jpg","1","","prediction_practice","2","{""filepath"":""stimuli/2101011.jpg"",""ball_pos"":2,""ego_ball_visible"":false,""ego_can_infer"":false,""alter_ball_visible"":false,""alter_can_infer"":false,""collective_ball_visible"":false,""collective_can_infer"":false,""search_locations"":[0,2],""alter_occluders"":""101"",""ego_occluders"":""011""}","false","","","","","","","","","","","","","","","","","","",""
"","","","","","image-keyboard-response","11","151943","0.0-3.0-8.0","632beb3e071d0d5eec133b60","665500ab8938657b03fbdba8","6657937227f74ca16eb424da","285","stimuli/21010112.jpg"," ","","practrice_feedback","0","","","","","","","","","","","","","","","","","","","","",""
"","","","","","image-keyboard-response","12","153135","0.0-3.0-9.0","632beb3e071d0d5eec133b60","665500ab8938657b03fbdba8","6657937227f74ca16eb424da","1191","stimuli/2111110.jpg","2","","prediction_practice","0","{""filepath"":""stimuli/2111110.jpg"",""ball_pos"":2,""ego_ball_visible"":true,""ego_can_infer"":true,""alter_ball_visible"":false,""alter_can_infer"":false,""collective_ball_visible"":false,""collective_can_infer"":false,""search_locations"":[1,0,2],""alter_occluders"":""111"",""ego_occluders"":""110""}","false","","","","","","","","","","","","","","","","","","",""
"","","","","","image-keyboard-response","13","156207","0.0-3.0-10.0","632beb3e071d0d5eec133b60","665500ab8938657b03fbdba8","6657937227f74ca16eb424da","3071","stimuli/21111100.jpg"," ","","practrice_feedback","1","","","","","","","","","","","","","","","","","","","","",""
"","","","","","image-keyboard-response","14","157107","0.0-3.0-11.0","632beb3e071d0d5eec133b60","665500ab8938657b03fbdba8","6657937227f74ca16eb424da","899","stimuli/1110001.jpg","1","","prediction_practice","0","{""filepath"":""stimuli/1110001.jpg"",""ball_pos"":1,""ego_ball_visible"":true,""ego_can_infer"":true,""alter_ball_visible"":false,""alter_can_infer"":false,""collective_ball_visible"":false,""collective_can_infer"":false,""search_locations"":[0,1],""alter_occluders"":""110"",""ego_occluders"":""001""}","false","","","","","","","","","","","","","","","","","","",""
"","","","","","image-keyboard-response","15","158500","0.0-3.0-12.0","632beb3e071d0d5eec133b60","665500ab8938657b03fbdba8","6657937227f74ca16eb424da","1392","stimuli/11100010.jpg"," ","","practrice_feedback","0","","","","","","","","","","","","","","","","","","","","",""
"","","","","","image-keyboard-response","16","161158","0.0-3.0-13.0","632beb3e071d0d5eec133b60","665500ab8938657b03fbdba8","6657937227f74ca16eb424da","2649","stimuli/0100110.jpg","0","","prediction_practice","0","{""filepath"":""stimuli/0100110.jpg"",""ball_pos"":0,""ego_ball_visible"":false,""ego_can_infer"":false,""alter_ball_visible"":false,""alter_can_infer"":true,""collective_ball_visible"":false,""collective_can_infer"":false,""search_locations"":[0],""alter_occluders"":""100"",""ego_occluders"":""110""}","true","","","","","","","","","","","","","","","","","","",""
"","","","","","image-keyboard-response","17","162162","0.0-3.0-14.0","632beb3e071d0d5eec133b60","665500ab8938657b03fbdba8","6657937227f74ca16eb424da","1003","stimuli/01001100.jpg"," ","","practrice_feedback","0","","","","","","","","","","","","","","","","","","","","",""
"","","","","","image-keyboard-response","18","163516","0.0-3.0-15.0","632beb3e071d0d5eec133b60","665500ab8938657b03fbdba8","6657937227f74ca16eb424da","1353","stimuli/1010011.jpg","1","","prediction_practice","1","{""filepath"":""stimuli/1010011.jpg"",""ball_pos"":1,""ego_ball_visible"":false,""ego_can_infer"":false,""alter_ball_visible"":false,""alter_can_infer"":true,""collective_ball_visible"":false,""collective_can_infer"":false,""search_locations"":[1],""alter_occluders"":""010"",""ego_occluders"":""011""}","true","","","","","","","","","","","","","","","","","","",""
"","","","","","image-keyboard-response","19","164252","0.0-3.0-16.0","632beb3e071d0d5eec133b60","665500ab8938657b03fbdba8","6657937227f74ca16eb424da","735","stimuli/10100111.jpg"," ","","practrice_feedback","1","","","","","","","","","","","","","","","","","","","","",""
"","","","","","image-keyboard-response","20","165759","0.0-3.0-17.0","632beb3e071d0d5eec133b60","665500ab8938657b03fbdba8","6657937227f74ca16eb424da","1505","stimuli/1011111.jpg","2","","prediction_practice","2","{""filepath"":""stimuli/1011111.jpg"",""ball_pos"":1,""ego_ball_visible"":false,""ego_can_infer"":false,""alter_ball_visible"":false,""alter_can_infer"":false,""collective_ball_visible"":false,""collective_can_infer"":false,""search_locations"":[2,1],""alter_occluders"":""011"",""ego_occluders"":""111""}","true","","","","","","","","","","","","","","","","","","",""
"","","","","","image-keyboard-response","21","166413","0.0-3.0-18.0","632beb3e071d0d5eec133b60","665500ab8938657b03fbdba8","6657937227f74ca16eb424da","654","stimuli/10111112.jpg"," ","","practrice_feedback","2","","","","","","","","","","","","","","","","","","","","",""
"","","","","","image-keyboard-response","22","167058","0.0-3.0-19.0","632beb3e071d0d5eec133b60","665500ab8938657b03fbdba8","6657937227f74ca16eb424da","643","stimuli/0010100.jpg","1","","prediction_practice","0","{""filepath"":""stimuli/0010100.jpg"",""ball_pos"":0,""ego_ball_visible"":false,""ego_can_infer"":true,""alter_ball_visible"":true,""alter_can_infer"":true,""collective_ball_visible"":false,""collective_can_infer"":true,""search_locations"":[0],""alter_occluders"":""010"",""ego_occluders"":""100""}","false","","","","","","","","","","","","","","","","","","",""
"","","","","","image-keyboard-response","23","167723","0.0-3.0-20.0","632beb3e071d0d5eec133b60","665500ab8938657b03fbdba8","6657937227f74ca16eb424da","664","stimuli/00101000.jpg"," ","","practrice_feedback","0","","","","","","","","","","","","","","","","","","","","",""
"","","","","","html-button-response","24","170340","0.0-3.0-21.0","632beb3e071d0d5eec133b60","665500ab8938657b03fbdba8","6657937227f74ca16eb424da","2616","Now that you've had some practice, you'll be tested with a couple of easy trials. If you correctly predict Sam's choice, you'll move on to complete the experiment!","0","","","","","","","","","","","","","","","","","","","","","","","",""
"","","","","","image-keyboard-response","25","171410","0.0-3.0-22.0-0.0","632beb3e071d0d5eec133b60","665500ab8938657b03fbdba8","6657937227f74ca16eb424da","1068","stimuli/0000011.jpg","arrowleft","","comprehension_quiz","","","true","arrowleft","","","","","","","","","","","","","","","","","",""
"","","","","","image-keyboard-response","26","172360","0.0-3.0-22.0-1.0","632beb3e071d0d5eec133b60","665500ab8938657b03fbdba8","6657937227f74ca16eb424da","948","stimuli/00000110.jpg"," ","","comprehension_quiz","","","true"," ","","","","","","","","","","","","","","","","","",""
"","","","","","image-keyboard-response","27","173498","0.0-3.0-22.0-2.0","632beb3e071d0d5eec133b60","665500ab8938657b03fbdba8","6657937227f74ca16eb424da","1137","stimuli/1010010.jpg","arrowdown","","comprehension_quiz","","","true","arrowdown","","","","","","","","","","","","","","","","","",""
"","","","","","image-keyboard-response","28","174178","0.0-3.0-22.0-3.0","632beb3e071d0d5eec133b60","665500ab8938657b03fbdba8","6657937227f74ca16eb424da","668","stimuli/10100101.jpg"," ","","comprehension_quiz","","","true"," ","","","","","","","","","","","","","","","","","",""
"","","","","","html-button-response","29","175974","0.0-4.0","632beb3e071d0d5eec133b60","665500ab8938657b03fbdba8","6657937227f74ca16eb424da","1794","The experiment will now begin.","0","","","","","","","","","","","","","","","","","","","","","","","",""
"","","","","","image-keyboard-response","30","177010","0.0-5.0","632beb3e071d0d5eec133b60","665500ab8938657b03fbdba8","6657937227f74ca16eb424da","1034","stimuli/1100010.jpg","1","","prediction_trial","1","","true","","1","false","true","true","true","false","true","[1]","100","010","1","","","","","","",""
"","","","","","image-keyboard-response","31","177615","0.0-6.0","632beb3e071d0d5eec133b60","665500ab8938657b03fbdba8","6657937227f74ca16eb424da","604","stimuli/11000101.jpg"," ","","feedback_trial","1","","","","","","","","","","","","","","","","","","","","",""
"","","","","","image-keyboard-response","32","178684","0.0-7.0","632beb3e071d0d5eec133b60","665500ab8938657b03fbdba8","6657937227f74ca16eb424da","1067","stimuli/0000111.jpg","0","","prediction_trial","0","","true","","0","false","false","true","true","false","false","[0]","000","111","1","","","","","","",""
"","","","","","image-keyboard-response","33","179294","0.0-8.0","632beb3e071d0d5eec133b60","665500ab8938657b03fbdba8","6657937227f74ca16eb424da","602","stimuli/00001110.jpg"," ","","feedback_trial","0","","","","","","","","","","","","","","","","","","","","",""
"","","","","","image-keyboard-response","34","180006","0.0-9.0","632beb3e071d0d5eec133b60","665500ab8938657b03fbdba8","6657937227f74ca16eb424da","711","stimuli/1011101.jpg","1","","prediction_trial","2","","false","","1","true","true","false","false","false","false","[2,1]","011","101","0","","","","","","",""
"","","","","","image-keyboard-response","35","180261","0.0-10.0","632beb3e071d0d5eec133b60","665500ab8938657b03fbdba8","6657937227f74ca16eb424da","254","stimuli/10111012.jpg"," ","","feedback_trial","2","","","","","","","","","","","","","","","","","","","","",""
"","","","","","image-keyboard-response","36","182613","0.0-11.0","632beb3e071d0d5eec133b60","665500ab8938657b03fbdba8","6657937227f74ca16eb424da","2357","stimuli/2110011.jpg","2","","prediction_trial","2","","true","","2","false","false","true","true","false","false","[2]","110","011","1","","","","","","",""
"","","","","","image-keyboard-response","37","183367","0.0-12.0","632beb3e071d0d5eec133b60","665500ab8938657b03fbdba8","6657937227f74ca16eb424da","745","stimuli/21100112.jpg"," ","","feedback_trial","2","","","","","","","","","","","","","","","","","","","","",""
"","","","","","image-keyboard-response","38","184187","0.0-13.0","632beb3e071d0d5eec133b60","665500ab8938657b03fbdba8","6657937227f74ca16eb424da","818","stimuli/1000000.jpg","1","","prediction_trial","1","","true","","1","true","true","true","true","true","true","[1]","000","000","1","","","","","","",""
"","","","","","image-keyboard-response","39","184521","0.0-14.0","632beb3e071d0d5eec133b60","665500ab8938657b03fbdba8","6657937227f74ca16eb424da","334","stimuli/10000001.jpg"," ","","feedback_trial","1","","","","","","","","","","","","","","","","","","","","",""
"","","","","","image-keyboard-response","40","186315","0.0-15.0","632beb3e071d0d5eec133b60","665500ab8938657b03fbdba8","6657937227f74ca16eb424da","1793","stimuli/0011010.jpg","0","","prediction_trial","0","","true","","0","true","true","true","true","true","true","[0]","011","010","1","","","","","","",""
"","","","","","image-keyboard-response","41","187029","0.0-16.0","632beb3e071d0d5eec133b60","665500ab8938657b03fbdba8","6657937227f74ca16eb424da","712","stimuli/00110100.jpg"," ","","feedback_trial","0","","","","","","","","","","","","","","","","","","","","",""
"","","","","","image-keyboard-response","42","188029","0.0-17.0","632beb3e071d0d5eec133b60","665500ab8938657b03fbdba8","6657937227f74ca16eb424da","999","stimuli/1001100.jpg","1","","prediction_trial","1","","true","","1","true","true","true","true","true","true","[1]","001","100","1","","","","","","",""
"","","","","","image-keyboard-response","43","188455","0.0-18.0","632beb3e071d0d5eec133b60","665500ab8938657b03fbdba8","6657937227f74ca16eb424da","424","stimuli/10011001.jpg"," ","","feedback_trial","1","","","","","","","","","","","","","","","","","","","","",""
"","","","","","image-keyboard-response","44","189238","0.0-19.0","632beb3e071d0d5eec133b60","665500ab8938657b03fbdba8","6657937227f74ca16eb424da","783","stimuli/2000111.jpg","1","","prediction_trial","2","","false","","2","false","false","true","true","false","false","[2]","000","111","0","","","","","","",""
"","","","","","image-keyboard-response","45","189890","0.0-20.0","632beb3e071d0d5eec133b60","665500ab8938657b03fbdba8","6657937227f74ca16eb424da","650","stimuli/20001112.jpg"," ","","feedback_trial","2","","","","","","","","","","","","","","","","","","","","",""
"","","","","","image-keyboard-response","46","190868","0.0-21.0","632beb3e071d0d5eec133b60","665500ab8938657b03fbdba8","6657937227f74ca16eb424da","976","stimuli/0011110.jpg","0","","prediction_trial","0","","true","","0","false","false","true","true","false","false","[0]","011","110","1","","","","","","",""
"","","","","","image-keyboard-response","47","191471","0.0-22.0","632beb3e071d0d5eec133b60","665500ab8938657b03fbdba8","6657937227f74ca16eb424da","602","stimuli/00111100.jpg"," ","","feedback_trial","0","","","","","","","","","","","","","","","","","","","","",""
"","","","","","image-keyboard-response","48","192210","0.0-23.0","632beb3e071d0d5eec133b60","665500ab8938657b03fbdba8","6657937227f74ca16eb424da","731","stimuli/1001000.jpg","1","","prediction_trial","1","","true","","1","true","true","true","true","true","true","[1]","001","000","1","","","","","","",""
"","","","","","image-keyboard-response","49","192551","0.0-24.0","632beb3e071d0d5eec133b60","665500ab8938657b03fbdba8","6657937227f74ca16eb424da","340","stimuli/10010001.jpg"," ","","feedback_trial","1","","","","","","","","","","","","","","","","","","","","",""
"","","","","","image-keyboard-response","50","193229","0.0-25.0","632beb3e071d0d5eec133b60","665500ab8938657b03fbdba8","6657937227f74ca16eb424da","676","stimuli/0000000.jpg","0","","prediction_trial","0","","true","","0","true","true","true","true","true","true","[0]","000","000","1","","","","","","",""
"","","","","","image-keyboard-response","51","193479","0.0-26.0","632beb3e071d0d5eec133b60","665500ab8938657b03fbdba8","6657937227f74ca16eb424da","249","stimuli/00000000.jpg"," ","","feedback_trial","0","","","","","","","","","","","","","","","","","","","","",""
"","","","","","image-keyboard-response","52","194113","0.0-27.0","632beb3e071d0d5eec133b60","665500ab8938657b03fbdba8","6657937227f74ca16eb424da","633","stimuli/1111101.jpg","1","","prediction_trial","1","","true","","1","true","true","false","false","false","false","[2,1,0]","111","101","1","","","","","","",""
"","","","","","image-keyboard-response","53","194374","0.0-28.0","632beb3e071d0d5eec133b60","665500ab8938657b03fbdba8","6657937227f74ca16eb424da","260","stimuli/11111011.jpg"," ","","feedback_trial","2","","","","","","","","","","","","","","","","","","","","",""
"","","","","","image-keyboard-response","54","194944","0.0-29.0","632beb3e071d0d5eec133b60","665500ab8938657b03fbdba8","6657937227f74ca16eb424da","569","stimuli/2010000.jpg","2","","prediction_trial","2","","true","","2","true","true","true","true","true","true","[2]","010","000","1","","","","","","",""
"","","","","","image-keyboard-response","55","195172","0.0-30.0","632beb3e071d0d5eec133b60","665500ab8938657b03fbdba8","6657937227f74ca16eb424da","227","stimuli/20100002.jpg"," ","","feedback_trial","2","","","","","","","","","","","","","","","","","","","","",""
"","","","","","image-keyboard-response","56","196371","0.0-31.0","632beb3e071d0d5eec133b60","665500ab8938657b03fbdba8","6657937227f74ca16eb424da","1198","stimuli/2011001.jpg","2","","prediction_trial","1","","false","","2","false","true","false","false","false","false","[1,2]","011","001","0","","","","","","",""
"","","","","","image-keyboard-response","57","197343","0.0-32.0","632beb3e071d0d5eec133b60","665500ab8938657b03fbdba8","6657937227f74ca16eb424da","971","stimuli/20110011.jpg"," ","","feedback_trial","1","","","","","","","","","","","","","","","","","","","","",""
"","","","","","image-keyboard-response","58","200148","0.0-33.0","632beb3e071d0d5eec133b60","665500ab8938657b03fbdba8","6657937227f74ca16eb424da","2804","stimuli/0110001.jpg","0","","prediction_trial","0","","true","","0","true","true","false","false","false","false","[0,1]","110","001","1","","","","","","",""
"","","","","","image-keyboard-response","59","200399","0.0-34.0","632beb3e071d0d5eec133b60","665500ab8938657b03fbdba8","6657937227f74ca16eb424da","243","stimuli/01100010.jpg"," ","","feedback_trial","0","","","","","","","","","","","","","","","","","","","","",""
"","","","","","image-keyboard-response","60","201133","0.0-35.0","632beb3e071d0d5eec133b60","665500ab8938657b03fbdba8","6657937227f74ca16eb424da","733","stimuli/1010101.jpg","1","","prediction_trial","1","","true","","1","true","true","false","true","false","true","[1]","010","101","1","","","","","","",""
"","","","","","image-keyboard-response","61","201363","0.0-36.0","632beb3e071d0d5eec133b60","665500ab8938657b03fbdba8","6657937227f74ca16eb424da","228","stimuli/10101011.jpg"," ","","feedback_trial","1","","","","","","","","","","","","","","","","","","","","",""
"","","","","","image-keyboard-response","62","202127","0.0-37.0","632beb3e071d0d5eec133b60","665500ab8938657b03fbdba8","6657937227f74ca16eb424da","763","stimuli/0001111.jpg","2","","prediction_trial","0","","false","","0","false","false","true","true","false","false","[0]","001","111","0","","","","","","",""
"","","","","","image-keyboard-response","63","202502","0.0-38.0","632beb3e071d0d5eec133b60","665500ab8938657b03fbdba8","6657937227f74ca16eb424da","374","stimuli/00011110.jpg"," ","","feedback_trial","0","","","","","","","","","","","","","","","","","","","","",""
"","","","","","image-keyboard-response","64","203836","0.0-39.0","632beb3e071d0d5eec133b60","665500ab8938657b03fbdba8","6657937227f74ca16eb424da","1332","stimuli/1100011.jpg","2","","prediction_trial","1","","false","","1","false","false","true","true","false","false","[1]","100","011","0","","","","","","",""
"","","","","","image-keyboard-response","65","204865","0.0-40.0","632beb3e071d0d5eec133b60","665500ab8938657b03fbdba8","6657937227f74ca16eb424da","1028","stimuli/11000111.jpg"," ","","feedback_trial","1","","","","","","","","","","","","","","","","","","","","",""
"","","","","","image-keyboard-response","66","206063","0.0-41.0","632beb3e071d0d5eec133b60","665500ab8938657b03fbdba8","6657937227f74ca16eb424da","1197","stimuli/0001101.jpg","2","","prediction_trial","0","","false","","0","false","false","true","true","false","false","[0]","001","101","0","","","","","","",""
"","","","","","image-keyboard-response","67","208422","0.0-42.0","632beb3e071d0d5eec133b60","665500ab8938657b03fbdba8","6657937227f74ca16eb424da","2358","stimuli/00011010.jpg"," ","","feedback_trial","0","","","","","","","","","","","","","","","","","","","","",""
"","","","","","image-keyboard-response","68","209241","0.0-43.0","632beb3e071d0d5eec133b60","665500ab8938657b03fbdba8","6657937227f74ca16eb424da","817","stimuli/1001001.jpg","1","","prediction_trial","1","","true","","1","true","true","true","true","true","true","[1]","001","001","1","","","","","","",""
"","","","","","image-keyboard-response","69","209541","0.0-44.0","632beb3e071d0d5eec133b60","665500ab8938657b03fbdba8","6657937227f74ca16eb424da","298","stimuli/10010011.jpg"," ","","feedback_trial","1","","","","","","","","","","","","","","","","","","","","",""
"","","","","","image-keyboard-response","70","210435","0.0-45.0","632beb3e071d0d5eec133b60","665500ab8938657b03fbdba8","6657937227f74ca16eb424da","879","stimuli/1110110.jpg","0","","prediction_trial","0","","true","","1","false","false","false","false","false","false","[1,0]","110","110","1","","","","","","",""
"","","","","","image-keyboard-response","71","210934","0.0-46.0","632beb3e071d0d5eec133b60","665500ab8938657b03fbdba8","6657937227f74ca16eb424da","498","stimuli/11101100.jpg"," ","","feedback_trial","1","","","","","","","","","","","","","","","","","","","","",""
"","","","","","image-keyboard-response","72","211628","0.0-47.0","632beb3e071d0d5eec133b60","665500ab8938657b03fbdba8","6657937227f74ca16eb424da","692","stimuli/0110111.jpg","1","","prediction_trial","0","","false","","0","false","false","false","false","false","false","[1,0]","110","111","0","","","","","","",""
"","","","","","image-keyboard-response","73","212304","0.0-48.0","632beb3e071d0d5eec133b60","665500ab8938657b03fbdba8","6657937227f74ca16eb424da","675","stimuli/01101110.jpg"," ","","feedback_trial","1","","","","","","","","","","","","","","","","","","","","",""
"","","","","","image-keyboard-response","74","212773","0.0-49.0","632beb3e071d0d5eec133b60","665500ab8938657b03fbdba8","6657937227f74ca16eb424da","467","stimuli/2111100.jpg","2","","prediction_trial","2","","true","","2","true","true","false","false","false","false","[2,0,1]","111","100","1","","","","","","",""
"","","","","","image-keyboard-response","75","213322","0.0-50.0","632beb3e071d0d5eec133b60","665500ab8938657b03fbdba8","6657937227f74ca16eb424da","548","stimuli/21111002.jpg"," ","","feedback_trial","2","","","","","","","","","","","","","","","","","","","","",""
"","","","","","image-keyboard-response","76","214382","0.0-51.0","632beb3e071d0d5eec133b60","665500ab8938657b03fbdba8","6657937227f74ca16eb424da","1058","stimuli/2011101.jpg","2","","prediction_trial","1","","false","","2","false","false","false","false","false","false","[1,2]","011","101","0","","","","","","",""
"","","","","","image-keyboard-response","77","214887","0.0-52.0","632beb3e071d0d5eec133b60","665500ab8938657b03fbdba8","6657937227f74ca16eb424da","503","stimuli/20111011.jpg"," ","","feedback_trial","1","","","","","","","","","","","","","","","","","","","","",""
"","","","","","image-keyboard-response","78","215630","0.0-53.0","632beb3e071d0d5eec133b60","665500ab8938657b03fbdba8","6657937227f74ca16eb424da","742","stimuli/1100001.jpg","1","","prediction_trial","1","","true","","1","true","true","true","true","true","true","[1]","100","001","1","","","","","","",""
"","","","","","image-keyboard-response","79","215951","0.0-54.0","632beb3e071d0d5eec133b60","665500ab8938657b03fbdba8","6657937227f74ca16eb424da","319","stimuli/11000011.jpg"," ","","feedback_trial","1","","","","","","","","","","","","","","","","","","","","",""
"","","","","","image-keyboard-response","80","216459","0.0-55.0","632beb3e071d0d5eec133b60","665500ab8938657b03fbdba8","6657937227f74ca16eb424da","507","stimuli/2100000.jpg","2","","prediction_trial","2","","true","","2","true","true","true","true","true","true","[2]","100","000","1","","","","","","",""
"","","","","","image-keyboard-response","81","216735","0.0-56.0","632beb3e071d0d5eec133b60","665500ab8938657b03fbdba8","6657937227f74ca16eb424da","274","stimuli/21000002.jpg"," ","","feedback_trial","2","","","","","","","","","","","","","","","","","","","","",""
"","","","","","image-keyboard-response","82","217448","0.0-57.0","632beb3e071d0d5eec133b60","665500ab8938657b03fbdba8","6657937227f74ca16eb424da","712","stimuli/0001100.jpg","0","","prediction_trial","0","","true","","0","false","true","true","true","false","true","[0]","001","100","1","","","","","","",""
"","","","","","image-keyboard-response","83","217769","0.0-58.0","632beb3e071d0d5eec133b60","665500ab8938657b03fbdba8","6657937227f74ca16eb424da","319","stimuli/00011000.jpg"," ","","feedback_trial","0","","","","","","","","","","","","","","","","","","","","",""
"","","","","","image-keyboard-response","84","218538","0.0-59.0","632beb3e071d0d5eec133b60","665500ab8938657b03fbdba8","6657937227f74ca16eb424da","768","stimuli/2000100.jpg","2","","prediction_trial","2","","true","","2","true","true","true","true","true","true","[2]","000","100","1","","","","","","",""
"","","","","","image-keyboard-response","85","218814","0.0-60.0","632beb3e071d0d5eec133b60","665500ab8938657b03fbdba8","6657937227f74ca16eb424da","274","stimuli/20001002.jpg"," ","","feedback_trial","2","","","","","","","","","","","","","","","","","","","","",""
"","","","","","image-keyboard-response","86","219373","0.0-61.0","632beb3e071d0d5eec133b60","665500ab8938657b03fbdba8","6657937227f74ca16eb424da","557","stimuli/0111100.jpg","0","","prediction_trial","1","","false","","0","false","true","false","false","false","false","[2,1,0]","111","100","0","","","","","","",""
"","","","","","image-keyboard-response","87","219521","0.0-62.0","632beb3e071d0d5eec133b60","665500ab8938657b03fbdba8","6657937227f74ca16eb424da","147","stimuli/01111001.jpg"," ","","feedback_trial","2","","","","","","","","","","","","","","","","","","","","",""
"","","","","","image-keyboard-response","88","220376","0.0-63.0","632beb3e071d0d5eec133b60","665500ab8938657b03fbdba8","6657937227f74ca16eb424da","853","stimuli/2111011.jpg","1","","prediction_trial","1","","true","","2","false","false","false","false","false","false","[1,0,2]","111","011","1","","","","","","",""
"","","","","","image-keyboard-response","89","220627","0.0-64.0","632beb3e071d0d5eec133b60","665500ab8938657b03fbdba8","6657937227f74ca16eb424da","249","stimuli/21110111.jpg"," ","","feedback_trial","1","","","","","","","","","","","","","","","","","","","","",""
"","","","","","image-keyboard-response","90","221285","0.0-65.0","632beb3e071d0d5eec133b60","665500ab8938657b03fbdba8","6657937227f74ca16eb424da","657","stimuli/0000110.jpg","2","","prediction_trial","0","","false","","0","false","false","true","true","false","false","[0]","000","110","0","","","","","","",""
"","","","","","image-keyboard-response","91","221561","0.0-66.0","632beb3e071d0d5eec133b60","665500ab8938657b03fbdba8","6657937227f74ca16eb424da","275","stimuli/00001100.jpg"," ","","feedback_trial","0","","","","","","","","","","","","","","","","","","","","",""
"","","","","","image-keyboard-response","92","222528","0.0-67.0","632beb3e071d0d5eec133b60","665500ab8938657b03fbdba8","6657937227f74ca16eb424da","953","stimuli/1110101.jpg","1","","prediction_trial","1","","true","","1","true","true","false","false","false","false","[1,0]","110","101","1","","","","","","",""
"","","","","","image-keyboard-response","93","222779","0.0-68.0","632beb3e071d0d5eec133b60","665500ab8938657b03fbdba8","6657937227f74ca16eb424da","250","stimuli/11101011.jpg"," ","","feedback_trial","1","","","","","","","","","","","","","","","","","","","","",""
"","","","","","image-keyboard-response","94","223404","0.0-69.0","632beb3e071d0d5eec133b60","665500ab8938657b03fbdba8","6657937227f74ca16eb424da","623","stimuli/0010010.jpg","0","","prediction_trial","0","","true","","0","true","true","true","true","true","true","[0]","010","010","1","","","","","","",""
"","","","","","image-keyboard-response","95","223538","0.0-70.0","632beb3e071d0d5eec133b60","665500ab8938657b03fbdba8","6657937227f74ca16eb424da","133","stimuli/00100100.jpg"," ","","feedback_trial","0","","","","","","","","","","","","","","","","","","","","",""
"","","","","","image-keyboard-response","96","224233","0.0-71.0","632beb3e071d0d5eec133b60","665500ab8938657b03fbdba8","6657937227f74ca16eb424da","694","stimuli/0101100.jpg","0","","prediction_trial","0","","true","","0","false","true","false","false","false","false","[2,0]","101","100","1","","","","","","",""
"","","","","","image-keyboard-response","97","224343","0.0-72.0","632beb3e071d0d5eec133b60","665500ab8938657b03fbdba8","6657937227f74ca16eb424da","109","stimuli/01011000.jpg"," ","","feedback_trial","2","","","","","","","","","","","","","","","","","","","","",""
"","","","","","image-keyboard-response","98","225452","0.0-73.0","632beb3e071d0d5eec133b60","665500ab8938657b03fbdba8","6657937227f74ca16eb424da","1108","stimuli/0101010.jpg","0","","prediction_trial","0","","true","","0","true","true","false","false","false","false","[0,2]","101","010","1","","","","","","",""
"","","","","","image-keyboard-response","99","225777","0.0-74.0","632beb3e071d0d5eec133b60","665500ab8938657b03fbdba8","6657937227f74ca16eb424da","324","stimuli/01010100.jpg"," ","","feedback_trial","0","","","","","","","","","","","","","","","","","","","","",""
"","","","","","image-keyboard-response","100","226645","0.0-75.0","632beb3e071d0d5eec133b60","665500ab8938657b03fbdba8","6657937227f74ca16eb424da","866","stimuli/0100100.jpg","0","","prediction_trial","0","","true","","0","false","true","false","true","false","true","[0]","100","100","1","","","","","","",""
"","","","","","image-keyboard-response","101","226785","0.0-76.0","632beb3e071d0d5eec133b60","665500ab8938657b03fbdba8","6657937227f74ca16eb424da","138","stimuli/01001000.jpg"," ","","feedback_trial","0","","","","","","","","","","","","","","","","","","","","",""
"","","","","","image-keyboard-response","102","227920","0.0-77.0","632beb3e071d0d5eec133b60","665500ab8938657b03fbdba8","6657937227f74ca16eb424da","1134","stimuli/0010111.jpg","1","","prediction_trial","0","","false","","0","false","false","true","true","false","false","[0]","010","111","0","","","","","","",""
"","","","","","image-keyboard-response","103","228394","0.0-78.0","632beb3e071d0d5eec133b60","665500ab8938657b03fbdba8","6657937227f74ca16eb424da","466","stimuli/00101110.jpg"," ","","feedback_trial","0","","","","","","","","","","","","","","","","","","","","",""
"","","","","","image-keyboard-response","104","229163","0.0-79.0","632beb3e071d0d5eec133b60","665500ab8938657b03fbdba8","6657937227f74ca16eb424da","767","stimuli/2000101.jpg","2","","prediction_trial","2","","true","","2","false","false","true","true","false","false","[2]","000","101","1","","","","","","",""
"","","","","","image-keyboard-response","105","229358","0.0-80.0","632beb3e071d0d5eec133b60","665500ab8938657b03fbdba8","6657937227f74ca16eb424da","193","stimuli/20001012.jpg"," ","","feedback_trial","2","","","","","","","","","","","","","","","","","","","","",""
"","","","","","image-keyboard-response","106","229967","0.0-81.0","632beb3e071d0d5eec133b60","665500ab8938657b03fbdba8","6657937227f74ca16eb424da","608","stimuli/1011111.jpg","0","","prediction_trial","1","","false","","1","false","false","false","false","false","false","[2,1]","011","111","0","","","","","","",""
"","","","","","image-keyboard-response","107","230198","0.0-82.0","632beb3e071d0d5eec133b60","665500ab8938657b03fbdba8","6657937227f74ca16eb424da","229","stimuli/10111111.jpg"," ","","feedback_trial","2","","","","","","","","","","","","","","","","","","","","",""
"","","","","","image-keyboard-response","108","231010","0.0-83.0","632beb3e071d0d5eec133b60","665500ab8938657b03fbdba8","6657937227f74ca16eb424da","811","stimuli/1101100.jpg","1","","prediction_trial","1","","true","","1","true","true","true","true","true","true","[1]","101","100","1","","","","","","",""
"","","","","","image-keyboard-response","109","231156","0.0-84.0","632beb3e071d0d5eec133b60","665500ab8938657b03fbdba8","6657937227f74ca16eb424da","145","stimuli/11011001.jpg"," ","","feedback_trial","1","","","","","","","","","","","","","","","","","","","","",""
"","","","","","image-keyboard-response","110","232080","0.0-85.0","632beb3e071d0d5eec133b60","665500ab8938657b03fbdba8","6657937227f74ca16eb424da","923","stimuli/1101111.jpg","1","","prediction_trial","1","","true","","1","false","false","true","true","false","false","[1]","101","111","1","","","","","","",""
"","","","","","image-keyboard-response","111","232245","0.0-86.0","632beb3e071d0d5eec133b60","665500ab8938657b03fbdba8","6657937227f74ca16eb424da","164","stimuli/11011111.jpg"," ","","feedback_trial","1","","","","","","","","","","","","","","","","","","","","",""
"","","","","","image-keyboard-response","112","233204","0.0-87.0","632beb3e071d0d5eec133b60","665500ab8938657b03fbdba8","6657937227f74ca16eb424da","956","stimuli/2001001.jpg","2","","prediction_trial","2","","true","","2","false","true","false","true","false","true","[2]","001","001","1","","","","","","",""
"","","","","","image-keyboard-response","113","233328","0.0-88.0","632beb3e071d0d5eec133b60","665500ab8938657b03fbdba8","6657937227f74ca16eb424da","124","stimuli/20010012.jpg"," ","","feedback_trial","2","","","","","","","","","","","","","","","","","","","","",""
"","","","","","image-keyboard-response","114","234188","0.0-89.0","632beb3e071d0d5eec133b60","665500ab8938657b03fbdba8","6657937227f74ca16eb424da","852","stimuli/0100010.jpg","0","","prediction_trial","0","","true","","0","true","true","false","true","false","true","[0]","100","010","1","","","","","","",""
"","","","","","image-keyboard-response","115","234292","0.0-90.0","632beb3e071d0d5eec133b60","665500ab8938657b03fbdba8","6657937227f74ca16eb424da","102","stimuli/01000100.jpg"," ","","feedback_trial","0","","","","","","","","","","","","","","","","","","","","",""
"","","","","","image-keyboard-response","116","234939","0.0-91.0","632beb3e071d0d5eec133b60","665500ab8938657b03fbdba8","6657937227f74ca16eb424da","645","stimuli/0110110.jpg","1","","prediction_trial","1","","true","","0","false","false","false","false","false","false","[1,0]","110","110","1","","","","","","",""
"","","","","","image-keyboard-response","117","235468","0.0-92.0","632beb3e071d0d5eec133b60","665500ab8938657b03fbdba8","6657937227f74ca16eb424da","527","stimuli/01101101.jpg"," ","","feedback_trial","1","","","","","","","","","","","","","","","","","","","","",""
"","","","","","image-keyboard-response","118","236586","0.0-93.0","632beb3e071d0d5eec133b60","665500ab8938657b03fbdba8","6657937227f74ca16eb424da","1116","stimuli/1011010.jpg","1","","prediction_trial","1","","true","","1","false","true","false","false","false","false","[1,2]","011","010","1","","","","","","",""
"","","","","","image-keyboard-response","119","236655","0.0-94.0","632beb3e071d0d5eec133b60","665500ab8938657b03fbdba8","6657937227f74ca16eb424da","69","stimuli/10110101.jpg"," ","","feedback_trial","1","","","","","","","","","","","","","","","","","","","","",""
"","","","","","image-keyboard-response","120","237576","0.0-95.0","632beb3e071d0d5eec133b60","665500ab8938657b03fbdba8","6657937227f74ca16eb424da","919","stimuli/2011100.jpg","2","","prediction_trial","1","","false","","2","true","true","false","false","false","false","[2,1]","011","100","0","","","","","","",""
"","","","","","image-keyboard-response","121","237685","0.0-96.0","632beb3e071d0d5eec133b60","665500ab8938657b03fbdba8","6657937227f74ca16eb424da","107","stimuli/20111001.jpg"," ","","feedback_trial","2","","","","","","","","","","","","","","","","","","","","",""
"","","","","","image-keyboard-response","122","239219","0.0-97.0","632beb3e071d0d5eec133b60","665500ab8938657b03fbdba8","6657937227f74ca16eb424da","1534","stimuli/2001100.jpg","2","","prediction_trial","2","","true","","2","true","true","false","true","false","true","[2]","001","100","1","","","","","","",""
"","","","","","image-keyboard-response","123","239333","0.0-98.0","632beb3e071d0d5eec133b60","665500ab8938657b03fbdba8","6657937227f74ca16eb424da","112","stimuli/20011002.jpg"," ","","feedback_trial","2","","","","","","","","","","","","","","","","","","","","",""
"","","","","","image-keyboard-response","124","240237","0.0-99.0","632beb3e071d0d5eec133b60","665500ab8938657b03fbdba8","6657937227f74ca16eb424da","903","stimuli/0010110.jpg","1","","prediction_trial","0","","false","","0","false","false","true","true","false","false","[0]","010","110","0","","","","","","",""
"","","","","","image-keyboard-response","125","240467","0.0-100.0","632beb3e071d0d5eec133b60","665500ab8938657b03fbdba8","6657937227f74ca16eb424da","221","stimuli/00101100.jpg"," ","","feedback_trial","0","","","","","","","","","","","","","","","","","","","","",""
"","","","","","image-keyboard-response","126","241968","0.0-101.0","632beb3e071d0d5eec133b60","665500ab8938657b03fbdba8","6657937227f74ca16eb424da","1499","stimuli/1000010.jpg","1","","prediction_trial","1","","true","","1","false","true","true","true","false","true","[1]","000","010","1","","","","","","",""
"","","","","","image-keyboard-response","127","242122","0.0-102.0","632beb3e071d0d5eec133b60","665500ab8938657b03fbdba8","6657937227f74ca16eb424da","153","stimuli/10000101.jpg"," ","","feedback_trial","1","","","","","","","","","","","","","","","","","","","","",""
"","","","","","image-keyboard-response","128","242900","0.0-103.0","632beb3e071d0d5eec133b60","665500ab8938657b03fbdba8","6657937227f74ca16eb424da","779","stimuli/0110100.jpg","0","","prediction_trial","1","","false","","0","false","true","false","false","false","false","[0,1]","110","100","0","","","","","","",""
"","","","","","image-keyboard-response","129","243043","0.0-104.0","632beb3e071d0d5eec133b60","665500ab8938657b03fbdba8","6657937227f74ca16eb424da","141","stimuli/01101001.jpg"," ","","feedback_trial","0","","","","","","","","","","","","","","","","","","","","",""
"","","","","","image-keyboard-response","130","243968","0.0-105.0","632beb3e071d0d5eec133b60","665500ab8938657b03fbdba8","6657937227f74ca16eb424da","924","stimuli/2000001.jpg","2","","prediction_trial","2","","true","","2","false","true","true","true","false","true","[2]","000","001","1","","","","","","",""
"","","","","","image-keyboard-response","131","244078","0.0-106.0","632beb3e071d0d5eec133b60","665500ab8938657b03fbdba8","6657937227f74ca16eb424da","108","stimuli/20000012.jpg"," ","","feedback_trial","2","","","","","","","","","","","","","","","","","","","","",""
"","","","","","image-keyboard-response","132","244932","0.0-107.0","632beb3e071d0d5eec133b60","665500ab8938657b03fbdba8","6657937227f74ca16eb424da","853","stimuli/1000100.jpg","1","","prediction_trial","1","","true","","1","true","true","true","true","true","true","[1]","000","100","1","","","","","","",""
"","","","","","image-keyboard-response","133","245076","0.0-108.0","632beb3e071d0d5eec133b60","665500ab8938657b03fbdba8","6657937227f74ca16eb424da","142","stimuli/10001001.jpg"," ","","feedback_trial","1","","","","","","","","","","","","","","","","","","","","",""
"","","","","","image-keyboard-response","134","245707","0.0-109.0","632beb3e071d0d5eec133b60","665500ab8938657b03fbdba8","6657937227f74ca16eb424da","630","stimuli/2011000.jpg","2","","prediction_trial","2","","true","","2","true","true","false","false","false","false","[2,1]","011","000","1","","","","","","",""
"","","","","","image-keyboard-response","135","245822","0.0-110.0","632beb3e071d0d5eec133b60","665500ab8938657b03fbdba8","6657937227f74ca16eb424da","114","stimuli/20110002.jpg"," ","","feedback_trial","2","","","","","","","","","","","","","","","","","","","","",""
"","","","","","image-keyboard-response","136","246526","0.0-111.0","632beb3e071d0d5eec133b60","665500ab8938657b03fbdba8","6657937227f74ca16eb424da","696","stimuli/2110110.jpg","2","","prediction_trial","2","","true","","2","true","true","true","true","true","true","[2]","110","110","1","","","","","","",""
"","","","","","image-keyboard-response","137","246640","0.0-112.0","632beb3e071d0d5eec133b60","665500ab8938657b03fbdba8","6657937227f74ca16eb424da","112","stimuli/21101102.jpg"," ","","feedback_trial","2","","","","","","","","","","","","","","","","","","","","",""
"","","","","","image-keyboard-response","138","247571","0.0-113.0","632beb3e071d0d5eec133b60","665500ab8938657b03fbdba8","6657937227f74ca16eb424da","930","stimuli/1111111.jpg","0","","prediction_trial","1","","false","","1","false","false","false","false","false","false","[0,1,2]","111","111","0","","","","","","",""
"","","","","","image-keyboard-response","139","247714","0.0-114.0","632beb3e071d0d5eec133b60","665500ab8938657b03fbdba8","6657937227f74ca16eb424da","142","stimuli/11111111.jpg"," ","","feedback_trial","0","","","","","","","","","","","","","","","","","","","","",""
"","","","","","image-keyboard-response","140","249004","0.0-115.0","632beb3e071d0d5eec133b60","665500ab8938657b03fbdba8","6657937227f74ca16eb424da","1288","stimuli/0010100.jpg","0","","prediction_trial","0","","true","","0","false","true","true","true","false","true","[0]","010","100","1","","","","","","",""
"","","","","","image-keyboard-response","141","249053","0.0-116.0","632beb3e071d0d5eec133b60","665500ab8938657b03fbdba8","6657937227f74ca16eb424da","48","stimuli/00101000.jpg"," ","","feedback_trial","0","","","","","","","","","","","","","","","","","","","","",""
"","","","","","image-keyboard-response","142","249845","0.0-117.0","632beb3e071d0d5eec133b60","665500ab8938657b03fbdba8","6657937227f74ca16eb424da","790","stimuli/0001011.jpg","0","","prediction_trial","0","","true","","0","true","true","true","true","true","true","[0]","001","011","1","","","","","","",""
"","","","","","image-keyboard-response","143","249863","0.0-118.0","632beb3e071d0d5eec133b60","665500ab8938657b03fbdba8","6657937227f74ca16eb424da","17","stimuli/00010110.jpg"," ","","feedback_trial","0","","","","","","","","","","","","","","","","","","","","",""
"","","","","","image-keyboard-response","144","250613","0.0-119.0","632beb3e071d0d5eec133b60","665500ab8938657b03fbdba8","6657937227f74ca16eb424da","749","stimuli/2101011.jpg","1","","prediction_trial","0","","false","","2","false","false","false","false","false","false","[0,2]","101","011","0","","","","","","",""
"","","","","","image-keyboard-response","145","251247","0.0-120.0","632beb3e071d0d5eec133b60","665500ab8938657b03fbdba8","6657937227f74ca16eb424da","633","stimuli/21010110.jpg"," ","","feedback_trial","0","","","","","","","","","","","","","","","","","","","","",""
"","","","","","image-keyboard-response","146","252221","0.0-121.0","632beb3e071d0d5eec133b60","665500ab8938657b03fbdba8","6657937227f74ca16eb424da","972","stimuli/1100110.jpg","1","","prediction_trial","1","","true","","1","false","false","true","true","false","false","[1]","100","110","1","","","","","","",""
"","","","","","image-keyboard-response","147","252561","0.0-122.0","632beb3e071d0d5eec133b60","665500ab8938657b03fbdba8","6657937227f74ca16eb424da","337","stimuli/11001101.jpg"," ","","feedback_trial","1","","","","","","","","","","","","","","","","","","","","",""
"","","","","","image-keyboard-response","148","253759","0.0-123.0","632beb3e071d0d5eec133b60","665500ab8938657b03fbdba8","6657937227f74ca16eb424da","1197","stimuli/0000010.jpg","1","","prediction_trial","0","","false","","0","true","true","true","true","true","true","[0]","000","010","0","","","","","","",""
"","","","","","image-keyboard-response","149","253894","0.0-124.0","632beb3e071d0d5eec133b60","665500ab8938657b03fbdba8","6657937227f74ca16eb424da","133","stimuli/00000100.jpg"," ","","feedback_trial","0","","","","","","","","","","","","","","","","","","","","",""
"","","","","","image-keyboard-response","150","255083","0.0-125.0","632beb3e071d0d5eec133b60","665500ab8938657b03fbdba8","6657937227f74ca16eb424da","1188","stimuli/0011101.jpg","0","","prediction_trial","0","","true","","0","false","false","true","true","false","false","[0]","011","101","1","","","","","","",""
"","","","","","image-keyboard-response","151","255232","0.0-126.0","632beb3e071d0d5eec133b60","665500ab8938657b03fbdba8","6657937227f74ca16eb424da","148","stimuli/00111010.jpg"," ","","feedback_trial","0","","","","","","","","","","","","","","","","","","","","",""
"","","","","","image-keyboard-response","152","256008","0.0-127.0","632beb3e071d0d5eec133b60","665500ab8938657b03fbdba8","6657937227f74ca16eb424da","775","stimuli/1001011.jpg","2","","prediction_trial","1","","false","","1","false","false","true","true","false","false","[1]","001","011","0","","","","","","",""
"","","","","","image-keyboard-response","153","256157","0.0-128.0","632beb3e071d0d5eec133b60","665500ab8938657b03fbdba8","6657937227f74ca16eb424da","147","stimuli/10010111.jpg"," ","","feedback_trial","1","","","","","","","","","","","","","","","","","","","","",""
"","","","","","image-keyboard-response","154","256787","0.0-129.0","632beb3e071d0d5eec133b60","665500ab8938657b03fbdba8","6657937227f74ca16eb424da","629","stimuli/2101110.jpg","2","","prediction_trial","0","","false","","2","true","true","false","false","false","false","[2,0]","101","110","0","","","","","","",""
"","","","","","image-keyboard-response","155","256907","0.0-130.0","632beb3e071d0d5eec133b60","665500ab8938657b03fbdba8","6657937227f74ca16eb424da","119","stimuli/21011100.jpg"," ","","feedback_trial","2","","","","","","","","","","","","","","","","","","","","",""
"","","","","","image-keyboard-response","156","257676","0.0-131.0","632beb3e071d0d5eec133b60","665500ab8938657b03fbdba8","6657937227f74ca16eb424da","767","stimuli/1011001.jpg","1","","prediction_trial","2","","false","","1","true","true","false","false","false","false","[2,1]","011","001","0","","","","","","",""
"","","","","","image-keyboard-response","157","257816","0.0-132.0","632beb3e071d0d5eec133b60","665500ab8938657b03fbdba8","6657937227f74ca16eb424da","139","stimuli/10110012.jpg"," ","","feedback_trial","2","","","","","","","","","","","","","","","","","","","","",""
"","","","","","image-keyboard-response","158","258735","0.0-133.0","632beb3e071d0d5eec133b60","665500ab8938657b03fbdba8","6657937227f74ca16eb424da","910","stimuli/0001110.jpg","1","","prediction_trial","0","","false","","0","false","false","true","true","false","false","[0]","001","110","0","","","","","","",""
"","","","","","image-keyboard-response","159","259320","0.0-134.0","632beb3e071d0d5eec133b60","665500ab8938657b03fbdba8","6657937227f74ca16eb424da","584","stimuli/00011100.jpg"," ","","feedback_trial","0","","","","","","","","","","","","","","","","","","","","",""
"","","","","","image-keyboard-response","160","260118","0.0-135.0","632beb3e071d0d5eec133b60","665500ab8938657b03fbdba8","6657937227f74ca16eb424da","796","stimuli/2001000.jpg","2","","prediction_trial","2","","true","","2","true","true","false","true","false","true","[2]","001","000","1","","","","","","",""
"","","","","","image-keyboard-response","161","260209","0.0-136.0","632beb3e071d0d5eec133b60","665500ab8938657b03fbdba8","6657937227f74ca16eb424da","89","stimuli/20010002.jpg"," ","","feedback_trial","2","","","","","","","","","","","","","","","","","","","","",""
"","","","","","image-keyboard-response","162","261153","0.0-137.0","632beb3e071d0d5eec133b60","665500ab8938657b03fbdba8","6657937227f74ca16eb424da","943","stimuli/1010110.jpg","0","","prediction_trial","1","","false","","1","false","false","false","true","false","false","[1]","010","110","0","","","","","","",""
"","","","","","image-keyboard-response","163","261282","0.0-138.0","632beb3e071d0d5eec133b60","665500ab8938657b03fbdba8","6657937227f74ca16eb424da","128","stimuli/10101101.jpg"," ","","feedback_trial","1","","","","","","","","","","","","","","","","","","","","",""
"","","","","","image-keyboard-response","164","262132","0.0-139.0","632beb3e071d0d5eec133b60","665500ab8938657b03fbdba8","6657937227f74ca16eb424da","849","stimuli/2101010.jpg","2","","prediction_trial","0","","false","","2","true","true","false","false","false","false","[2,0]","101","010","0","","","","","","",""
"","","","","","image-keyboard-response","165","262161","0.0-140.0","632beb3e071d0d5eec133b60","665500ab8938657b03fbdba8","6657937227f74ca16eb424da","27","stimuli/21010100.jpg"," ","","feedback_trial","2","","","","","","","","","","","","","","","","","","","","",""
"","","","","","image-keyboard-response","166","263096","0.0-141.0","632beb3e071d0d5eec133b60","665500ab8938657b03fbdba8","6657937227f74ca16eb424da","935","stimuli/2001101.jpg","0","","prediction_trial","2","","false","","2","false","false","false","true","false","false","[2]","001","101","0","","","","","","",""
"","","","","","image-keyboard-response","167","263226","0.0-142.0","632beb3e071d0d5eec133b60","665500ab8938657b03fbdba8","6657937227f74ca16eb424da","128","stimuli/20011012.jpg"," ","","feedback_trial","2","","","","","","","","","","","","","","","","","","","","",""
"","","","","","image-keyboard-response","168","264165","0.0-143.0","632beb3e071d0d5eec133b60","665500ab8938657b03fbdba8","6657937227f74ca16eb424da","937","stimuli/1010001.jpg","1","","prediction_trial","1","","true","","1","true","true","false","true","false","true","[1]","010","001","1","","","","","","",""
"","","","","","image-keyboard-response","169","264295","0.0-144.0","632beb3e071d0d5eec133b60","665500ab8938657b03fbdba8","6657937227f74ca16eb424da","122","stimuli/10100011.jpg"," ","","feedback_trial","1","","","","","","","","","","","","","","","","","","","","",""
"","","","","","image-keyboard-response","170","264955","0.0-145.0","632beb3e071d0d5eec133b60","665500ab8938657b03fbdba8","6657937227f74ca16eb424da","659","stimuli/2010110.jpg","2","","prediction_trial","2","","true","","2","true","true","true","true","true","true","[2]","010","110","1","","","","","","",""
"","","","","","image-keyboard-response","171","265084","0.0-146.0","632beb3e071d0d5eec133b60","665500ab8938657b03fbdba8","6657937227f74ca16eb424da","127","stimuli/20101102.jpg"," ","","feedback_trial","2","","","","","","","","","","","","","","","","","","","","",""
"","","","","","image-keyboard-response","172","265923","0.0-147.0","632beb3e071d0d5eec133b60","665500ab8938657b03fbdba8","6657937227f74ca16eb424da","839","stimuli/1010011.jpg","1","","prediction_trial","1","","true","","1","false","false","false","true","false","false","[1]","010","011","1","","","","","","",""
"","","","","","image-keyboard-response","173","266179","0.0-148.0","632beb3e071d0d5eec133b60","665500ab8938657b03fbdba8","6657937227f74ca16eb424da","254","stimuli/10100111.jpg"," ","","feedback_trial","1","","","","","","","","","","","","","","","","","","","","",""
"","","","","","image-keyboard-response","174","266987","0.0-149.0","632beb3e071d0d5eec133b60","665500ab8938657b03fbdba8","6657937227f74ca16eb424da","807","stimuli/2111001.jpg","2","","prediction_trial","0","","false","","2","false","true","false","false","false","false","[0,1,2]","111","001","0","","","","","","",""
"","","","","","image-keyboard-response","175","267116","0.0-150.0","632beb3e071d0d5eec133b60","665500ab8938657b03fbdba8","6657937227f74ca16eb424da","127","stimuli/21110010.jpg"," ","","feedback_trial","0","","","","","","","","","","","","","","","","","","","","",""
"","","","","","image-keyboard-response","176","268042","0.0-151.0","632beb3e071d0d5eec133b60","665500ab8938657b03fbdba8","6657937227f74ca16eb424da","924","stimuli/2011010.jpg","2","","prediction_trial","1","","false","","2","true","true","false","false","false","false","[1,2]","011","010","0","","","","","","",""
"","","","","","image-keyboard-response","177","268171","0.0-152.0","632beb3e071d0d5eec133b60","665500ab8938657b03fbdba8","6657937227f74ca16eb424da","128","stimuli/20110101.jpg"," ","","feedback_trial","1","","","","","","","","","","","","","","","","","","","","",""
"","","","","","image-keyboard-response","178","269265","0.0-153.0","632beb3e071d0d5eec133b60","665500ab8938657b03fbdba8","6657937227f74ca16eb424da","1093","stimuli/2001010.jpg","1","","prediction_trial","2","","false","","2","true","true","false","true","false","true","[2]","001","010","0","","","","","","",""
"","","","","","image-keyboard-response","179","269400","0.0-154.0","632beb3e071d0d5eec133b60","665500ab8938657b03fbdba8","6657937227f74ca16eb424da","133","stimuli/20010102.jpg"," ","","feedback_trial","2","","","","","","","","","","","","","","","","","","","","",""
"","","","","","image-keyboard-response","180","270295","0.0-155.0","632beb3e071d0d5eec133b60","665500ab8938657b03fbdba8","6657937227f74ca16eb424da","886","stimuli/1101101.jpg","1","","prediction_trial","1","","true","","1","true","true","true","true","true","true","[1]","101","101","1","","","","","","",""
"","","","","","image-keyboard-response","181","270424","0.0-156.0","632beb3e071d0d5eec133b60","665500ab8938657b03fbdba8","6657937227f74ca16eb424da","129","stimuli/11011011.jpg"," ","","feedback_trial","1","","","","","","","","","","","","","","","","","","","","",""
"","","","","","image-keyboard-response","182","271214","0.0-157.0","632beb3e071d0d5eec133b60","665500ab8938657b03fbdba8","6657937227f74ca16eb424da","787","stimuli/1111001.jpg","1","","prediction_trial","1","","true","","1","true","true","false","false","false","false","[1,2,0]","111","001","1","","","","","","",""
"","","","","","image-keyboard-response","183","271339","0.0-158.0","632beb3e071d0d5eec133b60","665500ab8938657b03fbdba8","6657937227f74ca16eb424da","123","stimuli/11110011.jpg"," ","","feedback_trial","1","","","","","","","","","","","","","","","","","","","","",""
"","","","","","image-keyboard-response","184","272117","0.0-159.0","632beb3e071d0d5eec133b60","665500ab8938657b03fbdba8","6657937227f74ca16eb424da","777","stimuli/1101110.jpg","1","","prediction_trial","1","","true","","1","false","false","true","true","false","false","[1]","101","110","1","","","","","","",""
"","","","","","image-keyboard-response","185","272227","0.0-160.0","632beb3e071d0d5eec133b60","665500ab8938657b03fbdba8","6657937227f74ca16eb424da","109","stimuli/11011101.jpg"," ","","feedback_trial","1","","","","","","","","","","","","","","","","","","","","",""
"","","","","","image-keyboard-response","186","272874","0.0-161.0","632beb3e071d0d5eec133b60","665500ab8938657b03fbdba8","6657937227f74ca16eb424da","645","stimuli/0110010.jpg","0","","prediction_trial","1","","false","","0","true","true","false","false","false","false","[0,1]","110","010","0","","","","","","",""
"","","","","","image-keyboard-response","187","272987","0.0-162.0","632beb3e071d0d5eec133b60","665500ab8938657b03fbdba8","6657937227f74ca16eb424da","112","stimuli/01100101.jpg"," ","","feedback_trial","0","","","","","","","","","","","","","","","","","","","","",""
"","","","","","image-keyboard-response","188","274201","0.0-163.0","632beb3e071d0d5eec133b60","665500ab8938657b03fbdba8","6657937227f74ca16eb424da","1213","stimuli/0101011.jpg","0","","prediction_trial","2","","false","","0","true","true","false","false","false","false","[0,2]","101","011","0","","","","","","",""
"","","","","","image-keyboard-response","189","274266","0.0-164.0","632beb3e071d0d5eec133b60","665500ab8938657b03fbdba8","6657937227f74ca16eb424da","63","stimuli/01010112.jpg"," ","","feedback_trial","0","","","","","","","","","","","","","","","","","","","","",""
"","","","","","image-keyboard-response","190","275539","0.0-165.0","632beb3e071d0d5eec133b60","665500ab8938657b03fbdba8","6657937227f74ca16eb424da","1273","stimuli/0101110.jpg","1","","prediction_trial","2","","false","","0","false","false","false","false","false","false","[0,2]","101","110","0","","","","","","",""
"","","","","","image-keyboard-response","191","276094","0.0-166.0","632beb3e071d0d5eec133b60","665500ab8938657b03fbdba8","6657937227f74ca16eb424da","543","stimuli/01011102.jpg"," ","","feedback_trial","0","","","","","","","","","","","","","","","","","","","","",""
"","","","","","image-keyboard-response","192","276634","0.0-167.0","632beb3e071d0d5eec133b60","665500ab8938657b03fbdba8","6657937227f74ca16eb424da","539","stimuli/1111011.jpg","0","","prediction_trial","0","","true","","1","false","false","false","false","false","false","[2,0,1]","111","011","1","","","","","","",""
"","","","","","image-keyboard-response","193","277528","0.0-168.0","632beb3e071d0d5eec133b60","665500ab8938657b03fbdba8","6657937227f74ca16eb424da","892","stimuli/11110110.jpg"," ","","feedback_trial","2","","","","","","","","","","","","","","","","","","","","",""
"","","","","","image-keyboard-response","194","278362","0.0-169.0","632beb3e071d0d5eec133b60","665500ab8938657b03fbdba8","6657937227f74ca16eb424da","833","stimuli/0011011.jpg","0","","prediction_trial","0","","true","","0","true","true","true","true","true","true","[0]","011","011","1","","","","","","",""
"","","","","","image-keyboard-response","195","278452","0.0-170.0","632beb3e071d0d5eec133b60","665500ab8938657b03fbdba8","6657937227f74ca16eb424da","89","stimuli/00110110.jpg"," ","","feedback_trial","0","","","","","","","","","","","","","","","","","","","","",""
"","","","","","image-keyboard-response","196","279686","0.0-171.0","632beb3e071d0d5eec133b60","665500ab8938657b03fbdba8","6657937227f74ca16eb424da","1232","stimuli/2101111.jpg","2","","prediction_trial","2","","true","","2","false","false","false","false","false","false","[2,0]","101","111","1","","","","","","",""
"","","","","","image-keyboard-response","197","280071","0.0-172.0","632beb3e071d0d5eec133b60","665500ab8938657b03fbdba8","6657937227f74ca16eb424da","384","stimuli/21011112.jpg"," ","","feedback_trial","2","","","","","","","","","","","","","","","","","","","","",""
"","","","","","image-keyboard-response","198","280744","0.0-173.0","632beb3e071d0d5eec133b60","665500ab8938657b03fbdba8","6657937227f74ca16eb424da","672","stimuli/2010010.jpg","2","","prediction_trial","2","","true","","2","true","true","true","true","true","true","[2]","010","010","1","","","","","","",""
"","","","","","image-keyboard-response","199","280851","0.0-174.0","632beb3e071d0d5eec133b60","665500ab8938657b03fbdba8","6657937227f74ca16eb424da","105","stimuli/20100102.jpg"," ","","feedback_trial","2","","","","","","","","","","","","","","","","","","","","",""
"","","","","","image-keyboard-response","200","282142","0.0-175.0","632beb3e071d0d5eec133b60","665500ab8938657b03fbdba8","6657937227f74ca16eb424da","1290","stimuli/0111110.jpg","2","","prediction_trial","2","","true","","0","false","false","false","false","false","false","[2,0,1]","111","110","1","","","","","","",""
"","","","","","image-keyboard-response","201","282267","0.0-176.0","632beb3e071d0d5eec133b60","665500ab8938657b03fbdba8","6657937227f74ca16eb424da","124","stimuli/01111102.jpg"," ","","feedback_trial","2","","","","","","","","","","","","","","","","","","","","",""
"","","","","","image-keyboard-response","202","283453","0.0-177.0","632beb3e071d0d5eec133b60","665500ab8938657b03fbdba8","6657937227f74ca16eb424da","1177","stimuli/1110010.jpg","1","","prediction_trial","1","","true","","1","false","true","false","false","false","false","[1,0]","110","010","1","","","","","","",""
"","","","","","image-keyboard-response","203","283586","0.0-178.0","632beb3e071d0d5eec133b60","665500ab8938657b03fbdba8","6657937227f74ca16eb424da","132","stimuli/11100101.jpg"," ","","feedback_trial","1","","","","","","","","","","","","","","","","","","","","",""
"","","","","","image-keyboard-response","204","284842","0.0-179.0","632beb3e071d0d5eec133b60","665500ab8938657b03fbdba8","6657937227f74ca16eb424da","1254","stimuli/0000100.jpg","0","","prediction_trial","0","","true","","0","false","true","true","true","false","true","[0]","000","100","1","","","","","","",""
"","","","","","image-keyboard-response","205","284980","0.0-180.0","632beb3e071d0d5eec133b60","665500ab8938657b03fbdba8","6657937227f74ca16eb424da","138","stimuli/00001000.jpg"," ","","feedback_trial","0","","","","","","","","","","","","","","","","","","","","",""
"","","","","","image-keyboard-response","206","285716","0.0-181.0","632beb3e071d0d5eec133b60","665500ab8938657b03fbdba8","6657937227f74ca16eb424da","734","stimuli/0100001.jpg","0","","prediction_trial","0","","true","","0","true","true","false","true","false","true","[0]","100","001","1","","","","","","",""
"","","","","","image-keyboard-response","207","285801","0.0-182.0","632beb3e071d0d5eec133b60","665500ab8938657b03fbdba8","6657937227f74ca16eb424da","84","stimuli/01000010.jpg"," ","","feedback_trial","0","","","","","","","","","","","","","","","","","","","","",""
"","","","","","image-keyboard-response","208","286549","0.0-183.0","632beb3e071d0d5eec133b60","665500ab8938657b03fbdba8","6657937227f74ca16eb424da","746","stimuli/1100100.jpg","1","","prediction_trial","1","","true","","1","true","true","true","true","true","true","[1]","100","100","1","","","","","","",""
"","","","","","image-keyboard-response","209","286684","0.0-184.0","632beb3e071d0d5eec133b60","665500ab8938657b03fbdba8","6657937227f74ca16eb424da","134","stimuli/11001001.jpg"," ","","feedback_trial","1","","","","","","","","","","","","","","","","","","","","",""
"","","","","","image-keyboard-response","210","287483","0.0-185.0","632beb3e071d0d5eec133b60","665500ab8938657b03fbdba8","6657937227f74ca16eb424da","798","stimuli/2100111.jpg","1","","prediction_trial","2","","false","","2","false","false","true","true","false","false","[2]","100","111","0","","","","","","",""
"","","","","","image-keyboard-response","211","287659","0.0-186.0","632beb3e071d0d5eec133b60","665500ab8938657b03fbdba8","6657937227f74ca16eb424da","174","stimuli/21001112.jpg"," ","","feedback_trial","2","","","","","","","","","","","","","","","","","","","","",""
"","","","","","image-keyboard-response","212","288443","0.0-187.0","632beb3e071d0d5eec133b60","665500ab8938657b03fbdba8","6657937227f74ca16eb424da","783","stimuli/1101000.jpg","1","","prediction_trial","1","","true","","1","true","true","true","true","true","true","[1]","101","000","1","","","","","","",""
"","","","","","image-keyboard-response","213","288588","0.0-188.0","632beb3e071d0d5eec133b60","665500ab8938657b03fbdba8","6657937227f74ca16eb424da","132","stimuli/11010001.jpg"," ","","feedback_trial","1","","","","","","","","","","","","","","","","","","","","",""
"","","","","","image-keyboard-response","214","289292","0.0-189.0","632beb3e071d0d5eec133b60","665500ab8938657b03fbdba8","6657937227f74ca16eb424da","703","stimuli/0110011.jpg","0","","prediction_trial","1","","false","","0","true","true","false","false","false","false","[1,0]","110","011","0","","","","","","",""
"","","","","","image-keyboard-response","215","289356","0.0-190.0","632beb3e071d0d5eec133b60","665500ab8938657b03fbdba8","6657937227f74ca16eb424da","62","stimuli/01100111.jpg"," ","","feedback_trial","1","","","","","","","","","","","","","","","","","","","","",""
"","","","","","image-keyboard-response","216","291000","0.0-191.0","632beb3e071d0d5eec133b60","665500ab8938657b03fbdba8","6657937227f74ca16eb424da","1643","stimuli/0010001.jpg","2","","prediction_trial","0","","false","","0","true","true","true","true","true","true","[0]","010","001","0","","","","","","",""
"","","","","","image-keyboard-response","217","291135","0.0-192.0","632beb3e071d0d5eec133b60","665500ab8938657b03fbdba8","6657937227f74ca16eb424da","133","stimuli/00100010.jpg"," ","","feedback_trial","0","","","","","","","","","","","","","","","","","","","","",""
"","","","","","image-keyboard-response","218","292628","0.0-193.0","632beb3e071d0d5eec133b60","665500ab8938657b03fbdba8","6657937227f74ca16eb424da","1491","stimuli/1100111.jpg","1","","prediction_trial","1","","true","","1","false","false","true","true","false","false","[1]","100","111","1","","","","","","",""
"","","","","","image-keyboard-response","219","292794","0.0-194.0","632beb3e071d0d5eec133b60","665500ab8938657b03fbdba8","6657937227f74ca16eb424da","165","stimuli/11001111.jpg"," ","","feedback_trial","1","","","","","","","","","","","","","","","","","","","","",""
"","","","","","image-keyboard-response","220","293887","0.0-195.0","632beb3e071d0d5eec133b60","665500ab8938657b03fbdba8","6657937227f74ca16eb424da","1092","stimuli/2100100.jpg","2","","prediction_trial","2","","true","","2","true","true","true","true","true","true","[2]","100","100","1","","","","","","",""
"","","","","","image-keyboard-response","221","293982","0.0-196.0","632beb3e071d0d5eec133b60","665500ab8938657b03fbdba8","6657937227f74ca16eb424da","93","stimuli/21001002.jpg"," ","","feedback_trial","2","","","","","","","","","","","","","","","","","","","","",""
"","","","","","image-keyboard-response","222","294877","0.0-197.0","632beb3e071d0d5eec133b60","665500ab8938657b03fbdba8","6657937227f74ca16eb424da","894","stimuli/2100010.jpg","0","","prediction_trial","2","","false","","2","true","true","true","true","true","true","[2]","100","010","0","","","","","","",""
"","","","","","image-keyboard-response","223","295890","0.0-198.0","632beb3e071d0d5eec133b60","665500ab8938657b03fbdba8","6657937227f74ca16eb424da","1012","stimuli/21000102.jpg"," ","","feedback_trial","2","","","","","","","","","","","","","","","","","","","","",""
"","","","","","image-keyboard-response","224","296870","0.0-199.0","632beb3e071d0d5eec133b60","665500ab8938657b03fbdba8","6657937227f74ca16eb424da","972","stimuli/2111101.jpg","0","","prediction_trial","2","","false","","2","false","false","false","false","false","false","[2,0,1]","111","101","0","","","","","","",""
"","","","","","image-keyboard-response","225","297314","0.0-200.0","632beb3e071d0d5eec133b60","665500ab8938657b03fbdba8","6657937227f74ca16eb424da","442","stimuli/21111012.jpg"," ","","feedback_trial","2","","","","","","","","","","","","","","","","","","","","",""
"","","","","","image-keyboard-response","226","298779","0.0-201.0","632beb3e071d0d5eec133b60","665500ab8938657b03fbdba8","6657937227f74ca16eb424da","1463","stimuli/2101100.jpg","2","","prediction_trial","0","","false","","2","true","true","false","false","false","false","[2,0]","101","100","0","","","","","","",""
"","","","","","image-keyboard-response","227","299033","0.0-202.0","632beb3e071d0d5eec133b60","665500ab8938657b03fbdba8","6657937227f74ca16eb424da","253","stimuli/21011000.jpg"," ","","feedback_trial","2","","","","","","","","","","","","","","","","","","","","",""
"","","","","","image-keyboard-response","228","300027","0.0-203.0","632beb3e071d0d5eec133b60","665500ab8938657b03fbdba8","6657937227f74ca16eb424da","992","stimuli/1000011.jpg","1","","prediction_trial","1","","true","","1","false","false","true","true","false","false","[1]","000","011","1","","","","","","",""
"","","","","","image-keyboard-response","229","300176","0.0-204.0","632beb3e071d0d5eec133b60","665500ab8938657b03fbdba8","6657937227f74ca16eb424da","148","stimuli/10000111.jpg"," ","","feedback_trial","1","","","","","","","","","","","","","","","","","","","","",""
"","","","","","image-keyboard-response","230","300921","0.0-205.0","632beb3e071d0d5eec133b60","665500ab8938657b03fbdba8","6657937227f74ca16eb424da","744","stimuli/1110011.jpg","1","","prediction_trial","0","","false","","1","false","false","false","false","false","false","[1,0]","110","011","0","","","","","","",""
"","","","","","image-keyboard-response","231","301085","0.0-206.0","632beb3e071d0d5eec133b60","665500ab8938657b03fbdba8","6657937227f74ca16eb424da","162","stimuli/11100110.jpg"," ","","feedback_trial","1","","","","","","","","","","","","","","","","","","","","",""
"","","","","","image-keyboard-response","232","301980","0.0-207.0","632beb3e071d0d5eec133b60","665500ab8938657b03fbdba8","6657937227f74ca16eb424da","894","stimuli/0011100.jpg","2","","prediction_trial","0","","false","","0","false","true","true","true","false","true","[0]","011","100","0","","","","","","",""
"","","","","","image-keyboard-response","233","302080","0.0-208.0","632beb3e071d0d5eec133b60","665500ab8938657b03fbdba8","6657937227f74ca16eb424da","99","stimuli/00111000.jpg"," ","","feedback_trial","0","","","","","","","","","","","","","","","","","","","","",""
"","","","","","image-keyboard-response","234","302913","0.0-209.0","632beb3e071d0d5eec133b60","665500ab8938657b03fbdba8","6657937227f74ca16eb424da","832","stimuli/2011110.jpg","2","","prediction_trial","2","","true","","2","true","true","false","false","false","false","[1,2]","011","110","1","","","","","","",""
"","","","","","image-keyboard-response","235","302983","0.0-210.0","632beb3e071d0d5eec133b60","665500ab8938657b03fbdba8","6657937227f74ca16eb424da","59","stimuli/20111102.jpg"," ","","feedback_trial","1","","","","","","","","","","","","","","","","","","","","",""
"","","","","","image-keyboard-response","236","303728","0.0-211.0","632beb3e071d0d5eec133b60","665500ab8938657b03fbdba8","6657937227f74ca16eb424da","743","stimuli/1011100.jpg","1","","prediction_trial","1","","true","","1","true","true","false","false","false","false","[2,1]","011","100","1","","","","","","",""
"","","","","","image-keyboard-response","237","303858","0.0-212.0","632beb3e071d0d5eec133b60","665500ab8938657b03fbdba8","6657937227f74ca16eb424da","130","stimuli/10111001.jpg"," ","","feedback_trial","2","","","","","","","","","","","","","","","","","","","","",""
"","","","","","image-keyboard-response","238","304601","0.0-213.0","632beb3e071d0d5eec133b60","665500ab8938657b03fbdba8","6657937227f74ca16eb424da","742","stimuli/2000010.jpg","2","","prediction_trial","2","","true","","2","true","true","true","true","true","true","[2]","000","010","1","","","","","","",""
"","","","","","image-keyboard-response","239","304778","0.0-214.0","632beb3e071d0d5eec133b60","665500ab8938657b03fbdba8","6657937227f74ca16eb424da","175","stimuli/20000102.jpg"," ","","feedback_trial","2","","","","","","","","","","","","","","","","","","","","",""
"","","","","","image-keyboard-response","240","305530","0.0-215.0","632beb3e071d0d5eec133b60","665500ab8938657b03fbdba8","6657937227f74ca16eb424da","751","stimuli/0111011.jpg","0","","prediction_trial","1","","false","","0","true","true","false","false","false","false","[2,1,0]","111","011","0","","","","","","",""
"","","","","","image-keyboard-response","241","305650","0.0-216.0","632beb3e071d0d5eec133b60","665500ab8938657b03fbdba8","6657937227f74ca16eb424da","118","stimuli/01110111.jpg"," ","","feedback_trial","2","","","","","","","","","","","","","","","","","","","","",""
"","","","","","image-keyboard-response","242","306419","0.0-217.0","632beb3e071d0d5eec133b60","665500ab8938657b03fbdba8","6657937227f74ca16eb424da","767","stimuli/2010001.jpg","1","","prediction_trial","2","","false","","2","false","true","true","true","false","true","[2]","010","001","0","","","","","","",""
"","","","","","image-keyboard-response","243","307584","0.0-218.0","632beb3e071d0d5eec133b60","665500ab8938657b03fbdba8","6657937227f74ca16eb424da","1164","stimuli/20100012.jpg"," ","","feedback_trial","2","","","","","","","","","","","","","","","","","","","","",""
"","","","","","image-keyboard-response","244","308458","0.0-219.0","632beb3e071d0d5eec133b60","665500ab8938657b03fbdba8","6657937227f74ca16eb424da","872","stimuli/1001010.jpg","1","","prediction_trial","1","","true","","1","false","true","true","true","false","true","[1]","001","010","1","","","","","","",""
"","","","","","image-keyboard-response","245","308779","0.0-220.0","632beb3e071d0d5eec133b60","665500ab8938657b03fbdba8","6657937227f74ca16eb424da","319","stimuli/10010101.jpg"," ","","feedback_trial","1","","","","","","","","","","","","","","","","","","","","",""
"","","","","","image-keyboard-response","246","309421","0.0-221.0","632beb3e071d0d5eec133b60","665500ab8938657b03fbdba8","6657937227f74ca16eb424da","633","stimuli/1011000.jpg","1","","prediction_trial","2","","false","","1","true","true","false","false","false","false","[1,2]","011","000","0","","","","","","",""
"","","","","","image-keyboard-response","247","309592","0.0-222.0","632beb3e071d0d5eec133b60","665500ab8938657b03fbdba8","6657937227f74ca16eb424da","170","stimuli/10110002.jpg"," ","","feedback_trial","1","","","","","","","","","","","","","","","","","","","","",""
"","","","","","image-keyboard-response","248","310901","0.0-223.0","632beb3e071d0d5eec133b60","665500ab8938657b03fbdba8","6657937227f74ca16eb424da","1307","stimuli/2100011.jpg","2","","prediction_trial","2","","true","","2","false","false","true","true","false","false","[2]","100","011","1","","","","","","",""
"","","","","","image-keyboard-response","249","311066","0.0-224.0","632beb3e071d0d5eec133b60","665500ab8938657b03fbdba8","6657937227f74ca16eb424da","164","stimuli/21000112.jpg"," ","","feedback_trial","2","","","","","","","","","","","","","","","","","","","","",""
"","","","","","image-keyboard-response","250","311620","0.0-225.0","632beb3e071d0d5eec133b60","665500ab8938657b03fbdba8","6657937227f74ca16eb424da","553","stimuli/2000011.jpg","2","","prediction_trial","2","","true","","2","false","false","true","true","false","false","[2]","000","011","1","","","","","","",""
"","","","","","image-keyboard-response","251","311756","0.0-226.0","632beb3e071d0d5eec133b60","665500ab8938657b03fbdba8","6657937227f74ca16eb424da","134","stimuli/20000112.jpg"," ","","feedback_trial","2","","","","","","","","","","","","","","","","","","","","",""
"","","","","","image-keyboard-response","252","312584","0.0-227.0","632beb3e071d0d5eec133b60","665500ab8938657b03fbdba8","6657937227f74ca16eb424da","826","stimuli/2110111.jpg","1","","prediction_trial","2","","false","","2","false","false","true","true","false","false","[2]","110","111","0","","","","","","",""
"","","","","","image-keyboard-response","253","312825","0.0-228.0","632beb3e071d0d5eec133b60","665500ab8938657b03fbdba8","6657937227f74ca16eb424da","239","stimuli/21101112.jpg"," ","","feedback_trial","2","","","","","","","","","","","","","","","","","","","","",""
"","","","","","image-keyboard-response","254","313333","0.0-229.0","632beb3e071d0d5eec133b60","665500ab8938657b03fbdba8","6657937227f74ca16eb424da","507","stimuli/1010010.jpg","2","","prediction_trial","1","","false","","1","false","true","false","true","false","true","[1]","010","010","0","","","","","","",""
"","","","","","image-keyboard-response","255","313578","0.0-230.0","632beb3e071d0d5eec133b60","665500ab8938657b03fbdba8","6657937227f74ca16eb424da","243","stimuli/10100101.jpg"," ","","feedback_trial","1","","","","","","","","","","","","","","","","","","","","",""
"","","","","","image-keyboard-response","256","314207","0.0-231.0","632beb3e071d0d5eec133b60","665500ab8938657b03fbdba8","6657937227f74ca16eb424da","627","stimuli/2010111.jpg","2","","prediction_trial","2","","true","","2","false","false","true","true","false","false","[2]","010","111","1","","","","","","",""
"","","","","","image-keyboard-response","257","314789","0.0-232.0","632beb3e071d0d5eec133b60","665500ab8938657b03fbdba8","6657937227f74ca16eb424da","574","stimuli/20101112.jpg"," ","","feedback_trial","2","","","","","","","","","","","","","","","","","","","","",""
"","","","","","image-keyboard-response","258","315260","0.0-233.0","632beb3e071d0d5eec133b60","665500ab8938657b03fbdba8","6657937227f74ca16eb424da","470","stimuli/1111010.jpg","2","","prediction_trial","1","","false","","1","false","true","false","false","false","false","[1,0,2]","111","010","0","","","","","","",""
"","","","","","image-keyboard-response","259","316526","0.0-234.0","632beb3e071d0d5eec133b60","665500ab8938657b03fbdba8","6657937227f74ca16eb424da","1264","stimuli/11110101.jpg"," ","","feedback_trial","1","","","","","","","","","","","","","","","","","","","","",""
"","","","","","image-keyboard-response","260","317365","0.0-235.0","632beb3e071d0d5eec133b60","665500ab8938657b03fbdba8","6657937227f74ca16eb424da","838","stimuli/0010011.jpg","0","","prediction_trial","0","","true","","0","true","true","true","true","true","true","[0]","010","011","1","","","","","","",""
"","","","","","image-keyboard-response","261","317523","0.0-236.0","632beb3e071d0d5eec133b60","665500ab8938657b03fbdba8","6657937227f74ca16eb424da","157","stimuli/00100110.jpg"," ","","feedback_trial","0","","","","","","","","","","","","","","","","","","","","",""
"","","","","","image-keyboard-response","262","318683","0.0-237.0","632beb3e071d0d5eec133b60","665500ab8938657b03fbdba8","6657937227f74ca16eb424da","1158","stimuli/0000011.jpg","0","","prediction_trial","0","","true","","0","true","true","true","true","true","true","[0]","000","011","1","","","","","","",""
"","","","","","image-keyboard-response","263","318779","0.0-238.0","632beb3e071d0d5eec133b60","665500ab8938657b03fbdba8","6657937227f74ca16eb424da","95","stimuli/00000110.jpg"," ","","feedback_trial","0","","","","","","","","","","","","","","","","","","","","",""
"","","","","","image-keyboard-response","264","320077","0.0-239.0","632beb3e071d0d5eec133b60","665500ab8938657b03fbdba8","6657937227f74ca16eb424da","1297","stimuli/1111110.jpg","0","","prediction_trial","2","","false","","1","false","false","false","false","false","false","[2,0,1]","111","110","0","","","","","","",""
"","","","","","image-keyboard-response","265","320452","0.0-240.0","632beb3e071d0d5eec133b60","665500ab8938657b03fbdba8","6657937227f74ca16eb424da","374","stimuli/11111102.jpg"," ","","feedback_trial","2","","","","","","","","","","","","","","","","","","","","",""
"","","","","","image-keyboard-response","266","321565","0.0-241.0","632beb3e071d0d5eec133b60","665500ab8938657b03fbdba8","6657937227f74ca16eb424da","1111","stimuli/0001000.jpg","0","","prediction_trial","0","","true","","0","true","true","true","true","true","true","[0]","001","000","1","","","","","","",""
"","","","","","image-keyboard-response","267","321730","0.0-242.0","632beb3e071d0d5eec133b60","665500ab8938657b03fbdba8","6657937227f74ca16eb424da","164","stimuli/00010000.jpg"," ","","feedback_trial","0","","","","","","","","","","","","","","","","","","","","",""
"","","","","","image-keyboard-response","268","322824","0.0-243.0","632beb3e071d0d5eec133b60","665500ab8938657b03fbdba8","6657937227f74ca16eb424da","1083","stimuli/2010100.jpg","2","","prediction_trial","2","","true","","2","true","true","true","true","true","true","[2]","010","100","1","","","","","","",""
"","","","","","image-keyboard-response","269","323458","0.0-244.0","632beb3e071d0d5eec133b60","665500ab8938657b03fbdba8","6657937227f74ca16eb424da","633","stimuli/20101002.jpg"," ","","feedback_trial","2","","","","","","","","","","","","","","","","","","","","",""
"","","","","","image-keyboard-response","270","324313","0.0-245.0","632beb3e071d0d5eec133b60","665500ab8938657b03fbdba8","6657937227f74ca16eb424da","853","stimuli/1110001.jpg","1","","prediction_trial","0","","false","","1","true","true","false","false","false","false","[0,1]","110","001","0","","","","","","",""
"","","","","","image-keyboard-response","271","324423","0.0-246.0","632beb3e071d0d5eec133b60","665500ab8938657b03fbdba8","6657937227f74ca16eb424da","108","stimuli/11100010.jpg"," ","","feedback_trial","0","","","","","","","","","","","","","","","","","","","","",""
"","","","","","image-keyboard-response","272","325082","0.0-247.0","632beb3e071d0d5eec133b60","665500ab8938657b03fbdba8","6657937227f74ca16eb424da","657","stimuli/1110100.jpg","1","","prediction_trial","0","","false","","1","true","true","false","false","false","false","[0,1]","110","100","0","","","","","","",""
"","","","","","image-keyboard-response","273","325196","0.0-248.0","632beb3e071d0d5eec133b60","665500ab8938657b03fbdba8","6657937227f74ca16eb424da","113","stimuli/11101000.jpg"," ","","feedback_trial","0","","","","","","","","","","","","","","","","","","","","",""
"","","","","","image-keyboard-response","274","326037","0.0-249.0","632beb3e071d0d5eec133b60","665500ab8938657b03fbdba8","6657937227f74ca16eb424da","839","stimuli/2111000.jpg","2","","prediction_trial","1","","false","","2","true","true","false","false","false","false","[0,2,1]","111","000","0","","","","","","",""
"","","","","","image-keyboard-response","275","326206","0.0-250.0","632beb3e071d0d5eec133b60","665500ab8938657b03fbdba8","6657937227f74ca16eb424da","168","stimuli/21110001.jpg"," ","","feedback_trial","0","","","","","","","","","","","","","","","","","","","","",""
"","","","","","image-keyboard-response","276","327204","0.0-251.0","632beb3e071d0d5eec133b60","665500ab8938657b03fbdba8","6657937227f74ca16eb424da","997","stimuli/0011000.jpg","0","","prediction_trial","0","","true","","0","true","true","true","true","true","true","[0]","011","000","1","","","","","","",""
"","","","","","image-keyboard-response","277","327244","0.0-252.0","632beb3e071d0d5eec133b60","665500ab8938657b03fbdba8","6657937227f74ca16eb424da","39","stimuli/00110000.jpg"," ","","feedback_trial","0","","","","","","","","","","","","","","","","","","","","",""
"","","","","","image-keyboard-response","278","328484","0.0-253.0","632beb3e071d0d5eec133b60","665500ab8938657b03fbdba8","6657937227f74ca16eb424da","1239","stimuli/2010011.jpg","1","","prediction_trial","2","","false","","2","false","false","true","true","false","false","[2]","010","011","0","","","","","","",""
"","","","","","image-keyboard-response","279","328663","0.0-254.0","632beb3e071d0d5eec133b60","665500ab8938657b03fbdba8","6657937227f74ca16eb424da","169","stimuli/20100112.jpg"," ","","feedback_trial","2","","","","","","","","","","","","","","","","","","","","",""
"","","","","","image-keyboard-response","280","329758","0.0-255.0","632beb3e071d0d5eec133b60","665500ab8938657b03fbdba8","6657937227f74ca16eb424da","1094","stimuli/2011011.jpg","2","","prediction_trial","2","","true","","2","false","false","false","false","false","false","[2,1]","011","011","1","","","","","","",""
"","","","","","image-keyboard-response","281","329833","0.0-256.0","632beb3e071d0d5eec133b60","665500ab8938657b03fbdba8","6657937227f74ca16eb424da","73","stimuli/20110112.jpg"," ","","feedback_trial","2","","","","","","","","","","","","","","","","","","","","",""
"","","","","","image-keyboard-response","282","330762","0.0-257.0","632beb3e071d0d5eec133b60","665500ab8938657b03fbdba8","6657937227f74ca16eb424da","927","stimuli/1010100.jpg","1","","prediction_trial","1","","true","","1","true","true","false","true","false","true","[1]","010","100","1","","","","","","",""
"","","","","","image-keyboard-response","283","330875","0.0-258.0","632beb3e071d0d5eec133b60","665500ab8938657b03fbdba8","6657937227f74ca16eb424da","112","stimuli/10101001.jpg"," ","","feedback_trial","1","","","","","","","","","","","","","","","","","","","","",""
"","","","","","image-keyboard-response","284","332030","0.0-259.0","632beb3e071d0d5eec133b60","665500ab8938657b03fbdba8","6657937227f74ca16eb424da","1153","stimuli/0100110.jpg","1","","prediction_trial","0","","false","","0","false","false","false","true","false","false","[0]","100","110","0","","","","","","",""
"","","","","","image-keyboard-response","285","332170","0.0-260.0","632beb3e071d0d5eec133b60","665500ab8938657b03fbdba8","6657937227f74ca16eb424da","138","stimuli/01001100.jpg"," ","","feedback_trial","0","","","","","","","","","","","","","","","","","","","","",""
"","","","","","image-keyboard-response","286","333039","0.0-261.0","632beb3e071d0d5eec133b60","665500ab8938657b03fbdba8","6657937227f74ca16eb424da","867","stimuli/1111100.jpg","1","","prediction_trial","2","","false","","1","true","true","false","false","false","false","[1,0,2]","111","100","0","","","","","","",""
"","","","","","image-keyboard-response","287","333168","0.0-262.0","632beb3e071d0d5eec133b60","665500ab8938657b03fbdba8","6657937227f74ca16eb424da","127","stimuli/11111002.jpg"," ","","feedback_trial","1","","","","","","","","","","","","","","","","","","","","",""
"","","","","","image-keyboard-response","288","334188","0.0-263.0","632beb3e071d0d5eec133b60","665500ab8938657b03fbdba8","6657937227f74ca16eb424da","1019","stimuli/0000101.jpg","2","","prediction_trial","0","","false","","0","false","false","true","true","false","false","[0]","000","101","0","","","","","","",""
"","","","","","image-keyboard-response","289","334322","0.0-264.0","632beb3e071d0d5eec133b60","665500ab8938657b03fbdba8","6657937227f74ca16eb424da","133","stimuli/00001010.jpg"," ","","feedback_trial","0","","","","","","","","","","","","","","","","","","","","",""
"","","","","","image-keyboard-response","290","335396","0.0-265.0","632beb3e071d0d5eec133b60","665500ab8938657b03fbdba8","6657937227f74ca16eb424da","1066","stimuli/0101000.jpg","0","","prediction_trial","0","","true","","0","true","true","false","false","false","false","[2,0]","101","000","1","","","","","","",""
"","","","","","image-keyboard-response","291","335516","0.0-266.0","632beb3e071d0d5eec133b60","665500ab8938657b03fbdba8","6657937227f74ca16eb424da","118","stimuli/01010000.jpg"," ","","feedback_trial","2","","","","","","","","","","","","","","","","","","","","",""
"","","","","","image-keyboard-response","292","336490","0.0-267.0","632beb3e071d0d5eec133b60","665500ab8938657b03fbdba8","6657937227f74ca16eb424da","972","stimuli/1011011.jpg","1","","prediction_trial","2","","false","","1","false","false","false","false","false","false","[1,2]","011","011","0","","","","","","",""
"","","","","","image-keyboard-response","293","338005","0.0-268.0","632beb3e071d0d5eec133b60","665500ab8938657b03fbdba8","6657937227f74ca16eb424da","1514","stimuli/10110112.jpg"," ","","feedback_trial","1","","","","","","","","","","","","","","","","","","","","",""
"","","","","","image-keyboard-response","294","338708","0.0-269.0","632beb3e071d0d5eec133b60","665500ab8938657b03fbdba8","6657937227f74ca16eb424da","702","stimuli/1010000.jpg","1","","prediction_trial","1","","true","","1","true","true","false","true","false","true","[1]","010","000","1","","","","","","",""
"","","","","","image-keyboard-response","295","338848","0.0-270.0","632beb3e071d0d5eec133b60","665500ab8938657b03fbdba8","6657937227f74ca16eb424da","139","stimuli/10100001.jpg"," ","","feedback_trial","1","","","","","","","","","","","","","","","","","","","","",""
"","","","","","image-keyboard-response","296","339547","0.0-271.0","632beb3e071d0d5eec133b60","665500ab8938657b03fbdba8","6657937227f74ca16eb424da","698","stimuli/0011001.jpg","0","","prediction_trial","0","","true","","0","true","true","true","true","true","true","[0]","011","001","1","","","","","","",""
"","","","","","image-keyboard-response","297","339612","0.0-272.0","632beb3e071d0d5eec133b60","665500ab8938657b03fbdba8","6657937227f74ca16eb424da","63","stimuli/00110010.jpg"," ","","feedback_trial","0","","","","","","","","","","","","","","","","","","","","",""
"","","","","","image-keyboard-response","298","340287","0.0-273.0","632beb3e071d0d5eec133b60","665500ab8938657b03fbdba8","6657937227f74ca16eb424da","673","stimuli/0111001.jpg","0","","prediction_trial","2","","false","","0","true","true","false","false","false","false","[0,1,2]","111","001","0","","","","","","",""
"","","","","","image-keyboard-response","299","340392","0.0-274.0","632beb3e071d0d5eec133b60","665500ab8938657b03fbdba8","6657937227f74ca16eb424da","104","stimuli/01110012.jpg"," ","","feedback_trial","0","","","","","","","","","","","","","","","","","","","","",""
"","","","","","image-keyboard-response","300","341290","0.0-275.0","632beb3e071d0d5eec133b60","665500ab8938657b03fbdba8","6657937227f74ca16eb424da","896","stimuli/2011111.jpg","2","","prediction_trial","2","","true","","2","false","false","false","false","false","false","[1,2]","011","111","1","","","","","","",""
"","","","","","image-keyboard-response","301","341436","0.0-276.0","632beb3e071d0d5eec133b60","665500ab8938657b03fbdba8","6657937227f74ca16eb424da","145","stimuli/20111112.jpg"," ","","feedback_trial","1","","","","","","","","","","","","","","","","","","","","",""
"","","","","","image-keyboard-response","302","342171","0.0-277.0","632beb3e071d0d5eec133b60","665500ab8938657b03fbdba8","6657937227f74ca16eb424da","734","stimuli/1001111.jpg","2","","prediction_trial","1","","false","","1","false","false","true","true","false","false","[1]","001","111","0","","","","","","",""
"","","","","","image-keyboard-response","303","342320","0.0-278.0","632beb3e071d0d5eec133b60","665500ab8938657b03fbdba8","6657937227f74ca16eb424da","147","stimuli/10011111.jpg"," ","","feedback_trial","1","","","","","","","","","","","","","","","","","","","","",""
"","","","","","image-keyboard-response","304","343049","0.0-279.0","632beb3e071d0d5eec133b60","665500ab8938657b03fbdba8","6657937227f74ca16eb424da","727","stimuli/2100101.jpg","0","","prediction_trial","2","","false","","2","false","false","true","true","false","false","[2]","100","101","0","","","","","","",""
"","","","","","image-keyboard-response","305","343204","0.0-280.0","632beb3e071d0d5eec133b60","665500ab8938657b03fbdba8","6657937227f74ca16eb424da","154","stimuli/21001012.jpg"," ","","feedback_trial","2","","","","","","","","","","","","","","","","","","","","",""
"","","","","","image-keyboard-response","306","344014","0.0-281.0","632beb3e071d0d5eec133b60","665500ab8938657b03fbdba8","6657937227f74ca16eb424da","808","stimuli/2110010.jpg","2","","prediction_trial","2","","true","","2","true","true","true","true","true","true","[2]","110","010","1","","","","","","",""
"","","","","","image-keyboard-response","307","344144","0.0-282.0","632beb3e071d0d5eec133b60","665500ab8938657b03fbdba8","6657937227f74ca16eb424da","129","stimuli/21100102.jpg"," ","","feedback_trial","2","","","","","","","","","","","","","","","","","","","","",""
"","","","","","image-keyboard-response","308","345063","0.0-283.0","632beb3e071d0d5eec133b60","665500ab8938657b03fbdba8","6657937227f74ca16eb424da","917","stimuli/1100000.jpg","1","","prediction_trial","1","","true","","1","true","true","true","true","true","true","[1]","100","000","1","","","","","","",""
"","","","","","image-keyboard-response","309","345207","0.0-284.0","632beb3e071d0d5eec133b60","665500ab8938657b03fbdba8","6657937227f74ca16eb424da","144","stimuli/11000001.jpg"," ","","feedback_trial","1","","","","","","","","","","","","","","","","","","","","",""
"","","","","","image-keyboard-response","310","345912","0.0-285.0","632beb3e071d0d5eec133b60","665500ab8938657b03fbdba8","6657937227f74ca16eb424da","702","stimuli/2001110.jpg","2","","prediction_trial","2","","true","","2","true","true","false","true","false","true","[2]","001","110","1","","","","","","",""
"","","","","","image-keyboard-response","311","346061","0.0-286.0","632beb3e071d0d5eec133b60","665500ab8938657b03fbdba8","6657937227f74ca16eb424da","148","stimuli/20011102.jpg"," ","","feedback_trial","2","","","","","","","","","","","","","","","","","","","","",""
"","","","","","image-keyboard-response","312","346772","0.0-287.0","632beb3e071d0d5eec133b60","665500ab8938657b03fbdba8","6657937227f74ca16eb424da","702","stimuli/1111000.jpg","1","","prediction_trial","0","","false","","1","true","true","false","false","false","false","[1,0,2]","111","000","0","","","","","","",""
"","","","","","image-keyboard-response","313","346901","0.0-288.0","632beb3e071d0d5eec133b60","665500ab8938657b03fbdba8","6657937227f74ca16eb424da","128","stimuli/11110000.jpg"," ","","feedback_trial","1","","","","","","","","","","","","","","","","","","","","",""
"","","","","","image-keyboard-response","314","347600","0.0-289.0","632beb3e071d0d5eec133b60","665500ab8938657b03fbdba8","6657937227f74ca16eb424da","697","stimuli/2001111.jpg","1","","prediction_trial","2","","false","","2","false","false","false","true","false","false","[2]","001","111","0","","","","","","",""
"","","","","","image-keyboard-response","315","347817","0.0-290.0","632beb3e071d0d5eec133b60","665500ab8938657b03fbdba8","6657937227f74ca16eb424da","215","stimuli/20011112.jpg"," ","","feedback_trial","2","","","","","","","","","","","","","","","","","","","","",""
"","","","","","image-keyboard-response","316","348685","0.0-291.0","632beb3e071d0d5eec133b60","665500ab8938657b03fbdba8","6657937227f74ca16eb424da","866","stimuli/2111110.jpg","0","","prediction_trial","0","","true","","2","true","true","false","false","false","false","[1,0,2]","111","110","1","","","","","","",""
"","","","","","image-keyboard-response","317","348869","0.0-292.0","632beb3e071d0d5eec133b60","665500ab8938657b03fbdba8","6657937227f74ca16eb424da","183","stimuli/21111100.jpg"," ","","feedback_trial","1","","","","","","","","","","","","","","","","","","","","",""
"","","","","","survey-html-form","318","479152","0.0-293.0","632beb3e071d0d5eec133b60","665500ab8938657b03fbdba8","6657937227f74ca16eb424da","130274","","{""feedback"":""I responded based on what I felt was next based of my own predictions, and interpretation. "",""age"":""31"",""gender"":""Male"",""other_gender"":"""",""race"":""Black/African American"",""other_race"":"""",""ethnicity"":""Non-Hispanic""}","","exit_survey","","","","","","","","","","","","","","","","I responded based on what I felt was next based of my own predictions, and interpretation. ","31","Non-Hispanic","Male","Black/African American","0.5902777777777778","0.5902777777777778"
