"success","timeout","failed_images","failed_audio","failed_video","trial_type","trial_index","time_elapsed","internal_node_id","prolific_id","prolific_study_id","prolific_session_id","rt","stimulus","response","view_history","trial","character_choice","stimulus_dict","accuracy","correct_response","ball_pos","ego_ball_visible","ego_can_infer","alter_ball_visible","alter_can_infer","collective_ball_visible","collective_can_infer","search_locations","alter_occluders","ego_occluders","accuracy_bool","feedback","age","ethnicity","gender","race","overall_accuracy","bonus"
"true","false","[]","[]","[]","preload","0","1258","0.0-0.0","5e8b89d0afcb1606e761ef7f","665500ab8938657b03fbdba8","665792db91f71cd7317b98de","","","","","","","","","","","","","","","","","","","","","","","","","","",""
"true","","","","","fullscreen","1","21070","0.0-1.0","5e8b89d0afcb1606e761ef7f","665500ab8938657b03fbdba8","665792db91f71cd7317b98de","","","","","","","","","","","","","","","","","","","","","","","","","","",""
"","","","","","html-button-response","2","23071","0.0-2.0","5e8b89d0afcb1606e761ef7f","665500ab8938657b03fbdba8","665792db91f71cd7317b98de","2000","<p><b>Consent Form</b></p> <div style=""text-align:left;background-color:lightgrey; padding:20px; max-width:900px;""><p>Please consider this information carefully before deciding whether to participate in this research.</p> <p>The purpose of this research is to examine which factors influence social judgment and decision-making. You will be asked to make judgements about individuals and actions in social scenarios. We are simply interested in your judgement. The study will take less than 1 hour to complete, and you will receive less than $20 on Prolific. Your compensation and time commitment are specified in the study description. There are no anticipated risks associated with participating in this study. The effects of participating should be comparable to those you would ordinarily experience from viewing a computer monitor and using a mouse or keyboard for a similar amount of time. At the end of the study, we will provide an explanation of the questions that motivate this line of research and will describe the potential implications. </p><p> Your participation in this study is completely voluntary and you may refuse to participate or you may choose to withdraw at any time without penalty or loss of benefits to you which are otherwise entitled. Your participation in this study will remain confidential. No personally identifiable information will be associated with your data. Also, all analyses of the data will be averaged across all the participants, so your individual responses will never be specifically analyzed. </p><p> If you have questions or concerns about your participation or payment, or want to request a summary of research findings, please contact Dr. Jonathan Phillips at Jonathan.S.Phillips@dartmouth.edu. </p><p> Please save a copy of this form for your records. </p><p><b>Agreement: </b>The nature and purpose of this research have been sufficiently explained and I agree to participate in this study. I understand that I am free to withdraw at any time without incurring any penalty. Please consent by clicking the button below to continue. Otherwise, please exit the study at any time. </p>","0","","","","","","","","","","","","","","","","","","","","","","","",""
"","","","","","instructions","3","67976","0.0-3.0-0.0","5e8b89d0afcb1606e761ef7f","665500ab8938657b03fbdba8","665792db91f71cd7317b98de","44905","","","[{""page_index"":0,""viewing_time"":1154},{""page_index"":1,""viewing_time"":1698},{""page_index"":2,""viewing_time"":1852},{""page_index"":3,""viewing_time"":5275},{""page_index"":4,""viewing_time"":3621},{""page_index"":5,""viewing_time"":2287},{""page_index"":6,""viewing_time"":3260},{""page_index"":7,""viewing_time"":2117},{""page_index"":8,""viewing_time"":3871},{""page_index"":9,""viewing_time"":2212},{""page_index"":10,""viewing_time"":8438},{""page_index"":11,""viewing_time"":4622},{""page_index"":12,""viewing_time"":3473},{""page_index"":13,""viewing_time"":1024}]","intro","","","","","","","","","","","","","","","","","","","","","",""
"","","","","","image-keyboard-response","4","72282","0.0-3.0-1.0","5e8b89d0afcb1606e761ef7f","665500ab8938657b03fbdba8","665792db91f71cd7317b98de","4304","stimuli/1110101.jpg","2","","prediction_practice","1","{""filepath"":""stimuli/1110101.jpg"",""ball_pos"":1,""ego_ball_visible"":true,""ego_can_infer"":true,""alter_ball_visible"":false,""alter_can_infer"":false,""collective_ball_visible"":false,""collective_can_infer"":false,""search_locations"":[0,1],""alter_occluders"":""110"",""ego_occluders"":""101""}","false","","","","","","","","","","","","","","","","","","",""
"","","","","","image-keyboard-response","5","74377","0.0-3.0-2.0","5e8b89d0afcb1606e761ef7f","665500ab8938657b03fbdba8","665792db91f71cd7317b98de","2095","stimuli/11101011.jpg"," ","","practrice_feedback","0","","","","","","","","","","","","","","","","","","","","",""
"","","","","","image-keyboard-response","6","76489","0.0-3.0-3.0","5e8b89d0afcb1606e761ef7f","665500ab8938657b03fbdba8","665792db91f71cd7317b98de","2111","stimuli/2110011.jpg","1","","prediction_practice","2","{""filepath"":""stimuli/2110011.jpg"",""ball_pos"":2,""ego_ball_visible"":false,""ego_can_infer"":false,""alter_ball_visible"":true,""alter_can_infer"":true,""collective_ball_visible"":false,""collective_can_infer"":false,""search_locations"":[2],""alter_occluders"":""110"",""ego_occluders"":""011""}","false","","","","","","","","","","","","","","","","","","",""
"","","","","","image-keyboard-response","7","77881","0.0-3.0-4.0","5e8b89d0afcb1606e761ef7f","665500ab8938657b03fbdba8","665792db91f71cd7317b98de","1391","stimuli/21100112.jpg"," ","","practrice_feedback","2","","","","","","","","","","","","","","","","","","","","",""
"","","","","","image-keyboard-response","8","78665","0.0-3.0-5.0","5e8b89d0afcb1606e761ef7f","665500ab8938657b03fbdba8","665792db91f71cd7317b98de","783","stimuli/1010101.jpg","1","","prediction_practice","1","{""filepath"":""stimuli/1010101.jpg"",""ball_pos"":1,""ego_ball_visible"":true,""ego_can_infer"":true,""alter_ball_visible"":false,""alter_can_infer"":true,""collective_ball_visible"":false,""collective_can_infer"":true,""search_locations"":[1],""alter_occluders"":""010"",""ego_occluders"":""101""}","true","","","","","","","","","","","","","","","","","","",""
"","","","","","image-keyboard-response","9","79641","0.0-3.0-6.0","5e8b89d0afcb1606e761ef7f","665500ab8938657b03fbdba8","665792db91f71cd7317b98de","975","stimuli/10101011.jpg"," ","","practrice_feedback","1","","","","","","","","","","","","","","","","","","","","",""
"","","","","","image-keyboard-response","10","80649","0.0-3.0-7.0","5e8b89d0afcb1606e761ef7f","665500ab8938657b03fbdba8","665792db91f71cd7317b98de","1007","stimuli/1101100.jpg","1","","prediction_practice","1","{""filepath"":""stimuli/1101100.jpg"",""ball_pos"":1,""ego_ball_visible"":true,""ego_can_infer"":true,""alter_ball_visible"":true,""alter_can_infer"":true,""collective_ball_visible"":true,""collective_can_infer"":true,""search_locations"":[1],""alter_occluders"":""101"",""ego_occluders"":""100""}","true","","","","","","","","","","","","","","","","","","",""
"","","","","","image-keyboard-response","11","81113","0.0-3.0-8.0","5e8b89d0afcb1606e761ef7f","665500ab8938657b03fbdba8","665792db91f71cd7317b98de","463","stimuli/11011001.jpg"," ","","practrice_feedback","1","","","","","","","","","","","","","","","","","","","","",""
"","","","","","image-keyboard-response","12","83001","0.0-3.0-9.0","5e8b89d0afcb1606e761ef7f","665500ab8938657b03fbdba8","665792db91f71cd7317b98de","1888","stimuli/2001000.jpg","2","","prediction_practice","2","{""filepath"":""stimuli/2001000.jpg"",""ball_pos"":2,""ego_ball_visible"":true,""ego_can_infer"":true,""alter_ball_visible"":false,""alter_can_infer"":true,""collective_ball_visible"":false,""collective_can_infer"":true,""search_locations"":[2],""alter_occluders"":""001"",""ego_occluders"":""000""}","true","","","","","","","","","","","","","","","","","","",""
"","","","","","image-keyboard-response","13","83385","0.0-3.0-10.0","5e8b89d0afcb1606e761ef7f","665500ab8938657b03fbdba8","665792db91f71cd7317b98de","383","stimuli/20010002.jpg"," ","","practrice_feedback","2","","","","","","","","","","","","","","","","","","","","",""
"","","","","","image-keyboard-response","14","84233","0.0-3.0-11.0","5e8b89d0afcb1606e761ef7f","665500ab8938657b03fbdba8","665792db91f71cd7317b98de","848","stimuli/1000000.jpg","1","","prediction_practice","1","{""filepath"":""stimuli/1000000.jpg"",""ball_pos"":1,""ego_ball_visible"":true,""ego_can_infer"":true,""alter_ball_visible"":true,""alter_can_infer"":true,""collective_ball_visible"":true,""collective_can_infer"":true,""search_locations"":[1],""alter_occluders"":""000"",""ego_occluders"":""000""}","true","","","","","","","","","","","","","","","","","","",""
"","","","","","image-keyboard-response","15","84617","0.0-3.0-12.0","5e8b89d0afcb1606e761ef7f","665500ab8938657b03fbdba8","665792db91f71cd7317b98de","383","stimuli/10000001.jpg"," ","","practrice_feedback","1","","","","","","","","","","","","","","","","","","","","",""
"","","","","","image-keyboard-response","16","88825","0.0-3.0-13.0","5e8b89d0afcb1606e761ef7f","665500ab8938657b03fbdba8","665792db91f71cd7317b98de","4207","stimuli/0010110.jpg","0","","prediction_practice","0","{""filepath"":""stimuli/0010110.jpg"",""ball_pos"":0,""ego_ball_visible"":false,""ego_can_infer"":false,""alter_ball_visible"":true,""alter_can_infer"":true,""collective_ball_visible"":false,""collective_can_infer"":false,""search_locations"":[0],""alter_occluders"":""010"",""ego_occluders"":""110""}","true","","","","","","","","","","","","","","","","","","",""
"","","","","","image-keyboard-response","17","89513","0.0-3.0-14.0","5e8b89d0afcb1606e761ef7f","665500ab8938657b03fbdba8","665792db91f71cd7317b98de","688","stimuli/00101100.jpg"," ","","practrice_feedback","0","","","","","","","","","","","","","","","","","","","","",""
"","","","","","image-keyboard-response","18","90361","0.0-3.0-15.0","5e8b89d0afcb1606e761ef7f","665500ab8938657b03fbdba8","665792db91f71cd7317b98de","847","stimuli/1001101.jpg","1","","prediction_practice","1","{""filepath"":""stimuli/1001101.jpg"",""ball_pos"":1,""ego_ball_visible"":true,""ego_can_infer"":true,""alter_ball_visible"":true,""alter_can_infer"":true,""collective_ball_visible"":true,""collective_can_infer"":true,""search_locations"":[1],""alter_occluders"":""001"",""ego_occluders"":""101""}","true","","","","","","","","","","","","","","","","","","",""
"","","","","","image-keyboard-response","19","90889","0.0-3.0-16.0","5e8b89d0afcb1606e761ef7f","665500ab8938657b03fbdba8","665792db91f71cd7317b98de","528","stimuli/10011011.jpg"," ","","practrice_feedback","1","","","","","","","","","","","","","","","","","","","","",""
"","","","","","image-keyboard-response","20","94089","0.0-3.0-17.0","5e8b89d0afcb1606e761ef7f","665500ab8938657b03fbdba8","665792db91f71cd7317b98de","3200","stimuli/2101010.jpg","2","","prediction_practice","2","{""filepath"":""stimuli/2101010.jpg"",""ball_pos"":2,""ego_ball_visible"":true,""ego_can_infer"":true,""alter_ball_visible"":false,""alter_can_infer"":false,""collective_ball_visible"":false,""collective_can_infer"":false,""search_locations"":[2,0],""alter_occluders"":""101"",""ego_occluders"":""010""}","true","","","","","","","","","","","","","","","","","","",""
"","","","","","image-keyboard-response","21","94521","0.0-3.0-18.0","5e8b89d0afcb1606e761ef7f","665500ab8938657b03fbdba8","665792db91f71cd7317b98de","431","stimuli/21010102.jpg"," ","","practrice_feedback","2","","","","","","","","","","","","","","","","","","","","",""
"","","","","","image-keyboard-response","22","96761","0.0-3.0-19.0","5e8b89d0afcb1606e761ef7f","665500ab8938657b03fbdba8","665792db91f71cd7317b98de","2239","stimuli/0010100.jpg","0","","prediction_practice","0","{""filepath"":""stimuli/0010100.jpg"",""ball_pos"":0,""ego_ball_visible"":false,""ego_can_infer"":true,""alter_ball_visible"":true,""alter_can_infer"":true,""collective_ball_visible"":false,""collective_can_infer"":true,""search_locations"":[0],""alter_occluders"":""010"",""ego_occluders"":""100""}","true","","","","","","","","","","","","","","","","","","",""
"","","","","","image-keyboard-response","23","97193","0.0-3.0-20.0","5e8b89d0afcb1606e761ef7f","665500ab8938657b03fbdba8","665792db91f71cd7317b98de","432","stimuli/00101000.jpg"," ","","practrice_feedback","0","","","","","","","","","","","","","","","","","","","","",""
"","","","","","html-button-response","24","98742","0.0-3.0-21.0","5e8b89d0afcb1606e761ef7f","665500ab8938657b03fbdba8","665792db91f71cd7317b98de","1548","Now that you've had some practice, you'll be tested with a couple of easy trials. If you correctly predict Sam's choice, you'll move on to complete the experiment!","0","","","","","","","","","","","","","","","","","","","","","","","",""
"","","","","","image-keyboard-response","25","100057","0.0-3.0-22.0-0.0","5e8b89d0afcb1606e761ef7f","665500ab8938657b03fbdba8","665792db91f71cd7317b98de","1315","stimuli/0000011.jpg","arrowleft","","comprehension_quiz","","","true","arrowleft","","","","","","","","","","","","","","","","","",""
"","","","","","image-keyboard-response","26","100777","0.0-3.0-22.0-1.0","5e8b89d0afcb1606e761ef7f","665500ab8938657b03fbdba8","665792db91f71cd7317b98de","719","stimuli/00000110.jpg"," ","","comprehension_quiz","","","true"," ","","","","","","","","","","","","","","","","","",""
"","","","","","image-keyboard-response","27","101897","0.0-3.0-22.0-2.0","5e8b89d0afcb1606e761ef7f","665500ab8938657b03fbdba8","665792db91f71cd7317b98de","1120","stimuli/1010010.jpg","arrowdown","","comprehension_quiz","","","true","arrowdown","","","","","","","","","","","","","","","","","",""
"","","","","","image-keyboard-response","28","102377","0.0-3.0-22.0-3.0","5e8b89d0afcb1606e761ef7f","665500ab8938657b03fbdba8","665792db91f71cd7317b98de","479","stimuli/10100101.jpg"," ","","comprehension_quiz","","","true"," ","","","","","","","","","","","","","","","","","",""
"","","","","","html-button-response","29","103872","0.0-4.0","5e8b89d0afcb1606e761ef7f","665500ab8938657b03fbdba8","665792db91f71cd7317b98de","1494","The experiment will now begin.","0","","","","","","","","","","","","","","","","","","","","","","","",""
"","","","","","image-keyboard-response","30","105833","0.0-5.0","5e8b89d0afcb1606e761ef7f","665500ab8938657b03fbdba8","665792db91f71cd7317b98de","1961","stimuli/1011101.jpg","1","","prediction_trial","1","","true","","1","true","true","false","false","false","false","[2,1]","011","101","1","","","","","","",""
"","","","","","image-keyboard-response","31","106281","0.0-6.0","5e8b89d0afcb1606e761ef7f","665500ab8938657b03fbdba8","665792db91f71cd7317b98de","447","stimuli/10111011.jpg"," ","","feedback_trial","2","","","","","","","","","","","","","","","","","","","","",""
"","","","","","image-keyboard-response","32","109081","0.0-7.0","5e8b89d0afcb1606e761ef7f","665500ab8938657b03fbdba8","665792db91f71cd7317b98de","2799","stimuli/1111101.jpg","1","","prediction_trial","1","","true","","1","true","true","false","false","false","false","[1,2,0]","111","101","1","","","","","","",""
"","","","","","image-keyboard-response","33","109561","0.0-8.0","5e8b89d0afcb1606e761ef7f","665500ab8938657b03fbdba8","665792db91f71cd7317b98de","479","stimuli/11111011.jpg"," ","","feedback_trial","1","","","","","","","","","","","","","","","","","","","","",""
"","","","","","image-keyboard-response","34","110937","0.0-9.0","5e8b89d0afcb1606e761ef7f","665500ab8938657b03fbdba8","665792db91f71cd7317b98de","1376","stimuli/0011100.jpg","0","","prediction_trial","0","","true","","0","false","true","true","true","false","true","[0]","011","100","1","","","","","","",""
"","","","","","image-keyboard-response","35","111273","0.0-10.0","5e8b89d0afcb1606e761ef7f","665500ab8938657b03fbdba8","665792db91f71cd7317b98de","335","stimuli/00111000.jpg"," ","","feedback_trial","0","","","","","","","","","","","","","","","","","","","","",""
"","","","","","image-keyboard-response","36","112105","0.0-11.0","5e8b89d0afcb1606e761ef7f","665500ab8938657b03fbdba8","665792db91f71cd7317b98de","831","stimuli/2010000.jpg","2","","prediction_trial","2","","true","","2","true","true","true","true","true","true","[2]","010","000","1","","","","","","",""
"","","","","","image-keyboard-response","37","112521","0.0-12.0","5e8b89d0afcb1606e761ef7f","665500ab8938657b03fbdba8","665792db91f71cd7317b98de","415","stimuli/20100002.jpg"," ","","feedback_trial","2","","","","","","","","","","","","","","","","","","","","",""
"","","","","","image-keyboard-response","38","115785","0.0-13.0","5e8b89d0afcb1606e761ef7f","665500ab8938657b03fbdba8","665792db91f71cd7317b98de","3264","stimuli/2001111.jpg","2","","prediction_trial","2","","true","","2","false","false","false","true","false","false","[2]","001","111","1","","","","","","",""
"","","","","","image-keyboard-response","39","116185","0.0-14.0","5e8b89d0afcb1606e761ef7f","665500ab8938657b03fbdba8","665792db91f71cd7317b98de","400","stimuli/20011112.jpg"," ","","feedback_trial","2","","","","","","","","","","","","","","","","","","","","",""
"","","","","","image-keyboard-response","40","119705","0.0-15.0","5e8b89d0afcb1606e761ef7f","665500ab8938657b03fbdba8","665792db91f71cd7317b98de","3514","stimuli/1101011.jpg","2","","prediction_trial","1","","false","","1","false","false","true","true","false","false","[1]","101","011","0","","","","","","",""
"","","","","","image-keyboard-response","41","120201","0.0-16.0","5e8b89d0afcb1606e761ef7f","665500ab8938657b03fbdba8","665792db91f71cd7317b98de","496","stimuli/11010111.jpg"," ","","feedback_trial","1","","","","","","","","","","","","","","","","","","","","",""
"","","","","","image-keyboard-response","42","121065","0.0-17.0","5e8b89d0afcb1606e761ef7f","665500ab8938657b03fbdba8","665792db91f71cd7317b98de","863","stimuli/0011011.jpg","0","","prediction_trial","0","","true","","0","true","true","true","true","true","true","[0]","011","011","1","","","","","","",""
"","","","","","image-keyboard-response","43","121401","0.0-18.0","5e8b89d0afcb1606e761ef7f","665500ab8938657b03fbdba8","665792db91f71cd7317b98de","336","stimuli/00110110.jpg"," ","","feedback_trial","0","","","","","","","","","","","","","","","","","","","","",""
"","","","","","image-keyboard-response","44","124201","0.0-19.0","5e8b89d0afcb1606e761ef7f","665500ab8938657b03fbdba8","665792db91f71cd7317b98de","2799","stimuli/2111101.jpg","1","","prediction_trial","2","","false","","2","false","false","false","false","false","false","[1,2,0]","111","101","0","","","","","","",""
"","","","","","image-keyboard-response","45","124601","0.0-20.0","5e8b89d0afcb1606e761ef7f","665500ab8938657b03fbdba8","665792db91f71cd7317b98de","400","stimuli/21111012.jpg"," ","","feedback_trial","1","","","","","","","","","","","","","","","","","","","","",""
"","","","","","image-keyboard-response","46","126441","0.0-21.0","5e8b89d0afcb1606e761ef7f","665500ab8938657b03fbdba8","665792db91f71cd7317b98de","1840","stimuli/1000110.jpg","1","","prediction_trial","1","","true","","1","false","false","true","true","false","false","[1]","000","110","1","","","","","","",""
"","","","","","image-keyboard-response","47","126873","0.0-22.0","5e8b89d0afcb1606e761ef7f","665500ab8938657b03fbdba8","665792db91f71cd7317b98de","431","stimuli/10001101.jpg"," ","","feedback_trial","1","","","","","","","","","","","","","","","","","","","","",""
"","","","","","image-keyboard-response","48","128233","0.0-23.0","5e8b89d0afcb1606e761ef7f","665500ab8938657b03fbdba8","665792db91f71cd7317b98de","1360","stimuli/2111000.jpg","1","","prediction_trial","1","","true","","2","true","true","false","false","false","false","[2,1,0]","111","000","1","","","","","","",""
"","","","","","image-keyboard-response","49","128681","0.0-24.0","5e8b89d0afcb1606e761ef7f","665500ab8938657b03fbdba8","665792db91f71cd7317b98de","447","stimuli/21110001.jpg"," ","","feedback_trial","2","","","","","","","","","","","","","","","","","","","","",""
"","","","","","image-keyboard-response","50","130825","0.0-25.0","5e8b89d0afcb1606e761ef7f","665500ab8938657b03fbdba8","665792db91f71cd7317b98de","2144","stimuli/0101001.jpg","0","","prediction_trial","0","","true","","0","true","true","false","false","false","false","[0,2]","101","001","1","","","","","","",""
"","","","","","image-keyboard-response","51","131145","0.0-26.0","5e8b89d0afcb1606e761ef7f","665500ab8938657b03fbdba8","665792db91f71cd7317b98de","320","stimuli/01010010.jpg"," ","","feedback_trial","0","","","","","","","","","","","","","","","","","","","","",""
"","","","","","image-keyboard-response","52","132937","0.0-27.0","5e8b89d0afcb1606e761ef7f","665500ab8938657b03fbdba8","665792db91f71cd7317b98de","1792","stimuli/2010111.jpg","0","","prediction_trial","2","","false","","2","false","false","true","true","false","false","[2]","010","111","0","","","","","","",""
"","","","","","image-keyboard-response","53","133353","0.0-28.0","5e8b89d0afcb1606e761ef7f","665500ab8938657b03fbdba8","665792db91f71cd7317b98de","416","stimuli/20101112.jpg"," ","","feedback_trial","2","","","","","","","","","","","","","","","","","","","","",""
"","","","","","image-keyboard-response","54","134137","0.0-29.0","5e8b89d0afcb1606e761ef7f","665500ab8938657b03fbdba8","665792db91f71cd7317b98de","784","stimuli/1101001.jpg","1","","prediction_trial","1","","true","","1","true","true","true","true","true","true","[1]","101","001","1","","","","","","",""
"","","","","","image-keyboard-response","55","134441","0.0-30.0","5e8b89d0afcb1606e761ef7f","665500ab8938657b03fbdba8","665792db91f71cd7317b98de","303","stimuli/11010011.jpg"," ","","feedback_trial","1","","","","","","","","","","","","","","","","","","","","",""
"","","","","","image-keyboard-response","56","136569","0.0-31.0","5e8b89d0afcb1606e761ef7f","665500ab8938657b03fbdba8","665792db91f71cd7317b98de","2128","stimuli/0101000.jpg","0","","prediction_trial","0","","true","","0","true","true","false","false","false","false","[2,0]","101","000","1","","","","","","",""
"","","","","","image-keyboard-response","57","136841","0.0-32.0","5e8b89d0afcb1606e761ef7f","665500ab8938657b03fbdba8","665792db91f71cd7317b98de","271","stimuli/01010000.jpg"," ","","feedback_trial","2","","","","","","","","","","","","","","","","","","","","",""
"","","","","","image-keyboard-response","58","139241","0.0-33.0","5e8b89d0afcb1606e761ef7f","665500ab8938657b03fbdba8","665792db91f71cd7317b98de","2400","stimuli/1100110.jpg","1","","prediction_trial","1","","true","","1","false","false","true","true","false","false","[1]","100","110","1","","","","","","",""
"","","","","","image-keyboard-response","59","139609","0.0-34.0","5e8b89d0afcb1606e761ef7f","665500ab8938657b03fbdba8","665792db91f71cd7317b98de","368","stimuli/11001101.jpg"," ","","feedback_trial","1","","","","","","","","","","","","","","","","","","","","",""
"","","","","","image-keyboard-response","60","140681","0.0-35.0","5e8b89d0afcb1606e761ef7f","665500ab8938657b03fbdba8","665792db91f71cd7317b98de","1072","stimuli/1001011.jpg","1","","prediction_trial","1","","true","","1","false","false","true","true","false","false","[1]","001","011","1","","","","","","",""
"","","","","","image-keyboard-response","61","141033","0.0-36.0","5e8b89d0afcb1606e761ef7f","665500ab8938657b03fbdba8","665792db91f71cd7317b98de","351","stimuli/10010111.jpg"," ","","feedback_trial","1","","","","","","","","","","","","","","","","","","","","",""
"","","","","","image-keyboard-response","62","141801","0.0-37.0","5e8b89d0afcb1606e761ef7f","665500ab8938657b03fbdba8","665792db91f71cd7317b98de","768","stimuli/2100110.jpg","2","","prediction_trial","2","","true","","2","true","true","true","true","true","true","[2]","100","110","1","","","","","","",""
"","","","","","image-keyboard-response","63","142137","0.0-38.0","5e8b89d0afcb1606e761ef7f","665500ab8938657b03fbdba8","665792db91f71cd7317b98de","335","stimuli/21001102.jpg"," ","","feedback_trial","2","","","","","","","","","","","","","","","","","","","","",""
"","","","","","image-keyboard-response","64","143497","0.0-39.0","5e8b89d0afcb1606e761ef7f","665500ab8938657b03fbdba8","665792db91f71cd7317b98de","1360","stimuli/0010110.jpg","0","","prediction_trial","0","","true","","0","false","false","true","true","false","false","[0]","010","110","1","","","","","","",""
"","","","","","image-keyboard-response","65","143865","0.0-40.0","5e8b89d0afcb1606e761ef7f","665500ab8938657b03fbdba8","665792db91f71cd7317b98de","367","stimuli/00101100.jpg"," ","","feedback_trial","0","","","","","","","","","","","","","","","","","","","","",""
"","","","","","image-keyboard-response","66","145913","0.0-41.0","5e8b89d0afcb1606e761ef7f","665500ab8938657b03fbdba8","665792db91f71cd7317b98de","2048","stimuli/2101101.jpg","0","","prediction_trial","2","","false","","2","false","false","false","false","false","false","[2,0]","101","101","0","","","","","","",""
"","","","","","image-keyboard-response","67","146249","0.0-42.0","5e8b89d0afcb1606e761ef7f","665500ab8938657b03fbdba8","665792db91f71cd7317b98de","335","stimuli/21011012.jpg"," ","","feedback_trial","2","","","","","","","","","","","","","","","","","","","","",""
"","","","","","image-keyboard-response","68","146873","0.0-43.0","5e8b89d0afcb1606e761ef7f","665500ab8938657b03fbdba8","665792db91f71cd7317b98de","624","stimuli/0010001.jpg","0","","prediction_trial","0","","true","","0","true","true","true","true","true","true","[0]","010","001","1","","","","","","",""
"","","","","","image-keyboard-response","69","147065","0.0-44.0","5e8b89d0afcb1606e761ef7f","665500ab8938657b03fbdba8","665792db91f71cd7317b98de","191","stimuli/00100010.jpg"," ","","feedback_trial","0","","","","","","","","","","","","","","","","","","","","",""
"","","","","","image-keyboard-response","70","147657","0.0-45.0","5e8b89d0afcb1606e761ef7f","665500ab8938657b03fbdba8","665792db91f71cd7317b98de","586","stimuli/0010010.jpg","0","","prediction_trial","0","","true","","0","true","true","true","true","true","true","[0]","010","010","1","","","","","","",""
"","","","","","image-keyboard-response","71","147817","0.0-46.0","5e8b89d0afcb1606e761ef7f","665500ab8938657b03fbdba8","665792db91f71cd7317b98de","159","stimuli/00100100.jpg"," ","","feedback_trial","0","","","","","","","","","","","","","","","","","","","","",""
"","","","","","image-keyboard-response","72","149545","0.0-47.0","5e8b89d0afcb1606e761ef7f","665500ab8938657b03fbdba8","665792db91f71cd7317b98de","1728","stimuli/0110000.jpg","1","","prediction_trial","1","","true","","0","true","true","false","false","false","false","[0,1]","110","000","1","","","","","","",""
"","","","","","image-keyboard-response","73","149849","0.0-48.0","5e8b89d0afcb1606e761ef7f","665500ab8938657b03fbdba8","665792db91f71cd7317b98de","304","stimuli/01100001.jpg"," ","","feedback_trial","0","","","","","","","","","","","","","","","","","","","","",""
"","","","","","image-keyboard-response","74","150537","0.0-49.0","5e8b89d0afcb1606e761ef7f","665500ab8938657b03fbdba8","665792db91f71cd7317b98de","688","stimuli/2100100.jpg","2","","prediction_trial","2","","true","","2","true","true","true","true","true","true","[2]","100","100","1","","","","","","",""
"","","","","","image-keyboard-response","75","150745","0.0-50.0","5e8b89d0afcb1606e761ef7f","665500ab8938657b03fbdba8","665792db91f71cd7317b98de","207","stimuli/21001002.jpg"," ","","feedback_trial","2","","","","","","","","","","","","","","","","","","","","",""
"","","","","","image-keyboard-response","76","151449","0.0-51.0","5e8b89d0afcb1606e761ef7f","665500ab8938657b03fbdba8","665792db91f71cd7317b98de","704","stimuli/2010110.jpg","2","","prediction_trial","2","","true","","2","true","true","true","true","true","true","[2]","010","110","1","","","","","","",""
"","","","","","image-keyboard-response","77","151609","0.0-52.0","5e8b89d0afcb1606e761ef7f","665500ab8938657b03fbdba8","665792db91f71cd7317b98de","159","stimuli/20101102.jpg"," ","","feedback_trial","2","","","","","","","","","","","","","","","","","","","","",""
"","","","","","image-keyboard-response","78","152217","0.0-53.0","5e8b89d0afcb1606e761ef7f","665500ab8938657b03fbdba8","665792db91f71cd7317b98de","608","stimuli/2100000.jpg","2","","prediction_trial","2","","true","","2","true","true","true","true","true","true","[2]","100","000","1","","","","","","",""
"","","","","","image-keyboard-response","79","152345","0.0-54.0","5e8b89d0afcb1606e761ef7f","665500ab8938657b03fbdba8","665792db91f71cd7317b98de","127","stimuli/21000002.jpg"," ","","feedback_trial","2","","","","","","","","","","","","","","","","","","","","",""
"","","","","","image-keyboard-response","80","153849","0.0-55.0","5e8b89d0afcb1606e761ef7f","665500ab8938657b03fbdba8","665792db91f71cd7317b98de","1504","stimuli/1010101.jpg","1","","prediction_trial","1","","true","","1","true","true","false","true","false","true","[1]","010","101","1","","","","","","",""
"","","","","","image-keyboard-response","81","154057","0.0-56.0","5e8b89d0afcb1606e761ef7f","665500ab8938657b03fbdba8","665792db91f71cd7317b98de","207","stimuli/10101011.jpg"," ","","feedback_trial","1","","","","","","","","","","","","","","","","","","","","",""
"","","","","","image-keyboard-response","82","154825","0.0-57.0","5e8b89d0afcb1606e761ef7f","665500ab8938657b03fbdba8","665792db91f71cd7317b98de","767","stimuli/0001100.jpg","0","","prediction_trial","0","","true","","0","false","true","true","true","false","true","[0]","001","100","1","","","","","","",""
"","","","","","image-keyboard-response","83","154953","0.0-58.0","5e8b89d0afcb1606e761ef7f","665500ab8938657b03fbdba8","665792db91f71cd7317b98de","127","stimuli/00011000.jpg"," ","","feedback_trial","0","","","","","","","","","","","","","","","","","","","","",""
"","","","","","image-keyboard-response","84","156729","0.0-59.0","5e8b89d0afcb1606e761ef7f","665500ab8938657b03fbdba8","665792db91f71cd7317b98de","1776","stimuli/2101000.jpg","2","","prediction_trial","2","","true","","2","true","true","false","false","false","false","[2,0]","101","000","1","","","","","","",""
"","","","","","image-keyboard-response","85","156873","0.0-60.0","5e8b89d0afcb1606e761ef7f","665500ab8938657b03fbdba8","665792db91f71cd7317b98de","143","stimuli/21010002.jpg"," ","","feedback_trial","2","","","","","","","","","","","","","","","","","","","","",""
"","","","","","image-keyboard-response","86","157977","0.0-61.0","5e8b89d0afcb1606e761ef7f","665500ab8938657b03fbdba8","665792db91f71cd7317b98de","1104","stimuli/2011111.jpg","0","","prediction_trial","2","","false","","2","false","false","false","false","false","false","[2,1]","011","111","0","","","","","","",""
"","","","","","image-keyboard-response","87","158473","0.0-62.0","5e8b89d0afcb1606e761ef7f","665500ab8938657b03fbdba8","665792db91f71cd7317b98de","495","stimuli/20111112.jpg"," ","","feedback_trial","2","","","","","","","","","","","","","","","","","","","","",""
"","","","","","image-keyboard-response","88","159225","0.0-63.0","5e8b89d0afcb1606e761ef7f","665500ab8938657b03fbdba8","665792db91f71cd7317b98de","751","stimuli/1110001.jpg","1","","prediction_trial","1","","true","","1","true","true","false","false","false","false","[1,0]","110","001","1","","","","","","",""
"","","","","","image-keyboard-response","89","159449","0.0-64.0","5e8b89d0afcb1606e761ef7f","665500ab8938657b03fbdba8","665792db91f71cd7317b98de","224","stimuli/11100011.jpg"," ","","feedback_trial","1","","","","","","","","","","","","","","","","","","","","",""
"","","","","","image-keyboard-response","90","160233","0.0-65.0","5e8b89d0afcb1606e761ef7f","665500ab8938657b03fbdba8","665792db91f71cd7317b98de","784","stimuli/1001101.jpg","1","","prediction_trial","1","","true","","1","true","true","true","true","true","true","[1]","001","101","1","","","","","","",""
"","","","","","image-keyboard-response","91","160777","0.0-66.0","5e8b89d0afcb1606e761ef7f","665500ab8938657b03fbdba8","665792db91f71cd7317b98de","543","stimuli/10011011.jpg"," ","","feedback_trial","1","","","","","","","","","","","","","","","","","","","","",""
"","","","","","image-keyboard-response","92","162569","0.0-67.0","5e8b89d0afcb1606e761ef7f","665500ab8938657b03fbdba8","665792db91f71cd7317b98de","1792","stimuli/1011010.jpg","1","","prediction_trial","2","","false","","1","false","true","false","false","false","false","[2,1]","011","010","0","","","","","","",""
"","","","","","image-keyboard-response","93","162825","0.0-68.0","5e8b89d0afcb1606e761ef7f","665500ab8938657b03fbdba8","665792db91f71cd7317b98de","256","stimuli/10110102.jpg"," ","","feedback_trial","2","","","","","","","","","","","","","","","","","","","","",""
"","","","","","image-keyboard-response","94","164617","0.0-69.0","5e8b89d0afcb1606e761ef7f","665500ab8938657b03fbdba8","665792db91f71cd7317b98de","1792","stimuli/2000011.jpg","1","","prediction_trial","2","","false","","2","false","false","true","true","false","false","[2]","000","011","0","","","","","","",""
"","","","","","image-keyboard-response","95","164953","0.0-70.0","5e8b89d0afcb1606e761ef7f","665500ab8938657b03fbdba8","665792db91f71cd7317b98de","335","stimuli/20000112.jpg"," ","","feedback_trial","2","","","","","","","","","","","","","","","","","","","","",""
"","","","","","image-keyboard-response","96","166457","0.0-71.0","5e8b89d0afcb1606e761ef7f","665500ab8938657b03fbdba8","665792db91f71cd7317b98de","1504","stimuli/0111111.jpg","1","","prediction_trial","0","","false","","0","false","false","false","false","false","false","[0,1,2]","111","111","0","","","","","","",""
"","","","","","image-keyboard-response","97","166985","0.0-72.0","5e8b89d0afcb1606e761ef7f","665500ab8938657b03fbdba8","665792db91f71cd7317b98de","528","stimuli/01111110.jpg"," ","","feedback_trial","0","","","","","","","","","","","","","","","","","","","","",""
"","","","","","image-keyboard-response","98","168041","0.0-73.0","5e8b89d0afcb1606e761ef7f","665500ab8938657b03fbdba8","665792db91f71cd7317b98de","1056","stimuli/2110010.jpg","2","","prediction_trial","2","","true","","2","true","true","true","true","true","true","[2]","110","010","1","","","","","","",""
"","","","","","image-keyboard-response","99","168201","0.0-74.0","5e8b89d0afcb1606e761ef7f","665500ab8938657b03fbdba8","665792db91f71cd7317b98de","159","stimuli/21100102.jpg"," ","","feedback_trial","2","","","","","","","","","","","","","","","","","","","","",""
"","","","","","image-keyboard-response","100","170313","0.0-75.0","5e8b89d0afcb1606e761ef7f","665500ab8938657b03fbdba8","665792db91f71cd7317b98de","2111","stimuli/1010100.jpg","1","","prediction_trial","1","","true","","1","true","true","false","true","false","true","[1]","010","100","1","","","","","","",""
"","","","","","image-keyboard-response","101","170521","0.0-76.0","5e8b89d0afcb1606e761ef7f","665500ab8938657b03fbdba8","665792db91f71cd7317b98de","207","stimuli/10101001.jpg"," ","","feedback_trial","1","","","","","","","","","","","","","","","","","","","","",""
"","","","","","image-keyboard-response","102","171209","0.0-77.0","5e8b89d0afcb1606e761ef7f","665500ab8938657b03fbdba8","665792db91f71cd7317b98de","688","stimuli/1100000.jpg","1","","prediction_trial","1","","true","","1","true","true","true","true","true","true","[1]","100","000","1","","","","","","",""
"","","","","","image-keyboard-response","103","171369","0.0-78.0","5e8b89d0afcb1606e761ef7f","665500ab8938657b03fbdba8","665792db91f71cd7317b98de","159","stimuli/11000001.jpg"," ","","feedback_trial","1","","","","","","","","","","","","","","","","","","","","",""
"","","","","","image-keyboard-response","104","172633","0.0-79.0","5e8b89d0afcb1606e761ef7f","665500ab8938657b03fbdba8","665792db91f71cd7317b98de","1264","stimuli/2110101.jpg","2","","prediction_trial","2","","true","","2","false","false","true","true","false","false","[2]","110","101","1","","","","","","",""
"","","","","","image-keyboard-response","105","172953","0.0-80.0","5e8b89d0afcb1606e761ef7f","665500ab8938657b03fbdba8","665792db91f71cd7317b98de","320","stimuli/21101012.jpg"," ","","feedback_trial","2","","","","","","","","","","","","","","","","","","","","",""
"","","","","","image-keyboard-response","106","173497","0.0-81.0","5e8b89d0afcb1606e761ef7f","665500ab8938657b03fbdba8","665792db91f71cd7317b98de","543","stimuli/1001100.jpg","1","","prediction_trial","1","","true","","1","true","true","true","true","true","true","[1]","001","100","1","","","","","","",""
"","","","","","image-keyboard-response","107","173689","0.0-82.0","5e8b89d0afcb1606e761ef7f","665500ab8938657b03fbdba8","665792db91f71cd7317b98de","192","stimuli/10011001.jpg"," ","","feedback_trial","1","","","","","","","","","","","","","","","","","","","","",""
"","","","","","image-keyboard-response","108","174857","0.0-83.0","5e8b89d0afcb1606e761ef7f","665500ab8938657b03fbdba8","665792db91f71cd7317b98de","1168","stimuli/0100000.jpg","0","","prediction_trial","0","","true","","0","true","true","false","true","false","true","[0]","100","000","1","","","","","","",""
"","","","","","image-keyboard-response","109","175017","0.0-84.0","5e8b89d0afcb1606e761ef7f","665500ab8938657b03fbdba8","665792db91f71cd7317b98de","160","stimuli/01000000.jpg"," ","","feedback_trial","0","","","","","","","","","","","","","","","","","","","","",""
"","","","","","image-keyboard-response","110","175769","0.0-85.0","5e8b89d0afcb1606e761ef7f","665500ab8938657b03fbdba8","665792db91f71cd7317b98de","751","stimuli/0001000.jpg","0","","prediction_trial","0","","true","","0","true","true","true","true","true","true","[0]","001","000","1","","","","","","",""
"","","","","","image-keyboard-response","111","176009","0.0-86.0","5e8b89d0afcb1606e761ef7f","665500ab8938657b03fbdba8","665792db91f71cd7317b98de","240","stimuli/00010000.jpg"," ","","feedback_trial","0","","","","","","","","","","","","","","","","","","","","",""
"","","","","","image-keyboard-response","112","177385","0.0-87.0","5e8b89d0afcb1606e761ef7f","665500ab8938657b03fbdba8","665792db91f71cd7317b98de","1376","stimuli/1110110.jpg","1","","prediction_trial","0","","false","","1","false","false","false","false","false","false","[1,0]","110","110","0","","","","","","",""
"","","","","","image-keyboard-response","113","177625","0.0-88.0","5e8b89d0afcb1606e761ef7f","665500ab8938657b03fbdba8","665792db91f71cd7317b98de","240","stimuli/11101100.jpg"," ","","feedback_trial","1","","","","","","","","","","","","","","","","","","","","",""
"","","","","","image-keyboard-response","114","179657","0.0-89.0","5e8b89d0afcb1606e761ef7f","665500ab8938657b03fbdba8","665792db91f71cd7317b98de","2031","stimuli/2111001.jpg","1","","prediction_trial","1","","true","","2","false","true","false","false","false","false","[1,0,2]","111","001","1","","","","","","",""
"","","","","","image-keyboard-response","115","179897","0.0-90.0","5e8b89d0afcb1606e761ef7f","665500ab8938657b03fbdba8","665792db91f71cd7317b98de","239","stimuli/21110011.jpg"," ","","feedback_trial","1","","","","","","","","","","","","","","","","","","","","",""
"","","","","","image-keyboard-response","116","181145","0.0-91.0","5e8b89d0afcb1606e761ef7f","665500ab8938657b03fbdba8","665792db91f71cd7317b98de","1247","stimuli/1001010.jpg","1","","prediction_trial","1","","true","","1","false","true","true","true","false","true","[1]","001","010","1","","","","","","",""
"","","","","","image-keyboard-response","117","181401","0.0-92.0","5e8b89d0afcb1606e761ef7f","665500ab8938657b03fbdba8","665792db91f71cd7317b98de","256","stimuli/10010101.jpg"," ","","feedback_trial","1","","","","","","","","","","","","","","","","","","","","",""
"","","","","","image-keyboard-response","118","183225","0.0-93.0","5e8b89d0afcb1606e761ef7f","665500ab8938657b03fbdba8","665792db91f71cd7317b98de","1824","stimuli/0001111.jpg","1","","prediction_trial","0","","false","","0","false","false","true","true","false","false","[0]","001","111","0","","","","","","",""
"","","","","","image-keyboard-response","119","183577","0.0-94.0","5e8b89d0afcb1606e761ef7f","665500ab8938657b03fbdba8","665792db91f71cd7317b98de","352","stimuli/00011110.jpg"," ","","feedback_trial","0","","","","","","","","","","","","","","","","","","","","",""
"","","","","","image-keyboard-response","120","184841","0.0-95.0","5e8b89d0afcb1606e761ef7f","665500ab8938657b03fbdba8","665792db91f71cd7317b98de","1263","stimuli/2011011.jpg","1","","prediction_trial","2","","false","","2","false","false","false","false","false","false","[2,1]","011","011","0","","","","","","",""
"","","","","","image-keyboard-response","121","185065","0.0-96.0","5e8b89d0afcb1606e761ef7f","665500ab8938657b03fbdba8","665792db91f71cd7317b98de","224","stimuli/20110112.jpg"," ","","feedback_trial","2","","","","","","","","","","","","","","","","","","","","",""
"","","","","","image-keyboard-response","122","185625","0.0-97.0","5e8b89d0afcb1606e761ef7f","665500ab8938657b03fbdba8","665792db91f71cd7317b98de","560","stimuli/1100101.jpg","1","","prediction_trial","1","","true","","1","true","true","true","true","true","true","[1]","100","101","1","","","","","","",""
"","","","","","image-keyboard-response","123","185897","0.0-98.0","5e8b89d0afcb1606e761ef7f","665500ab8938657b03fbdba8","665792db91f71cd7317b98de","272","stimuli/11001011.jpg"," ","","feedback_trial","1","","","","","","","","","","","","","","","","","","","","",""
"","","","","","image-keyboard-response","124","187097","0.0-99.0","5e8b89d0afcb1606e761ef7f","665500ab8938657b03fbdba8","665792db91f71cd7317b98de","1200","stimuli/0011110.jpg","0","","prediction_trial","0","","true","","0","false","false","true","true","false","false","[0]","011","110","1","","","","","","",""
"","","","","","image-keyboard-response","125","187385","0.0-100.0","5e8b89d0afcb1606e761ef7f","665500ab8938657b03fbdba8","665792db91f71cd7317b98de","288","stimuli/00111100.jpg"," ","","feedback_trial","0","","","","","","","","","","","","","","","","","","","","",""
"","","","","","image-keyboard-response","126","188585","0.0-101.0","5e8b89d0afcb1606e761ef7f","665500ab8938657b03fbdba8","665792db91f71cd7317b98de","1200","stimuli/1010110.jpg","0","","prediction_trial","1","","false","","1","false","false","false","true","false","false","[1]","010","110","0","","","","","","",""
"","","","","","image-keyboard-response","127","188841","0.0-102.0","5e8b89d0afcb1606e761ef7f","665500ab8938657b03fbdba8","665792db91f71cd7317b98de","255","stimuli/10101101.jpg"," ","","feedback_trial","1","","","","","","","","","","","","","","","","","","","","",""
"","","","","","image-keyboard-response","128","189737","0.0-103.0","5e8b89d0afcb1606e761ef7f","665500ab8938657b03fbdba8","665792db91f71cd7317b98de","896","stimuli/0110011.jpg","0","","prediction_trial","0","","true","","0","true","true","false","false","false","false","[0,1]","110","011","1","","","","","","",""
"","","","","","image-keyboard-response","129","190281","0.0-104.0","5e8b89d0afcb1606e761ef7f","665500ab8938657b03fbdba8","665792db91f71cd7317b98de","543","stimuli/01100110.jpg"," ","","feedback_trial","0","","","","","","","","","","","","","","","","","","","","",""
"","","","","","image-keyboard-response","130","191961","0.0-105.0","5e8b89d0afcb1606e761ef7f","665500ab8938657b03fbdba8","665792db91f71cd7317b98de","1675","stimuli/2011010.jpg","2","","prediction_trial","2","","true","","2","true","true","false","false","false","false","[2,1]","011","010","1","","","","","","",""
"","","","","","image-keyboard-response","131","192169","0.0-106.0","5e8b89d0afcb1606e761ef7f","665500ab8938657b03fbdba8","665792db91f71cd7317b98de","208","stimuli/20110102.jpg"," ","","feedback_trial","2","","","","","","","","","","","","","","","","","","","","",""
"","","","","","image-keyboard-response","132","193369","0.0-107.0","5e8b89d0afcb1606e761ef7f","665500ab8938657b03fbdba8","665792db91f71cd7317b98de","1200","stimuli/2011001.jpg","2","","prediction_trial","1","","false","","2","false","true","false","false","false","false","[1,2]","011","001","0","","","","","","",""
"","","","","","image-keyboard-response","133","193753","0.0-108.0","5e8b89d0afcb1606e761ef7f","665500ab8938657b03fbdba8","665792db91f71cd7317b98de","384","stimuli/20110011.jpg"," ","","feedback_trial","1","","","","","","","","","","","","","","","","","","","","",""
"","","","","","image-keyboard-response","134","195545","0.0-109.0","5e8b89d0afcb1606e761ef7f","665500ab8938657b03fbdba8","665792db91f71cd7317b98de","1791","stimuli/2011101.jpg","0","","prediction_trial","1","","false","","2","false","false","false","false","false","false","[1,2]","011","101","0","","","","","","",""
"","","","","","image-keyboard-response","135","195833","0.0-110.0","5e8b89d0afcb1606e761ef7f","665500ab8938657b03fbdba8","665792db91f71cd7317b98de","287","stimuli/20111011.jpg"," ","","feedback_trial","1","","","","","","","","","","","","","","","","","","","","",""
"","","","","","image-keyboard-response","136","197385","0.0-111.0","5e8b89d0afcb1606e761ef7f","665500ab8938657b03fbdba8","665792db91f71cd7317b98de","1552","stimuli/2101010.jpg","2","","prediction_trial","2","","true","","2","true","true","false","false","false","false","[2,0]","101","010","1","","","","","","",""
"","","","","","image-keyboard-response","137","197577","0.0-112.0","5e8b89d0afcb1606e761ef7f","665500ab8938657b03fbdba8","665792db91f71cd7317b98de","191","stimuli/21010102.jpg"," ","","feedback_trial","2","","","","","","","","","","","","","","","","","","","","",""
"","","","","","image-keyboard-response","138","198521","0.0-113.0","5e8b89d0afcb1606e761ef7f","665500ab8938657b03fbdba8","665792db91f71cd7317b98de","944","stimuli/1010000.jpg","1","","prediction_trial","1","","true","","1","true","true","false","true","false","true","[1]","010","000","1","","","","","","",""
"","","","","","image-keyboard-response","139","198649","0.0-114.0","5e8b89d0afcb1606e761ef7f","665500ab8938657b03fbdba8","665792db91f71cd7317b98de","128","stimuli/10100001.jpg"," ","","feedback_trial","1","","","","","","","","","","","","","","","","","","","","",""
"","","","","","image-keyboard-response","140","199481","0.0-115.0","5e8b89d0afcb1606e761ef7f","665500ab8938657b03fbdba8","665792db91f71cd7317b98de","831","stimuli/0100011.jpg","0","","prediction_trial","0","","true","","0","true","true","false","true","false","true","[0]","100","011","1","","","","","","",""
"","","","","","image-keyboard-response","141","199609","0.0-116.0","5e8b89d0afcb1606e761ef7f","665500ab8938657b03fbdba8","665792db91f71cd7317b98de","128","stimuli/01000110.jpg"," ","","feedback_trial","0","","","","","","","","","","","","","","","","","","","","",""
"","","","","","image-keyboard-response","142","200953","0.0-117.0","5e8b89d0afcb1606e761ef7f","665500ab8938657b03fbdba8","665792db91f71cd7317b98de","1344","stimuli/2010101.jpg","0","","prediction_trial","2","","false","","2","false","false","true","true","false","false","[2]","010","101","0","","","","","","",""
"","","","","","image-keyboard-response","143","201145","0.0-118.0","5e8b89d0afcb1606e761ef7f","665500ab8938657b03fbdba8","665792db91f71cd7317b98de","191","stimuli/20101012.jpg"," ","","feedback_trial","2","","","","","","","","","","","","","","","","","","","","",""
"","","","","","image-keyboard-response","144","202441","0.0-119.0","5e8b89d0afcb1606e761ef7f","665500ab8938657b03fbdba8","665792db91f71cd7317b98de","1296","stimuli/2010011.jpg","2","","prediction_trial","2","","true","","2","false","false","true","true","false","false","[2]","010","011","1","","","","","","",""
"","","","","","image-keyboard-response","145","202681","0.0-120.0","5e8b89d0afcb1606e761ef7f","665500ab8938657b03fbdba8","665792db91f71cd7317b98de","240","stimuli/20100112.jpg"," ","","feedback_trial","2","","","","","","","","","","","","","","","","","","","","",""
"","","","","","image-keyboard-response","146","204953","0.0-121.0","5e8b89d0afcb1606e761ef7f","665500ab8938657b03fbdba8","665792db91f71cd7317b98de","2272","stimuli/0101100.jpg","0","","prediction_trial","2","","false","","0","false","true","false","false","false","false","[0,2]","101","100","0","","","","","","",""
"","","","","","image-keyboard-response","147","205113","0.0-122.0","5e8b89d0afcb1606e761ef7f","665500ab8938657b03fbdba8","665792db91f71cd7317b98de","159","stimuli/01011002.jpg"," ","","feedback_trial","0","","","","","","","","","","","","","","","","","","","","",""
"","","","","","image-keyboard-response","148","206345","0.0-123.0","5e8b89d0afcb1606e761ef7f","665500ab8938657b03fbdba8","665792db91f71cd7317b98de","1232","stimuli/2111100.jpg","1","","prediction_trial","2","","false","","2","true","true","false","false","false","false","[0,2,1]","111","100","0","","","","","","",""
"","","","","","image-keyboard-response","149","206409","0.0-124.0","5e8b89d0afcb1606e761ef7f","665500ab8938657b03fbdba8","665792db91f71cd7317b98de","64","stimuli/21111002.jpg"," ","","feedback_trial","0","","","","","","","","","","","","","","","","","","","","",""
"","","","","","image-keyboard-response","150","207641","0.0-125.0","5e8b89d0afcb1606e761ef7f","665500ab8938657b03fbdba8","665792db91f71cd7317b98de","1231","stimuli/0111110.jpg","1","","prediction_trial","2","","false","","0","false","false","false","false","false","false","[2,1,0]","111","110","0","","","","","","",""
"","","","","","image-keyboard-response","151","207817","0.0-126.0","5e8b89d0afcb1606e761ef7f","665500ab8938657b03fbdba8","665792db91f71cd7317b98de","176","stimuli/01111102.jpg"," ","","feedback_trial","2","","","","","","","","","","","","","","","","","","","","",""
"","","","","","image-keyboard-response","152","209225","0.0-127.0","5e8b89d0afcb1606e761ef7f","665500ab8938657b03fbdba8","665792db91f71cd7317b98de","1407","stimuli/0010101.jpg","2","","prediction_trial","0","","false","","0","false","false","true","true","false","false","[0]","010","101","0","","","","","","",""
"","","","","","image-keyboard-response","153","209385","0.0-128.0","5e8b89d0afcb1606e761ef7f","665500ab8938657b03fbdba8","665792db91f71cd7317b98de","159","stimuli/00101010.jpg"," ","","feedback_trial","0","","","","","","","","","","","","","","","","","","","","",""
"","","","","","image-keyboard-response","154","211033","0.0-129.0","5e8b89d0afcb1606e761ef7f","665500ab8938657b03fbdba8","665792db91f71cd7317b98de","1648","stimuli/0101011.jpg","0","","prediction_trial","2","","false","","0","true","true","false","false","false","false","[2,0]","101","011","0","","","","","","",""
"","","","","","image-keyboard-response","155","211193","0.0-130.0","5e8b89d0afcb1606e761ef7f","665500ab8938657b03fbdba8","665792db91f71cd7317b98de","159","stimuli/01010112.jpg"," ","","feedback_trial","2","","","","","","","","","","","","","","","","","","","","",""
"","","","","","image-keyboard-response","156","212649","0.0-131.0","5e8b89d0afcb1606e761ef7f","665500ab8938657b03fbdba8","665792db91f71cd7317b98de","1456","stimuli/2011000.jpg","2","","prediction_trial","1","","false","","2","true","true","false","false","false","false","[2,1]","011","000","0","","","","","","",""
"","","","","","image-keyboard-response","157","212793","0.0-132.0","5e8b89d0afcb1606e761ef7f","665500ab8938657b03fbdba8","665792db91f71cd7317b98de","144","stimuli/20110001.jpg"," ","","feedback_trial","2","","","","","","","","","","","","","","","","","","","","",""
"","","","","","image-keyboard-response","158","214345","0.0-133.0","5e8b89d0afcb1606e761ef7f","665500ab8938657b03fbdba8","665792db91f71cd7317b98de","1551","stimuli/0011111.jpg","0","","prediction_trial","0","","true","","0","false","false","true","true","false","false","[0]","011","111","1","","","","","","",""
"","","","","","image-keyboard-response","159","214537","0.0-134.0","5e8b89d0afcb1606e761ef7f","665500ab8938657b03fbdba8","665792db91f71cd7317b98de","191","stimuli/00111110.jpg"," ","","feedback_trial","0","","","","","","","","","","","","","","","","","","","","",""
"","","","","","image-keyboard-response","160","215865","0.0-135.0","5e8b89d0afcb1606e761ef7f","665500ab8938657b03fbdba8","665792db91f71cd7317b98de","1322","stimuli/2001101.jpg","0","","prediction_trial","2","","false","","2","false","false","false","true","false","false","[2]","001","101","0","","","","","","",""
"","","","","","image-keyboard-response","161","216025","0.0-136.0","5e8b89d0afcb1606e761ef7f","665500ab8938657b03fbdba8","665792db91f71cd7317b98de","160","stimuli/20011012.jpg"," ","","feedback_trial","2","","","","","","","","","","","","","","","","","","","","",""
"","","","","","image-keyboard-response","162","216825","0.0-137.0","5e8b89d0afcb1606e761ef7f","665500ab8938657b03fbdba8","665792db91f71cd7317b98de","800","stimuli/0011001.jpg","0","","prediction_trial","0","","true","","0","true","true","true","true","true","true","[0]","011","001","1","","","","","","",""
"","","","","","image-keyboard-response","163","216921","0.0-138.0","5e8b89d0afcb1606e761ef7f","665500ab8938657b03fbdba8","665792db91f71cd7317b98de","95","stimuli/00110010.jpg"," ","","feedback_trial","0","","","","","","","","","","","","","","","","","","","","",""
"","","","","","image-keyboard-response","164","217913","0.0-139.0","5e8b89d0afcb1606e761ef7f","665500ab8938657b03fbdba8","665792db91f71cd7317b98de","992","stimuli/2100011.jpg","2","","prediction_trial","2","","true","","2","false","false","true","true","false","false","[2]","100","011","1","","","","","","",""
"","","","","","image-keyboard-response","165","218121","0.0-140.0","5e8b89d0afcb1606e761ef7f","665500ab8938657b03fbdba8","665792db91f71cd7317b98de","207","stimuli/21000112.jpg"," ","","feedback_trial","2","","","","","","","","","","","","","","","","","","","","",""
"","","","","","image-keyboard-response","166","218793","0.0-141.0","5e8b89d0afcb1606e761ef7f","665500ab8938657b03fbdba8","665792db91f71cd7317b98de","672","stimuli/2010100.jpg","2","","prediction_trial","2","","true","","2","true","true","true","true","true","true","[2]","010","100","1","","","","","","",""
"","","","","","image-keyboard-response","167","218969","0.0-142.0","5e8b89d0afcb1606e761ef7f","665500ab8938657b03fbdba8","665792db91f71cd7317b98de","175","stimuli/20101002.jpg"," ","","feedback_trial","2","","","","","","","","","","","","","","","","","","","","",""
"","","","","","image-keyboard-response","168","220169","0.0-143.0","5e8b89d0afcb1606e761ef7f","665500ab8938657b03fbdba8","665792db91f71cd7317b98de","1200","stimuli/1000010.jpg","1","","prediction_trial","1","","true","","1","false","true","true","true","false","true","[1]","000","010","1","","","","","","",""
"","","","","","image-keyboard-response","169","220313","0.0-144.0","5e8b89d0afcb1606e761ef7f","665500ab8938657b03fbdba8","665792db91f71cd7317b98de","143","stimuli/10000101.jpg"," ","","feedback_trial","1","","","","","","","","","","","","","","","","","","","","",""
"","","","","","image-keyboard-response","170","221033","0.0-145.0","5e8b89d0afcb1606e761ef7f","665500ab8938657b03fbdba8","665792db91f71cd7317b98de","720","stimuli/0001001.jpg","0","","prediction_trial","0","","true","","0","true","true","true","true","true","true","[0]","001","001","1","","","","","","",""
"","","","","","image-keyboard-response","171","221161","0.0-146.0","5e8b89d0afcb1606e761ef7f","665500ab8938657b03fbdba8","665792db91f71cd7317b98de","127","stimuli/00010010.jpg"," ","","feedback_trial","0","","","","","","","","","","","","","","","","","","","","",""
"","","","","","image-keyboard-response","172","222185","0.0-147.0","5e8b89d0afcb1606e761ef7f","665500ab8938657b03fbdba8","665792db91f71cd7317b98de","1024","stimuli/1000111.jpg","1","","prediction_trial","1","","true","","1","false","false","true","true","false","false","[1]","000","111","1","","","","","","",""
"","","","","","image-keyboard-response","173","222441","0.0-148.0","5e8b89d0afcb1606e761ef7f","665500ab8938657b03fbdba8","665792db91f71cd7317b98de","256","stimuli/10001111.jpg"," ","","feedback_trial","1","","","","","","","","","","","","","","","","","","","","",""
"","","","","","image-keyboard-response","174","223097","0.0-149.0","5e8b89d0afcb1606e761ef7f","665500ab8938657b03fbdba8","665792db91f71cd7317b98de","656","stimuli/2110100.jpg","2","","prediction_trial","2","","true","","2","true","true","true","true","true","true","[2]","110","100","1","","","","","","",""
"","","","","","image-keyboard-response","175","223241","0.0-150.0","5e8b89d0afcb1606e761ef7f","665500ab8938657b03fbdba8","665792db91f71cd7317b98de","143","stimuli/21101002.jpg"," ","","feedback_trial","2","","","","","","","","","","","","","","","","","","","","",""
"","","","","","image-keyboard-response","176","224441","0.0-151.0","5e8b89d0afcb1606e761ef7f","665500ab8938657b03fbdba8","665792db91f71cd7317b98de","1200","stimuli/0100101.jpg","2","","prediction_trial","0","","false","","0","false","false","false","true","false","false","[0]","100","101","0","","","","","","",""
"","","","","","image-keyboard-response","177","224585","0.0-152.0","5e8b89d0afcb1606e761ef7f","665500ab8938657b03fbdba8","665792db91f71cd7317b98de","143","stimuli/01001010.jpg"," ","","feedback_trial","0","","","","","","","","","","","","","","","","","","","","",""
"","","","","","image-keyboard-response","178","225273","0.0-153.0","5e8b89d0afcb1606e761ef7f","665500ab8938657b03fbdba8","665792db91f71cd7317b98de","688","stimuli/0001010.jpg","0","","prediction_trial","0","","true","","0","true","true","true","true","true","true","[0]","001","010","1","","","","","","",""
"","","","","","image-keyboard-response","179","225353","0.0-154.0","5e8b89d0afcb1606e761ef7f","665500ab8938657b03fbdba8","665792db91f71cd7317b98de","79","stimuli/00010100.jpg"," ","","feedback_trial","0","","","","","","","","","","","","","","","","","","","","",""
"","","","","","image-keyboard-response","180","226313","0.0-155.0","5e8b89d0afcb1606e761ef7f","665500ab8938657b03fbdba8","665792db91f71cd7317b98de","960","stimuli/1010111.jpg","0","","prediction_trial","1","","false","","1","false","false","false","true","false","false","[1]","010","111","0","","","","","","",""
"","","","","","image-keyboard-response","181","226457","0.0-156.0","5e8b89d0afcb1606e761ef7f","665500ab8938657b03fbdba8","665792db91f71cd7317b98de","143","stimuli/10101111.jpg"," ","","feedback_trial","1","","","","","","","","","","","","","","","","","","","","",""
"","","","","","image-keyboard-response","182","228569","0.0-157.0","5e8b89d0afcb1606e761ef7f","665500ab8938657b03fbdba8","665792db91f71cd7317b98de","2112","stimuli/0111001.jpg","0","","prediction_trial","0","","true","","0","true","true","false","false","false","false","[2,1,0]","111","001","1","","","","","","",""
"","","","","","image-keyboard-response","183","228681","0.0-158.0","5e8b89d0afcb1606e761ef7f","665500ab8938657b03fbdba8","665792db91f71cd7317b98de","112","stimuli/01110010.jpg"," ","","feedback_trial","2","","","","","","","","","","","","","","","","","","","","",""
"","","","","","image-keyboard-response","184","229385","0.0-159.0","5e8b89d0afcb1606e761ef7f","665500ab8938657b03fbdba8","665792db91f71cd7317b98de","704","stimuli/2010010.jpg","2","","prediction_trial","2","","true","","2","true","true","true","true","true","true","[2]","010","010","1","","","","","","",""
"","","","","","image-keyboard-response","185","229529","0.0-160.0","5e8b89d0afcb1606e761ef7f","665500ab8938657b03fbdba8","665792db91f71cd7317b98de","144","stimuli/20100102.jpg"," ","","feedback_trial","2","","","","","","","","","","","","","","","","","","","","",""
"","","","","","image-keyboard-response","186","230345","0.0-161.0","5e8b89d0afcb1606e761ef7f","665500ab8938657b03fbdba8","665792db91f71cd7317b98de","815","stimuli/0001011.jpg","0","","prediction_trial","0","","true","","0","true","true","true","true","true","true","[0]","001","011","1","","","","","","",""
"","","","","","image-keyboard-response","187","230505","0.0-162.0","5e8b89d0afcb1606e761ef7f","665500ab8938657b03fbdba8","665792db91f71cd7317b98de","159","stimuli/00010110.jpg"," ","","feedback_trial","0","","","","","","","","","","","","","","","","","","","","",""
"","","","","","image-keyboard-response","188","231705","0.0-163.0","5e8b89d0afcb1606e761ef7f","665500ab8938657b03fbdba8","665792db91f71cd7317b98de","1200","stimuli/2111110.jpg","2","","prediction_trial","0","","false","","2","true","true","false","false","false","false","[1,2,0]","111","110","0","","","","","","",""
"","","","","","image-keyboard-response","189","231913","0.0-164.0","5e8b89d0afcb1606e761ef7f","665500ab8938657b03fbdba8","665792db91f71cd7317b98de","207","stimuli/21111100.jpg"," ","","feedback_trial","1","","","","","","","","","","","","","","","","","","","","",""
"","","","","","image-keyboard-response","190","233209","0.0-165.0","5e8b89d0afcb1606e761ef7f","665500ab8938657b03fbdba8","665792db91f71cd7317b98de","1291","stimuli/0011101.jpg","0","","prediction_trial","0","","true","","0","false","false","true","true","false","false","[0]","011","101","1","","","","","","",""
"","","","","","image-keyboard-response","191","233401","0.0-166.0","5e8b89d0afcb1606e761ef7f","665500ab8938657b03fbdba8","665792db91f71cd7317b98de","192","stimuli/00111010.jpg"," ","","feedback_trial","0","","","","","","","","","","","","","","","","","","","","",""
"","","","","","image-keyboard-response","192","234073","0.0-167.0","5e8b89d0afcb1606e761ef7f","665500ab8938657b03fbdba8","665792db91f71cd7317b98de","671","stimuli/0000001.jpg","0","","prediction_trial","0","","true","","0","true","true","true","true","true","true","[0]","000","001","1","","","","","","",""
"","","","","","image-keyboard-response","193","234313","0.0-168.0","5e8b89d0afcb1606e761ef7f","665500ab8938657b03fbdba8","665792db91f71cd7317b98de","239","stimuli/00000010.jpg"," ","","feedback_trial","0","","","","","","","","","","","","","","","","","","","","",""
"","","","","","image-keyboard-response","194","236073","0.0-169.0","5e8b89d0afcb1606e761ef7f","665500ab8938657b03fbdba8","665792db91f71cd7317b98de","1759","stimuli/0100001.jpg","0","","prediction_trial","0","","true","","0","true","true","false","true","false","true","[0]","100","001","1","","","","","","",""
"","","","","","image-keyboard-response","195","236281","0.0-170.0","5e8b89d0afcb1606e761ef7f","665500ab8938657b03fbdba8","665792db91f71cd7317b98de","208","stimuli/01000010.jpg"," ","","feedback_trial","0","","","","","","","","","","","","","","","","","","","","",""
"","","","","","image-keyboard-response","196","237673","0.0-171.0","5e8b89d0afcb1606e761ef7f","665500ab8938657b03fbdba8","665792db91f71cd7317b98de","1392","stimuli/1011100.jpg","1","","prediction_trial","1","","true","","1","true","true","false","false","false","false","[1,2]","011","100","1","","","","","","",""
"","","","","","image-keyboard-response","197","237929","0.0-172.0","5e8b89d0afcb1606e761ef7f","665500ab8938657b03fbdba8","665792db91f71cd7317b98de","256","stimuli/10111001.jpg"," ","","feedback_trial","1","","","","","","","","","","","","","","","","","","","","",""
"","","","","","image-keyboard-response","198","238809","0.0-173.0","5e8b89d0afcb1606e761ef7f","665500ab8938657b03fbdba8","665792db91f71cd7317b98de","880","stimuli/1111111.jpg","1","","prediction_trial","1","","true","","1","false","false","false","false","false","false","[0,2,1]","111","111","1","","","","","","",""
"","","","","","image-keyboard-response","199","239049","0.0-174.0","5e8b89d0afcb1606e761ef7f","665500ab8938657b03fbdba8","665792db91f71cd7317b98de","240","stimuli/11111111.jpg"," ","","feedback_trial","0","","","","","","","","","","","","","","","","","","","","",""
"","","","","","image-keyboard-response","200","240521","0.0-175.0","5e8b89d0afcb1606e761ef7f","665500ab8938657b03fbdba8","665792db91f71cd7317b98de","1472","stimuli/1101010.jpg","1","","prediction_trial","1","","true","","1","false","true","true","true","false","true","[1]","101","010","1","","","","","","",""
"","","","","","image-keyboard-response","201","240777","0.0-176.0","5e8b89d0afcb1606e761ef7f","665500ab8938657b03fbdba8","665792db91f71cd7317b98de","255","stimuli/11010101.jpg"," ","","feedback_trial","1","","","","","","","","","","","","","","","","","","","","",""
"","","","","","image-keyboard-response","202","241753","0.0-177.0","5e8b89d0afcb1606e761ef7f","665500ab8938657b03fbdba8","665792db91f71cd7317b98de","976","stimuli/1011110.jpg","0","","prediction_trial","2","","false","","1","false","false","false","false","false","false","[1,2]","011","110","0","","","","","","",""
"","","","","","image-keyboard-response","203","241945","0.0-178.0","5e8b89d0afcb1606e761ef7f","665500ab8938657b03fbdba8","665792db91f71cd7317b98de","191","stimuli/10111102.jpg"," ","","feedback_trial","1","","","","","","","","","","","","","","","","","","","","",""
"","","","","","image-keyboard-response","204","242713","0.0-179.0","5e8b89d0afcb1606e761ef7f","665500ab8938657b03fbdba8","665792db91f71cd7317b98de","768","stimuli/2001010.jpg","2","","prediction_trial","2","","true","","2","true","true","false","true","false","true","[2]","001","010","1","","","","","","",""
"","","","","","image-keyboard-response","205","242889","0.0-180.0","5e8b89d0afcb1606e761ef7f","665500ab8938657b03fbdba8","665792db91f71cd7317b98de","176","stimuli/20010102.jpg"," ","","feedback_trial","2","","","","","","","","","","","","","","","","","","","","",""
"","","","","","image-keyboard-response","206","244745","0.0-181.0","5e8b89d0afcb1606e761ef7f","665500ab8938657b03fbdba8","665792db91f71cd7317b98de","1856","stimuli/2011100.jpg","2","","prediction_trial","1","","false","","2","true","true","false","false","false","false","[2,1]","011","100","0","","","","","","",""
"","","","","","image-keyboard-response","207","244889","0.0-182.0","5e8b89d0afcb1606e761ef7f","665500ab8938657b03fbdba8","665792db91f71cd7317b98de","143","stimuli/20111001.jpg"," ","","feedback_trial","2","","","","","","","","","","","","","","","","","","","","",""
"","","","","","image-keyboard-response","208","245833","0.0-183.0","5e8b89d0afcb1606e761ef7f","665500ab8938657b03fbdba8","665792db91f71cd7317b98de","943","stimuli/2001001.jpg","2","","prediction_trial","2","","true","","2","false","true","false","true","false","true","[2]","001","001","1","","","","","","",""
"","","","","","image-keyboard-response","209","245993","0.0-184.0","5e8b89d0afcb1606e761ef7f","665500ab8938657b03fbdba8","665792db91f71cd7317b98de","159","stimuli/20010012.jpg"," ","","feedback_trial","2","","","","","","","","","","","","","","","","","","","","",""
"","","","","","image-keyboard-response","210","247337","0.0-185.0","5e8b89d0afcb1606e761ef7f","665500ab8938657b03fbdba8","665792db91f71cd7317b98de","1344","stimuli/0101110.jpg","1","","prediction_trial","2","","false","","0","false","false","false","false","false","false","[0,2]","101","110","0","","","","","","",""
"","","","","","image-keyboard-response","211","247721","0.0-186.0","5e8b89d0afcb1606e761ef7f","665500ab8938657b03fbdba8","665792db91f71cd7317b98de","384","stimuli/01011102.jpg"," ","","feedback_trial","0","","","","","","","","","","","","","","","","","","","","",""
"","","","","","image-keyboard-response","212","248745","0.0-187.0","5e8b89d0afcb1606e761ef7f","665500ab8938657b03fbdba8","665792db91f71cd7317b98de","1023","stimuli/2000111.jpg","1","","prediction_trial","2","","false","","2","false","false","true","true","false","false","[2]","000","111","0","","","","","","",""
"","","","","","image-keyboard-response","213","249081","0.0-188.0","5e8b89d0afcb1606e761ef7f","665500ab8938657b03fbdba8","665792db91f71cd7317b98de","335","stimuli/20001112.jpg"," ","","feedback_trial","2","","","","","","","","","","","","","","","","","","","","",""
"","","","","","image-keyboard-response","214","250489","0.0-189.0","5e8b89d0afcb1606e761ef7f","665500ab8938657b03fbdba8","665792db91f71cd7317b98de","1407","stimuli/0111011.jpg","0","","prediction_trial","0","","true","","0","true","true","false","false","false","false","[0,1,2]","111","011","1","","","","","","",""
"","","","","","image-keyboard-response","215","250713","0.0-190.0","5e8b89d0afcb1606e761ef7f","665500ab8938657b03fbdba8","665792db91f71cd7317b98de","224","stimuli/01110110.jpg"," ","","feedback_trial","0","","","","","","","","","","","","","","","","","","","","",""
"","","","","","image-keyboard-response","216","251481","0.0-191.0","5e8b89d0afcb1606e761ef7f","665500ab8938657b03fbdba8","665792db91f71cd7317b98de","768","stimuli/2010001.jpg","2","","prediction_trial","2","","true","","2","false","true","true","true","false","true","[2]","010","001","1","","","","","","",""
"","","","","","image-keyboard-response","217","251769","0.0-192.0","5e8b89d0afcb1606e761ef7f","665500ab8938657b03fbdba8","665792db91f71cd7317b98de","288","stimuli/20100012.jpg"," ","","feedback_trial","2","","","","","","","","","","","","","","","","","","","","",""
"","","","","","image-keyboard-response","218","253209","0.0-193.0","5e8b89d0afcb1606e761ef7f","665500ab8938657b03fbdba8","665792db91f71cd7317b98de","1439","stimuli/0111010.jpg","0","","prediction_trial","1","","false","","0","true","true","false","false","false","false","[1,0,2]","111","010","0","","","","","","",""
"","","","","","image-keyboard-response","219","253433","0.0-194.0","5e8b89d0afcb1606e761ef7f","665500ab8938657b03fbdba8","665792db91f71cd7317b98de","224","stimuli/01110101.jpg"," ","","feedback_trial","1","","","","","","","","","","","","","","","","","","","","",""
"","","","","","image-keyboard-response","220","254121","0.0-195.0","5e8b89d0afcb1606e761ef7f","665500ab8938657b03fbdba8","665792db91f71cd7317b98de","682","stimuli/1111100.jpg","1","","prediction_trial","2","","false","","1","true","true","false","false","false","false","[1,0,2]","111","100","0","","","","","","",""
"","","","","","image-keyboard-response","221","254297","0.0-196.0","5e8b89d0afcb1606e761ef7f","665500ab8938657b03fbdba8","665792db91f71cd7317b98de","175","stimuli/11111002.jpg"," ","","feedback_trial","1","","","","","","","","","","","","","","","","","","","","",""
"","","","","","image-keyboard-response","222","255945","0.0-197.0","5e8b89d0afcb1606e761ef7f","665500ab8938657b03fbdba8","665792db91f71cd7317b98de","1647","stimuli/1100010.jpg","1","","prediction_trial","1","","true","","1","false","true","true","true","false","true","[1]","100","010","1","","","","","","",""
"","","","","","image-keyboard-response","223","256105","0.0-198.0","5e8b89d0afcb1606e761ef7f","665500ab8938657b03fbdba8","665792db91f71cd7317b98de","159","stimuli/11000101.jpg"," ","","feedback_trial","1","","","","","","","","","","","","","","","","","","","","",""
"","","","","","image-keyboard-response","224","257609","0.0-199.0","5e8b89d0afcb1606e761ef7f","665500ab8938657b03fbdba8","665792db91f71cd7317b98de","1504","stimuli/2001100.jpg","2","","prediction_trial","2","","true","","2","true","true","false","true","false","true","[2]","001","100","1","","","","","","",""
"","","","","","image-keyboard-response","225","257689","0.0-200.0","5e8b89d0afcb1606e761ef7f","665500ab8938657b03fbdba8","665792db91f71cd7317b98de","79","stimuli/20011002.jpg"," ","","feedback_trial","2","","","","","","","","","","","","","","","","","","","","",""
"","","","","","image-keyboard-response","226","258745","0.0-201.0","5e8b89d0afcb1606e761ef7f","665500ab8938657b03fbdba8","665792db91f71cd7317b98de","1056","stimuli/1110010.jpg","1","","prediction_trial","0","","false","","1","false","true","false","false","false","false","[1,0]","110","010","0","","","","","","",""
"","","","","","image-keyboard-response","227","258921","0.0-202.0","5e8b89d0afcb1606e761ef7f","665500ab8938657b03fbdba8","665792db91f71cd7317b98de","176","stimuli/11100100.jpg"," ","","feedback_trial","1","","","","","","","","","","","","","","","","","","","","",""
"","","","","","image-keyboard-response","228","259657","0.0-203.0","5e8b89d0afcb1606e761ef7f","665500ab8938657b03fbdba8","665792db91f71cd7317b98de","735","stimuli/0000100.jpg","0","","prediction_trial","0","","true","","0","false","true","true","true","false","true","[0]","000","100","1","","","","","","",""
"","","","","","image-keyboard-response","229","259785","0.0-204.0","5e8b89d0afcb1606e761ef7f","665500ab8938657b03fbdba8","665792db91f71cd7317b98de","128","stimuli/00001000.jpg"," ","","feedback_trial","0","","","","","","","","","","","","","","","","","","","","",""
"","","","","","image-keyboard-response","230","260537","0.0-205.0","5e8b89d0afcb1606e761ef7f","665500ab8938657b03fbdba8","665792db91f71cd7317b98de","752","stimuli/1000100.jpg","1","","prediction_trial","1","","true","","1","true","true","true","true","true","true","[1]","000","100","1","","","","","","",""
"","","","","","image-keyboard-response","231","260729","0.0-206.0","5e8b89d0afcb1606e761ef7f","665500ab8938657b03fbdba8","665792db91f71cd7317b98de","191","stimuli/10001001.jpg"," ","","feedback_trial","1","","","","","","","","","","","","","","","","","","","","",""
"","","","","","image-keyboard-response","232","261689","0.0-207.0","5e8b89d0afcb1606e761ef7f","665500ab8938657b03fbdba8","665792db91f71cd7317b98de","960","stimuli/1111011.jpg","1","","prediction_trial","0","","false","","1","false","false","false","false","false","false","[2,0,1]","111","011","0","","","","","","",""
"","","","","","image-keyboard-response","233","261913","0.0-208.0","5e8b89d0afcb1606e761ef7f","665500ab8938657b03fbdba8","665792db91f71cd7317b98de","224","stimuli/11110110.jpg"," ","","feedback_trial","2","","","","","","","","","","","","","","","","","","","","",""
"","","","","","image-keyboard-response","234","263561","0.0-209.0","5e8b89d0afcb1606e761ef7f","665500ab8938657b03fbdba8","665792db91f71cd7317b98de","1647","stimuli/1110111.jpg","2","","prediction_trial","1","","false","","1","false","false","false","false","false","false","[0,1]","110","111","0","","","","","","",""
"","","","","","image-keyboard-response","235","263849","0.0-210.0","5e8b89d0afcb1606e761ef7f","665500ab8938657b03fbdba8","665792db91f71cd7317b98de","288","stimuli/11101111.jpg"," ","","feedback_trial","0","","","","","","","","","","","","","","","","","","","","",""
"","","","","","image-keyboard-response","236","264665","0.0-211.0","5e8b89d0afcb1606e761ef7f","665500ab8938657b03fbdba8","665792db91f71cd7317b98de","815","stimuli/1101110.jpg","1","","prediction_trial","1","","true","","1","false","false","true","true","false","false","[1]","101","110","1","","","","","","",""
"","","","","","image-keyboard-response","237","264841","0.0-212.0","5e8b89d0afcb1606e761ef7f","665500ab8938657b03fbdba8","665792db91f71cd7317b98de","175","stimuli/11011101.jpg"," ","","feedback_trial","1","","","","","","","","","","","","","","","","","","","","",""
"","","","","","image-keyboard-response","238","265577","0.0-213.0","5e8b89d0afcb1606e761ef7f","665500ab8938657b03fbdba8","665792db91f71cd7317b98de","736","stimuli/2100010.jpg","2","","prediction_trial","2","","true","","2","true","true","true","true","true","true","[2]","100","010","1","","","","","","",""
"","","","","","image-keyboard-response","239","265849","0.0-214.0","5e8b89d0afcb1606e761ef7f","665500ab8938657b03fbdba8","665792db91f71cd7317b98de","271","stimuli/21000102.jpg"," ","","feedback_trial","2","","","","","","","","","","","","","","","","","","","","",""
"","","","","","image-keyboard-response","240","267081","0.0-215.0","5e8b89d0afcb1606e761ef7f","665500ab8938657b03fbdba8","665792db91f71cd7317b98de","1232","stimuli/1010010.jpg","1","","prediction_trial","1","","true","","1","false","true","false","true","false","true","[1]","010","010","1","","","","","","",""
"","","","","","image-keyboard-response","241","267273","0.0-216.0","5e8b89d0afcb1606e761ef7f","665500ab8938657b03fbdba8","665792db91f71cd7317b98de","191","stimuli/10100101.jpg"," ","","feedback_trial","1","","","","","","","","","","","","","","","","","","","","",""
"","","","","","image-keyboard-response","242","268425","0.0-217.0","5e8b89d0afcb1606e761ef7f","665500ab8938657b03fbdba8","665792db91f71cd7317b98de","1152","stimuli/2001000.jpg","2","","prediction_trial","2","","true","","2","true","true","false","true","false","true","[2]","001","000","1","","","","","","",""
"","","","","","image-keyboard-response","243","268537","0.0-218.0","5e8b89d0afcb1606e761ef7f","665500ab8938657b03fbdba8","665792db91f71cd7317b98de","112","stimuli/20010002.jpg"," ","","feedback_trial","2","","","","","","","","","","","","","","","","","","","","",""
"","","","","","image-keyboard-response","244","269273","0.0-219.0","5e8b89d0afcb1606e761ef7f","665500ab8938657b03fbdba8","665792db91f71cd7317b98de","735","stimuli/0100111.jpg","1","","prediction_trial","0","","false","","0","false","false","false","true","false","false","[0]","100","111","0","","","","","","",""
"","","","","","image-keyboard-response","245","269481","0.0-220.0","5e8b89d0afcb1606e761ef7f","665500ab8938657b03fbdba8","665792db91f71cd7317b98de","208","stimuli/01001110.jpg"," ","","feedback_trial","0","","","","","","","","","","","","","","","","","","","","",""
"","","","","","image-keyboard-response","246","270473","0.0-221.0","5e8b89d0afcb1606e761ef7f","665500ab8938657b03fbdba8","665792db91f71cd7317b98de","992","stimuli/0111000.jpg","0","","prediction_trial","0","","true","","0","true","true","false","false","false","false","[1,2,0]","111","000","1","","","","","","",""
"","","","","","image-keyboard-response","247","270649","0.0-222.0","5e8b89d0afcb1606e761ef7f","665500ab8938657b03fbdba8","665792db91f71cd7317b98de","176","stimuli/01110000.jpg"," ","","feedback_trial","1","","","","","","","","","","","","","","","","","","","","",""
"","","","","","image-keyboard-response","248","272505","0.0-223.0","5e8b89d0afcb1606e761ef7f","665500ab8938657b03fbdba8","665792db91f71cd7317b98de","1855","stimuli/1110011.jpg","2","","prediction_trial","1","","false","","1","false","false","false","false","false","false","[0,1]","110","011","0","","","","","","",""
"","","","","","image-keyboard-response","249","272809","0.0-224.0","5e8b89d0afcb1606e761ef7f","665500ab8938657b03fbdba8","665792db91f71cd7317b98de","303","stimuli/11100111.jpg"," ","","feedback_trial","0","","","","","","","","","","","","","","","","","","","","",""
"","","","","","image-keyboard-response","250","273497","0.0-225.0","5e8b89d0afcb1606e761ef7f","665500ab8938657b03fbdba8","665792db91f71cd7317b98de","687","stimuli/2110000.jpg","2","","prediction_trial","2","","true","","2","true","true","true","true","true","true","[2]","110","000","1","","","","","","",""
"","","","","","image-keyboard-response","251","273657","0.0-226.0","5e8b89d0afcb1606e761ef7f","665500ab8938657b03fbdba8","665792db91f71cd7317b98de","159","stimuli/21100002.jpg"," ","","feedback_trial","2","","","","","","","","","","","","","","","","","","","","",""
"","","","","","image-keyboard-response","252","274425","0.0-227.0","5e8b89d0afcb1606e761ef7f","665500ab8938657b03fbdba8","665792db91f71cd7317b98de","768","stimuli/0000011.jpg","0","","prediction_trial","0","","true","","0","true","true","true","true","true","true","[0]","000","011","1","","","","","","",""
"","","","","","image-keyboard-response","253","274921","0.0-228.0","5e8b89d0afcb1606e761ef7f","665500ab8938657b03fbdba8","665792db91f71cd7317b98de","496","stimuli/00000110.jpg"," ","","feedback_trial","0","","","","","","","","","","","","","","","","","","","","",""
"","","","","","image-keyboard-response","254","275833","0.0-229.0","5e8b89d0afcb1606e761ef7f","665500ab8938657b03fbdba8","665792db91f71cd7317b98de","912","stimuli/0110110.jpg","1","","prediction_trial","1","","true","","0","false","false","false","false","false","false","[0,1]","110","110","1","","","","","","",""
"","","","","","image-keyboard-response","255","276057","0.0-230.0","5e8b89d0afcb1606e761ef7f","665500ab8938657b03fbdba8","665792db91f71cd7317b98de","223","stimuli/01101101.jpg"," ","","feedback_trial","0","","","","","","","","","","","","","","","","","","","","",""
"","","","","","image-keyboard-response","256","276649","0.0-231.0","5e8b89d0afcb1606e761ef7f","665500ab8938657b03fbdba8","665792db91f71cd7317b98de","592","stimuli/1000001.jpg","1","","prediction_trial","1","","true","","1","true","true","true","true","true","true","[1]","000","001","1","","","","","","",""
"","","","","","image-keyboard-response","257","276825","0.0-232.0","5e8b89d0afcb1606e761ef7f","665500ab8938657b03fbdba8","665792db91f71cd7317b98de","176","stimuli/10000011.jpg"," ","","feedback_trial","1","","","","","","","","","","","","","","","","","","","","",""
"","","","","","image-keyboard-response","258","277577","0.0-233.0","5e8b89d0afcb1606e761ef7f","665500ab8938657b03fbdba8","665792db91f71cd7317b98de","752","stimuli/0001110.jpg","1","","prediction_trial","0","","false","","0","false","false","true","true","false","false","[0]","001","110","0","","","","","","",""
"","","","","","image-keyboard-response","259","277785","0.0-234.0","5e8b89d0afcb1606e761ef7f","665500ab8938657b03fbdba8","665792db91f71cd7317b98de","207","stimuli/00011100.jpg"," ","","feedback_trial","0","","","","","","","","","","","","","","","","","","","","",""
"","","","","","image-keyboard-response","260","278601","0.0-235.0","5e8b89d0afcb1606e761ef7f","665500ab8938657b03fbdba8","665792db91f71cd7317b98de","816","stimuli/0100110.jpg","1","","prediction_trial","0","","false","","0","false","false","false","true","false","false","[0]","100","110","0","","","","","","",""
"","","","","","image-keyboard-response","261","278761","0.0-236.0","5e8b89d0afcb1606e761ef7f","665500ab8938657b03fbdba8","665792db91f71cd7317b98de","160","stimuli/01001100.jpg"," ","","feedback_trial","0","","","","","","","","","","","","","","","","","","","","",""
"","","","","","image-keyboard-response","262","279897","0.0-237.0","5e8b89d0afcb1606e761ef7f","665500ab8938657b03fbdba8","665792db91f71cd7317b98de","1136","stimuli/2100001.jpg","2","","prediction_trial","2","","true","","2","false","true","true","true","false","true","[2]","100","001","1","","","","","","",""
"","","","","","image-keyboard-response","263","280057","0.0-238.0","5e8b89d0afcb1606e761ef7f","665500ab8938657b03fbdba8","665792db91f71cd7317b98de","159","stimuli/21000012.jpg"," ","","feedback_trial","2","","","","","","","","","","","","","","","","","","","","",""
"","","","","","image-keyboard-response","264","281465","0.0-239.0","5e8b89d0afcb1606e761ef7f","665500ab8938657b03fbdba8","665792db91f71cd7317b98de","1408","stimuli/2101110.jpg","2","","prediction_trial","0","","false","","2","true","true","false","false","false","false","[0,2]","101","110","0","","","","","","",""
"","","","","","image-keyboard-response","265","281577","0.0-240.0","5e8b89d0afcb1606e761ef7f","665500ab8938657b03fbdba8","665792db91f71cd7317b98de","112","stimuli/21011100.jpg"," ","","feedback_trial","0","","","","","","","","","","","","","","","","","","","","",""
"","","","","","image-keyboard-response","266","282409","0.0-241.0","5e8b89d0afcb1606e761ef7f","665500ab8938657b03fbdba8","665792db91f71cd7317b98de","832","stimuli/2000110.jpg","2","","prediction_trial","2","","true","","2","true","true","true","true","true","true","[2]","000","110","1","","","","","","",""
"","","","","","image-keyboard-response","267","282553","0.0-242.0","5e8b89d0afcb1606e761ef7f","665500ab8938657b03fbdba8","665792db91f71cd7317b98de","144","stimuli/20001102.jpg"," ","","feedback_trial","2","","","","","","","","","","","","","","","","","","","","",""
"","","","","","image-keyboard-response","268","283865","0.0-243.0","5e8b89d0afcb1606e761ef7f","665500ab8938657b03fbdba8","665792db91f71cd7317b98de","1311","stimuli/1111010.jpg","1","","prediction_trial","1","","true","","1","false","true","false","false","false","false","[0,2,1]","111","010","1","","","","","","",""
"","","","","","image-keyboard-response","269","284121","0.0-244.0","5e8b89d0afcb1606e761ef7f","665500ab8938657b03fbdba8","665792db91f71cd7317b98de","256","stimuli/11110101.jpg"," ","","feedback_trial","0","","","","","","","","","","","","","","","","","","","","",""
"","","","","","image-keyboard-response","270","285481","0.0-245.0","5e8b89d0afcb1606e761ef7f","665500ab8938657b03fbdba8","665792db91f71cd7317b98de","1360","stimuli/1001111.jpg","1","","prediction_trial","1","","true","","1","false","false","true","true","false","false","[1]","001","111","1","","","","","","",""
"","","","","","image-keyboard-response","271","285641","0.0-246.0","5e8b89d0afcb1606e761ef7f","665500ab8938657b03fbdba8","665792db91f71cd7317b98de","160","stimuli/10011111.jpg"," ","","feedback_trial","1","","","","","","","","","","","","","","","","","","","","",""
"","","","","","image-keyboard-response","272","287785","0.0-247.0","5e8b89d0afcb1606e761ef7f","665500ab8938657b03fbdba8","665792db91f71cd7317b98de","2144","stimuli/0110010.jpg","1","","prediction_trial","0","","false","","0","true","true","false","false","false","false","[1,0]","110","010","0","","","","","","",""
"","","","","","image-keyboard-response","273","287929","0.0-248.0","5e8b89d0afcb1606e761ef7f","665500ab8938657b03fbdba8","665792db91f71cd7317b98de","143","stimuli/01100100.jpg"," ","","feedback_trial","1","","","","","","","","","","","","","","","","","","","","",""
"","","","","","image-keyboard-response","274","288889","0.0-249.0","5e8b89d0afcb1606e761ef7f","665500ab8938657b03fbdba8","665792db91f71cd7317b98de","960","stimuli/2000001.jpg","2","","prediction_trial","2","","true","","2","false","true","true","true","false","true","[2]","000","001","1","","","","","","",""
"","","","","","image-keyboard-response","275","289033","0.0-250.0","5e8b89d0afcb1606e761ef7f","665500ab8938657b03fbdba8","665792db91f71cd7317b98de","144","stimuli/20000012.jpg"," ","","feedback_trial","2","","","","","","","","","","","","","","","","","","","","",""
"","","","","","image-keyboard-response","276","289929","0.0-251.0","5e8b89d0afcb1606e761ef7f","665500ab8938657b03fbdba8","665792db91f71cd7317b98de","896","stimuli/0000111.jpg","1","","prediction_trial","0","","false","","0","false","false","true","true","false","false","[0]","000","111","0","","","","","","",""
"","","","","","image-keyboard-response","277","290105","0.0-252.0","5e8b89d0afcb1606e761ef7f","665500ab8938657b03fbdba8","665792db91f71cd7317b98de","175","stimuli/00001110.jpg"," ","","feedback_trial","0","","","","","","","","","","","","","","","","","","","","",""
"","","","","","image-keyboard-response","278","291065","0.0-253.0","5e8b89d0afcb1606e761ef7f","665500ab8938657b03fbdba8","665792db91f71cd7317b98de","960","stimuli/0110111.jpg","2","","prediction_trial","1","","false","","0","false","false","false","false","false","false","[1,0]","110","111","0","","","","","","",""
"","","","","","image-keyboard-response","279","291353","0.0-254.0","5e8b89d0afcb1606e761ef7f","665500ab8938657b03fbdba8","665792db91f71cd7317b98de","287","stimuli/01101111.jpg"," ","","feedback_trial","1","","","","","","","","","","","","","","","","","","","","",""
"","","","","","image-keyboard-response","280","293577","0.0-255.0","5e8b89d0afcb1606e761ef7f","665500ab8938657b03fbdba8","665792db91f71cd7317b98de","2218","stimuli/0110100.jpg","0","","prediction_trial","0","","true","","0","false","true","false","false","false","false","[1,0]","110","100","1","","","","","","",""
"","","","","","image-keyboard-response","281","293705","0.0-256.0","5e8b89d0afcb1606e761ef7f","665500ab8938657b03fbdba8","665792db91f71cd7317b98de","127","stimuli/01101000.jpg"," ","","feedback_trial","1","","","","","","","","","","","","","","","","","","","","",""
"","","","","","image-keyboard-response","282","294425","0.0-257.0","5e8b89d0afcb1606e761ef7f","665500ab8938657b03fbdba8","665792db91f71cd7317b98de","720","stimuli/0011000.jpg","0","","prediction_trial","0","","true","","0","true","true","true","true","true","true","[0]","011","000","1","","","","","","",""
"","","","","","image-keyboard-response","283","294569","0.0-258.0","5e8b89d0afcb1606e761ef7f","665500ab8938657b03fbdba8","665792db91f71cd7317b98de","144","stimuli/00110000.jpg"," ","","feedback_trial","0","","","","","","","","","","","","","","","","","","","","",""
"","","","","","image-keyboard-response","284","295209","0.0-259.0","5e8b89d0afcb1606e761ef7f","665500ab8938657b03fbdba8","665792db91f71cd7317b98de","640","stimuli/1101000.jpg","1","","prediction_trial","1","","true","","1","true","true","true","true","true","true","[1]","101","000","1","","","","","","",""
"","","","","","image-keyboard-response","285","295385","0.0-260.0","5e8b89d0afcb1606e761ef7f","665500ab8938657b03fbdba8","665792db91f71cd7317b98de","176","stimuli/11010001.jpg"," ","","feedback_trial","1","","","","","","","","","","","","","","","","","","","","",""
"","","","","","image-keyboard-response","286","296473","0.0-261.0","5e8b89d0afcb1606e761ef7f","665500ab8938657b03fbdba8","665792db91f71cd7317b98de","1087","stimuli/1111001.jpg","1","","prediction_trial","2","","false","","1","true","true","false","false","false","false","[1,0,2]","111","001","0","","","","","","",""
"","","","","","image-keyboard-response","287","296617","0.0-262.0","5e8b89d0afcb1606e761ef7f","665500ab8938657b03fbdba8","665792db91f71cd7317b98de","144","stimuli/11110012.jpg"," ","","feedback_trial","1","","","","","","","","","","","","","","","","","","","","",""
"","","","","","image-keyboard-response","288","297433","0.0-263.0","5e8b89d0afcb1606e761ef7f","665500ab8938657b03fbdba8","665792db91f71cd7317b98de","815","stimuli/0000010.jpg","0","","prediction_trial","0","","true","","0","true","true","true","true","true","true","[0]","000","010","1","","","","","","",""
"","","","","","image-keyboard-response","289","297577","0.0-264.0","5e8b89d0afcb1606e761ef7f","665500ab8938657b03fbdba8","665792db91f71cd7317b98de","143","stimuli/00000100.jpg"," ","","feedback_trial","0","","","","","","","","","","","","","","","","","","","","",""
"","","","","","image-keyboard-response","290","298313","0.0-265.0","5e8b89d0afcb1606e761ef7f","665500ab8938657b03fbdba8","665792db91f71cd7317b98de","736","stimuli/1101111.jpg","1","","prediction_trial","1","","true","","1","false","false","true","true","false","false","[1]","101","111","1","","","","","","",""
"","","","","","image-keyboard-response","291","298505","0.0-266.0","5e8b89d0afcb1606e761ef7f","665500ab8938657b03fbdba8","665792db91f71cd7317b98de","191","stimuli/11011111.jpg"," ","","feedback_trial","1","","","","","","","","","","","","","","","","","","","","",""
"","","","","","image-keyboard-response","292","299737","0.0-267.0","5e8b89d0afcb1606e761ef7f","665500ab8938657b03fbdba8","665792db91f71cd7317b98de","1232","stimuli/1110100.jpg","1","","prediction_trial","1","","true","","1","true","true","false","false","false","false","[1,0]","110","100","1","","","","","","",""
"","","","","","image-keyboard-response","293","299913","0.0-268.0","5e8b89d0afcb1606e761ef7f","665500ab8938657b03fbdba8","665792db91f71cd7317b98de","175","stimuli/11101001.jpg"," ","","feedback_trial","1","","","","","","","","","","","","","","","","","","","","",""
"","","","","","image-keyboard-response","294","300857","0.0-269.0","5e8b89d0afcb1606e761ef7f","665500ab8938657b03fbdba8","665792db91f71cd7317b98de","944","stimuli/1011001.jpg","1","","prediction_trial","2","","false","","1","true","true","false","false","false","false","[2,1]","011","001","0","","","","","","",""
"","","","","","image-keyboard-response","295","301913","0.0-270.0","5e8b89d0afcb1606e761ef7f","665500ab8938657b03fbdba8","665792db91f71cd7317b98de","1056","stimuli/10110012.jpg"," ","","feedback_trial","2","","","","","","","","","","","","","","","","","","","","",""
"","","","","","image-keyboard-response","296","302761","0.0-271.0","5e8b89d0afcb1606e761ef7f","665500ab8938657b03fbdba8","665792db91f71cd7317b98de","848","stimuli/1111000.jpg","1","","prediction_trial","2","","false","","1","true","true","false","false","false","false","[0,2,1]","111","000","0","","","","","","",""
"","","","","","image-keyboard-response","297","302969","0.0-272.0","5e8b89d0afcb1606e761ef7f","665500ab8938657b03fbdba8","665792db91f71cd7317b98de","207","stimuli/11110002.jpg"," ","","feedback_trial","0","","","","","","","","","","","","","","","","","","","","",""
"","","","","","image-keyboard-response","298","304489","0.0-273.0","5e8b89d0afcb1606e761ef7f","665500ab8938657b03fbdba8","665792db91f71cd7317b98de","1520","stimuli/2111010.jpg","1","","prediction_trial","0","","false","","2","true","true","false","false","false","false","[2,1,0]","111","010","0","","","","","","",""
"","","","","","image-keyboard-response","299","305033","0.0-274.0","5e8b89d0afcb1606e761ef7f","665500ab8938657b03fbdba8","665792db91f71cd7317b98de","543","stimuli/21110100.jpg"," ","","feedback_trial","2","","","","","","","","","","","","","","","","","","","","",""
"","","","","","image-keyboard-response","300","305785","0.0-275.0","5e8b89d0afcb1606e761ef7f","665500ab8938657b03fbdba8","665792db91f71cd7317b98de","752","stimuli/2000100.jpg","2","","prediction_trial","2","","true","","2","true","true","true","true","true","true","[2]","000","100","1","","","","","","",""
"","","","","","image-keyboard-response","301","306281","0.0-276.0","5e8b89d0afcb1606e761ef7f","665500ab8938657b03fbdba8","665792db91f71cd7317b98de","496","stimuli/20001002.jpg"," ","","feedback_trial","2","","","","","","","","","","","","","","","","","","","","",""
"","","","","","image-keyboard-response","302","307385","0.0-277.0","5e8b89d0afcb1606e761ef7f","665500ab8938657b03fbdba8","665792db91f71cd7317b98de","1103","stimuli/2110011.jpg","2","","prediction_trial","2","","true","","2","false","false","true","true","false","false","[2]","110","011","1","","","","","","",""
"","","","","","image-keyboard-response","303","307689","0.0-278.0","5e8b89d0afcb1606e761ef7f","665500ab8938657b03fbdba8","665792db91f71cd7317b98de","304","stimuli/21100112.jpg"," ","","feedback_trial","2","","","","","","","","","","","","","","","","","","","","",""
"","","","","","image-keyboard-response","304","308505","0.0-279.0","5e8b89d0afcb1606e761ef7f","665500ab8938657b03fbdba8","665792db91f71cd7317b98de","815","stimuli/2111111.jpg","1","","prediction_trial","1","","true","","2","false","false","false","false","false","false","[1,0,2]","111","111","1","","","","","","",""
"","","","","","image-keyboard-response","305","308729","0.0-280.0","5e8b89d0afcb1606e761ef7f","665500ab8938657b03fbdba8","665792db91f71cd7317b98de","224","stimuli/21111111.jpg"," ","","feedback_trial","1","","","","","","","","","","","","","","","","","","","","",""
"","","","","","image-keyboard-response","306","310425","0.0-281.0","5e8b89d0afcb1606e761ef7f","665500ab8938657b03fbdba8","665792db91f71cd7317b98de","1695","stimuli/0111101.jpg","1","","prediction_trial","0","","false","","0","false","false","false","false","false","false","[2,0,1]","111","101","0","","","","","","",""
"","","","","","image-keyboard-response","307","310649","0.0-282.0","5e8b89d0afcb1606e761ef7f","665500ab8938657b03fbdba8","665792db91f71cd7317b98de","224","stimuli/01111010.jpg"," ","","feedback_trial","2","","","","","","","","","","","","","","","","","","","","",""
"","","","","","image-keyboard-response","308","311289","0.0-283.0","5e8b89d0afcb1606e761ef7f","665500ab8938657b03fbdba8","665792db91f71cd7317b98de","640","stimuli/2000010.jpg","2","","prediction_trial","2","","true","","2","true","true","true","true","true","true","[2]","000","010","1","","","","","","",""
"","","","","","image-keyboard-response","309","311449","0.0-284.0","5e8b89d0afcb1606e761ef7f","665500ab8938657b03fbdba8","665792db91f71cd7317b98de","160","stimuli/20000102.jpg"," ","","feedback_trial","2","","","","","","","","","","","","","","","","","","","","",""
"","","","","","image-keyboard-response","310","312473","0.0-285.0","5e8b89d0afcb1606e761ef7f","665500ab8938657b03fbdba8","665792db91f71cd7317b98de","1023","stimuli/0101101.jpg","0","","prediction_trial","0","","true","","0","false","false","false","false","false","false","[2,0]","101","101","1","","","","","","",""
"","","","","","image-keyboard-response","311","312585","0.0-286.0","5e8b89d0afcb1606e761ef7f","665500ab8938657b03fbdba8","665792db91f71cd7317b98de","111","stimuli/01011010.jpg"," ","","feedback_trial","2","","","","","","","","","","","","","","","","","","","","",""
"","","","","","image-keyboard-response","312","313801","0.0-287.0","5e8b89d0afcb1606e761ef7f","665500ab8938657b03fbdba8","665792db91f71cd7317b98de","1216","stimuli/2110111.jpg","2","","prediction_trial","2","","true","","2","false","false","true","true","false","false","[2]","110","111","1","","","","","","",""
"","","","","","image-keyboard-response","313","313913","0.0-288.0","5e8b89d0afcb1606e761ef7f","665500ab8938657b03fbdba8","665792db91f71cd7317b98de","111","stimuli/21101112.jpg"," ","","feedback_trial","2","","","","","","","","","","","","","","","","","","","","",""
"","","","","","image-keyboard-response","314","315081","0.0-289.0","5e8b89d0afcb1606e761ef7f","665500ab8938657b03fbdba8","665792db91f71cd7317b98de","1168","stimuli/1000011.jpg","1","","prediction_trial","1","","true","","1","false","false","true","true","false","false","[1]","000","011","1","","","","","","",""
"","","","","","image-keyboard-response","315","315337","0.0-290.0","5e8b89d0afcb1606e761ef7f","665500ab8938657b03fbdba8","665792db91f71cd7317b98de","256","stimuli/10000111.jpg"," ","","feedback_trial","1","","","","","","","","","","","","","","","","","","","","",""
"","","","","","image-keyboard-response","316","316281","0.0-291.0","5e8b89d0afcb1606e761ef7f","665500ab8938657b03fbdba8","665792db91f71cd7317b98de","943","stimuli/1100001.jpg","1","","prediction_trial","1","","true","","1","true","true","true","true","true","true","[1]","100","001","1","","","","","","",""
"","","","","","image-keyboard-response","317","316505","0.0-292.0","5e8b89d0afcb1606e761ef7f","665500ab8938657b03fbdba8","665792db91f71cd7317b98de","224","stimuli/11000011.jpg"," ","","feedback_trial","1","","","","","","","","","","","","","","","","","","","","",""
"","","","","","survey-html-form","318","323526","0.0-293.0","5e8b89d0afcb1606e761ef7f","665500ab8938657b03fbdba8","665792db91f71cd7317b98de","7020","","{""feedback"":"""",""age"":""35"",""gender"":""Male"",""other_gender"":"""",""race"":""White"",""other_race"":"""",""ethnicity"":""Non-Hispanic""}","","exit_survey","","","","","","","","","","","","","","","","","35","Non-Hispanic","Male","White","0.6736111111111112","0.6736111111111112"
