"success","timeout","failed_images","failed_audio","failed_video","trial_type","trial_index","time_elapsed","internal_node_id","prolific_id","prolific_study_id","prolific_session_id","rt","stimulus","response","view_history","trial","character_choice","stimulus_dict","accuracy","correct_response","ball_pos","ego_ball_visible","ego_can_infer","alter_ball_visible","alter_can_infer","collective_ball_visible","collective_can_infer","search_locations","alter_occluders","ego_occluders","accuracy_bool","feedback","age","ethnicity","gender","race","overall_accuracy","bonus"
"true","false","[]","[]","[]","preload","0","2895","0.0-0.0","6400ed09421b2727c2f7c553","665500ab8938657b03fbdba8","6657925f794b3a3efc7b9978","","","","","","","","","","","","","","","","","","","","","","","","","","",""
"true","","","","","fullscreen","1","16890","0.0-1.0","6400ed09421b2727c2f7c553","665500ab8938657b03fbdba8","6657925f794b3a3efc7b9978","","","","","","","","","","","","","","","","","","","","","","","","","","",""
"","","","","","html-button-response","2","26110","0.0-2.0","6400ed09421b2727c2f7c553","665500ab8938657b03fbdba8","6657925f794b3a3efc7b9978","9215","<p><b>Consent Form</b></p> <div style=""text-align:left;background-color:lightgrey; padding:20px; max-width:900px;""><p>Please consider this information carefully before deciding whether to participate in this research.</p> <p>The purpose of this research is to examine which factors influence social judgment and decision-making. You will be asked to make judgements about individuals and actions in social scenarios. We are simply interested in your judgement. The study will take less than 1 hour to complete, and you will receive less than $20 on Prolific. Your compensation and time commitment are specified in the study description. There are no anticipated risks associated with participating in this study. The effects of participating should be comparable to those you would ordinarily experience from viewing a computer monitor and using a mouse or keyboard for a similar amount of time. At the end of the study, we will provide an explanation of the questions that motivate this line of research and will describe the potential implications. </p><p> Your participation in this study is completely voluntary and you may refuse to participate or you may choose to withdraw at any time without penalty or loss of benefits to you which are otherwise entitled. Your participation in this study will remain confidential. No personally identifiable information will be associated with your data. Also, all analyses of the data will be averaged across all the participants, so your individual responses will never be specifically analyzed. </p><p> If you have questions or concerns about your participation or payment, or want to request a summary of research findings, please contact Dr. Jonathan Phillips at Jonathan.S.Phillips@dartmouth.edu. </p><p> Please save a copy of this form for your records. </p><p><b>Agreement: </b>The nature and purpose of this research have been sufficiently explained and I agree to participate in this study. I understand that I am free to withdraw at any time without incurring any penalty. Please consent by clicking the button below to continue. Otherwise, please exit the study at any time. </p>","0","","","","","","","","","","","","","","","","","","","","","","","",""
"","","","","","instructions","3","144926","0.0-3.0-0.0","6400ed09421b2727c2f7c553","665500ab8938657b03fbdba8","6657925f794b3a3efc7b9978","118814","","","[{""page_index"":0,""viewing_time"":2485},{""page_index"":1,""viewing_time"":2055},{""page_index"":2,""viewing_time"":3565},{""page_index"":3,""viewing_time"":13192},{""page_index"":4,""viewing_time"":4366},{""page_index"":5,""viewing_time"":3148},{""page_index"":6,""viewing_time"":7866},{""page_index"":7,""viewing_time"":5907},{""page_index"":8,""viewing_time"":8424},{""page_index"":9,""viewing_time"":2337},{""page_index"":10,""viewing_time"":16534},{""page_index"":11,""viewing_time"":33068},{""page_index"":12,""viewing_time"":11905},{""page_index"":13,""viewing_time"":3962}]","intro","","","","","","","","","","","","","","","","","","","","","",""
"","","","","","image-keyboard-response","4","150702","0.0-3.0-1.0","6400ed09421b2727c2f7c553","665500ab8938657b03fbdba8","6657925f794b3a3efc7b9978","5771","stimuli/1010111.jpg","1","","prediction_practice","1","{""filepath"":""stimuli/1010111.jpg"",""ball_pos"":1,""ego_ball_visible"":false,""ego_can_infer"":false,""alter_ball_visible"":false,""alter_can_infer"":true,""collective_ball_visible"":false,""collective_can_infer"":false,""search_locations"":[1],""alter_occluders"":""010"",""ego_occluders"":""111""}","true","","","","","","","","","","","","","","","","","","",""
"","","","","","image-keyboard-response","5","153547","0.0-3.0-2.0","6400ed09421b2727c2f7c553","665500ab8938657b03fbdba8","6657925f794b3a3efc7b9978","2841","stimuli/10101111.jpg"," ","","practrice_feedback","1","","","","","","","","","","","","","","","","","","","","",""
"","","","","","image-keyboard-response","6","157123","0.0-3.0-3.0","6400ed09421b2727c2f7c553","665500ab8938657b03fbdba8","6657925f794b3a3efc7b9978","3588","stimuli/1101101.jpg","1","","prediction_practice","1","{""filepath"":""stimuli/1101101.jpg"",""ball_pos"":1,""ego_ball_visible"":true,""ego_can_infer"":true,""alter_ball_visible"":true,""alter_can_infer"":true,""collective_ball_visible"":true,""collective_can_infer"":true,""search_locations"":[1],""alter_occluders"":""101"",""ego_occluders"":""101""}","true","","","","","","","","","","","","","","","","","","",""
"","","","","","image-keyboard-response","7","158618","0.0-3.0-4.0","6400ed09421b2727c2f7c553","665500ab8938657b03fbdba8","6657925f794b3a3efc7b9978","1493","stimuli/11011011.jpg"," ","","practrice_feedback","1","","","","","","","","","","","","","","","","","","","","",""
"","","","","","image-keyboard-response","8","163662","0.0-3.0-5.0","6400ed09421b2727c2f7c553","665500ab8938657b03fbdba8","6657925f794b3a3efc7b9978","5041","stimuli/2011010.jpg","2","","prediction_practice","2","{""filepath"":""stimuli/2011010.jpg"",""ball_pos"":2,""ego_ball_visible"":true,""ego_can_infer"":true,""alter_ball_visible"":false,""alter_can_infer"":false,""collective_ball_visible"":false,""collective_can_infer"":false,""search_locations"":[2,1],""alter_occluders"":""011"",""ego_occluders"":""010""}","true","","","","","","","","","","","","","","","","","","",""
"","","","","","image-keyboard-response","9","165451","0.0-3.0-6.0","6400ed09421b2727c2f7c553","665500ab8938657b03fbdba8","6657925f794b3a3efc7b9978","1786","stimuli/20110102.jpg"," ","","practrice_feedback","2","","","","","","","","","","","","","","","","","","","","",""
"","","","","","image-keyboard-response","10","169582","0.0-3.0-7.0","6400ed09421b2727c2f7c553","665500ab8938657b03fbdba8","6657925f794b3a3efc7b9978","4128","stimuli/0101100.jpg","0","","prediction_practice","2","{""filepath"":""stimuli/0101100.jpg"",""ball_pos"":0,""ego_ball_visible"":false,""ego_can_infer"":true,""alter_ball_visible"":false,""alter_can_infer"":false,""collective_ball_visible"":false,""collective_can_infer"":false,""search_locations"":[2,0],""alter_occluders"":""101"",""ego_occluders"":""100""}","false","","","","","","","","","","","","","","","","","","",""
"","","","","","image-keyboard-response","11","172055","0.0-3.0-8.0","6400ed09421b2727c2f7c553","665500ab8938657b03fbdba8","6657925f794b3a3efc7b9978","2471","stimuli/01011002.jpg"," ","","practrice_feedback","2","","","","","","","","","","","","","","","","","","","","",""
"","","","","","image-keyboard-response","12","174558","0.0-3.0-9.0","6400ed09421b2727c2f7c553","665500ab8938657b03fbdba8","6657925f794b3a3efc7b9978","2500","stimuli/0100011.jpg","0","","prediction_practice","0","{""filepath"":""stimuli/0100011.jpg"",""ball_pos"":0,""ego_ball_visible"":true,""ego_can_infer"":true,""alter_ball_visible"":false,""alter_can_infer"":true,""collective_ball_visible"":false,""collective_can_infer"":true,""search_locations"":[0],""alter_occluders"":""100"",""ego_occluders"":""011""}","true","","","","","","","","","","","","","","","","","","",""
"","","","","","image-keyboard-response","13","178657","0.0-3.0-10.0","6400ed09421b2727c2f7c553","665500ab8938657b03fbdba8","6657925f794b3a3efc7b9978","4097","stimuli/01000110.jpg"," ","","practrice_feedback","0","","","","","","","","","","","","","","","","","","","","",""
"","","","","","image-keyboard-response","14","181177","0.0-3.0-11.0","6400ed09421b2727c2f7c553","665500ab8938657b03fbdba8","6657925f794b3a3efc7b9978","2518","stimuli/2100001.jpg","2","","prediction_practice","2","{""filepath"":""stimuli/2100001.jpg"",""ball_pos"":2,""ego_ball_visible"":false,""ego_can_infer"":true,""alter_ball_visible"":true,""alter_can_infer"":true,""collective_ball_visible"":false,""collective_can_infer"":true,""search_locations"":[2],""alter_occluders"":""100"",""ego_occluders"":""001""}","true","","","","","","","","","","","","","","","","","","",""
"","","","","","image-keyboard-response","15","182401","0.0-3.0-12.0","6400ed09421b2727c2f7c553","665500ab8938657b03fbdba8","6657925f794b3a3efc7b9978","1222","stimuli/21000012.jpg"," ","","practrice_feedback","2","","","","","","","","","","","","","","","","","","","","",""
"","","","","","image-keyboard-response","16","185200","0.0-3.0-13.0","6400ed09421b2727c2f7c553","665500ab8938657b03fbdba8","6657925f794b3a3efc7b9978","2797","stimuli/1000110.jpg","0","","prediction_practice","1","{""filepath"":""stimuli/1000110.jpg"",""ball_pos"":1,""ego_ball_visible"":false,""ego_can_infer"":false,""alter_ball_visible"":true,""alter_can_infer"":true,""collective_ball_visible"":false,""collective_can_infer"":false,""search_locations"":[1],""alter_occluders"":""000"",""ego_occluders"":""110""}","false","","","","","","","","","","","","","","","","","","",""
"","","","","","image-keyboard-response","17","186983","0.0-3.0-14.0","6400ed09421b2727c2f7c553","665500ab8938657b03fbdba8","6657925f794b3a3efc7b9978","1781","stimuli/10001101.jpg"," ","","practrice_feedback","1","","","","","","","","","","","","","","","","","","","","",""
"","","","","","image-keyboard-response","18","189126","0.0-3.0-15.0","6400ed09421b2727c2f7c553","665500ab8938657b03fbdba8","6657925f794b3a3efc7b9978","2140","stimuli/2100011.jpg","1","","prediction_practice","2","{""filepath"":""stimuli/2100011.jpg"",""ball_pos"":2,""ego_ball_visible"":false,""ego_can_infer"":false,""alter_ball_visible"":true,""alter_can_infer"":true,""collective_ball_visible"":false,""collective_can_infer"":false,""search_locations"":[2],""alter_occluders"":""100"",""ego_occluders"":""011""}","false","","","","","","","","","","","","","","","","","","",""
"","","","","","image-keyboard-response","19","190858","0.0-3.0-16.0","6400ed09421b2727c2f7c553","665500ab8938657b03fbdba8","6657925f794b3a3efc7b9978","1729","stimuli/21000112.jpg"," ","","practrice_feedback","2","","","","","","","","","","","","","","","","","","","","",""
"","","","","","image-keyboard-response","20","193543","0.0-3.0-17.0","6400ed09421b2727c2f7c553","665500ab8938657b03fbdba8","6657925f794b3a3efc7b9978","2683","stimuli/2110100.jpg","2","","prediction_practice","2","{""filepath"":""stimuli/2110100.jpg"",""ball_pos"":2,""ego_ball_visible"":true,""ego_can_infer"":true,""alter_ball_visible"":true,""alter_can_infer"":true,""collective_ball_visible"":true,""collective_can_infer"":true,""search_locations"":[2],""alter_occluders"":""110"",""ego_occluders"":""100""}","true","","","","","","","","","","","","","","","","","","",""
"","","","","","image-keyboard-response","21","194755","0.0-3.0-18.0","6400ed09421b2727c2f7c553","665500ab8938657b03fbdba8","6657925f794b3a3efc7b9978","1209","stimuli/21101002.jpg"," ","","practrice_feedback","2","","","","","","","","","","","","","","","","","","","","",""
"","","","","","image-keyboard-response","22","197170","0.0-3.0-19.0","6400ed09421b2727c2f7c553","665500ab8938657b03fbdba8","6657925f794b3a3efc7b9978","2413","stimuli/2111111.jpg","1","","prediction_practice","2","{""filepath"":""stimuli/2111111.jpg"",""ball_pos"":2,""ego_ball_visible"":false,""ego_can_infer"":false,""alter_ball_visible"":false,""alter_can_infer"":false,""collective_ball_visible"":false,""collective_can_infer"":false,""search_locations"":[2,1,0],""alter_occluders"":""111"",""ego_occluders"":""111""}","false","","","","","","","","","","","","","","","","","","",""
"","","","","","image-keyboard-response","23","198616","0.0-3.0-20.0","6400ed09421b2727c2f7c553","665500ab8938657b03fbdba8","6657925f794b3a3efc7b9978","1443","stimuli/21111112.jpg"," ","","practrice_feedback","2","","","","","","","","","","","","","","","","","","","","",""
"","","","","","html-button-response","24","206753","0.0-3.0-21.0","6400ed09421b2727c2f7c553","665500ab8938657b03fbdba8","6657925f794b3a3efc7b9978","8136","Now that you've had some practice, you'll be tested with a couple of easy trials. If you correctly predict Sam's choice, you'll move on to complete the experiment!","0","","","","","","","","","","","","","","","","","","","","","","","",""
"","","","","","image-keyboard-response","25","209912","0.0-3.0-22.0-0.0","6400ed09421b2727c2f7c553","665500ab8938657b03fbdba8","6657925f794b3a3efc7b9978","3155","stimuli/0000011.jpg","arrowright","","comprehension_quiz","","","false","arrowleft","","","","","","","","","","","","","","","","","",""
"","","","","","image-keyboard-response","26","211990","0.0-3.0-22.0-1.0","6400ed09421b2727c2f7c553","665500ab8938657b03fbdba8","6657925f794b3a3efc7b9978","2074","stimuli/00000110.jpg"," ","","comprehension_quiz","","","true"," ","","","","","","","","","","","","","","","","","",""
"","","","","","image-keyboard-response","27","214111","0.0-3.0-22.0-2.0","6400ed09421b2727c2f7c553","665500ab8938657b03fbdba8","6657925f794b3a3efc7b9978","2118","stimuli/1010010.jpg","arrowdown","","comprehension_quiz","","","true","arrowdown","","","","","","","","","","","","","","","","","",""
"","","","","","image-keyboard-response","28","215802","0.0-3.0-22.0-3.0","6400ed09421b2727c2f7c553","665500ab8938657b03fbdba8","6657925f794b3a3efc7b9978","1671","stimuli/10100101.jpg"," ","","comprehension_quiz","","","true"," ","","","","","","","","","","","","","","","","","",""
"","","","","","html-button-response","29","220680","0.0-3.0-23.0-0.0","6400ed09421b2727c2f7c553","665500ab8938657b03fbdba8","6657925f794b3a3efc7b9978","4860","<p> Oops! You have answered one or more questions incorrectly.</p><p> Please Review the instructions again before continuing with the experiment </p>","0","","fail_message","","","false","","","","","","","","","","","","","","","","","","",""
"","","","","","instructions","30","254380","0.0-3.1-0.1","6400ed09421b2727c2f7c553","665500ab8938657b03fbdba8","6657925f794b3a3efc7b9978","33695","","","[{""page_index"":0,""viewing_time"":3009},{""page_index"":1,""viewing_time"":2636},{""page_index"":2,""viewing_time"":2875},{""page_index"":3,""viewing_time"":2271},{""page_index"":4,""viewing_time"":1924},{""page_index"":5,""viewing_time"":1606},{""page_index"":6,""viewing_time"":2411},{""page_index"":7,""viewing_time"":2305},{""page_index"":8,""viewing_time"":2380},{""page_index"":9,""viewing_time"":2412},{""page_index"":10,""viewing_time"":2561},{""page_index"":11,""viewing_time"":2521},{""page_index"":12,""viewing_time"":2775},{""page_index"":13,""viewing_time"":2009}]","intro","","","","","","","","","","","","","","","","","","","","","",""
"","","","","","image-keyboard-response","31","259619","0.0-3.1-1.1","6400ed09421b2727c2f7c553","665500ab8938657b03fbdba8","6657925f794b3a3efc7b9978","5235","stimuli/1010111.jpg","1","","prediction_practice","1","{""filepath"":""stimuli/1010111.jpg"",""ball_pos"":1,""ego_ball_visible"":false,""ego_can_infer"":false,""alter_ball_visible"":false,""alter_can_infer"":true,""collective_ball_visible"":false,""collective_can_infer"":false,""search_locations"":[1],""alter_occluders"":""010"",""ego_occluders"":""111""}","true","","","","","","","","","","","","","","","","","","",""
"","","","","","image-keyboard-response","32","262098","0.0-3.1-2.1","6400ed09421b2727c2f7c553","665500ab8938657b03fbdba8","6657925f794b3a3efc7b9978","2477","stimuli/10101111.jpg"," ","","practrice_feedback","1","","","","","","","","","","","","","","","","","","","","",""
"","","","","","image-keyboard-response","33","264137","0.0-3.1-3.1","6400ed09421b2727c2f7c553","665500ab8938657b03fbdba8","6657925f794b3a3efc7b9978","2036","stimuli/1101101.jpg","1","","prediction_practice","1","{""filepath"":""stimuli/1101101.jpg"",""ball_pos"":1,""ego_ball_visible"":true,""ego_can_infer"":true,""alter_ball_visible"":true,""alter_can_infer"":true,""collective_ball_visible"":true,""collective_can_infer"":true,""search_locations"":[1],""alter_occluders"":""101"",""ego_occluders"":""101""}","true","","","","","","","","","","","","","","","","","","",""
"","","","","","image-keyboard-response","34","266359","0.0-3.1-4.1","6400ed09421b2727c2f7c553","665500ab8938657b03fbdba8","6657925f794b3a3efc7b9978","2220","stimuli/11011011.jpg"," ","","practrice_feedback","1","","","","","","","","","","","","","","","","","","","","",""
"","","","","","image-keyboard-response","35","269238","0.0-3.1-5.1","6400ed09421b2727c2f7c553","665500ab8938657b03fbdba8","6657925f794b3a3efc7b9978","2876","stimuli/2011010.jpg","2","","prediction_practice","2","{""filepath"":""stimuli/2011010.jpg"",""ball_pos"":2,""ego_ball_visible"":true,""ego_can_infer"":true,""alter_ball_visible"":false,""alter_can_infer"":false,""collective_ball_visible"":false,""collective_can_infer"":false,""search_locations"":[2,1],""alter_occluders"":""011"",""ego_occluders"":""010""}","true","","","","","","","","","","","","","","","","","","",""
"","","","","","image-keyboard-response","36","270930","0.0-3.1-6.1","6400ed09421b2727c2f7c553","665500ab8938657b03fbdba8","6657925f794b3a3efc7b9978","1690","stimuli/20110102.jpg"," ","","practrice_feedback","2","","","","","","","","","","","","","","","","","","","","",""
"","","","","","image-keyboard-response","37","275438","0.0-3.1-7.1","6400ed09421b2727c2f7c553","665500ab8938657b03fbdba8","6657925f794b3a3efc7b9978","4506","stimuli/0101100.jpg","0","","prediction_practice","2","{""filepath"":""stimuli/0101100.jpg"",""ball_pos"":0,""ego_ball_visible"":false,""ego_can_infer"":true,""alter_ball_visible"":false,""alter_can_infer"":false,""collective_ball_visible"":false,""collective_can_infer"":false,""search_locations"":[2,0],""alter_occluders"":""101"",""ego_occluders"":""100""}","false","","","","","","","","","","","","","","","","","","",""
"","","","","","image-keyboard-response","38","277700","0.0-3.1-8.1","6400ed09421b2727c2f7c553","665500ab8938657b03fbdba8","6657925f794b3a3efc7b9978","2259","stimuli/01011002.jpg"," ","","practrice_feedback","2","","","","","","","","","","","","","","","","","","","","",""
"","","","","","image-keyboard-response","39","280431","0.0-3.1-9.1","6400ed09421b2727c2f7c553","665500ab8938657b03fbdba8","6657925f794b3a3efc7b9978","2728","stimuli/0100011.jpg","0","","prediction_practice","0","{""filepath"":""stimuli/0100011.jpg"",""ball_pos"":0,""ego_ball_visible"":true,""ego_can_infer"":true,""alter_ball_visible"":false,""alter_can_infer"":true,""collective_ball_visible"":false,""collective_can_infer"":true,""search_locations"":[0],""alter_occluders"":""100"",""ego_occluders"":""011""}","true","","","","","","","","","","","","","","","","","","",""
"","","","","","image-keyboard-response","40","282334","0.0-3.1-10.1","6400ed09421b2727c2f7c553","665500ab8938657b03fbdba8","6657925f794b3a3efc7b9978","1901","stimuli/01000110.jpg"," ","","practrice_feedback","0","","","","","","","","","","","","","","","","","","","","",""
"","","","","","image-keyboard-response","41","286002","0.0-3.1-11.1","6400ed09421b2727c2f7c553","665500ab8938657b03fbdba8","6657925f794b3a3efc7b9978","3666","stimuli/2100001.jpg","2","","prediction_practice","2","{""filepath"":""stimuli/2100001.jpg"",""ball_pos"":2,""ego_ball_visible"":false,""ego_can_infer"":true,""alter_ball_visible"":true,""alter_can_infer"":true,""collective_ball_visible"":false,""collective_can_infer"":true,""search_locations"":[2],""alter_occluders"":""100"",""ego_occluders"":""001""}","true","","","","","","","","","","","","","","","","","","",""
"","","","","","image-keyboard-response","42","291476","0.0-3.1-12.1","6400ed09421b2727c2f7c553","665500ab8938657b03fbdba8","6657925f794b3a3efc7b9978","5472","stimuli/21000012.jpg"," ","","practrice_feedback","2","","","","","","","","","","","","","","","","","","","","",""
"","","","","","image-keyboard-response","43","294169","0.0-3.1-13.1","6400ed09421b2727c2f7c553","665500ab8938657b03fbdba8","6657925f794b3a3efc7b9978","2690","stimuli/1000110.jpg","1","","prediction_practice","1","{""filepath"":""stimuli/1000110.jpg"",""ball_pos"":1,""ego_ball_visible"":false,""ego_can_infer"":false,""alter_ball_visible"":true,""alter_can_infer"":true,""collective_ball_visible"":false,""collective_can_infer"":false,""search_locations"":[1],""alter_occluders"":""000"",""ego_occluders"":""110""}","true","","","","","","","","","","","","","","","","","","",""
"","","","","","image-keyboard-response","44","295934","0.0-3.1-14.1","6400ed09421b2727c2f7c553","665500ab8938657b03fbdba8","6657925f794b3a3efc7b9978","1763","stimuli/10001101.jpg"," ","","practrice_feedback","1","","","","","","","","","","","","","","","","","","","","",""
"","","","","","image-keyboard-response","45","298730","0.0-3.1-15.1","6400ed09421b2727c2f7c553","665500ab8938657b03fbdba8","6657925f794b3a3efc7b9978","2794","stimuli/2100011.jpg","1","","prediction_practice","2","{""filepath"":""stimuli/2100011.jpg"",""ball_pos"":2,""ego_ball_visible"":false,""ego_can_infer"":false,""alter_ball_visible"":true,""alter_can_infer"":true,""collective_ball_visible"":false,""collective_can_infer"":false,""search_locations"":[2],""alter_occluders"":""100"",""ego_occluders"":""011""}","false","","","","","","","","","","","","","","","","","","",""
"","","","","","image-keyboard-response","46","302139","0.0-3.1-16.1","6400ed09421b2727c2f7c553","665500ab8938657b03fbdba8","6657925f794b3a3efc7b9978","3408","stimuli/21000112.jpg"," ","","practrice_feedback","2","","","","","","","","","","","","","","","","","","","","",""
"","","","","","image-keyboard-response","47","304666","0.0-3.1-17.1","6400ed09421b2727c2f7c553","665500ab8938657b03fbdba8","6657925f794b3a3efc7b9978","2525","stimuli/2110100.jpg","2","","prediction_practice","2","{""filepath"":""stimuli/2110100.jpg"",""ball_pos"":2,""ego_ball_visible"":true,""ego_can_infer"":true,""alter_ball_visible"":true,""alter_can_infer"":true,""collective_ball_visible"":true,""collective_can_infer"":true,""search_locations"":[2],""alter_occluders"":""110"",""ego_occluders"":""100""}","true","","","","","","","","","","","","","","","","","","",""
"","","","","","image-keyboard-response","48","306426","0.0-3.1-18.1","6400ed09421b2727c2f7c553","665500ab8938657b03fbdba8","6657925f794b3a3efc7b9978","1758","stimuli/21101002.jpg"," ","","practrice_feedback","2","","","","","","","","","","","","","","","","","","","","",""
"","","","","","image-keyboard-response","49","311889","0.0-3.1-19.1","6400ed09421b2727c2f7c553","665500ab8938657b03fbdba8","6657925f794b3a3efc7b9978","5461","stimuli/2111111.jpg","1","","prediction_practice","2","{""filepath"":""stimuli/2111111.jpg"",""ball_pos"":2,""ego_ball_visible"":false,""ego_can_infer"":false,""alter_ball_visible"":false,""alter_can_infer"":false,""collective_ball_visible"":false,""collective_can_infer"":false,""search_locations"":[2,1,0],""alter_occluders"":""111"",""ego_occluders"":""111""}","false","","","","","","","","","","","","","","","","","","",""
"","","","","","image-keyboard-response","50","314369","0.0-3.1-20.1","6400ed09421b2727c2f7c553","665500ab8938657b03fbdba8","6657925f794b3a3efc7b9978","2477","stimuli/21111112.jpg"," ","","practrice_feedback","2","","","","","","","","","","","","","","","","","","","","",""
"","","","","","html-button-response","51","318071","0.0-3.1-21.1","6400ed09421b2727c2f7c553","665500ab8938657b03fbdba8","6657925f794b3a3efc7b9978","3701","Now that you've had some practice, you'll be tested with a couple of easy trials. If you correctly predict Sam's choice, you'll move on to complete the experiment!","0","","","","","","","","","","","","","","","","","","","","","","","",""
"","","","","","image-keyboard-response","52","322390","0.0-3.1-22.1-0.1","6400ed09421b2727c2f7c553","665500ab8938657b03fbdba8","6657925f794b3a3efc7b9978","4315","stimuli/0000011.jpg","arrowleft","","comprehension_quiz","","","true","arrowleft","","","","","","","","","","","","","","","","","",""
"","","","","","image-keyboard-response","53","325342","0.0-3.1-22.1-1.1","6400ed09421b2727c2f7c553","665500ab8938657b03fbdba8","6657925f794b3a3efc7b9978","2950","stimuli/00000110.jpg"," ","","comprehension_quiz","","","true"," ","","","","","","","","","","","","","","","","","",""
"","","","","","image-keyboard-response","54","328386","0.0-3.1-22.1-2.1","6400ed09421b2727c2f7c553","665500ab8938657b03fbdba8","6657925f794b3a3efc7b9978","3042","stimuli/1010010.jpg","arrowdown","","comprehension_quiz","","","true","arrowdown","","","","","","","","","","","","","","","","","",""
"","","","","","image-keyboard-response","55","330473","0.0-3.1-22.1-3.1","6400ed09421b2727c2f7c553","665500ab8938657b03fbdba8","6657925f794b3a3efc7b9978","2084","stimuli/10100101.jpg"," ","","comprehension_quiz","","","true"," ","","","","","","","","","","","","","","","","","",""
"","","","","","html-button-response","56","333216","0.0-4.0","6400ed09421b2727c2f7c553","665500ab8938657b03fbdba8","6657925f794b3a3efc7b9978","2741","The experiment will now begin.","0","","","","","","","","","","","","","","","","","","","","","","","",""
"","","","","","image-keyboard-response","57","336651","0.0-5.0","6400ed09421b2727c2f7c553","665500ab8938657b03fbdba8","6657925f794b3a3efc7b9978","3432","stimuli/0001100.jpg","0","","prediction_trial","0","","true","","0","false","true","true","true","false","true","[0]","001","100","1","","","","","","",""
"","","","","","image-keyboard-response","58","338996","0.0-6.0","6400ed09421b2727c2f7c553","665500ab8938657b03fbdba8","6657925f794b3a3efc7b9978","2343","stimuli/00011000.jpg"," ","","feedback_trial","0","","","","","","","","","","","","","","","","","","","","",""
"","","","","","image-keyboard-response","59","341041","0.0-7.0","6400ed09421b2727c2f7c553","665500ab8938657b03fbdba8","6657925f794b3a3efc7b9978","2042","stimuli/2010110.jpg","2","","prediction_trial","2","","true","","2","true","true","true","true","true","true","[2]","010","110","1","","","","","","",""
"","","","","","image-keyboard-response","60","342536","0.0-8.0","6400ed09421b2727c2f7c553","665500ab8938657b03fbdba8","6657925f794b3a3efc7b9978","1493","stimuli/20101102.jpg"," ","","feedback_trial","2","","","","","","","","","","","","","","","","","","","","",""
"","","","","","image-keyboard-response","61","344408","0.0-9.0","6400ed09421b2727c2f7c553","665500ab8938657b03fbdba8","6657925f794b3a3efc7b9978","1870","stimuli/1000101.jpg","1","","prediction_trial","1","","true","","1","true","true","true","true","true","true","[1]","000","101","1","","","","","","",""
"","","","","","image-keyboard-response","62","347180","0.0-10.0","6400ed09421b2727c2f7c553","665500ab8938657b03fbdba8","6657925f794b3a3efc7b9978","2769","stimuli/10001011.jpg"," ","","feedback_trial","1","","","","","","","","","","","","","","","","","","","","",""
"","","","","","image-keyboard-response","63","352329","0.0-11.0","6400ed09421b2727c2f7c553","665500ab8938657b03fbdba8","6657925f794b3a3efc7b9978","5147","stimuli/1100111.jpg","0","","prediction_trial","1","","false","","1","false","false","true","true","false","false","[1]","100","111","0","","","","","","",""
"","","","","","image-keyboard-response","64","354833","0.0-12.0","6400ed09421b2727c2f7c553","665500ab8938657b03fbdba8","6657925f794b3a3efc7b9978","2502","stimuli/11001111.jpg"," ","","feedback_trial","1","","","","","","","","","","","","","","","","","","","","",""
"","","","","","image-keyboard-response","65","357615","0.0-13.0","6400ed09421b2727c2f7c553","665500ab8938657b03fbdba8","6657925f794b3a3efc7b9978","2781","stimuli/2001100.jpg","2","","prediction_trial","2","","true","","2","true","true","false","true","false","true","[2]","001","100","1","","","","","","",""
"","","","","","image-keyboard-response","66","359431","0.0-14.0","6400ed09421b2727c2f7c553","665500ab8938657b03fbdba8","6657925f794b3a3efc7b9978","1813","stimuli/20011002.jpg"," ","","feedback_trial","2","","","","","","","","","","","","","","","","","","","","",""
"","","","","","image-keyboard-response","67","361272","0.0-15.0","6400ed09421b2727c2f7c553","665500ab8938657b03fbdba8","6657925f794b3a3efc7b9978","1839","stimuli/2000100.jpg","2","","prediction_trial","2","","true","","2","true","true","true","true","true","true","[2]","000","100","1","","","","","","",""
"","","","","","image-keyboard-response","68","362197","0.0-16.0","6400ed09421b2727c2f7c553","665500ab8938657b03fbdba8","6657925f794b3a3efc7b9978","922","stimuli/20001002.jpg"," ","","feedback_trial","2","","","","","","","","","","","","","","","","","","","","",""
"","","","","","image-keyboard-response","69","364476","0.0-17.0","6400ed09421b2727c2f7c553","665500ab8938657b03fbdba8","6657925f794b3a3efc7b9978","2276","stimuli/2111111.jpg","1","","prediction_trial","1","","true","","2","false","false","false","false","false","false","[2,1,0]","111","111","1","","","","","","",""
"","","","","","image-keyboard-response","70","366011","0.0-18.0","6400ed09421b2727c2f7c553","665500ab8938657b03fbdba8","6657925f794b3a3efc7b9978","1532","stimuli/21111111.jpg"," ","","feedback_trial","2","","","","","","","","","","","","","","","","","","","","",""
"","","","","","image-keyboard-response","71","368313","0.0-19.0","6400ed09421b2727c2f7c553","665500ab8938657b03fbdba8","6657925f794b3a3efc7b9978","2300","stimuli/1110000.jpg","1","","prediction_trial","0","","false","","1","true","true","false","false","false","false","[1,0]","110","000","0","","","","","","",""
"","","","","","image-keyboard-response","72","370041","0.0-20.0","6400ed09421b2727c2f7c553","665500ab8938657b03fbdba8","6657925f794b3a3efc7b9978","1725","stimuli/11100000.jpg"," ","","feedback_trial","1","","","","","","","","","","","","","","","","","","","","",""
"","","","","","image-keyboard-response","73","374295","0.0-21.0","6400ed09421b2727c2f7c553","665500ab8938657b03fbdba8","6657925f794b3a3efc7b9978","4252","stimuli/1010011.jpg","1","","prediction_trial","1","","true","","1","false","false","false","true","false","false","[1]","010","011","1","","","","","","",""
"","","","","","image-keyboard-response","74","376015","0.0-22.0","6400ed09421b2727c2f7c553","665500ab8938657b03fbdba8","6657925f794b3a3efc7b9978","1717","stimuli/10100111.jpg"," ","","feedback_trial","1","","","","","","","","","","","","","","","","","","","","",""
"","","","","","image-keyboard-response","75","378076","0.0-23.0","6400ed09421b2727c2f7c553","665500ab8938657b03fbdba8","6657925f794b3a3efc7b9978","2059","stimuli/1000111.jpg","1","","prediction_trial","1","","true","","1","false","false","true","true","false","false","[1]","000","111","1","","","","","","",""
"","","","","","image-keyboard-response","76","379438","0.0-24.0","6400ed09421b2727c2f7c553","665500ab8938657b03fbdba8","6657925f794b3a3efc7b9978","1360","stimuli/10001111.jpg"," ","","feedback_trial","1","","","","","","","","","","","","","","","","","","","","",""
"","","","","","image-keyboard-response","77","381573","0.0-25.0","6400ed09421b2727c2f7c553","665500ab8938657b03fbdba8","6657925f794b3a3efc7b9978","2132","stimuli/0101011.jpg","0","","prediction_trial","2","","false","","0","true","true","false","false","false","false","[2,0]","101","011","0","","","","","","",""
"","","","","","image-keyboard-response","78","382875","0.0-26.0","6400ed09421b2727c2f7c553","665500ab8938657b03fbdba8","6657925f794b3a3efc7b9978","1299","stimuli/01010112.jpg"," ","","feedback_trial","2","","","","","","","","","","","","","","","","","","","","",""
"","","","","","image-keyboard-response","79","384767","0.0-27.0","6400ed09421b2727c2f7c553","665500ab8938657b03fbdba8","6657925f794b3a3efc7b9978","1891","stimuli/2000010.jpg","2","","prediction_trial","2","","true","","2","true","true","true","true","true","true","[2]","000","010","1","","","","","","",""
"","","","","","image-keyboard-response","80","385754","0.0-28.0","6400ed09421b2727c2f7c553","665500ab8938657b03fbdba8","6657925f794b3a3efc7b9978","984","stimuli/20000102.jpg"," ","","feedback_trial","2","","","","","","","","","","","","","","","","","","","","",""
"","","","","","image-keyboard-response","81","388602","0.0-29.0","6400ed09421b2727c2f7c553","665500ab8938657b03fbdba8","6657925f794b3a3efc7b9978","2845","stimuli/2110011.jpg","2","","prediction_trial","2","","true","","2","false","false","true","true","false","false","[2]","110","011","1","","","","","","",""
"","","","","","image-keyboard-response","82","390365","0.0-30.0","6400ed09421b2727c2f7c553","665500ab8938657b03fbdba8","6657925f794b3a3efc7b9978","1762","stimuli/21100112.jpg"," ","","feedback_trial","2","","","","","","","","","","","","","","","","","","","","",""
"","","","","","image-keyboard-response","83","392555","0.0-31.0","6400ed09421b2727c2f7c553","665500ab8938657b03fbdba8","6657925f794b3a3efc7b9978","2188","stimuli/1101010.jpg","1","","prediction_trial","1","","true","","1","false","true","true","true","false","true","[1]","101","010","1","","","","","","",""
"","","","","","image-keyboard-response","84","394220","0.0-32.0","6400ed09421b2727c2f7c553","665500ab8938657b03fbdba8","6657925f794b3a3efc7b9978","1663","stimuli/11010101.jpg"," ","","feedback_trial","1","","","","","","","","","","","","","","","","","","","","",""
"","","","","","image-keyboard-response","85","396904","0.0-33.0","6400ed09421b2727c2f7c553","665500ab8938657b03fbdba8","6657925f794b3a3efc7b9978","2681","stimuli/0111101.jpg","0","","prediction_trial","2","","false","","0","false","false","false","false","false","false","[0,1,2]","111","101","0","","","","","","",""
"","","","","","image-keyboard-response","86","398151","0.0-34.0","6400ed09421b2727c2f7c553","665500ab8938657b03fbdba8","6657925f794b3a3efc7b9978","1245","stimuli/01111012.jpg"," ","","feedback_trial","0","","","","","","","","","","","","","","","","","","","","",""
"","","","","","image-keyboard-response","87","400628","0.0-35.0","6400ed09421b2727c2f7c553","665500ab8938657b03fbdba8","6657925f794b3a3efc7b9978","2475","stimuli/2110001.jpg","2","","prediction_trial","2","","true","","2","false","true","true","true","false","true","[2]","110","001","1","","","","","","",""
"","","","","","image-keyboard-response","88","401789","0.0-36.0","6400ed09421b2727c2f7c553","665500ab8938657b03fbdba8","6657925f794b3a3efc7b9978","1158","stimuli/21100012.jpg"," ","","feedback_trial","2","","","","","","","","","","","","","","","","","","","","",""
"","","","","","image-keyboard-response","89","404259","0.0-37.0","6400ed09421b2727c2f7c553","665500ab8938657b03fbdba8","6657925f794b3a3efc7b9978","2467","stimuli/2100001.jpg","2","","prediction_trial","2","","true","","2","false","true","true","true","false","true","[2]","100","001","1","","","","","","",""
"","","","","","image-keyboard-response","90","405911","0.0-38.0","6400ed09421b2727c2f7c553","665500ab8938657b03fbdba8","6657925f794b3a3efc7b9978","1650","stimuli/21000012.jpg"," ","","feedback_trial","2","","","","","","","","","","","","","","","","","","","","",""
"","","","","","image-keyboard-response","91","409273","0.0-39.0","6400ed09421b2727c2f7c553","665500ab8938657b03fbdba8","6657925f794b3a3efc7b9978","3360","stimuli/2101010.jpg","2","","prediction_trial","2","","true","","2","true","true","false","false","false","false","[0,2]","101","010","1","","","","","","",""
"","","","","","image-keyboard-response","92","415107","0.0-40.0","6400ed09421b2727c2f7c553","665500ab8938657b03fbdba8","6657925f794b3a3efc7b9978","5832","stimuli/21010102.jpg"," ","","feedback_trial","0","","","","","","","","","","","","","","","","","","","","",""
"","","","","","image-keyboard-response","93","417306","0.0-41.0","6400ed09421b2727c2f7c553","665500ab8938657b03fbdba8","6657925f794b3a3efc7b9978","2196","stimuli/2110100.jpg","2","","prediction_trial","2","","true","","2","true","true","true","true","true","true","[2]","110","100","1","","","","","","",""
"","","","","","image-keyboard-response","94","419189","0.0-42.0","6400ed09421b2727c2f7c553","665500ab8938657b03fbdba8","6657925f794b3a3efc7b9978","1881","stimuli/21101002.jpg"," ","","feedback_trial","2","","","","","","","","","","","","","","","","","","","","",""
"","","","","","image-keyboard-response","95","422416","0.0-43.0","6400ed09421b2727c2f7c553","665500ab8938657b03fbdba8","6657925f794b3a3efc7b9978","3224","stimuli/2100101.jpg","2","","prediction_trial","2","","true","","2","false","false","true","true","false","false","[2]","100","101","1","","","","","","",""
"","","","","","image-keyboard-response","96","423519","0.0-44.0","6400ed09421b2727c2f7c553","665500ab8938657b03fbdba8","6657925f794b3a3efc7b9978","1101","stimuli/21001012.jpg"," ","","feedback_trial","2","","","","","","","","","","","","","","","","","","","","",""
"","","","","","image-keyboard-response","97","426038","0.0-45.0","6400ed09421b2727c2f7c553","665500ab8938657b03fbdba8","6657925f794b3a3efc7b9978","2517","stimuli/0100011.jpg","0","","prediction_trial","0","","true","","0","true","true","false","true","false","true","[0]","100","011","1","","","","","","",""
"","","","","","image-keyboard-response","98","427643","0.0-46.0","6400ed09421b2727c2f7c553","665500ab8938657b03fbdba8","6657925f794b3a3efc7b9978","1602","stimuli/01000110.jpg"," ","","feedback_trial","0","","","","","","","","","","","","","","","","","","","","",""
"","","","","","image-keyboard-response","99","430262","0.0-47.0","6400ed09421b2727c2f7c553","665500ab8938657b03fbdba8","6657925f794b3a3efc7b9978","2617","stimuli/1111011.jpg","2","","prediction_trial","0","","false","","1","false","false","false","false","false","false","[1,0,2]","111","011","0","","","","","","",""
"","","","","","image-keyboard-response","100","432769","0.0-48.0","6400ed09421b2727c2f7c553","665500ab8938657b03fbdba8","6657925f794b3a3efc7b9978","2505","stimuli/11110110.jpg"," ","","feedback_trial","1","","","","","","","","","","","","","","","","","","","","",""
"","","","","","image-keyboard-response","101","434887","0.0-49.0","6400ed09421b2727c2f7c553","665500ab8938657b03fbdba8","6657925f794b3a3efc7b9978","2115","stimuli/0011010.jpg","0","","prediction_trial","0","","true","","0","true","true","true","true","true","true","[0]","011","010","1","","","","","","",""
"","","","","","image-keyboard-response","102","435901","0.0-50.0","6400ed09421b2727c2f7c553","665500ab8938657b03fbdba8","6657925f794b3a3efc7b9978","1012","stimuli/00110100.jpg"," ","","feedback_trial","0","","","","","","","","","","","","","","","","","","","","",""
"","","","","","image-keyboard-response","103","437588","0.0-51.0","6400ed09421b2727c2f7c553","665500ab8938657b03fbdba8","6657925f794b3a3efc7b9978","1684","stimuli/1010000.jpg","1","","prediction_trial","1","","true","","1","true","true","false","true","false","true","[1]","010","000","1","","","","","","",""
"","","","","","image-keyboard-response","104","440084","0.0-52.0","6400ed09421b2727c2f7c553","665500ab8938657b03fbdba8","6657925f794b3a3efc7b9978","2493","stimuli/10100001.jpg"," ","","feedback_trial","1","","","","","","","","","","","","","","","","","","","","",""
"","","","","","image-keyboard-response","105","441784","0.0-53.0","6400ed09421b2727c2f7c553","665500ab8938657b03fbdba8","6657925f794b3a3efc7b9978","1697","stimuli/2100000.jpg","2","","prediction_trial","2","","true","","2","true","true","true","true","true","true","[2]","100","000","1","","","","","","",""
"","","","","","image-keyboard-response","106","443134","0.0-54.0","6400ed09421b2727c2f7c553","665500ab8938657b03fbdba8","6657925f794b3a3efc7b9978","1349","stimuli/21000002.jpg"," ","","feedback_trial","2","","","","","","","","","","","","","","","","","","","","",""
"","","","","","image-keyboard-response","107","445600","0.0-55.0","6400ed09421b2727c2f7c553","665500ab8938657b03fbdba8","6657925f794b3a3efc7b9978","2464","stimuli/1011010.jpg","1","","prediction_trial","1","","true","","1","false","true","false","false","false","false","[1,2]","011","010","1","","","","","","",""
"","","","","","image-keyboard-response","108","446686","0.0-56.0","6400ed09421b2727c2f7c553","665500ab8938657b03fbdba8","6657925f794b3a3efc7b9978","1083","stimuli/10110101.jpg"," ","","feedback_trial","1","","","","","","","","","","","","","","","","","","","","",""
"","","","","","image-keyboard-response","109","448373","0.0-57.0","6400ed09421b2727c2f7c553","665500ab8938657b03fbdba8","6657925f794b3a3efc7b9978","1685","stimuli/1100000.jpg","1","","prediction_trial","1","","true","","1","true","true","true","true","true","true","[1]","100","000","1","","","","","","",""
"","","","","","image-keyboard-response","110","449385","0.0-58.0","6400ed09421b2727c2f7c553","665500ab8938657b03fbdba8","6657925f794b3a3efc7b9978","1009","stimuli/11000001.jpg"," ","","feedback_trial","1","","","","","","","","","","","","","","","","","","","","",""
"","","","","","image-keyboard-response","111","450980","0.0-59.0","6400ed09421b2727c2f7c553","665500ab8938657b03fbdba8","6657925f794b3a3efc7b9978","1593","stimuli/1111111.jpg","1","","prediction_trial","1","","true","","1","false","false","false","false","false","false","[2,0,1]","111","111","1","","","","","","",""
"","","","","","image-keyboard-response","112","451918","0.0-60.0","6400ed09421b2727c2f7c553","665500ab8938657b03fbdba8","6657925f794b3a3efc7b9978","935","stimuli/11111111.jpg"," ","","feedback_trial","2","","","","","","","","","","","","","","","","","","","","",""
"","","","","","image-keyboard-response","113","453695","0.0-61.0","6400ed09421b2727c2f7c553","665500ab8938657b03fbdba8","6657925f794b3a3efc7b9978","1774","stimuli/1001110.jpg","1","","prediction_trial","1","","true","","1","false","false","true","true","false","false","[1]","001","110","1","","","","","","",""
"","","","","","image-keyboard-response","114","455133","0.0-62.0","6400ed09421b2727c2f7c553","665500ab8938657b03fbdba8","6657925f794b3a3efc7b9978","1436","stimuli/10011101.jpg"," ","","feedback_trial","1","","","","","","","","","","","","","","","","","","","","",""
"","","","","","image-keyboard-response","115","456933","0.0-63.0","6400ed09421b2727c2f7c553","665500ab8938657b03fbdba8","6657925f794b3a3efc7b9978","1797","stimuli/0111011.jpg","0","","prediction_trial","0","","true","","0","true","true","false","false","false","false","[0,1,2]","111","011","1","","","","","","",""
"","","","","","image-keyboard-response","116","457988","0.0-64.0","6400ed09421b2727c2f7c553","665500ab8938657b03fbdba8","6657925f794b3a3efc7b9978","1053","stimuli/01110110.jpg"," ","","feedback_trial","0","","","","","","","","","","","","","","","","","","","","",""
"","","","","","image-keyboard-response","117","460425","0.0-65.0","6400ed09421b2727c2f7c553","665500ab8938657b03fbdba8","6657925f794b3a3efc7b9978","2436","stimuli/1000010.jpg","1","","prediction_trial","1","","true","","1","false","true","true","true","false","true","[1]","000","010","1","","","","","","",""
"","","","","","image-keyboard-response","118","461506","0.0-66.0","6400ed09421b2727c2f7c553","665500ab8938657b03fbdba8","6657925f794b3a3efc7b9978","1078","stimuli/10000101.jpg"," ","","feedback_trial","1","","","","","","","","","","","","","","","","","","","","",""
"","","","","","image-keyboard-response","119","464014","0.0-67.0","6400ed09421b2727c2f7c553","665500ab8938657b03fbdba8","6657925f794b3a3efc7b9978","2517","stimuli/2101111.jpg","1","","prediction_trial","2","","false","","2","false","false","false","false","false","false","[0,2]","101","111","0","","","","","","",""
"","","","","","image-keyboard-response","120","465075","0.0-68.0","6400ed09421b2727c2f7c553","665500ab8938657b03fbdba8","6657925f794b3a3efc7b9978","1059","stimuli/21011112.jpg"," ","","feedback_trial","0","","","","","","","","","","","","","","","","","","","","",""
"","","","","","image-keyboard-response","121","467831","0.0-69.0","6400ed09421b2727c2f7c553","665500ab8938657b03fbdba8","6657925f794b3a3efc7b9978","2755","stimuli/0011001.jpg","0","","prediction_trial","0","","true","","0","true","true","true","true","true","true","[0]","011","001","1","","","","","","",""
"","","","","","image-keyboard-response","122","468771","0.0-70.0","6400ed09421b2727c2f7c553","665500ab8938657b03fbdba8","6657925f794b3a3efc7b9978","937","stimuli/00110010.jpg"," ","","feedback_trial","0","","","","","","","","","","","","","","","","","","","","",""
"","","","","","image-keyboard-response","123","470605","0.0-71.0","6400ed09421b2727c2f7c553","665500ab8938657b03fbdba8","6657925f794b3a3efc7b9978","1831","stimuli/0001001.jpg","0","","prediction_trial","0","","true","","0","true","true","true","true","true","true","[0]","001","001","1","","","","","","",""
"","","","","","image-keyboard-response","124","471832","0.0-72.0","6400ed09421b2727c2f7c553","665500ab8938657b03fbdba8","6657925f794b3a3efc7b9978","1225","stimuli/00010010.jpg"," ","","feedback_trial","0","","","","","","","","","","","","","","","","","","","","",""
"","","","","","image-keyboard-response","125","474761","0.0-73.0","6400ed09421b2727c2f7c553","665500ab8938657b03fbdba8","6657925f794b3a3efc7b9978","2928","stimuli/2001111.jpg","1","","prediction_trial","2","","false","","2","false","false","false","true","false","false","[2]","001","111","0","","","","","","",""
"","","","","","image-keyboard-response","126","475787","0.0-74.0","6400ed09421b2727c2f7c553","665500ab8938657b03fbdba8","6657925f794b3a3efc7b9978","1024","stimuli/20011112.jpg"," ","","feedback_trial","2","","","","","","","","","","","","","","","","","","","","",""
"","","","","","image-keyboard-response","127","477308","0.0-75.0","6400ed09421b2727c2f7c553","665500ab8938657b03fbdba8","6657925f794b3a3efc7b9978","1519","stimuli/0111111.jpg","1","","prediction_trial","1","","true","","0","false","false","false","false","false","false","[1,0,2]","111","111","1","","","","","","",""
"","","","","","image-keyboard-response","128","478410","0.0-76.0","6400ed09421b2727c2f7c553","665500ab8938657b03fbdba8","6657925f794b3a3efc7b9978","1101","stimuli/01111111.jpg"," ","","feedback_trial","1","","","","","","","","","","","","","","","","","","","","",""
"","","","","","image-keyboard-response","129","480651","0.0-77.0","6400ed09421b2727c2f7c553","665500ab8938657b03fbdba8","6657925f794b3a3efc7b9978","2239","stimuli/2111001.jpg","2","","prediction_trial","2","","true","","2","false","true","false","false","false","false","[0,2,1]","111","001","1","","","","","","",""
"","","","","","image-keyboard-response","130","481719","0.0-78.0","6400ed09421b2727c2f7c553","665500ab8938657b03fbdba8","6657925f794b3a3efc7b9978","1066","stimuli/21110012.jpg"," ","","feedback_trial","0","","","","","","","","","","","","","","","","","","","","",""
"","","","","","image-keyboard-response","131","483751","0.0-79.0","6400ed09421b2727c2f7c553","665500ab8938657b03fbdba8","6657925f794b3a3efc7b9978","2030","stimuli/1000100.jpg","1","","prediction_trial","1","","true","","1","true","true","true","true","true","true","[1]","000","100","1","","","","","","",""
"","","","","","image-keyboard-response","132","484842","0.0-80.0","6400ed09421b2727c2f7c553","665500ab8938657b03fbdba8","6657925f794b3a3efc7b9978","1088","stimuli/10001001.jpg"," ","","feedback_trial","1","","","","","","","","","","","","","","","","","","","","",""
"","","","","","image-keyboard-response","133","487450","0.0-81.0","6400ed09421b2727c2f7c553","665500ab8938657b03fbdba8","6657925f794b3a3efc7b9978","2605","stimuli/1011111.jpg","0","","prediction_trial","1","","false","","1","false","false","false","false","false","false","[2,1]","011","111","0","","","","","","",""
"","","","","","image-keyboard-response","134","488436","0.0-82.0","6400ed09421b2727c2f7c553","665500ab8938657b03fbdba8","6657925f794b3a3efc7b9978","984","stimuli/10111111.jpg"," ","","feedback_trial","2","","","","","","","","","","","","","","","","","","","","",""
"","","","","","image-keyboard-response","135","490419","0.0-83.0","6400ed09421b2727c2f7c553","665500ab8938657b03fbdba8","6657925f794b3a3efc7b9978","1981","stimuli/2000110.jpg","2","","prediction_trial","2","","true","","2","true","true","true","true","true","true","[2]","000","110","1","","","","","","",""
"","","","","","image-keyboard-response","136","491487","0.0-84.0","6400ed09421b2727c2f7c553","665500ab8938657b03fbdba8","6657925f794b3a3efc7b9978","1066","stimuli/20001102.jpg"," ","","feedback_trial","2","","","","","","","","","","","","","","","","","","","","",""
"","","","","","image-keyboard-response","137","493093","0.0-85.0","6400ed09421b2727c2f7c553","665500ab8938657b03fbdba8","6657925f794b3a3efc7b9978","1604","stimuli/2011010.jpg","2","","prediction_trial","2","","true","","2","true","true","false","false","false","false","[2,1]","011","010","1","","","","","","",""
"","","","","","image-keyboard-response","138","494115","0.0-86.0","6400ed09421b2727c2f7c553","665500ab8938657b03fbdba8","6657925f794b3a3efc7b9978","1019","stimuli/20110102.jpg"," ","","feedback_trial","2","","","","","","","","","","","","","","","","","","","","",""
"","","","","","image-keyboard-response","139","495723","0.0-87.0","6400ed09421b2727c2f7c553","665500ab8938657b03fbdba8","6657925f794b3a3efc7b9978","1606","stimuli/1010001.jpg","1","","prediction_trial","1","","true","","1","true","true","false","true","false","true","[1]","010","001","1","","","","","","",""
"","","","","","image-keyboard-response","140","496808","0.0-88.0","6400ed09421b2727c2f7c553","665500ab8938657b03fbdba8","6657925f794b3a3efc7b9978","1082","stimuli/10100011.jpg"," ","","feedback_trial","1","","","","","","","","","","","","","","","","","","","","",""
"","","","","","image-keyboard-response","141","498346","0.0-89.0","6400ed09421b2727c2f7c553","665500ab8938657b03fbdba8","6657925f794b3a3efc7b9978","1536","stimuli/0000110.jpg","1","","prediction_trial","0","","false","","0","false","false","true","true","false","false","[0]","000","110","0","","","","","","",""
"","","","","","image-keyboard-response","142","499291","0.0-90.0","6400ed09421b2727c2f7c553","665500ab8938657b03fbdba8","6657925f794b3a3efc7b9978","943","stimuli/00001100.jpg"," ","","feedback_trial","0","","","","","","","","","","","","","","","","","","","","",""
"","","","","","image-keyboard-response","143","502300","0.0-91.0","6400ed09421b2727c2f7c553","665500ab8938657b03fbdba8","6657925f794b3a3efc7b9978","3006","stimuli/2111010.jpg","2","","prediction_trial","1","","false","","2","true","true","false","false","false","false","[1,2,0]","111","010","0","","","","","","",""
"","","","","","image-keyboard-response","144","503347","0.0-92.0","6400ed09421b2727c2f7c553","665500ab8938657b03fbdba8","6657925f794b3a3efc7b9978","1045","stimuli/21110101.jpg"," ","","feedback_trial","1","","","","","","","","","","","","","","","","","","","","",""
"","","","","","image-keyboard-response","145","505078","0.0-93.0","6400ed09421b2727c2f7c553","665500ab8938657b03fbdba8","6657925f794b3a3efc7b9978","1729","stimuli/1101101.jpg","1","","prediction_trial","1","","true","","1","true","true","true","true","true","true","[1]","101","101","1","","","","","","",""
"","","","","","image-keyboard-response","146","507063","0.0-94.0","6400ed09421b2727c2f7c553","665500ab8938657b03fbdba8","6657925f794b3a3efc7b9978","1983","stimuli/11011011.jpg"," ","","feedback_trial","1","","","","","","","","","","","","","","","","","","","","",""
"","","","","","image-keyboard-response","147","508911","0.0-95.0","6400ed09421b2727c2f7c553","665500ab8938657b03fbdba8","6657925f794b3a3efc7b9978","1846","stimuli/1011011.jpg","1","","prediction_trial","1","","true","","1","false","false","false","false","false","false","[1,2]","011","011","1","","","","","","",""
"","","","","","image-keyboard-response","148","510327","0.0-96.0","6400ed09421b2727c2f7c553","665500ab8938657b03fbdba8","6657925f794b3a3efc7b9978","1415","stimuli/10110111.jpg"," ","","feedback_trial","1","","","","","","","","","","","","","","","","","","","","",""
"","","","","","image-keyboard-response","149","511935","0.0-97.0","6400ed09421b2727c2f7c553","665500ab8938657b03fbdba8","6657925f794b3a3efc7b9978","1606","stimuli/2100111.jpg","1","","prediction_trial","2","","false","","2","false","false","true","true","false","false","[2]","100","111","0","","","","","","",""
"","","","","","image-keyboard-response","150","512975","0.0-98.0","6400ed09421b2727c2f7c553","665500ab8938657b03fbdba8","6657925f794b3a3efc7b9978","1039","stimuli/21001112.jpg"," ","","feedback_trial","2","","","","","","","","","","","","","","","","","","","","",""
"","","","","","image-keyboard-response","151","514479","0.0-99.0","6400ed09421b2727c2f7c553","665500ab8938657b03fbdba8","6657925f794b3a3efc7b9978","1502","stimuli/2110110.jpg","2","","prediction_trial","2","","true","","2","true","true","true","true","true","true","[2]","110","110","1","","","","","","",""
"","","","","","image-keyboard-response","152","515397","0.0-100.0","6400ed09421b2727c2f7c553","665500ab8938657b03fbdba8","6657925f794b3a3efc7b9978","915","stimuli/21101102.jpg"," ","","feedback_trial","2","","","","","","","","","","","","","","","","","","","","",""
"","","","","","image-keyboard-response","153","517029","0.0-101.0","6400ed09421b2727c2f7c553","665500ab8938657b03fbdba8","6657925f794b3a3efc7b9978","1630","stimuli/1101100.jpg","0","","prediction_trial","1","","false","","1","true","true","true","true","true","true","[1]","101","100","0","","","","","","",""
"","","","","","image-keyboard-response","154","518444","0.0-102.0","6400ed09421b2727c2f7c553","665500ab8938657b03fbdba8","6657925f794b3a3efc7b9978","1413","stimuli/11011001.jpg"," ","","feedback_trial","1","","","","","","","","","","","","","","","","","","","","",""
"","","","","","image-keyboard-response","155","520404","0.0-103.0","6400ed09421b2727c2f7c553","665500ab8938657b03fbdba8","6657925f794b3a3efc7b9978","1957","stimuli/1101111.jpg","1","","prediction_trial","1","","true","","1","false","false","true","true","false","false","[1]","101","111","1","","","","","","",""
"","","","","","image-keyboard-response","156","521445","0.0-104.0","6400ed09421b2727c2f7c553","665500ab8938657b03fbdba8","6657925f794b3a3efc7b9978","1039","stimuli/11011111.jpg"," ","","feedback_trial","1","","","","","","","","","","","","","","","","","","","","",""
"","","","","","image-keyboard-response","157","523524","0.0-105.0","6400ed09421b2727c2f7c553","665500ab8938657b03fbdba8","6657925f794b3a3efc7b9978","2077","stimuli/0001110.jpg","1","","prediction_trial","0","","false","","0","false","false","true","true","false","false","[0]","001","110","0","","","","","","",""
"","","","","","image-keyboard-response","158","524861","0.0-106.0","6400ed09421b2727c2f7c553","665500ab8938657b03fbdba8","6657925f794b3a3efc7b9978","1327","stimuli/00011100.jpg"," ","","feedback_trial","0","","","","","","","","","","","","","","","","","","","","",""
"","","","","","image-keyboard-response","159","526731","0.0-107.0","6400ed09421b2727c2f7c553","665500ab8938657b03fbdba8","6657925f794b3a3efc7b9978","1867","stimuli/1111100.jpg","1","","prediction_trial","2","","false","","1","true","true","false","false","false","false","[0,2,1]","111","100","0","","","","","","",""
"","","","","","image-keyboard-response","160","527864","0.0-108.0","6400ed09421b2727c2f7c553","665500ab8938657b03fbdba8","6657925f794b3a3efc7b9978","1131","stimuli/11111002.jpg"," ","","feedback_trial","0","","","","","","","","","","","","","","","","","","","","",""
"","","","","","image-keyboard-response","161","529707","0.0-109.0","6400ed09421b2727c2f7c553","665500ab8938657b03fbdba8","6657925f794b3a3efc7b9978","1841","stimuli/1001001.jpg","1","","prediction_trial","1","","true","","1","true","true","true","true","true","true","[1]","001","001","1","","","","","","",""
"","","","","","image-keyboard-response","162","530882","0.0-110.0","6400ed09421b2727c2f7c553","665500ab8938657b03fbdba8","6657925f794b3a3efc7b9978","1172","stimuli/10010011.jpg"," ","","feedback_trial","1","","","","","","","","","","","","","","","","","","","","",""
"","","","","","image-keyboard-response","163","532342","0.0-111.0","6400ed09421b2727c2f7c553","665500ab8938657b03fbdba8","6657925f794b3a3efc7b9978","1458","stimuli/0101111.jpg","1","","prediction_trial","0","","false","","0","false","false","false","false","false","false","[2,0]","101","111","0","","","","","","",""
"","","","","","image-keyboard-response","164","533565","0.0-112.0","6400ed09421b2727c2f7c553","665500ab8938657b03fbdba8","6657925f794b3a3efc7b9978","1221","stimuli/01011110.jpg"," ","","feedback_trial","2","","","","","","","","","","","","","","","","","","","","",""
"","","","","","image-keyboard-response","165","535378","0.0-113.0","6400ed09421b2727c2f7c553","665500ab8938657b03fbdba8","6657925f794b3a3efc7b9978","1810","stimuli/0100001.jpg","0","","prediction_trial","0","","true","","0","true","true","false","true","false","true","[0]","100","001","1","","","","","","",""
"","","","","","image-keyboard-response","166","537084","0.0-114.0","6400ed09421b2727c2f7c553","665500ab8938657b03fbdba8","6657925f794b3a3efc7b9978","1704","stimuli/01000010.jpg"," ","","feedback_trial","0","","","","","","","","","","","","","","","","","","","","",""
"","","","","","image-keyboard-response","167","538834","0.0-115.0","6400ed09421b2727c2f7c553","665500ab8938657b03fbdba8","6657925f794b3a3efc7b9978","1748","stimuli/2000111.jpg","1","","prediction_trial","2","","false","","2","false","false","true","true","false","false","[2]","000","111","0","","","","","","",""
"","","","","","image-keyboard-response","168","540415","0.0-116.0","6400ed09421b2727c2f7c553","665500ab8938657b03fbdba8","6657925f794b3a3efc7b9978","1579","stimuli/20001112.jpg"," ","","feedback_trial","2","","","","","","","","","","","","","","","","","","","","",""
"","","","","","image-keyboard-response","169","542863","0.0-117.0","6400ed09421b2727c2f7c553","665500ab8938657b03fbdba8","6657925f794b3a3efc7b9978","2447","stimuli/2001001.jpg","2","","prediction_trial","2","","true","","2","false","true","false","true","false","true","[2]","001","001","1","","","","","","",""
"","","","","","image-keyboard-response","170","544480","0.0-118.0","6400ed09421b2727c2f7c553","665500ab8938657b03fbdba8","6657925f794b3a3efc7b9978","1614","stimuli/20010012.jpg"," ","","feedback_trial","2","","","","","","","","","","","","","","","","","","","","",""
"","","","","","image-keyboard-response","171","547191","0.0-119.0","6400ed09421b2727c2f7c553","665500ab8938657b03fbdba8","6657925f794b3a3efc7b9978","2709","stimuli/2100011.jpg","1","","prediction_trial","2","","false","","2","false","false","true","true","false","false","[2]","100","011","0","","","","","","",""
"","","","","","image-keyboard-response","172","548755","0.0-120.0","6400ed09421b2727c2f7c553","665500ab8938657b03fbdba8","6657925f794b3a3efc7b9978","1562","stimuli/21000112.jpg"," ","","feedback_trial","2","","","","","","","","","","","","","","","","","","","","",""
"","","","","","image-keyboard-response","173","550793","0.0-121.0","6400ed09421b2727c2f7c553","665500ab8938657b03fbdba8","6657925f794b3a3efc7b9978","2035","stimuli/0010011.jpg","0","","prediction_trial","0","","true","","0","true","true","true","true","true","true","[0]","010","011","1","","","","","","",""
"","","","","","image-keyboard-response","174","551747","0.0-122.0","6400ed09421b2727c2f7c553","665500ab8938657b03fbdba8","6657925f794b3a3efc7b9978","952","stimuli/00100110.jpg"," ","","feedback_trial","0","","","","","","","","","","","","","","","","","","","","",""
"","","","","","image-keyboard-response","175","553716","0.0-123.0","6400ed09421b2727c2f7c553","665500ab8938657b03fbdba8","6657925f794b3a3efc7b9978","1966","stimuli/1000001.jpg","1","","prediction_trial","1","","true","","1","true","true","true","true","true","true","[1]","000","001","1","","","","","","",""
"","","","","","image-keyboard-response","176","555701","0.0-124.0","6400ed09421b2727c2f7c553","665500ab8938657b03fbdba8","6657925f794b3a3efc7b9978","1983","stimuli/10000011.jpg"," ","","feedback_trial","1","","","","","","","","","","","","","","","","","","","","",""
"","","","","","image-keyboard-response","177","559245","0.0-125.0","6400ed09421b2727c2f7c553","665500ab8938657b03fbdba8","6657925f794b3a3efc7b9978","3541","stimuli/2001101.jpg","2","","prediction_trial","2","","true","","2","false","false","false","true","false","false","[2]","001","101","1","","","","","","",""
"","","","","","image-keyboard-response","178","561825","0.0-126.0","6400ed09421b2727c2f7c553","665500ab8938657b03fbdba8","6657925f794b3a3efc7b9978","2578","stimuli/20011012.jpg"," ","","feedback_trial","2","","","","","","","","","","","","","","","","","","","","",""
"","","","","","image-keyboard-response","179","563667","0.0-127.0","6400ed09421b2727c2f7c553","665500ab8938657b03fbdba8","6657925f794b3a3efc7b9978","1840","stimuli/2100010.jpg","2","","prediction_trial","2","","true","","2","true","true","true","true","true","true","[2]","100","010","1","","","","","","",""
"","","","","","image-keyboard-response","180","565748","0.0-128.0","6400ed09421b2727c2f7c553","665500ab8938657b03fbdba8","6657925f794b3a3efc7b9978","2079","stimuli/21000102.jpg"," ","","feedback_trial","2","","","","","","","","","","","","","","","","","","","","",""
"","","","","","image-keyboard-response","181","569428","0.0-129.0","6400ed09421b2727c2f7c553","665500ab8938657b03fbdba8","6657925f794b3a3efc7b9978","3679","stimuli/2111011.jpg","1","","prediction_trial","1","","true","","2","false","false","false","false","false","false","[2,1,0]","111","011","1","","","","","","",""
"","","","","","image-keyboard-response","182","570556","0.0-130.0","6400ed09421b2727c2f7c553","665500ab8938657b03fbdba8","6657925f794b3a3efc7b9978","1126","stimuli/21110111.jpg"," ","","feedback_trial","2","","","","","","","","","","","","","","","","","","","","",""
"","","","","","image-keyboard-response","183","572542","0.0-131.0","6400ed09421b2727c2f7c553","665500ab8938657b03fbdba8","6657925f794b3a3efc7b9978","1983","stimuli/0101010.jpg","0","","prediction_trial","2","","false","","0","true","true","false","false","false","false","[2,0]","101","010","0","","","","","","",""
"","","","","","image-keyboard-response","184","573446","0.0-132.0","6400ed09421b2727c2f7c553","665500ab8938657b03fbdba8","6657925f794b3a3efc7b9978","902","stimuli/01010102.jpg"," ","","feedback_trial","2","","","","","","","","","","","","","","","","","","","","",""
"","","","","","image-keyboard-response","185","576373","0.0-133.0","6400ed09421b2727c2f7c553","665500ab8938657b03fbdba8","6657925f794b3a3efc7b9978","2925","stimuli/1010110.jpg","1","","prediction_trial","1","","true","","1","false","false","false","true","false","false","[1]","010","110","1","","","","","","",""
"","","","","","image-keyboard-response","186","577264","0.0-134.0","6400ed09421b2727c2f7c553","665500ab8938657b03fbdba8","6657925f794b3a3efc7b9978","888","stimuli/10101101.jpg"," ","","feedback_trial","1","","","","","","","","","","","","","","","","","","","","",""
"","","","","","image-keyboard-response","187","579145","0.0-135.0","6400ed09421b2727c2f7c553","665500ab8938657b03fbdba8","6657925f794b3a3efc7b9978","1879","stimuli/0100111.jpg","1","","prediction_trial","0","","false","","0","false","false","false","true","false","false","[0]","100","111","0","","","","","","",""
"","","","","","image-keyboard-response","188","580173","0.0-136.0","6400ed09421b2727c2f7c553","665500ab8938657b03fbdba8","6657925f794b3a3efc7b9978","1026","stimuli/01001110.jpg"," ","","feedback_trial","0","","","","","","","","","","","","","","","","","","","","",""
"","","","","","image-keyboard-response","189","581732","0.0-137.0","6400ed09421b2727c2f7c553","665500ab8938657b03fbdba8","6657925f794b3a3efc7b9978","1557","stimuli/0010110.jpg","1","","prediction_trial","0","","false","","0","false","false","true","true","false","false","[0]","010","110","0","","","","","","",""
"","","","","","image-keyboard-response","190","582688","0.0-138.0","6400ed09421b2727c2f7c553","665500ab8938657b03fbdba8","6657925f794b3a3efc7b9978","953","stimuli/00101100.jpg"," ","","feedback_trial","0","","","","","","","","","","","","","","","","","","","","",""
"","","","","","image-keyboard-response","191","584986","0.0-139.0","6400ed09421b2727c2f7c553","665500ab8938657b03fbdba8","6657925f794b3a3efc7b9978","2299","stimuli/2101110.jpg","2","","prediction_trial","2","","true","","2","true","true","false","false","false","false","[2,0]","101","110","1","","","","","","",""
"","","","","","image-keyboard-response","192","586747","0.0-140.0","6400ed09421b2727c2f7c553","665500ab8938657b03fbdba8","6657925f794b3a3efc7b9978","1759","stimuli/21011102.jpg"," ","","feedback_trial","2","","","","","","","","","","","","","","","","","","","","",""
"","","","","","image-keyboard-response","193","588799","0.0-141.0","6400ed09421b2727c2f7c553","665500ab8938657b03fbdba8","6657925f794b3a3efc7b9978","2049","stimuli/1110110.jpg","1","","prediction_trial","0","","false","","1","false","false","false","false","false","false","[1,0]","110","110","0","","","","","","",""
"","","","","","image-keyboard-response","194","589638","0.0-142.0","6400ed09421b2727c2f7c553","665500ab8938657b03fbdba8","6657925f794b3a3efc7b9978","837","stimuli/11101100.jpg"," ","","feedback_trial","1","","","","","","","","","","","","","","","","","","","","",""
"","","","","","image-keyboard-response","195","591293","0.0-143.0","6400ed09421b2727c2f7c553","665500ab8938657b03fbdba8","6657925f794b3a3efc7b9978","1654","stimuli/1001111.jpg","1","","prediction_trial","1","","true","","1","false","false","true","true","false","false","[1]","001","111","1","","","","","","",""
"","","","","","image-keyboard-response","196","592092","0.0-144.0","6400ed09421b2727c2f7c553","665500ab8938657b03fbdba8","6657925f794b3a3efc7b9978","796","stimuli/10011111.jpg"," ","","feedback_trial","1","","","","","","","","","","","","","","","","","","","","",""
"","","","","","image-keyboard-response","197","593918","0.0-145.0","6400ed09421b2727c2f7c553","665500ab8938657b03fbdba8","6657925f794b3a3efc7b9978","1824","stimuli/2010101.jpg","2","","prediction_trial","2","","true","","2","false","false","true","true","false","false","[2]","010","101","1","","","","","","",""
"","","","","","image-keyboard-response","198","594855","0.0-146.0","6400ed09421b2727c2f7c553","665500ab8938657b03fbdba8","6657925f794b3a3efc7b9978","935","stimuli/20101012.jpg"," ","","feedback_trial","2","","","","","","","","","","","","","","","","","","","","",""
"","","","","","image-keyboard-response","199","597076","0.0-147.0","6400ed09421b2727c2f7c553","665500ab8938657b03fbdba8","6657925f794b3a3efc7b9978","2220","stimuli/1001011.jpg","1","","prediction_trial","1","","true","","1","false","false","true","true","false","false","[1]","001","011","1","","","","","","",""
"","","","","","image-keyboard-response","200","597852","0.0-148.0","6400ed09421b2727c2f7c553","665500ab8938657b03fbdba8","6657925f794b3a3efc7b9978","773","stimuli/10010111.jpg"," ","","feedback_trial","1","","","","","","","","","","","","","","","","","","","","",""
"","","","","","image-keyboard-response","201","599760","0.0-149.0","6400ed09421b2727c2f7c553","665500ab8938657b03fbdba8","6657925f794b3a3efc7b9978","1906","stimuli/0000100.jpg","0","","prediction_trial","0","","true","","0","false","true","true","true","false","true","[0]","000","100","1","","","","","","",""
"","","","","","image-keyboard-response","202","600731","0.0-150.0","6400ed09421b2727c2f7c553","665500ab8938657b03fbdba8","6657925f794b3a3efc7b9978","969","stimuli/00001000.jpg"," ","","feedback_trial","0","","","","","","","","","","","","","","","","","","","","",""
"","","","","","image-keyboard-response","203","602368","0.0-151.0","6400ed09421b2727c2f7c553","665500ab8938657b03fbdba8","6657925f794b3a3efc7b9978","1633","stimuli/0011100.jpg","0","","prediction_trial","0","","true","","0","false","true","true","true","false","true","[0]","011","100","1","","","","","","",""
"","","","","","image-keyboard-response","204","603211","0.0-152.0","6400ed09421b2727c2f7c553","665500ab8938657b03fbdba8","6657925f794b3a3efc7b9978","841","stimuli/00111000.jpg"," ","","feedback_trial","0","","","","","","","","","","","","","","","","","","","","",""
"","","","","","image-keyboard-response","205","605851","0.0-153.0","6400ed09421b2727c2f7c553","665500ab8938657b03fbdba8","6657925f794b3a3efc7b9978","2637","stimuli/1010111.jpg","1","","prediction_trial","1","","true","","1","false","false","false","true","false","false","[1]","010","111","1","","","","","","",""
"","","","","","image-keyboard-response","206","606762","0.0-154.0","6400ed09421b2727c2f7c553","665500ab8938657b03fbdba8","6657925f794b3a3efc7b9978","909","stimuli/10101111.jpg"," ","","feedback_trial","1","","","","","","","","","","","","","","","","","","","","",""
"","","","","","image-keyboard-response","207","609060","0.0-155.0","6400ed09421b2727c2f7c553","665500ab8938657b03fbdba8","6657925f794b3a3efc7b9978","2296","stimuli/0111000.jpg","0","","prediction_trial","0","","true","","0","true","true","false","false","false","false","[1,0,2]","111","000","1","","","","","","",""
"","","","","","image-keyboard-response","208","609854","0.0-156.0","6400ed09421b2727c2f7c553","665500ab8938657b03fbdba8","6657925f794b3a3efc7b9978","791","stimuli/01110000.jpg"," ","","feedback_trial","1","","","","","","","","","","","","","","","","","","","","",""
"","","","","","image-keyboard-response","209","611872","0.0-157.0","6400ed09421b2727c2f7c553","665500ab8938657b03fbdba8","6657925f794b3a3efc7b9978","2016","stimuli/1111010.jpg","1","","prediction_trial","0","","false","","1","false","true","false","false","false","false","[0,2,1]","111","010","0","","","","","","",""
"","","","","","image-keyboard-response","210","613236","0.0-158.0","6400ed09421b2727c2f7c553","665500ab8938657b03fbdba8","6657925f794b3a3efc7b9978","1361","stimuli/11110100.jpg"," ","","feedback_trial","0","","","","","","","","","","","","","","","","","","","","",""
"","","","","","image-keyboard-response","211","617096","0.0-159.0","6400ed09421b2727c2f7c553","665500ab8938657b03fbdba8","6657925f794b3a3efc7b9978","3858","stimuli/0000001.jpg","0","","prediction_trial","0","","true","","0","true","true","true","true","true","true","[0]","000","001","1","","","","","","",""
"","","","","","image-keyboard-response","212","617944","0.0-160.0","6400ed09421b2727c2f7c553","665500ab8938657b03fbdba8","6657925f794b3a3efc7b9978","845","stimuli/00000010.jpg"," ","","feedback_trial","0","","","","","","","","","","","","","","","","","","","","",""
"","","","","","image-keyboard-response","213","619764","0.0-161.0","6400ed09421b2727c2f7c553","665500ab8938657b03fbdba8","6657925f794b3a3efc7b9978","1818","stimuli/0010001.jpg","0","","prediction_trial","0","","true","","0","true","true","true","true","true","true","[0]","010","001","1","","","","","","",""
"","","","","","image-keyboard-response","214","620818","0.0-162.0","6400ed09421b2727c2f7c553","665500ab8938657b03fbdba8","6657925f794b3a3efc7b9978","1051","stimuli/00100010.jpg"," ","","feedback_trial","0","","","","","","","","","","","","","","","","","","","","",""
"","","","","","image-keyboard-response","215","623141","0.0-163.0","6400ed09421b2727c2f7c553","665500ab8938657b03fbdba8","6657925f794b3a3efc7b9978","2321","stimuli/1101011.jpg","1","","prediction_trial","1","","true","","1","false","false","true","true","false","false","[1]","101","011","1","","","","","","",""
"","","","","","image-keyboard-response","216","624226","0.0-164.0","6400ed09421b2727c2f7c553","665500ab8938657b03fbdba8","6657925f794b3a3efc7b9978","1082","stimuli/11010111.jpg"," ","","feedback_trial","1","","","","","","","","","","","","","","","","","","","","",""
"","","","","","image-keyboard-response","217","627595","0.0-165.0","6400ed09421b2727c2f7c553","665500ab8938657b03fbdba8","6657925f794b3a3efc7b9978","3368","stimuli/2011101.jpg","0","","prediction_trial","1","","false","","2","false","false","false","false","false","false","[2,1]","011","101","0","","","","","","",""
"","","","","","image-keyboard-response","218","628876","0.0-166.0","6400ed09421b2727c2f7c553","665500ab8938657b03fbdba8","6657925f794b3a3efc7b9978","1278","stimuli/20111011.jpg"," ","","feedback_trial","2","","","","","","","","","","","","","","","","","","","","",""
"","","","","","image-keyboard-response","219","631997","0.0-167.0","6400ed09421b2727c2f7c553","665500ab8938657b03fbdba8","6657925f794b3a3efc7b9978","3118","stimuli/0110101.jpg","0","","prediction_trial","1","","false","","0","false","false","false","false","false","false","[0,1]","110","101","0","","","","","","",""
"","","","","","image-keyboard-response","220","633539","0.0-168.0","6400ed09421b2727c2f7c553","665500ab8938657b03fbdba8","6657925f794b3a3efc7b9978","1540","stimuli/01101011.jpg"," ","","feedback_trial","0","","","","","","","","","","","","","","","","","","","","",""
"","","","","","image-keyboard-response","221","636717","0.0-169.0","6400ed09421b2727c2f7c553","665500ab8938657b03fbdba8","6657925f794b3a3efc7b9978","3175","stimuli/1100100.jpg","1","","prediction_trial","1","","true","","1","true","true","true","true","true","true","[1]","100","100","1","","","","","","",""
"","","","","","image-keyboard-response","222","638173","0.0-170.0","6400ed09421b2727c2f7c553","665500ab8938657b03fbdba8","6657925f794b3a3efc7b9978","1454","stimuli/11001001.jpg"," ","","feedback_trial","1","","","","","","","","","","","","","","","","","","","","",""
"","","","","","image-keyboard-response","223","640175","0.0-171.0","6400ed09421b2727c2f7c553","665500ab8938657b03fbdba8","6657925f794b3a3efc7b9978","1999","stimuli/0110001.jpg","0","","prediction_trial","1","","false","","0","true","true","false","false","false","false","[1,0]","110","001","0","","","","","","",""
"","","","","","image-keyboard-response","224","641350","0.0-172.0","6400ed09421b2727c2f7c553","665500ab8938657b03fbdba8","6657925f794b3a3efc7b9978","1173","stimuli/01100011.jpg"," ","","feedback_trial","1","","","","","","","","","","","","","","","","","","","","",""
"","","","","","image-keyboard-response","225","642872","0.0-173.0","6400ed09421b2727c2f7c553","665500ab8938657b03fbdba8","6657925f794b3a3efc7b9978","1519","stimuli/1110100.jpg","1","","prediction_trial","1","","true","","1","true","true","false","false","false","false","[0,1]","110","100","1","","","","","","",""
"","","","","","image-keyboard-response","226","643755","0.0-174.0","6400ed09421b2727c2f7c553","665500ab8938657b03fbdba8","6657925f794b3a3efc7b9978","881","stimuli/11101001.jpg"," ","","feedback_trial","0","","","","","","","","","","","","","","","","","","","","",""
"","","","","","image-keyboard-response","227","645544","0.0-175.0","6400ed09421b2727c2f7c553","665500ab8938657b03fbdba8","6657925f794b3a3efc7b9978","1792","stimuli/2101001.jpg","2","","prediction_trial","2","","true","","2","false","true","false","false","false","false","[2,0]","101","001","1","","","","","","",""
"","","","","","image-keyboard-response","228","646926","0.0-176.0","6400ed09421b2727c2f7c553","665500ab8938657b03fbdba8","6657925f794b3a3efc7b9978","1380","stimuli/21010012.jpg"," ","","feedback_trial","2","","","","","","","","","","","","","","","","","","","","",""
"","","","","","image-keyboard-response","229","648933","0.0-177.0","6400ed09421b2727c2f7c553","665500ab8938657b03fbdba8","6657925f794b3a3efc7b9978","2005","stimuli/0000010.jpg","0","","prediction_trial","0","","true","","0","true","true","true","true","true","true","[0]","000","010","1","","","","","","",""
"","","","","","image-keyboard-response","230","650950","0.0-178.0","6400ed09421b2727c2f7c553","665500ab8938657b03fbdba8","6657925f794b3a3efc7b9978","2015","stimuli/00000100.jpg"," ","","feedback_trial","0","","","","","","","","","","","","","","","","","","","","",""
"","","","","","image-keyboard-response","231","652935","0.0-179.0","6400ed09421b2727c2f7c553","665500ab8938657b03fbdba8","6657925f794b3a3efc7b9978","1983","stimuli/2111000.jpg","2","","prediction_trial","1","","false","","2","true","true","false","false","false","false","[2,0,1]","111","000","0","","","","","","",""
"","","","","","image-keyboard-response","232","654353","0.0-180.0","6400ed09421b2727c2f7c553","665500ab8938657b03fbdba8","6657925f794b3a3efc7b9978","1416","stimuli/21110001.jpg"," ","","feedback_trial","2","","","","","","","","","","","","","","","","","","","","",""
"","","","","","image-keyboard-response","233","657633","0.0-181.0","6400ed09421b2727c2f7c553","665500ab8938657b03fbdba8","6657925f794b3a3efc7b9978","3277","stimuli/0110111.jpg","1","","prediction_trial","1","","true","","0","false","false","false","false","false","false","[0,1]","110","111","1","","","","","","",""
"","","","","","image-keyboard-response","234","658497","0.0-182.0","6400ed09421b2727c2f7c553","665500ab8938657b03fbdba8","6657925f794b3a3efc7b9978","861","stimuli/01101111.jpg"," ","","feedback_trial","0","","","","","","","","","","","","","","","","","","","","",""
"","","","","","image-keyboard-response","235","660280","0.0-183.0","6400ed09421b2727c2f7c553","665500ab8938657b03fbdba8","6657925f794b3a3efc7b9978","1782","stimuli/1011000.jpg","1","","prediction_trial","1","","true","","1","true","true","false","false","false","false","[1,2]","011","000","1","","","","","","",""
"","","","","","image-keyboard-response","236","662409","0.0-184.0","6400ed09421b2727c2f7c553","665500ab8938657b03fbdba8","6657925f794b3a3efc7b9978","2127","stimuli/10110001.jpg"," ","","feedback_trial","1","","","","","","","","","","","","","","","","","","","","",""
"","","","","","image-keyboard-response","237","664080","0.0-185.0","6400ed09421b2727c2f7c553","665500ab8938657b03fbdba8","6657925f794b3a3efc7b9978","1669","stimuli/0000000.jpg","0","","prediction_trial","0","","true","","0","true","true","true","true","true","true","[0]","000","000","1","","","","","","",""
"","","","","","image-keyboard-response","238","664958","0.0-186.0","6400ed09421b2727c2f7c553","665500ab8938657b03fbdba8","6657925f794b3a3efc7b9978","876","stimuli/00000000.jpg"," ","","feedback_trial","0","","","","","","","","","","","","","","","","","","","","",""
"","","","","","image-keyboard-response","239","666575","0.0-187.0","6400ed09421b2727c2f7c553","665500ab8938657b03fbdba8","6657925f794b3a3efc7b9978","1615","stimuli/1111000.jpg","1","","prediction_trial","1","","true","","1","true","true","false","false","false","false","[0,1,2]","111","000","1","","","","","","",""
"","","","","","image-keyboard-response","240","667583","0.0-188.0","6400ed09421b2727c2f7c553","665500ab8938657b03fbdba8","6657925f794b3a3efc7b9978","1005","stimuli/11110001.jpg"," ","","feedback_trial","0","","","","","","","","","","","","","","","","","","","","",""
"","","","","","image-keyboard-response","241","669963","0.0-189.0","6400ed09421b2727c2f7c553","665500ab8938657b03fbdba8","6657925f794b3a3efc7b9978","2378","stimuli/2001011.jpg","1","","prediction_trial","2","","false","","2","false","false","false","true","false","false","[2]","001","011","0","","","","","","",""
"","","","","","image-keyboard-response","242","670699","0.0-190.0","6400ed09421b2727c2f7c553","665500ab8938657b03fbdba8","6657925f794b3a3efc7b9978","733","stimuli/20010112.jpg"," ","","feedback_trial","2","","","","","","","","","","","","","","","","","","","","",""
"","","","","","image-keyboard-response","243","672782","0.0-191.0","6400ed09421b2727c2f7c553","665500ab8938657b03fbdba8","6657925f794b3a3efc7b9978","2081","stimuli/0010101.jpg","2","","prediction_trial","0","","false","","0","false","false","true","true","false","false","[0]","010","101","0","","","","","","",""
"","","","","","image-keyboard-response","244","673699","0.0-192.0","6400ed09421b2727c2f7c553","665500ab8938657b03fbdba8","6657925f794b3a3efc7b9978","914","stimuli/00101010.jpg"," ","","feedback_trial","0","","","","","","","","","","","","","","","","","","","","",""
"","","","","","image-keyboard-response","245","675531","0.0-193.0","6400ed09421b2727c2f7c553","665500ab8938657b03fbdba8","6657925f794b3a3efc7b9978","1830","stimuli/1010010.jpg","1","","prediction_trial","1","","true","","1","false","true","false","true","false","true","[1]","010","010","1","","","","","","",""
"","","","","","image-keyboard-response","246","676407","0.0-194.0","6400ed09421b2727c2f7c553","665500ab8938657b03fbdba8","6657925f794b3a3efc7b9978","873","stimuli/10100101.jpg"," ","","feedback_trial","1","","","","","","","","","","","","","","","","","","","","",""
"","","","","","image-keyboard-response","247","678449","0.0-195.0","6400ed09421b2727c2f7c553","665500ab8938657b03fbdba8","6657925f794b3a3efc7b9978","2040","stimuli/0110000.jpg","0","","prediction_trial","0","","true","","0","true","true","false","false","false","false","[0,1]","110","000","1","","","","","","",""
"","","","","","image-keyboard-response","248","679368","0.0-196.0","6400ed09421b2727c2f7c553","665500ab8938657b03fbdba8","6657925f794b3a3efc7b9978","917","stimuli/01100000.jpg"," ","","feedback_trial","0","","","","","","","","","","","","","","","","","","","","",""
"","","","","","image-keyboard-response","249","680904","0.0-197.0","6400ed09421b2727c2f7c553","665500ab8938657b03fbdba8","6657925f794b3a3efc7b9978","1534","stimuli/0111010.jpg","0","","prediction_trial","2","","false","","0","true","true","false","false","false","false","[1,2,0]","111","010","0","","","","","","",""
"","","","","","image-keyboard-response","250","682271","0.0-198.0","6400ed09421b2727c2f7c553","665500ab8938657b03fbdba8","6657925f794b3a3efc7b9978","1364","stimuli/01110102.jpg"," ","","feedback_trial","1","","","","","","","","","","","","","","","","","","","","",""
"","","","","","image-keyboard-response","251","684556","0.0-199.0","6400ed09421b2727c2f7c553","665500ab8938657b03fbdba8","6657925f794b3a3efc7b9978","2283","stimuli/0100000.jpg","0","","prediction_trial","0","","true","","0","true","true","false","true","false","true","[0]","100","000","1","","","","","","",""
"","","","","","image-keyboard-response","252","686312","0.0-200.0","6400ed09421b2727c2f7c553","665500ab8938657b03fbdba8","6657925f794b3a3efc7b9978","1753","stimuli/01000000.jpg"," ","","feedback_trial","0","","","","","","","","","","","","","","","","","","","","",""
"","","","","","image-keyboard-response","253","687729","0.0-201.0","6400ed09421b2727c2f7c553","665500ab8938657b03fbdba8","6657925f794b3a3efc7b9978","1415","stimuli/0100010.jpg","0","","prediction_trial","0","","true","","0","true","true","false","true","false","true","[0]","100","010","1","","","","","","",""
"","","","","","image-keyboard-response","254","688589","0.0-202.0","6400ed09421b2727c2f7c553","665500ab8938657b03fbdba8","6657925f794b3a3efc7b9978","857","stimuli/01000100.jpg"," ","","feedback_trial","0","","","","","","","","","","","","","","","","","","","","",""
"","","","","","image-keyboard-response","255","690699","0.0-203.0","6400ed09421b2727c2f7c553","665500ab8938657b03fbdba8","6657925f794b3a3efc7b9978","2108","stimuli/1111110.jpg","1","","prediction_trial","2","","false","","1","false","false","false","false","false","false","[1,2,0]","111","110","0","","","","","","",""
"","","","","","image-keyboard-response","256","692688","0.0-204.0","6400ed09421b2727c2f7c553","665500ab8938657b03fbdba8","6657925f794b3a3efc7b9978","1986","stimuli/11111102.jpg"," ","","feedback_trial","1","","","","","","","","","","","","","","","","","","","","",""
"","","","","","image-keyboard-response","257","694648","0.0-205.0","6400ed09421b2727c2f7c553","665500ab8938657b03fbdba8","6657925f794b3a3efc7b9978","1957","stimuli/1111101.jpg","1","","prediction_trial","0","","false","","1","true","true","false","false","false","false","[1,0,2]","111","101","0","","","","","","",""
"","","","","","image-keyboard-response","258","695683","0.0-206.0","6400ed09421b2727c2f7c553","665500ab8938657b03fbdba8","6657925f794b3a3efc7b9978","1033","stimuli/11111010.jpg"," ","","feedback_trial","1","","","","","","","","","","","","","","","","","","","","",""
"","","","","","image-keyboard-response","259","698148","0.0-207.0","6400ed09421b2727c2f7c553","665500ab8938657b03fbdba8","6657925f794b3a3efc7b9978","2462","stimuli/2111101.jpg","0","","prediction_trial","1","","false","","2","false","false","false","false","false","false","[0,1,2]","111","101","0","","","","","","",""
"","","","","","image-keyboard-response","260","698934","0.0-208.0","6400ed09421b2727c2f7c553","665500ab8938657b03fbdba8","6657925f794b3a3efc7b9978","784","stimuli/21111011.jpg"," ","","feedback_trial","0","","","","","","","","","","","","","","","","","","","","",""
"","","","","","image-keyboard-response","261","701927","0.0-209.0","6400ed09421b2727c2f7c553","665500ab8938657b03fbdba8","6657925f794b3a3efc7b9978","2991","stimuli/2000001.jpg","2","","prediction_trial","2","","true","","2","false","true","true","true","false","true","[2]","000","001","1","","","","","","",""
"","","","","","image-keyboard-response","262","702799","0.0-210.0","6400ed09421b2727c2f7c553","665500ab8938657b03fbdba8","6657925f794b3a3efc7b9978","870","stimuli/20000012.jpg"," ","","feedback_trial","2","","","","","","","","","","","","","","","","","","","","",""
"","","","","","image-keyboard-response","263","704481","0.0-211.0","6400ed09421b2727c2f7c553","665500ab8938657b03fbdba8","6657925f794b3a3efc7b9978","1679","stimuli/0011000.jpg","0","","prediction_trial","0","","true","","0","true","true","true","true","true","true","[0]","011","000","1","","","","","","",""
"","","","","","image-keyboard-response","264","705266","0.0-212.0","6400ed09421b2727c2f7c553","665500ab8938657b03fbdba8","6657925f794b3a3efc7b9978","783","stimuli/00110000.jpg"," ","","feedback_trial","0","","","","","","","","","","","","","","","","","","","","",""
"","","","","","image-keyboard-response","265","706917","0.0-213.0","6400ed09421b2727c2f7c553","665500ab8938657b03fbdba8","6657925f794b3a3efc7b9978","1653","stimuli/2111100.jpg","2","","prediction_trial","1","","false","","2","true","true","false","false","false","false","[2,0,1]","111","100","0","","","","","","",""
"","","","","","image-keyboard-response","266","707712","0.0-214.0","6400ed09421b2727c2f7c553","665500ab8938657b03fbdba8","6657925f794b3a3efc7b9978","792","stimuli/21111001.jpg"," ","","feedback_trial","2","","","","","","","","","","","","","","","","","","","","",""
"","","","","","image-keyboard-response","267","709667","0.0-215.0","6400ed09421b2727c2f7c553","665500ab8938657b03fbdba8","6657925f794b3a3efc7b9978","1952","stimuli/2101100.jpg","2","","prediction_trial","0","","false","","2","true","true","false","false","false","false","[2,0]","101","100","0","","","","","","",""
"","","","","","image-keyboard-response","268","710527","0.0-216.0","6400ed09421b2727c2f7c553","665500ab8938657b03fbdba8","6657925f794b3a3efc7b9978","858","stimuli/21011000.jpg"," ","","feedback_trial","2","","","","","","","","","","","","","","","","","","","","",""
"","","","","","image-keyboard-response","269","712374","0.0-217.0","6400ed09421b2727c2f7c553","665500ab8938657b03fbdba8","6657925f794b3a3efc7b9978","1845","stimuli/1011001.jpg","1","","prediction_trial","1","","true","","1","true","true","false","false","false","false","[2,1]","011","001","1","","","","","","",""
"","","","","","image-keyboard-response","270","713324","0.0-218.0","6400ed09421b2727c2f7c553","665500ab8938657b03fbdba8","6657925f794b3a3efc7b9978","949","stimuli/10110011.jpg"," ","","feedback_trial","2","","","","","","","","","","","","","","","","","","","","",""
"","","","","","image-keyboard-response","271","714914","0.0-219.0","6400ed09421b2727c2f7c553","665500ab8938657b03fbdba8","6657925f794b3a3efc7b9978","1588","stimuli/2110000.jpg","2","","prediction_trial","2","","true","","2","true","true","true","true","true","true","[2]","110","000","1","","","","","","",""
"","","","","","image-keyboard-response","272","716091","0.0-220.0","6400ed09421b2727c2f7c553","665500ab8938657b03fbdba8","6657925f794b3a3efc7b9978","1174","stimuli/21100002.jpg"," ","","feedback_trial","2","","","","","","","","","","","","","","","","","","","","",""
"","","","","","image-keyboard-response","273","718002","0.0-221.0","6400ed09421b2727c2f7c553","665500ab8938657b03fbdba8","6657925f794b3a3efc7b9978","1908","stimuli/1110111.jpg","2","","prediction_trial","1","","false","","1","false","false","false","false","false","false","[1,0]","110","111","0","","","","","","",""
"","","","","","image-keyboard-response","274","719583","0.0-222.0","6400ed09421b2727c2f7c553","665500ab8938657b03fbdba8","6657925f794b3a3efc7b9978","1579","stimuli/11101111.jpg"," ","","feedback_trial","1","","","","","","","","","","","","","","","","","","","","",""
"","","","","","image-keyboard-response","275","721104","0.0-223.0","6400ed09421b2727c2f7c553","665500ab8938657b03fbdba8","6657925f794b3a3efc7b9978","1519","stimuli/2010100.jpg","2","","prediction_trial","2","","true","","2","true","true","true","true","true","true","[2]","010","100","1","","","","","","",""
"","","","","","image-keyboard-response","276","722432","0.0-224.0","6400ed09421b2727c2f7c553","665500ab8938657b03fbdba8","6657925f794b3a3efc7b9978","1326","stimuli/20101002.jpg"," ","","feedback_trial","2","","","","","","","","","","","","","","","","","","","","",""
"","","","","","image-keyboard-response","277","724901","0.0-225.0","6400ed09421b2727c2f7c553","665500ab8938657b03fbdba8","6657925f794b3a3efc7b9978","2467","stimuli/0010100.jpg","0","","prediction_trial","0","","true","","0","false","true","true","true","false","true","[0]","010","100","1","","","","","","",""
"","","","","","image-keyboard-response","278","725760","0.0-226.0","6400ed09421b2727c2f7c553","665500ab8938657b03fbdba8","6657925f794b3a3efc7b9978","856","stimuli/00101000.jpg"," ","","feedback_trial","0","","","","","","","","","","","","","","","","","","","","",""
"","","","","","image-keyboard-response","279","727544","0.0-227.0","6400ed09421b2727c2f7c553","665500ab8938657b03fbdba8","6657925f794b3a3efc7b9978","1783","stimuli/1000000.jpg","1","","prediction_trial","1","","true","","1","true","true","true","true","true","true","[1]","000","000","1","","","","","","",""
"","","","","","image-keyboard-response","280","728392","0.0-228.0","6400ed09421b2727c2f7c553","665500ab8938657b03fbdba8","6657925f794b3a3efc7b9978","847","stimuli/10000001.jpg"," ","","feedback_trial","1","","","","","","","","","","","","","","","","","","","","",""
"","","","","","image-keyboard-response","281","730283","0.0-229.0","6400ed09421b2727c2f7c553","665500ab8938657b03fbdba8","6657925f794b3a3efc7b9978","1889","stimuli/2100100.jpg","2","","prediction_trial","2","","true","","2","true","true","true","true","true","true","[2]","100","100","1","","","","","","",""
"","","","","","image-keyboard-response","282","731278","0.0-230.0","6400ed09421b2727c2f7c553","665500ab8938657b03fbdba8","6657925f794b3a3efc7b9978","993","stimuli/21001002.jpg"," ","","feedback_trial","2","","","","","","","","","","","","","","","","","","","","",""
"","","","","","image-keyboard-response","283","733506","0.0-231.0","6400ed09421b2727c2f7c553","665500ab8938657b03fbdba8","6657925f794b3a3efc7b9978","2225","stimuli/1100011.jpg","1","","prediction_trial","1","","true","","1","false","false","true","true","false","false","[1]","100","011","1","","","","","","",""
"","","","","","image-keyboard-response","284","734594","0.0-232.0","6400ed09421b2727c2f7c553","665500ab8938657b03fbdba8","6657925f794b3a3efc7b9978","1086","stimuli/11000111.jpg"," ","","feedback_trial","1","","","","","","","","","","","","","","","","","","","","",""
"","","","","","image-keyboard-response","285","736219","0.0-233.0","6400ed09421b2727c2f7c553","665500ab8938657b03fbdba8","6657925f794b3a3efc7b9978","1623","stimuli/0001011.jpg","0","","prediction_trial","0","","true","","0","true","true","true","true","true","true","[0]","001","011","1","","","","","","",""
"","","","","","image-keyboard-response","286","738914","0.0-234.0","6400ed09421b2727c2f7c553","665500ab8938657b03fbdba8","6657925f794b3a3efc7b9978","2693","stimuli/00010110.jpg"," ","","feedback_trial","0","","","","","","","","","","","","","","","","","","","","",""
"","","","","","image-keyboard-response","287","740865","0.0-235.0","6400ed09421b2727c2f7c553","665500ab8938657b03fbdba8","6657925f794b3a3efc7b9978","1949","stimuli/1110001.jpg","1","","prediction_trial","0","","false","","1","true","true","false","false","false","false","[1,0]","110","001","0","","","","","","",""
"","","","","","image-keyboard-response","288","743142","0.0-236.0","6400ed09421b2727c2f7c553","665500ab8938657b03fbdba8","6657925f794b3a3efc7b9978","2275","stimuli/11100010.jpg"," ","","feedback_trial","1","","","","","","","","","","","","","","","","","","","","",""
"","","","","","image-keyboard-response","289","744719","0.0-237.0","6400ed09421b2727c2f7c553","665500ab8938657b03fbdba8","6657925f794b3a3efc7b9978","1574","stimuli/1010100.jpg","1","","prediction_trial","1","","true","","1","true","true","false","true","false","true","[1]","010","100","1","","","","","","",""
"","","","","","image-keyboard-response","290","746221","0.0-238.0","6400ed09421b2727c2f7c553","665500ab8938657b03fbdba8","6657925f794b3a3efc7b9978","1500","stimuli/10101001.jpg"," ","","feedback_trial","1","","","","","","","","","","","","","","","","","","","","",""
"","","","","","image-keyboard-response","291","748703","0.0-239.0","6400ed09421b2727c2f7c553","665500ab8938657b03fbdba8","6657925f794b3a3efc7b9978","2480","stimuli/0101101.jpg","0","","prediction_trial","2","","false","","0","false","false","false","false","false","false","[0,2]","101","101","0","","","","","","",""
"","","","","","image-keyboard-response","292","750503","0.0-240.0","6400ed09421b2727c2f7c553","665500ab8938657b03fbdba8","6657925f794b3a3efc7b9978","1797","stimuli/01011012.jpg"," ","","feedback_trial","0","","","","","","","","","","","","","","","","","","","","",""
"","","","","","image-keyboard-response","293","752230","0.0-241.0","6400ed09421b2727c2f7c553","665500ab8938657b03fbdba8","6657925f794b3a3efc7b9978","1725","stimuli/2010010.jpg","2","","prediction_trial","2","","true","","2","true","true","true","true","true","true","[2]","010","010","1","","","","","","",""
"","","","","","image-keyboard-response","294","753694","0.0-242.0","6400ed09421b2727c2f7c553","665500ab8938657b03fbdba8","6657925f794b3a3efc7b9978","1461","stimuli/20100102.jpg"," ","","feedback_trial","2","","","","","","","","","","","","","","","","","","","","",""
"","","","","","image-keyboard-response","295","755407","0.0-243.0","6400ed09421b2727c2f7c553","665500ab8938657b03fbdba8","6657925f794b3a3efc7b9978","1711","stimuli/1100001.jpg","1","","prediction_trial","1","","true","","1","true","true","true","true","true","true","[1]","100","001","1","","","","","","",""
"","","","","","image-keyboard-response","296","756923","0.0-244.0","6400ed09421b2727c2f7c553","665500ab8938657b03fbdba8","6657925f794b3a3efc7b9978","1514","stimuli/11000011.jpg"," ","","feedback_trial","1","","","","","","","","","","","","","","","","","","","","",""
"","","","","","image-keyboard-response","297","759188","0.0-245.0","6400ed09421b2727c2f7c553","665500ab8938657b03fbdba8","6657925f794b3a3efc7b9978","2263","stimuli/0110100.jpg","0","","prediction_trial","0","","true","","0","false","true","false","false","false","false","[1,0]","110","100","1","","","","","","",""
"","","","","","image-keyboard-response","298","760705","0.0-246.0","6400ed09421b2727c2f7c553","665500ab8938657b03fbdba8","6657925f794b3a3efc7b9978","1515","stimuli/01101000.jpg"," ","","feedback_trial","1","","","","","","","","","","","","","","","","","","","","",""
"","","","","","image-keyboard-response","299","762901","0.0-247.0","6400ed09421b2727c2f7c553","665500ab8938657b03fbdba8","6657925f794b3a3efc7b9978","2193","stimuli/1001010.jpg","1","","prediction_trial","1","","true","","1","false","true","true","true","false","true","[1]","001","010","1","","","","","","",""
"","","","","","image-keyboard-response","300","764139","0.0-248.0","6400ed09421b2727c2f7c553","665500ab8938657b03fbdba8","6657925f794b3a3efc7b9978","1236","stimuli/10010101.jpg"," ","","feedback_trial","1","","","","","","","","","","","","","","","","","","","","",""
"","","","","","image-keyboard-response","301","766398","0.0-249.0","6400ed09421b2727c2f7c553","665500ab8938657b03fbdba8","6657925f794b3a3efc7b9978","2256","stimuli/2011011.jpg","1","","prediction_trial","2","","false","","2","false","false","false","false","false","false","[2,1]","011","011","0","","","","","","",""
"","","","","","image-keyboard-response","302","767455","0.0-250.0","6400ed09421b2727c2f7c553","665500ab8938657b03fbdba8","6657925f794b3a3efc7b9978","1053","stimuli/20110112.jpg"," ","","feedback_trial","2","","","","","","","","","","","","","","","","","","","","",""
"","","","","","image-keyboard-response","303","769147","0.0-251.0","6400ed09421b2727c2f7c553","665500ab8938657b03fbdba8","6657925f794b3a3efc7b9978","1690","stimuli/2011111.jpg","1","","prediction_trial","1","","true","","2","false","false","false","false","false","false","[1,2]","011","111","1","","","","","","",""
"","","","","","image-keyboard-response","304","770438","0.0-252.0","6400ed09421b2727c2f7c553","665500ab8938657b03fbdba8","6657925f794b3a3efc7b9978","1288","stimuli/20111111.jpg"," ","","feedback_trial","1","","","","","","","","","","","","","","","","","","","","",""
"","","","","","image-keyboard-response","305","773436","0.0-253.0","6400ed09421b2727c2f7c553","665500ab8938657b03fbdba8","6657925f794b3a3efc7b9978","2996","stimuli/2011110.jpg","2","","prediction_trial","2","","true","","2","true","true","false","false","false","false","[2,1]","011","110","1","","","","","","",""
"","","","","","image-keyboard-response","306","774407","0.0-254.0","6400ed09421b2727c2f7c553","665500ab8938657b03fbdba8","6657925f794b3a3efc7b9978","968","stimuli/20111102.jpg"," ","","feedback_trial","2","","","","","","","","","","","","","","","","","","","","",""
"","","","","","image-keyboard-response","307","776115","0.0-255.0","6400ed09421b2727c2f7c553","665500ab8938657b03fbdba8","6657925f794b3a3efc7b9978","1706","stimuli/1011110.jpg","1","","prediction_trial","1","","true","","1","false","false","false","false","false","false","[2,1]","011","110","1","","","","","","",""
"","","","","","image-keyboard-response","308","777533","0.0-256.0","6400ed09421b2727c2f7c553","665500ab8938657b03fbdba8","6657925f794b3a3efc7b9978","1415","stimuli/10111101.jpg"," ","","feedback_trial","2","","","","","","","","","","","","","","","","","","","","",""
"","","","","","image-keyboard-response","309","778997","0.0-257.0","6400ed09421b2727c2f7c553","665500ab8938657b03fbdba8","6657925f794b3a3efc7b9978","1462","stimuli/2001110.jpg","2","","prediction_trial","2","","true","","2","true","true","false","true","false","true","[2]","001","110","1","","","","","","",""
