"success","timeout","failed_images","failed_audio","failed_video","trial_type","trial_index","time_elapsed","internal_node_id","prolific_id","prolific_study_id","prolific_session_id","rt","stimulus","response","view_history","trial","character_choice","stimulus_dict","accuracy","correct_response","ball_pos","ego_ball_visible","ego_can_infer","alter_ball_visible","alter_can_infer","collective_ball_visible","collective_can_infer","search_locations","alter_occluders","ego_occluders","accuracy_bool","feedback","age","ethnicity","gender","race","overall_accuracy","bonus"
"true","false","[]","[]","[]","preload","0","2962","0.0-0.0","6155db00c1ddd261574dce05","665500ab8938657b03fbdba8","6657725f4271bb527e6e5d26","","","","","","","","","","","","","","","","","","","","","","","","","","",""
"true","","","","","fullscreen","1","7542","0.0-1.0","6155db00c1ddd261574dce05","665500ab8938657b03fbdba8","6657725f4271bb527e6e5d26","","","","","","","","","","","","","","","","","","","","","","","","","","",""
"","","","","","html-button-response","2","14495","0.0-2.0","6155db00c1ddd261574dce05","665500ab8938657b03fbdba8","6657725f4271bb527e6e5d26","6948","<p><b>Consent Form</b></p> <div style=""text-align:left;background-color:lightgrey; padding:20px; max-width:900px;""><p>Please consider this information carefully before deciding whether to participate in this research.</p> <p>The purpose of this research is to examine which factors influence social judgment and decision-making. You will be asked to make judgements about individuals and actions in social scenarios. We are simply interested in your judgement. The study will take less than 1 hour to complete, and you will receive less than $20 on Prolific. Your compensation and time commitment are specified in the study description. There are no anticipated risks associated with participating in this study. The effects of participating should be comparable to those you would ordinarily experience from viewing a computer monitor and using a mouse or keyboard for a similar amount of time. At the end of the study, we will provide an explanation of the questions that motivate this line of research and will describe the potential implications. </p><p> Your participation in this study is completely voluntary and you may refuse to participate or you may choose to withdraw at any time without penalty or loss of benefits to you which are otherwise entitled. Your participation in this study will remain confidential. No personally identifiable information will be associated with your data. Also, all analyses of the data will be averaged across all the participants, so your individual responses will never be specifically analyzed. </p><p> If you have questions or concerns about your participation or payment, or want to request a summary of research findings, please contact Dr. Jonathan Phillips at Jonathan.S.Phillips@dartmouth.edu. </p><p> Please save a copy of this form for your records. </p><p><b>Agreement: </b>The nature and purpose of this research have been sufficiently explained and I agree to participate in this study. I understand that I am free to withdraw at any time without incurring any penalty. Please consent by clicking the button below to continue. Otherwise, please exit the study at any time. </p>","0","","","","","","","","","","","","","","","","","","","","","","","",""
"","","","","","instructions","3","105525","0.0-3.0-0.0","6155db00c1ddd261574dce05","665500ab8938657b03fbdba8","6657725f4271bb527e6e5d26","91033","","","[{""page_index"":0,""viewing_time"":2278},{""page_index"":1,""viewing_time"":1693},{""page_index"":2,""viewing_time"":4476},{""page_index"":3,""viewing_time"":5231},{""page_index"":4,""viewing_time"":3476},{""page_index"":5,""viewing_time"":2956},{""page_index"":6,""viewing_time"":4229},{""page_index"":7,""viewing_time"":5667},{""page_index"":8,""viewing_time"":4679},{""page_index"":9,""viewing_time"":2357},{""page_index"":10,""viewing_time"":21019},{""page_index"":11,""viewing_time"":23221},{""page_index"":12,""viewing_time"":7990},{""page_index"":13,""viewing_time"":1760}]","intro","","","","","","","","","","","","","","","","","","","","","",""
"","","","","","image-keyboard-response","4","107424","0.0-3.0-1.0","6155db00c1ddd261574dce05","665500ab8938657b03fbdba8","6657725f4271bb527e6e5d26","1881","stimuli/1010000.jpg","1","","prediction_practice","1","{""filepath"":""stimuli/1010000.jpg"",""ball_pos"":1,""ego_ball_visible"":true,""ego_can_infer"":true,""alter_ball_visible"":false,""alter_can_infer"":true,""collective_ball_visible"":false,""collective_can_infer"":true,""search_locations"":[1],""alter_occluders"":""010"",""ego_occluders"":""000""}","true","","","","","","","","","","","","","","","","","","",""
"","","","","","image-keyboard-response","5","109419","0.0-3.0-2.0","6155db00c1ddd261574dce05","665500ab8938657b03fbdba8","6657725f4271bb527e6e5d26","1992","stimuli/10100001.jpg"," ","","practrice_feedback","1","","","","","","","","","","","","","","","","","","","","",""
"","","","","","image-keyboard-response","6","112673","0.0-3.0-3.0","6155db00c1ddd261574dce05","665500ab8938657b03fbdba8","6657725f4271bb527e6e5d26","3252","stimuli/1011010.jpg","1","","prediction_practice","1","{""filepath"":""stimuli/1011010.jpg"",""ball_pos"":1,""ego_ball_visible"":false,""ego_can_infer"":true,""alter_ball_visible"":false,""alter_can_infer"":false,""collective_ball_visible"":false,""collective_can_infer"":false,""search_locations"":[2,1],""alter_occluders"":""011"",""ego_occluders"":""010""}","true","","","","","","","","","","","","","","","","","","",""
"","","","","","image-keyboard-response","7","113826","0.0-3.0-4.0","6155db00c1ddd261574dce05","665500ab8938657b03fbdba8","6657725f4271bb527e6e5d26","1151","stimuli/10110101.jpg"," ","","practrice_feedback","2","","","","","","","","","","","","","","","","","","","","",""
"","","","","","image-keyboard-response","8","115358","0.0-3.0-5.0","6155db00c1ddd261574dce05","665500ab8938657b03fbdba8","6657725f4271bb527e6e5d26","1530","stimuli/1111100.jpg","1","","prediction_practice","1","{""filepath"":""stimuli/1111100.jpg"",""ball_pos"":1,""ego_ball_visible"":true,""ego_can_infer"":true,""alter_ball_visible"":false,""alter_can_infer"":false,""collective_ball_visible"":false,""collective_can_infer"":false,""search_locations"":[0,1,2],""alter_occluders"":""111"",""ego_occluders"":""100""}","true","","","","","","","","","","","","","","","","","","",""
"","","","","","image-keyboard-response","9","116222","0.0-3.0-6.0","6155db00c1ddd261574dce05","665500ab8938657b03fbdba8","6657725f4271bb527e6e5d26","862","stimuli/11111001.jpg"," ","","practrice_feedback","0","","","","","","","","","","","","","","","","","","","","",""
"","","","","","image-keyboard-response","10","117377","0.0-3.0-7.0","6155db00c1ddd261574dce05","665500ab8938657b03fbdba8","6657725f4271bb527e6e5d26","1154","stimuli/1111001.jpg","1","","prediction_practice","2","{""filepath"":""stimuli/1111001.jpg"",""ball_pos"":1,""ego_ball_visible"":true,""ego_can_infer"":true,""alter_ball_visible"":false,""alter_can_infer"":false,""collective_ball_visible"":false,""collective_can_infer"":false,""search_locations"":[0,2,1],""alter_occluders"":""111"",""ego_occluders"":""001""}","false","","","","","","","","","","","","","","","","","","",""
"","","","","","image-keyboard-response","11","122164","0.0-3.0-8.0","6155db00c1ddd261574dce05","665500ab8938657b03fbdba8","6657725f4271bb527e6e5d26","4785","stimuli/11110012.jpg"," ","","practrice_feedback","0","","","","","","","","","","","","","","","","","","","","",""
"","","","","","image-keyboard-response","12","124767","0.0-3.0-9.0","6155db00c1ddd261574dce05","665500ab8938657b03fbdba8","6657725f4271bb527e6e5d26","2599","stimuli/1000011.jpg","1","","prediction_practice","1","{""filepath"":""stimuli/1000011.jpg"",""ball_pos"":1,""ego_ball_visible"":false,""ego_can_infer"":false,""alter_ball_visible"":true,""alter_can_infer"":true,""collective_ball_visible"":false,""collective_can_infer"":false,""search_locations"":[1],""alter_occluders"":""000"",""ego_occluders"":""011""}","true","","","","","","","","","","","","","","","","","","",""
"","","","","","image-keyboard-response","13","126527","0.0-3.0-10.0","6155db00c1ddd261574dce05","665500ab8938657b03fbdba8","6657725f4271bb527e6e5d26","1759","stimuli/10000111.jpg"," ","","practrice_feedback","1","","","","","","","","","","","","","","","","","","","","",""
"","","","","","image-keyboard-response","14","128398","0.0-3.0-11.0","6155db00c1ddd261574dce05","665500ab8938657b03fbdba8","6657725f4271bb527e6e5d26","1869","stimuli/0011110.jpg","0","","prediction_practice","0","{""filepath"":""stimuli/0011110.jpg"",""ball_pos"":0,""ego_ball_visible"":false,""ego_can_infer"":false,""alter_ball_visible"":true,""alter_can_infer"":true,""collective_ball_visible"":false,""collective_can_infer"":false,""search_locations"":[0],""alter_occluders"":""011"",""ego_occluders"":""110""}","true","","","","","","","","","","","","","","","","","","",""
"","","","","","image-keyboard-response","15","129553","0.0-3.0-12.0","6155db00c1ddd261574dce05","665500ab8938657b03fbdba8","6657725f4271bb527e6e5d26","1153","stimuli/00111100.jpg"," ","","practrice_feedback","0","","","","","","","","","","","","","","","","","","","","",""
"","","","","","image-keyboard-response","16","131020","0.0-3.0-13.0","6155db00c1ddd261574dce05","665500ab8938657b03fbdba8","6657725f4271bb527e6e5d26","1457","stimuli/2011111.jpg","2","","prediction_practice","2","{""filepath"":""stimuli/2011111.jpg"",""ball_pos"":2,""ego_ball_visible"":false,""ego_can_infer"":false,""alter_ball_visible"":false,""alter_can_infer"":false,""collective_ball_visible"":false,""collective_can_infer"":false,""search_locations"":[1,2],""alter_occluders"":""011"",""ego_occluders"":""111""}","true","","","","","","","","","","","","","","","","","","",""
"","","","","","image-keyboard-response","17","132197","0.0-3.0-14.0","6155db00c1ddd261574dce05","665500ab8938657b03fbdba8","6657725f4271bb527e6e5d26","1175","stimuli/20111112.jpg"," ","","practrice_feedback","1","","","","","","","","","","","","","","","","","","","","",""
"","","","","","image-keyboard-response","18","133834","0.0-3.0-15.0","6155db00c1ddd261574dce05","665500ab8938657b03fbdba8","6657725f4271bb527e6e5d26","1636","stimuli/2010111.jpg","1","","prediction_practice","2","{""filepath"":""stimuli/2010111.jpg"",""ball_pos"":2,""ego_ball_visible"":false,""ego_can_infer"":false,""alter_ball_visible"":true,""alter_can_infer"":true,""collective_ball_visible"":false,""collective_can_infer"":false,""search_locations"":[2],""alter_occluders"":""010"",""ego_occluders"":""111""}","false","","","","","","","","","","","","","","","","","","",""
"","","","","","image-keyboard-response","19","135408","0.0-3.0-16.0","6155db00c1ddd261574dce05","665500ab8938657b03fbdba8","6657725f4271bb527e6e5d26","1572","stimuli/20101112.jpg"," ","","practrice_feedback","2","","","","","","","","","","","","","","","","","","","","",""
"","","","","","image-keyboard-response","20","136771","0.0-3.0-17.0","6155db00c1ddd261574dce05","665500ab8938657b03fbdba8","6657725f4271bb527e6e5d26","1362","stimuli/2010110.jpg","2","","prediction_practice","2","{""filepath"":""stimuli/2010110.jpg"",""ball_pos"":2,""ego_ball_visible"":true,""ego_can_infer"":true,""alter_ball_visible"":true,""alter_can_infer"":true,""collective_ball_visible"":true,""collective_can_infer"":true,""search_locations"":[2],""alter_occluders"":""010"",""ego_occluders"":""110""}","true","","","","","","","","","","","","","","","","","","",""
"","","","","","image-keyboard-response","21","137729","0.0-3.0-18.0","6155db00c1ddd261574dce05","665500ab8938657b03fbdba8","6657725f4271bb527e6e5d26","956","stimuli/20101102.jpg"," ","","practrice_feedback","2","","","","","","","","","","","","","","","","","","","","",""
"","","","","","image-keyboard-response","22","139298","0.0-3.0-19.0","6155db00c1ddd261574dce05","665500ab8938657b03fbdba8","6657725f4271bb527e6e5d26","1567","stimuli/2010010.jpg","2","","prediction_practice","2","{""filepath"":""stimuli/2010010.jpg"",""ball_pos"":2,""ego_ball_visible"":true,""ego_can_infer"":true,""alter_ball_visible"":true,""alter_can_infer"":true,""collective_ball_visible"":true,""collective_can_infer"":true,""search_locations"":[2],""alter_occluders"":""010"",""ego_occluders"":""010""}","true","","","","","","","","","","","","","","","","","","",""
"","","","","","image-keyboard-response","23","140463","0.0-3.0-20.0","6155db00c1ddd261574dce05","665500ab8938657b03fbdba8","6657725f4271bb527e6e5d26","1163","stimuli/20100102.jpg"," ","","practrice_feedback","2","","","","","","","","","","","","","","","","","","","","",""
"","","","","","html-button-response","24","144395","0.0-3.0-21.0","6155db00c1ddd261574dce05","665500ab8938657b03fbdba8","6657725f4271bb527e6e5d26","3932","Now that you've had some practice, you'll be tested with a couple of easy trials. If you correctly predict Sam's choice, you'll move on to complete the experiment!","0","","","","","","","","","","","","","","","","","","","","","","","",""
"","","","","","image-keyboard-response","25","145611","0.0-3.0-22.0-0.0","6155db00c1ddd261574dce05","665500ab8938657b03fbdba8","6657725f4271bb527e6e5d26","1213","stimuli/0000011.jpg","arrowleft","","comprehension_quiz","","","true","arrowleft","","","","","","","","","","","","","","","","","",""
"","","","","","image-keyboard-response","26","146396","0.0-3.0-22.0-1.0","6155db00c1ddd261574dce05","665500ab8938657b03fbdba8","6657725f4271bb527e6e5d26","783","stimuli/00000110.jpg"," ","","comprehension_quiz","","","true"," ","","","","","","","","","","","","","","","","","",""
"","","","","","image-keyboard-response","27","147416","0.0-3.0-22.0-2.0","6155db00c1ddd261574dce05","665500ab8938657b03fbdba8","6657725f4271bb527e6e5d26","1019","stimuli/1010010.jpg","arrowdown","","comprehension_quiz","","","true","arrowdown","","","","","","","","","","","","","","","","","",""
"","","","","","image-keyboard-response","28","148031","0.0-3.0-22.0-3.0","6155db00c1ddd261574dce05","665500ab8938657b03fbdba8","6657725f4271bb527e6e5d26","612","stimuli/10100101.jpg"," ","","comprehension_quiz","","","true"," ","","","","","","","","","","","","","","","","","",""
"","","","","","html-button-response","29","149491","0.0-4.0","6155db00c1ddd261574dce05","665500ab8938657b03fbdba8","6657725f4271bb527e6e5d26","1458","The experiment will now begin.","0","","","","","","","","","","","","","","","","","","","","","","","",""
"","","","","","image-keyboard-response","30","150299","0.0-5.0","6155db00c1ddd261574dce05","665500ab8938657b03fbdba8","6657725f4271bb527e6e5d26","805","stimuli/2011100.jpg","2","","prediction_trial","1","","false","","2","true","true","false","false","false","false","[1,2]","011","100","0","","","","","","",""
"","","","","","image-keyboard-response","31","153387","0.0-6.0","6155db00c1ddd261574dce05","665500ab8938657b03fbdba8","6657725f4271bb527e6e5d26","3086","stimuli/20111001.jpg"," ","","feedback_trial","1","","","","","","","","","","","","","","","","","","","","",""
"","","","","","image-keyboard-response","32","154564","0.0-7.0","6155db00c1ddd261574dce05","665500ab8938657b03fbdba8","6657725f4271bb527e6e5d26","1175","stimuli/0011111.jpg","0","","prediction_trial","0","","true","","0","false","false","true","true","false","false","[0]","011","111","1","","","","","","",""
"","","","","","image-keyboard-response","33","155665","0.0-8.0","6155db00c1ddd261574dce05","665500ab8938657b03fbdba8","6657725f4271bb527e6e5d26","1099","stimuli/00111110.jpg"," ","","feedback_trial","0","","","","","","","","","","","","","","","","","","","","",""
"","","","","","image-keyboard-response","34","156944","0.0-9.0","6155db00c1ddd261574dce05","665500ab8938657b03fbdba8","6657725f4271bb527e6e5d26","1278","stimuli/0001100.jpg","0","","prediction_trial","0","","true","","0","false","true","true","true","false","true","[0]","001","100","1","","","","","","",""
"","","","","","image-keyboard-response","35","157733","0.0-10.0","6155db00c1ddd261574dce05","665500ab8938657b03fbdba8","6657725f4271bb527e6e5d26","787","stimuli/00011000.jpg"," ","","feedback_trial","0","","","","","","","","","","","","","","","","","","","","",""
"","","","","","image-keyboard-response","36","159555","0.0-11.0","6155db00c1ddd261574dce05","665500ab8938657b03fbdba8","6657725f4271bb527e6e5d26","1822","stimuli/2011011.jpg","1","","prediction_trial","2","","false","","2","false","false","false","false","false","false","[2,1]","011","011","0","","","","","","",""
"","","","","","image-keyboard-response","37","160768","0.0-12.0","6155db00c1ddd261574dce05","665500ab8938657b03fbdba8","6657725f4271bb527e6e5d26","1211","stimuli/20110112.jpg"," ","","feedback_trial","2","","","","","","","","","","","","","","","","","","","","",""
"","","","","","image-keyboard-response","38","162646","0.0-13.0","6155db00c1ddd261574dce05","665500ab8938657b03fbdba8","6657725f4271bb527e6e5d26","1877","stimuli/2000111.jpg","2","","prediction_trial","2","","true","","2","false","false","true","true","false","false","[2]","000","111","1","","","","","","",""
"","","","","","image-keyboard-response","39","163524","0.0-14.0","6155db00c1ddd261574dce05","665500ab8938657b03fbdba8","6657725f4271bb527e6e5d26","876","stimuli/20001112.jpg"," ","","feedback_trial","2","","","","","","","","","","","","","","","","","","","","",""
"","","","","","image-keyboard-response","40","165322","0.0-15.0","6155db00c1ddd261574dce05","665500ab8938657b03fbdba8","6657725f4271bb527e6e5d26","1790","stimuli/2001101.jpg","0","","prediction_trial","2","","false","","2","false","false","false","true","false","false","[2]","001","101","0","","","","","","",""
"","","","","","image-keyboard-response","41","166441","0.0-16.0","6155db00c1ddd261574dce05","665500ab8938657b03fbdba8","6657725f4271bb527e6e5d26","1116","stimuli/20011012.jpg"," ","","feedback_trial","2","","","","","","","","","","","","","","","","","","","","",""
"","","","","","image-keyboard-response","42","167864","0.0-17.0","6155db00c1ddd261574dce05","665500ab8938657b03fbdba8","6657725f4271bb527e6e5d26","1421","stimuli/0011110.jpg","1","","prediction_trial","0","","false","","0","false","false","true","true","false","false","[0]","011","110","0","","","","","","",""
"","","","","","image-keyboard-response","43","168939","0.0-18.0","6155db00c1ddd261574dce05","665500ab8938657b03fbdba8","6657725f4271bb527e6e5d26","1073","stimuli/00111100.jpg"," ","","feedback_trial","0","","","","","","","","","","","","","","","","","","","","",""
"","","","","","image-keyboard-response","44","170391","0.0-19.0","6155db00c1ddd261574dce05","665500ab8938657b03fbdba8","6657725f4271bb527e6e5d26","1451","stimuli/2110101.jpg","2","","prediction_trial","2","","true","","2","false","false","true","true","false","false","[2]","110","101","1","","","","","","",""
"","","","","","image-keyboard-response","45","171250","0.0-20.0","6155db00c1ddd261574dce05","665500ab8938657b03fbdba8","6657725f4271bb527e6e5d26","857","stimuli/21101012.jpg"," ","","feedback_trial","2","","","","","","","","","","","","","","","","","","","","",""
"","","","","","image-keyboard-response","46","172504","0.0-21.0","6155db00c1ddd261574dce05","665500ab8938657b03fbdba8","6657725f4271bb527e6e5d26","1252","stimuli/0100101.jpg","2","","prediction_trial","0","","false","","0","false","false","false","true","false","false","[0]","100","101","0","","","","","","",""
"","","","","","image-keyboard-response","47","173504","0.0-22.0","6155db00c1ddd261574dce05","665500ab8938657b03fbdba8","6657725f4271bb527e6e5d26","999","stimuli/01001010.jpg"," ","","feedback_trial","0","","","","","","","","","","","","","","","","","","","","",""
"","","","","","image-keyboard-response","48","174617","0.0-23.0","6155db00c1ddd261574dce05","665500ab8938657b03fbdba8","6657725f4271bb527e6e5d26","1110","stimuli/0010001.jpg","0","","prediction_trial","0","","true","","0","true","true","true","true","true","true","[0]","010","001","1","","","","","","",""
"","","","","","image-keyboard-response","49","175371","0.0-24.0","6155db00c1ddd261574dce05","665500ab8938657b03fbdba8","6657725f4271bb527e6e5d26","753","stimuli/00100010.jpg"," ","","feedback_trial","0","","","","","","","","","","","","","","","","","","","","",""
"","","","","","image-keyboard-response","50","176629","0.0-25.0","6155db00c1ddd261574dce05","665500ab8938657b03fbdba8","6657725f4271bb527e6e5d26","1256","stimuli/0110001.jpg","0","","prediction_trial","1","","false","","0","true","true","false","false","false","false","[0,1]","110","001","0","","","","","","",""
"","","","","","image-keyboard-response","51","179304","0.0-26.0","6155db00c1ddd261574dce05","665500ab8938657b03fbdba8","6657725f4271bb527e6e5d26","2673","stimuli/01100011.jpg"," ","","feedback_trial","0","","","","","","","","","","","","","","","","","","","","",""
"","","","","","image-keyboard-response","52","185954","0.0-27.0","6155db00c1ddd261574dce05","665500ab8938657b03fbdba8","6657725f4271bb527e6e5d26","6649","stimuli/0010101.jpg","2","","prediction_trial","0","","false","","0","false","false","true","true","false","false","[0]","010","101","0","","","","","","",""
"","","","","","image-keyboard-response","53","187382","0.0-28.0","6155db00c1ddd261574dce05","665500ab8938657b03fbdba8","6657725f4271bb527e6e5d26","1427","stimuli/00101010.jpg"," ","","feedback_trial","0","","","","","","","","","","","","","","","","","","","","",""
"","","","","","image-keyboard-response","54","190425","0.0-29.0","6155db00c1ddd261574dce05","665500ab8938657b03fbdba8","6657725f4271bb527e6e5d26","3041","stimuli/1110110.jpg","1","","prediction_trial","1","","true","","1","false","false","false","false","false","false","[1,0]","110","110","1","","","","","","",""
"","","","","","image-keyboard-response","55","191311","0.0-30.0","6155db00c1ddd261574dce05","665500ab8938657b03fbdba8","6657725f4271bb527e6e5d26","885","stimuli/11101101.jpg"," ","","feedback_trial","1","","","","","","","","","","","","","","","","","","","","",""
"","","","","","image-keyboard-response","56","196150","0.0-31.0","6155db00c1ddd261574dce05","665500ab8938657b03fbdba8","6657725f4271bb527e6e5d26","4837","stimuli/0100111.jpg","0","","prediction_trial","0","","true","","0","false","false","false","true","false","false","[0]","100","111","1","","","","","","",""
"","","","","","image-keyboard-response","57","197264","0.0-32.0","6155db00c1ddd261574dce05","665500ab8938657b03fbdba8","6657725f4271bb527e6e5d26","1112","stimuli/01001110.jpg"," ","","feedback_trial","0","","","","","","","","","","","","","","","","","","","","",""
"","","","","","image-keyboard-response","58","199841","0.0-33.0","6155db00c1ddd261574dce05","665500ab8938657b03fbdba8","6657725f4271bb527e6e5d26","2576","stimuli/2001000.jpg","2","","prediction_trial","2","","true","","2","true","true","false","true","false","true","[2]","001","000","1","","","","","","",""
"","","","","","image-keyboard-response","59","200571","0.0-34.0","6155db00c1ddd261574dce05","665500ab8938657b03fbdba8","6657725f4271bb527e6e5d26","728","stimuli/20010002.jpg"," ","","feedback_trial","2","","","","","","","","","","","","","","","","","","","","",""
"","","","","","image-keyboard-response","60","203244","0.0-35.0","6155db00c1ddd261574dce05","665500ab8938657b03fbdba8","6657725f4271bb527e6e5d26","2671","stimuli/0011101.jpg","0","","prediction_trial","0","","true","","0","false","false","true","true","false","false","[0]","011","101","1","","","","","","",""
"","","","","","image-keyboard-response","61","204077","0.0-36.0","6155db00c1ddd261574dce05","665500ab8938657b03fbdba8","6657725f4271bb527e6e5d26","832","stimuli/00111010.jpg"," ","","feedback_trial","0","","","","","","","","","","","","","","","","","","","","",""
"","","","","","image-keyboard-response","62","205332","0.0-37.0","6155db00c1ddd261574dce05","665500ab8938657b03fbdba8","6657725f4271bb527e6e5d26","1242","stimuli/2010111.jpg","2","","prediction_trial","2","","true","","2","false","false","true","true","false","false","[2]","010","111","1","","","","","","",""
"","","","","","image-keyboard-response","63","206464","0.0-38.0","6155db00c1ddd261574dce05","665500ab8938657b03fbdba8","6657725f4271bb527e6e5d26","1130","stimuli/20101112.jpg"," ","","feedback_trial","2","","","","","","","","","","","","","","","","","","","","",""
"","","","","","image-keyboard-response","64","210960","0.0-39.0","6155db00c1ddd261574dce05","665500ab8938657b03fbdba8","6657725f4271bb527e6e5d26","4494","stimuli/1110010.jpg","1","","prediction_trial","0","","false","","1","false","true","false","false","false","false","[1,0]","110","010","0","","","","","","",""
"","","","","","image-keyboard-response","65","211924","0.0-40.0","6155db00c1ddd261574dce05","665500ab8938657b03fbdba8","6657725f4271bb527e6e5d26","962","stimuli/11100100.jpg"," ","","feedback_trial","1","","","","","","","","","","","","","","","","","","","","",""
"","","","","","image-keyboard-response","66","214127","0.0-41.0","6155db00c1ddd261574dce05","665500ab8938657b03fbdba8","6657725f4271bb527e6e5d26","2202","stimuli/2111110.jpg","1","","prediction_trial","1","","true","","2","true","true","false","false","false","false","[1,2,0]","111","110","1","","","","","","",""
"","","","","","image-keyboard-response","67","214907","0.0-42.0","6155db00c1ddd261574dce05","665500ab8938657b03fbdba8","6657725f4271bb527e6e5d26","778","stimuli/21111101.jpg"," ","","feedback_trial","1","","","","","","","","","","","","","","","","","","","","",""
"","","","","","image-keyboard-response","68","216395","0.0-43.0","6155db00c1ddd261574dce05","665500ab8938657b03fbdba8","6657725f4271bb527e6e5d26","1486","stimuli/2100000.jpg","2","","prediction_trial","2","","true","","2","true","true","true","true","true","true","[2]","100","000","1","","","","","","",""
"","","","","","image-keyboard-response","69","217101","0.0-44.0","6155db00c1ddd261574dce05","665500ab8938657b03fbdba8","6657725f4271bb527e6e5d26","705","stimuli/21000002.jpg"," ","","feedback_trial","2","","","","","","","","","","","","","","","","","","","","",""
"","","","","","image-keyboard-response","70","219542","0.0-45.0","6155db00c1ddd261574dce05","665500ab8938657b03fbdba8","6657725f4271bb527e6e5d26","2439","stimuli/0110110.jpg","1","","prediction_trial","0","","false","","0","false","false","false","false","false","false","[0,1]","110","110","0","","","","","","",""
"","","","","","image-keyboard-response","71","220398","0.0-46.0","6155db00c1ddd261574dce05","665500ab8938657b03fbdba8","6657725f4271bb527e6e5d26","854","stimuli/01101100.jpg"," ","","feedback_trial","0","","","","","","","","","","","","","","","","","","","","",""
"","","","","","image-keyboard-response","72","223120","0.0-47.0","6155db00c1ddd261574dce05","665500ab8938657b03fbdba8","6657725f4271bb527e6e5d26","2721","stimuli/0110100.jpg","0","","prediction_trial","1","","false","","0","false","true","false","false","false","false","[1,0]","110","100","0","","","","","","",""
"","","","","","image-keyboard-response","73","223938","0.0-48.0","6155db00c1ddd261574dce05","665500ab8938657b03fbdba8","6657725f4271bb527e6e5d26","815","stimuli/01101001.jpg"," ","","feedback_trial","1","","","","","","","","","","","","","","","","","","","","",""
"","","","","","image-keyboard-response","74","225863","0.0-49.0","6155db00c1ddd261574dce05","665500ab8938657b03fbdba8","6657725f4271bb527e6e5d26","1924","stimuli/0100011.jpg","0","","prediction_trial","0","","true","","0","true","true","false","true","false","true","[0]","100","011","1","","","","","","",""
"","","","","","image-keyboard-response","75","226541","0.0-50.0","6155db00c1ddd261574dce05","665500ab8938657b03fbdba8","6657725f4271bb527e6e5d26","676","stimuli/01000110.jpg"," ","","feedback_trial","0","","","","","","","","","","","","","","","","","","","","",""
"","","","","","image-keyboard-response","76","229069","0.0-51.0","6155db00c1ddd261574dce05","665500ab8938657b03fbdba8","6657725f4271bb527e6e5d26","2527","stimuli/0100110.jpg","1","","prediction_trial","0","","false","","0","false","false","false","true","false","false","[0]","100","110","0","","","","","","",""
"","","","","","image-keyboard-response","77","229932","0.0-52.0","6155db00c1ddd261574dce05","665500ab8938657b03fbdba8","6657725f4271bb527e6e5d26","862","stimuli/01001100.jpg"," ","","feedback_trial","0","","","","","","","","","","","","","","","","","","","","",""
"","","","","","image-keyboard-response","78","231132","0.0-53.0","6155db00c1ddd261574dce05","665500ab8938657b03fbdba8","6657725f4271bb527e6e5d26","1198","stimuli/0011000.jpg","0","","prediction_trial","0","","true","","0","true","true","true","true","true","true","[0]","011","000","1","","","","","","",""
"","","","","","image-keyboard-response","79","231680","0.0-54.0","6155db00c1ddd261574dce05","665500ab8938657b03fbdba8","6657725f4271bb527e6e5d26","547","stimuli/00110000.jpg"," ","","feedback_trial","0","","","","","","","","","","","","","","","","","","","","",""
"","","","","","image-keyboard-response","80","233635","0.0-55.0","6155db00c1ddd261574dce05","665500ab8938657b03fbdba8","6657725f4271bb527e6e5d26","1954","stimuli/2001011.jpg","1","","prediction_trial","2","","false","","2","false","false","false","true","false","false","[2]","001","011","0","","","","","","",""
"","","","","","image-keyboard-response","81","234454","0.0-56.0","6155db00c1ddd261574dce05","665500ab8938657b03fbdba8","6657725f4271bb527e6e5d26","818","stimuli/20010112.jpg"," ","","feedback_trial","2","","","","","","","","","","","","","","","","","","","","",""
"","","","","","image-keyboard-response","82","235887","0.0-57.0","6155db00c1ddd261574dce05","665500ab8938657b03fbdba8","6657725f4271bb527e6e5d26","1431","stimuli/2000000.jpg","2","","prediction_trial","2","","true","","2","true","true","true","true","true","true","[2]","000","000","1","","","","","","",""
"","","","","","image-keyboard-response","83","236638","0.0-58.0","6155db00c1ddd261574dce05","665500ab8938657b03fbdba8","6657725f4271bb527e6e5d26","750","stimuli/20000002.jpg"," ","","feedback_trial","2","","","","","","","","","","","","","","","","","","","","",""
"","","","","","image-keyboard-response","84","237709","0.0-59.0","6155db00c1ddd261574dce05","665500ab8938657b03fbdba8","6657725f4271bb527e6e5d26","1061","stimuli/1011111.jpg","2","","prediction_trial","2","","true","","1","false","false","false","false","false","false","[1,2]","011","111","1","","","","","","",""
"","","","","","image-keyboard-response","85","238629","0.0-60.0","6155db00c1ddd261574dce05","665500ab8938657b03fbdba8","6657725f4271bb527e6e5d26","918","stimuli/10111112.jpg"," ","","feedback_trial","1","","","","","","","","","","","","","","","","","","","","",""
"","","","","","image-keyboard-response","86","240233","0.0-61.0","6155db00c1ddd261574dce05","665500ab8938657b03fbdba8","6657725f4271bb527e6e5d26","1603","stimuli/1101100.jpg","1","","prediction_trial","1","","true","","1","true","true","true","true","true","true","[1]","101","100","1","","","","","","",""
"","","","","","image-keyboard-response","87","240945","0.0-62.0","6155db00c1ddd261574dce05","665500ab8938657b03fbdba8","6657725f4271bb527e6e5d26","711","stimuli/11011001.jpg"," ","","feedback_trial","1","","","","","","","","","","","","","","","","","","","","",""
"","","","","","image-keyboard-response","88","242186","0.0-63.0","6155db00c1ddd261574dce05","665500ab8938657b03fbdba8","6657725f4271bb527e6e5d26","1239","stimuli/1101001.jpg","1","","prediction_trial","1","","true","","1","true","true","true","true","true","true","[1]","101","001","1","","","","","","",""
"","","","","","image-keyboard-response","89","242935","0.0-64.0","6155db00c1ddd261574dce05","665500ab8938657b03fbdba8","6657725f4271bb527e6e5d26","747","stimuli/11010011.jpg"," ","","feedback_trial","1","","","","","","","","","","","","","","","","","","","","",""
"","","","","","image-keyboard-response","90","245779","0.0-65.0","6155db00c1ddd261574dce05","665500ab8938657b03fbdba8","6657725f4271bb527e6e5d26","2843","stimuli/0010110.jpg","1","","prediction_trial","0","","false","","0","false","false","true","true","false","false","[0]","010","110","0","","","","","","",""
"","","","","","image-keyboard-response","91","246626","0.0-66.0","6155db00c1ddd261574dce05","665500ab8938657b03fbdba8","6657725f4271bb527e6e5d26","846","stimuli/00101100.jpg"," ","","feedback_trial","0","","","","","","","","","","","","","","","","","","","","",""
"","","","","","image-keyboard-response","92","249144","0.0-67.0","6155db00c1ddd261574dce05","665500ab8938657b03fbdba8","6657725f4271bb527e6e5d26","2516","stimuli/1010011.jpg","2","","prediction_trial","1","","false","","1","false","false","false","true","false","false","[1]","010","011","0","","","","","","",""
"","","","","","image-keyboard-response","93","249915","0.0-68.0","6155db00c1ddd261574dce05","665500ab8938657b03fbdba8","6657725f4271bb527e6e5d26","770","stimuli/10100111.jpg"," ","","feedback_trial","1","","","","","","","","","","","","","","","","","","","","",""
"","","","","","image-keyboard-response","94","251973","0.0-69.0","6155db00c1ddd261574dce05","665500ab8938657b03fbdba8","6657725f4271bb527e6e5d26","2056","stimuli/0100000.jpg","0","","prediction_trial","0","","true","","0","true","true","false","true","false","true","[0]","100","000","1","","","","","","",""
"","","","","","image-keyboard-response","95","252535","0.0-70.0","6155db00c1ddd261574dce05","665500ab8938657b03fbdba8","6657725f4271bb527e6e5d26","560","stimuli/01000000.jpg"," ","","feedback_trial","0","","","","","","","","","","","","","","","","","","","","",""
"","","","","","image-keyboard-response","96","254027","0.0-71.0","6155db00c1ddd261574dce05","665500ab8938657b03fbdba8","6657725f4271bb527e6e5d26","1489","stimuli/1010111.jpg","0","","prediction_trial","1","","false","","1","false","false","false","true","false","false","[1]","010","111","0","","","","","","",""
"","","","","","image-keyboard-response","97","254742","0.0-72.0","6155db00c1ddd261574dce05","665500ab8938657b03fbdba8","6657725f4271bb527e6e5d26","714","stimuli/10101111.jpg"," ","","feedback_trial","1","","","","","","","","","","","","","","","","","","","","",""
"","","","","","image-keyboard-response","98","255812","0.0-73.0","6155db00c1ddd261574dce05","665500ab8938657b03fbdba8","6657725f4271bb527e6e5d26","1068","stimuli/1010110.jpg","1","","prediction_trial","1","","true","","1","false","false","false","true","false","false","[1]","010","110","1","","","","","","",""
"","","","","","image-keyboard-response","99","256704","0.0-74.0","6155db00c1ddd261574dce05","665500ab8938657b03fbdba8","6657725f4271bb527e6e5d26","890","stimuli/10101101.jpg"," ","","feedback_trial","1","","","","","","","","","","","","","","","","","","","","",""
"","","","","","image-keyboard-response","100","259717","0.0-75.0","6155db00c1ddd261574dce05","665500ab8938657b03fbdba8","6657725f4271bb527e6e5d26","3011","stimuli/0111100.jpg","1","","prediction_trial","2","","false","","0","false","true","false","false","false","false","[0,1,2]","111","100","0","","","","","","",""
"","","","","","image-keyboard-response","101","260479","0.0-76.0","6155db00c1ddd261574dce05","665500ab8938657b03fbdba8","6657725f4271bb527e6e5d26","760","stimuli/01111002.jpg"," ","","feedback_trial","0","","","","","","","","","","","","","","","","","","","","",""
"","","","","","image-keyboard-response","102","262244","0.0-77.0","6155db00c1ddd261574dce05","665500ab8938657b03fbdba8","6657725f4271bb527e6e5d26","1764","stimuli/2110011.jpg","2","","prediction_trial","2","","true","","2","false","false","true","true","false","false","[2]","110","011","1","","","","","","",""
"","","","","","image-keyboard-response","103","262979","0.0-78.0","6155db00c1ddd261574dce05","665500ab8938657b03fbdba8","6657725f4271bb527e6e5d26","733","stimuli/21100112.jpg"," ","","feedback_trial","2","","","","","","","","","","","","","","","","","","","","",""
"","","","","","image-keyboard-response","104","264306","0.0-79.0","6155db00c1ddd261574dce05","665500ab8938657b03fbdba8","6657725f4271bb527e6e5d26","1325","stimuli/0000000.jpg","0","","prediction_trial","0","","true","","0","true","true","true","true","true","true","[0]","000","000","1","","","","","","",""
"","","","","","image-keyboard-response","105","264880","0.0-80.0","6155db00c1ddd261574dce05","665500ab8938657b03fbdba8","6657725f4271bb527e6e5d26","572","stimuli/00000000.jpg"," ","","feedback_trial","0","","","","","","","","","","","","","","","","","","","","",""
"","","","","","image-keyboard-response","106","266694","0.0-81.0","6155db00c1ddd261574dce05","665500ab8938657b03fbdba8","6657725f4271bb527e6e5d26","1806","stimuli/0101101.jpg","0","","prediction_trial","2","","false","","0","false","false","false","false","false","false","[0,2]","101","101","0","","","","","","",""
"","","","","","image-keyboard-response","107","267405","0.0-82.0","6155db00c1ddd261574dce05","665500ab8938657b03fbdba8","6657725f4271bb527e6e5d26","708","stimuli/01011012.jpg"," ","","feedback_trial","0","","","","","","","","","","","","","","","","","","","","",""
"","","","","","image-keyboard-response","108","268816","0.0-83.0","6155db00c1ddd261574dce05","665500ab8938657b03fbdba8","6657725f4271bb527e6e5d26","1410","stimuli/2010101.jpg","0","","prediction_trial","2","","false","","2","false","false","true","true","false","false","[2]","010","101","0","","","","","","",""
"","","","","","image-keyboard-response","109","269938","0.0-84.0","6155db00c1ddd261574dce05","665500ab8938657b03fbdba8","6657725f4271bb527e6e5d26","1120","stimuli/20101012.jpg"," ","","feedback_trial","2","","","","","","","","","","","","","","","","","","","","",""
"","","","","","image-keyboard-response","110","271128","0.0-85.0","6155db00c1ddd261574dce05","665500ab8938657b03fbdba8","6657725f4271bb527e6e5d26","1189","stimuli/2110110.jpg","2","","prediction_trial","2","","true","","2","true","true","true","true","true","true","[2]","110","110","1","","","","","","",""
"","","","","","image-keyboard-response","111","271617","0.0-86.0","6155db00c1ddd261574dce05","665500ab8938657b03fbdba8","6657725f4271bb527e6e5d26","487","stimuli/21101102.jpg"," ","","feedback_trial","2","","","","","","","","","","","","","","","","","","","","",""
"","","","","","image-keyboard-response","112","272664","0.0-87.0","6155db00c1ddd261574dce05","665500ab8938657b03fbdba8","6657725f4271bb527e6e5d26","1046","stimuli/0011011.jpg","0","","prediction_trial","0","","true","","0","true","true","true","true","true","true","[0]","011","011","1","","","","","","",""
"","","","","","image-keyboard-response","113","273288","0.0-88.0","6155db00c1ddd261574dce05","665500ab8938657b03fbdba8","6657725f4271bb527e6e5d26","622","stimuli/00110110.jpg"," ","","feedback_trial","0","","","","","","","","","","","","","","","","","","","","",""
"","","","","","image-keyboard-response","114","275827","0.0-89.0","6155db00c1ddd261574dce05","665500ab8938657b03fbdba8","6657725f4271bb527e6e5d26","2538","stimuli/1000010.jpg","1","","prediction_trial","1","","true","","1","false","true","true","true","false","true","[1]","000","010","1","","","","","","",""
"","","","","","image-keyboard-response","115","276497","0.0-90.0","6155db00c1ddd261574dce05","665500ab8938657b03fbdba8","6657725f4271bb527e6e5d26","668","stimuli/10000101.jpg"," ","","feedback_trial","1","","","","","","","","","","","","","","","","","","","","",""
"","","","","","image-keyboard-response","116","279612","0.0-91.0","6155db00c1ddd261574dce05","665500ab8938657b03fbdba8","6657725f4271bb527e6e5d26","3113","stimuli/0101011.jpg","0","","prediction_trial","2","","false","","0","true","true","false","false","false","false","[2,0]","101","011","0","","","","","","",""
"","","","","","image-keyboard-response","117","280322","0.0-92.0","6155db00c1ddd261574dce05","665500ab8938657b03fbdba8","6657725f4271bb527e6e5d26","708","stimuli/01010112.jpg"," ","","feedback_trial","2","","","","","","","","","","","","","","","","","","","","",""
"","","","","","image-keyboard-response","118","282259","0.0-93.0","6155db00c1ddd261574dce05","665500ab8938657b03fbdba8","6657725f4271bb527e6e5d26","1935","stimuli/2111011.jpg","1","","prediction_trial","0","","false","","2","false","false","false","false","false","false","[0,1,2]","111","011","0","","","","","","",""
"","","","","","image-keyboard-response","119","282983","0.0-94.0","6155db00c1ddd261574dce05","665500ab8938657b03fbdba8","6657725f4271bb527e6e5d26","723","stimuli/21110110.jpg"," ","","feedback_trial","0","","","","","","","","","","","","","","","","","","","","",""
"","","","","","image-keyboard-response","120","284732","0.0-95.0","6155db00c1ddd261574dce05","665500ab8938657b03fbdba8","6657725f4271bb527e6e5d26","1748","stimuli/2111101.jpg","2","","prediction_trial","0","","false","","2","false","false","false","false","false","false","[1,2,0]","111","101","0","","","","","","",""
"","","","","","image-keyboard-response","121","285433","0.0-96.0","6155db00c1ddd261574dce05","665500ab8938657b03fbdba8","6657725f4271bb527e6e5d26","698","stimuli/21111010.jpg"," ","","feedback_trial","1","","","","","","","","","","","","","","","","","","","","",""
"","","","","","image-keyboard-response","122","287424","0.0-97.0","6155db00c1ddd261574dce05","665500ab8938657b03fbdba8","6657725f4271bb527e6e5d26","1990","stimuli/1011100.jpg","1","","prediction_trial","1","","true","","1","true","true","false","false","false","false","[1,2]","011","100","1","","","","","","",""
"","","","","","image-keyboard-response","123","288254","0.0-98.0","6155db00c1ddd261574dce05","665500ab8938657b03fbdba8","6657725f4271bb527e6e5d26","828","stimuli/10111001.jpg"," ","","feedback_trial","1","","","","","","","","","","","","","","","","","","","","",""
"","","","","","image-keyboard-response","124","289878","0.0-99.0","6155db00c1ddd261574dce05","665500ab8938657b03fbdba8","6657725f4271bb527e6e5d26","1622","stimuli/0111011.jpg","0","","prediction_trial","0","","true","","0","true","true","false","false","false","false","[2,1,0]","111","011","1","","","","","","",""
"","","","","","image-keyboard-response","125","290695","0.0-100.0","6155db00c1ddd261574dce05","665500ab8938657b03fbdba8","6657725f4271bb527e6e5d26","815","stimuli/01110110.jpg"," ","","feedback_trial","2","","","","","","","","","","","","","","","","","","","","",""
"","","","","","image-keyboard-response","126","292281","0.0-101.0","6155db00c1ddd261574dce05","665500ab8938657b03fbdba8","6657725f4271bb527e6e5d26","1585","stimuli/0111111.jpg","2","","prediction_trial","2","","true","","0","false","false","false","false","false","false","[2,1,0]","111","111","1","","","","","","",""
"","","","","","image-keyboard-response","127","293044","0.0-102.0","6155db00c1ddd261574dce05","665500ab8938657b03fbdba8","6657725f4271bb527e6e5d26","761","stimuli/01111112.jpg"," ","","feedback_trial","2","","","","","","","","","","","","","","","","","","","","",""
"","","","","","image-keyboard-response","128","294567","0.0-103.0","6155db00c1ddd261574dce05","665500ab8938657b03fbdba8","6657725f4271bb527e6e5d26","1513","stimuli/2100010.jpg","2","","prediction_trial","2","","true","","2","true","true","true","true","true","true","[2]","100","010","1","","","","","","",""
"","","","","","image-keyboard-response","129","295183","0.0-104.0","6155db00c1ddd261574dce05","665500ab8938657b03fbdba8","6657725f4271bb527e6e5d26","614","stimuli/21000102.jpg"," ","","feedback_trial","2","","","","","","","","","","","","","","","","","","","","",""
"","","","","","image-keyboard-response","130","296708","0.0-105.0","6155db00c1ddd261574dce05","665500ab8938657b03fbdba8","6657725f4271bb527e6e5d26","1523","stimuli/2100100.jpg","2","","prediction_trial","2","","true","","2","true","true","true","true","true","true","[2]","100","100","1","","","","","","",""
"","","","","","image-keyboard-response","131","297250","0.0-106.0","6155db00c1ddd261574dce05","665500ab8938657b03fbdba8","6657725f4271bb527e6e5d26","540","stimuli/21001002.jpg"," ","","feedback_trial","2","","","","","","","","","","","","","","","","","","","","",""
"","","","","","image-keyboard-response","132","298993","0.0-107.0","6155db00c1ddd261574dce05","665500ab8938657b03fbdba8","6657725f4271bb527e6e5d26","1743","stimuli/0111001.jpg","0","","prediction_trial","0","","true","","0","true","true","false","false","false","false","[2,0,1]","111","001","1","","","","","","",""
"","","","","","image-keyboard-response","133","299864","0.0-108.0","6155db00c1ddd261574dce05","665500ab8938657b03fbdba8","6657725f4271bb527e6e5d26","869","stimuli/01110010.jpg"," ","","feedback_trial","2","","","","","","","","","","","","","","","","","","","","",""
"","","","","","image-keyboard-response","134","301588","0.0-109.0","6155db00c1ddd261574dce05","665500ab8938657b03fbdba8","6657725f4271bb527e6e5d26","1723","stimuli/2111010.jpg","1","","prediction_trial","1","","true","","2","true","true","false","false","false","false","[2,0,1]","111","010","1","","","","","","",""
"","","","","","image-keyboard-response","135","302414","0.0-110.0","6155db00c1ddd261574dce05","665500ab8938657b03fbdba8","6657725f4271bb527e6e5d26","824","stimuli/21110101.jpg"," ","","feedback_trial","2","","","","","","","","","","","","","","","","","","","","",""
"","","","","","image-keyboard-response","136","303707","0.0-111.0","6155db00c1ddd261574dce05","665500ab8938657b03fbdba8","6657725f4271bb527e6e5d26","1292","stimuli/2000110.jpg","2","","prediction_trial","2","","true","","2","true","true","true","true","true","true","[2]","000","110","1","","","","","","",""
"","","","","","image-keyboard-response","137","304528","0.0-112.0","6155db00c1ddd261574dce05","665500ab8938657b03fbdba8","6657725f4271bb527e6e5d26","820","stimuli/20001102.jpg"," ","","feedback_trial","2","","","","","","","","","","","","","","","","","","","","",""
"","","","","","image-keyboard-response","138","306865","0.0-113.0","6155db00c1ddd261574dce05","665500ab8938657b03fbdba8","6657725f4271bb527e6e5d26","2336","stimuli/2001001.jpg","2","","prediction_trial","2","","true","","2","false","true","false","true","false","true","[2]","001","001","1","","","","","","",""
"","","","","","image-keyboard-response","139","307410","0.0-114.0","6155db00c1ddd261574dce05","665500ab8938657b03fbdba8","6657725f4271bb527e6e5d26","543","stimuli/20010012.jpg"," ","","feedback_trial","2","","","","","","","","","","","","","","","","","","","","",""
"","","","","","image-keyboard-response","140","309712","0.0-115.0","6155db00c1ddd261574dce05","665500ab8938657b03fbdba8","6657725f4271bb527e6e5d26","2301","stimuli/0000101.jpg","0","","prediction_trial","0","","true","","0","false","false","true","true","false","false","[0]","000","101","1","","","","","","",""
"","","","","","image-keyboard-response","141","310436","0.0-116.0","6155db00c1ddd261574dce05","665500ab8938657b03fbdba8","6657725f4271bb527e6e5d26","721","stimuli/00001010.jpg"," ","","feedback_trial","0","","","","","","","","","","","","","","","","","","","","",""
"","","","","","image-keyboard-response","142","314060","0.0-117.0","6155db00c1ddd261574dce05","665500ab8938657b03fbdba8","6657725f4271bb527e6e5d26","3623","stimuli/0100100.jpg","0","","prediction_trial","0","","true","","0","false","true","false","true","false","true","[0]","100","100","1","","","","","","",""
"","","","","","image-keyboard-response","143","314681","0.0-118.0","6155db00c1ddd261574dce05","665500ab8938657b03fbdba8","6657725f4271bb527e6e5d26","619","stimuli/01001000.jpg"," ","","feedback_trial","0","","","","","","","","","","","","","","","","","","","","",""
"","","","","","image-keyboard-response","144","316103","0.0-119.0","6155db00c1ddd261574dce05","665500ab8938657b03fbdba8","6657725f4271bb527e6e5d26","1421","stimuli/0001000.jpg","0","","prediction_trial","0","","true","","0","true","true","true","true","true","true","[0]","001","000","1","","","","","","",""
"","","","","","image-keyboard-response","145","316790","0.0-120.0","6155db00c1ddd261574dce05","665500ab8938657b03fbdba8","6657725f4271bb527e6e5d26","686","stimuli/00010000.jpg"," ","","feedback_trial","0","","","","","","","","","","","","","","","","","","","","",""
"","","","","","image-keyboard-response","146","319184","0.0-121.0","6155db00c1ddd261574dce05","665500ab8938657b03fbdba8","6657725f4271bb527e6e5d26","2393","stimuli/2101011.jpg","1","","prediction_trial","0","","false","","2","false","false","false","false","false","false","[0,2]","101","011","0","","","","","","",""
"","","","","","image-keyboard-response","147","320631","0.0-122.0","6155db00c1ddd261574dce05","665500ab8938657b03fbdba8","6657725f4271bb527e6e5d26","1445","stimuli/21010110.jpg"," ","","feedback_trial","0","","","","","","","","","","","","","","","","","","","","",""
"","","","","","image-keyboard-response","148","323593","0.0-123.0","6155db00c1ddd261574dce05","665500ab8938657b03fbdba8","6657725f4271bb527e6e5d26","2961","stimuli/2100011.jpg","1","","prediction_trial","2","","false","","2","false","false","true","true","false","false","[2]","100","011","0","","","","","","",""
"","","","","","image-keyboard-response","149","324360","0.0-124.0","6155db00c1ddd261574dce05","665500ab8938657b03fbdba8","6657725f4271bb527e6e5d26","764","stimuli/21000112.jpg"," ","","feedback_trial","2","","","","","","","","","","","","","","","","","","","","",""
"","","","","","image-keyboard-response","150","326503","0.0-125.0","6155db00c1ddd261574dce05","665500ab8938657b03fbdba8","6657725f4271bb527e6e5d26","2133","stimuli/0101111.jpg","1","","prediction_trial","0","","false","","0","false","false","false","false","false","false","[2,0]","101","111","0","","","","","","",""
"","","","","","image-keyboard-response","151","327187","0.0-126.0","6155db00c1ddd261574dce05","665500ab8938657b03fbdba8","6657725f4271bb527e6e5d26","683","stimuli/01011110.jpg"," ","","feedback_trial","2","","","","","","","","","","","","","","","","","","","","",""
"","","","","","image-keyboard-response","152","328273","0.0-127.0","6155db00c1ddd261574dce05","665500ab8938657b03fbdba8","6657725f4271bb527e6e5d26","1084","stimuli/2000100.jpg","2","","prediction_trial","2","","true","","2","true","true","true","true","true","true","[2]","000","100","1","","","","","","",""
"","","","","","image-keyboard-response","153","329051","0.0-128.0","6155db00c1ddd261574dce05","665500ab8938657b03fbdba8","6657725f4271bb527e6e5d26","777","stimuli/20001002.jpg"," ","","feedback_trial","2","","","","","","","","","","","","","","","","","","","","",""
"","","","","","image-keyboard-response","154","332041","0.0-129.0","6155db00c1ddd261574dce05","665500ab8938657b03fbdba8","6657725f4271bb527e6e5d26","2989","stimuli/2100111.jpg","0","","prediction_trial","2","","false","","2","false","false","true","true","false","false","[2]","100","111","0","","","","","","",""
"","","","","","image-keyboard-response","155","332849","0.0-130.0","6155db00c1ddd261574dce05","665500ab8938657b03fbdba8","6657725f4271bb527e6e5d26","805","stimuli/21001112.jpg"," ","","feedback_trial","2","","","","","","","","","","","","","","","","","","","","",""
"","","","","","image-keyboard-response","156","335647","0.0-131.0","6155db00c1ddd261574dce05","665500ab8938657b03fbdba8","6657725f4271bb527e6e5d26","2797","stimuli/2001100.jpg","2","","prediction_trial","2","","true","","2","true","true","false","true","false","true","[2]","001","100","1","","","","","","",""
"","","","","","image-keyboard-response","157","336229","0.0-132.0","6155db00c1ddd261574dce05","665500ab8938657b03fbdba8","6657725f4271bb527e6e5d26","580","stimuli/20011002.jpg"," ","","feedback_trial","2","","","","","","","","","","","","","","","","","","","","",""
"","","","","","image-keyboard-response","158","338653","0.0-133.0","6155db00c1ddd261574dce05","665500ab8938657b03fbdba8","6657725f4271bb527e6e5d26","2422","stimuli/1110011.jpg","2","","prediction_trial","0","","false","","1","false","false","false","false","false","false","[1,0]","110","011","0","","","","","","",""
"","","","","","image-keyboard-response","159","339320","0.0-134.0","6155db00c1ddd261574dce05","665500ab8938657b03fbdba8","6657725f4271bb527e6e5d26","665","stimuli/11100110.jpg"," ","","feedback_trial","1","","","","","","","","","","","","","","","","","","","","",""
"","","","","","image-keyboard-response","160","341016","0.0-135.0","6155db00c1ddd261574dce05","665500ab8938657b03fbdba8","6657725f4271bb527e6e5d26","1694","stimuli/2101111.jpg","1","","prediction_trial","0","","false","","2","false","false","false","false","false","false","[2,0]","101","111","0","","","","","","",""
"","","","","","image-keyboard-response","161","341656","0.0-136.0","6155db00c1ddd261574dce05","665500ab8938657b03fbdba8","6657725f4271bb527e6e5d26","637","stimuli/21011110.jpg"," ","","feedback_trial","2","","","","","","","","","","","","","","","","","","","","",""
"","","","","","image-keyboard-response","162","342744","0.0-137.0","6155db00c1ddd261574dce05","665500ab8938657b03fbdba8","6657725f4271bb527e6e5d26","1087","stimuli/1101110.jpg","1","","prediction_trial","1","","true","","1","false","false","true","true","false","false","[1]","101","110","1","","","","","","",""
"","","","","","image-keyboard-response","163","343521","0.0-138.0","6155db00c1ddd261574dce05","665500ab8938657b03fbdba8","6657725f4271bb527e6e5d26","775","stimuli/11011101.jpg"," ","","feedback_trial","1","","","","","","","","","","","","","","","","","","","","",""
"","","","","","image-keyboard-response","164","345402","0.0-139.0","6155db00c1ddd261574dce05","665500ab8938657b03fbdba8","6657725f4271bb527e6e5d26","1879","stimuli/0001111.jpg","0","","prediction_trial","0","","true","","0","false","false","true","true","false","false","[0]","001","111","1","","","","","","",""
"","","","","","image-keyboard-response","165","346221","0.0-140.0","6155db00c1ddd261574dce05","665500ab8938657b03fbdba8","6657725f4271bb527e6e5d26","817","stimuli/00011110.jpg"," ","","feedback_trial","0","","","","","","","","","","","","","","","","","","","","",""
"","","","","","image-keyboard-response","166","348245","0.0-141.0","6155db00c1ddd261574dce05","665500ab8938657b03fbdba8","6657725f4271bb527e6e5d26","2022","stimuli/2011000.jpg","2","","prediction_trial","1","","false","","2","true","true","false","false","false","false","[2,1]","011","000","0","","","","","","",""
"","","","","","image-keyboard-response","167","348953","0.0-142.0","6155db00c1ddd261574dce05","665500ab8938657b03fbdba8","6657725f4271bb527e6e5d26","706","stimuli/20110001.jpg"," ","","feedback_trial","2","","","","","","","","","","","","","","","","","","","","",""
"","","","","","image-keyboard-response","168","350091","0.0-143.0","6155db00c1ddd261574dce05","665500ab8938657b03fbdba8","6657725f4271bb527e6e5d26","1137","stimuli/1101111.jpg","2","","prediction_trial","1","","false","","1","false","false","true","true","false","false","[1]","101","111","0","","","","","","",""
"","","","","","image-keyboard-response","169","350903","0.0-144.0","6155db00c1ddd261574dce05","665500ab8938657b03fbdba8","6657725f4271bb527e6e5d26","810","stimuli/11011111.jpg"," ","","feedback_trial","1","","","","","","","","","","","","","","","","","","","","",""
"","","","","","image-keyboard-response","170","353583","0.0-145.0","6155db00c1ddd261574dce05","665500ab8938657b03fbdba8","6657725f4271bb527e6e5d26","2678","stimuli/1000011.jpg","2","","prediction_trial","1","","false","","1","false","false","true","true","false","false","[1]","000","011","0","","","","","","",""
"","","","","","image-keyboard-response","171","354254","0.0-146.0","6155db00c1ddd261574dce05","665500ab8938657b03fbdba8","6657725f4271bb527e6e5d26","669","stimuli/10000111.jpg"," ","","feedback_trial","1","","","","","","","","","","","","","","","","","","","","",""
"","","","","","image-keyboard-response","172","356298","0.0-147.0","6155db00c1ddd261574dce05","665500ab8938657b03fbdba8","6657725f4271bb527e6e5d26","2034","stimuli/2011111.jpg","0","","prediction_trial","1","","false","","2","false","false","false","false","false","false","[1,2]","011","111","0","","","","","","",""
"","","","","","image-keyboard-response","173","356936","0.0-148.0","6155db00c1ddd261574dce05","665500ab8938657b03fbdba8","6657725f4271bb527e6e5d26","636","stimuli/20111111.jpg"," ","","feedback_trial","1","","","","","","","","","","","","","","","","","","","","",""
"","","","","","image-keyboard-response","174","358679","0.0-149.0","6155db00c1ddd261574dce05","665500ab8938657b03fbdba8","6657725f4271bb527e6e5d26","1741","stimuli/2001010.jpg","2","","prediction_trial","2","","true","","2","true","true","false","true","false","true","[2]","001","010","1","","","","","","",""
"","","","","","image-keyboard-response","175","359321","0.0-150.0","6155db00c1ddd261574dce05","665500ab8938657b03fbdba8","6657725f4271bb527e6e5d26","641","stimuli/20010102.jpg"," ","","feedback_trial","2","","","","","","","","","","","","","","","","","","","","",""
"","","","","","image-keyboard-response","176","360780","0.0-151.0","6155db00c1ddd261574dce05","665500ab8938657b03fbdba8","6657725f4271bb527e6e5d26","1457","stimuli/1100110.jpg","1","","prediction_trial","1","","true","","1","false","false","true","true","false","false","[1]","100","110","1","","","","","","",""
"","","","","","image-keyboard-response","177","361642","0.0-152.0","6155db00c1ddd261574dce05","665500ab8938657b03fbdba8","6657725f4271bb527e6e5d26","861","stimuli/11001101.jpg"," ","","feedback_trial","1","","","","","","","","","","","","","","","","","","","","",""
"","","","","","image-keyboard-response","178","363303","0.0-153.0","6155db00c1ddd261574dce05","665500ab8938657b03fbdba8","6657725f4271bb527e6e5d26","1660","stimuli/0011010.jpg","0","","prediction_trial","0","","true","","0","true","true","true","true","true","true","[0]","011","010","1","","","","","","",""
"","","","","","image-keyboard-response","179","363917","0.0-154.0","6155db00c1ddd261574dce05","665500ab8938657b03fbdba8","6657725f4271bb527e6e5d26","612","stimuli/00110100.jpg"," ","","feedback_trial","0","","","","","","","","","","","","","","","","","","","","",""
"","","","","","image-keyboard-response","180","365253","0.0-155.0","6155db00c1ddd261574dce05","665500ab8938657b03fbdba8","6657725f4271bb527e6e5d26","1335","stimuli/1001101.jpg","1","","prediction_trial","1","","true","","1","true","true","true","true","true","true","[1]","001","101","1","","","","","","",""
"","","","","","image-keyboard-response","181","365804","0.0-156.0","6155db00c1ddd261574dce05","665500ab8938657b03fbdba8","6657725f4271bb527e6e5d26","548","stimuli/10011011.jpg"," ","","feedback_trial","1","","","","","","","","","","","","","","","","","","","","",""
"","","","","","image-keyboard-response","182","367051","0.0-157.0","6155db00c1ddd261574dce05","665500ab8938657b03fbdba8","6657725f4271bb527e6e5d26","1246","stimuli/0101110.jpg","1","","prediction_trial","0","","false","","0","false","false","false","false","false","false","[0,2]","101","110","0","","","","","","",""
"","","","","","image-keyboard-response","183","367696","0.0-158.0","6155db00c1ddd261574dce05","665500ab8938657b03fbdba8","6657725f4271bb527e6e5d26","642","stimuli/01011100.jpg"," ","","feedback_trial","0","","","","","","","","","","","","","","","","","","","","",""
"","","","","","image-keyboard-response","184","369913","0.0-159.0","6155db00c1ddd261574dce05","665500ab8938657b03fbdba8","6657725f4271bb527e6e5d26","2216","stimuli/1111001.jpg","1","","prediction_trial","0","","false","","1","true","true","false","false","false","false","[0,2,1]","111","001","0","","","","","","",""
"","","","","","image-keyboard-response","185","370547","0.0-160.0","6155db00c1ddd261574dce05","665500ab8938657b03fbdba8","6657725f4271bb527e6e5d26","632","stimuli/11110010.jpg"," ","","feedback_trial","0","","","","","","","","","","","","","","","","","","","","",""
"","","","","","image-keyboard-response","186","372618","0.0-161.0","6155db00c1ddd261574dce05","665500ab8938657b03fbdba8","6657725f4271bb527e6e5d26","2070","stimuli/0100010.jpg","0","","prediction_trial","0","","true","","0","true","true","false","true","false","true","[0]","100","010","1","","","","","","",""
"","","","","","image-keyboard-response","187","373104","0.0-162.0","6155db00c1ddd261574dce05","665500ab8938657b03fbdba8","6657725f4271bb527e6e5d26","484","stimuli/01000100.jpg"," ","","feedback_trial","0","","","","","","","","","","","","","","","","","","","","",""
"","","","","","image-keyboard-response","188","374287","0.0-163.0","6155db00c1ddd261574dce05","665500ab8938657b03fbdba8","6657725f4271bb527e6e5d26","1182","stimuli/0000001.jpg","0","","prediction_trial","0","","true","","0","true","true","true","true","true","true","[0]","000","001","1","","","","","","",""
"","","","","","image-keyboard-response","189","374748","0.0-164.0","6155db00c1ddd261574dce05","665500ab8938657b03fbdba8","6657725f4271bb527e6e5d26","460","stimuli/00000010.jpg"," ","","feedback_trial","0","","","","","","","","","","","","","","","","","","","","",""
"","","","","","image-keyboard-response","190","376705","0.0-165.0","6155db00c1ddd261574dce05","665500ab8938657b03fbdba8","6657725f4271bb527e6e5d26","1954","stimuli/1111000.jpg","2","","prediction_trial","0","","false","","1","true","true","false","false","false","false","[1,0,2]","111","000","0","","","","","","",""
"","","","","","image-keyboard-response","191","377412","0.0-166.0","6155db00c1ddd261574dce05","665500ab8938657b03fbdba8","6657725f4271bb527e6e5d26","706","stimuli/11110000.jpg"," ","","feedback_trial","1","","","","","","","","","","","","","","","","","","","","",""
"","","","","","image-keyboard-response","192","378441","0.0-167.0","6155db00c1ddd261574dce05","665500ab8938657b03fbdba8","6657725f4271bb527e6e5d26","1027","stimuli/2010010.jpg","2","","prediction_trial","2","","true","","2","true","true","true","true","true","true","[2]","010","010","1","","","","","","",""
"","","","","","image-keyboard-response","193","378855","0.0-168.0","6155db00c1ddd261574dce05","665500ab8938657b03fbdba8","6657725f4271bb527e6e5d26","413","stimuli/20100102.jpg"," ","","feedback_trial","2","","","","","","","","","","","","","","","","","","","","",""
"","","","","","image-keyboard-response","194","381544","0.0-169.0","6155db00c1ddd261574dce05","665500ab8938657b03fbdba8","6657725f4271bb527e6e5d26","2687","stimuli/1001111.jpg","0","","prediction_trial","1","","false","","1","false","false","true","true","false","false","[1]","001","111","0","","","","","","",""
"","","","","","image-keyboard-response","195","382182","0.0-170.0","6155db00c1ddd261574dce05","665500ab8938657b03fbdba8","6657725f4271bb527e6e5d26","636","stimuli/10011111.jpg"," ","","feedback_trial","1","","","","","","","","","","","","","","","","","","","","",""
"","","","","","image-keyboard-response","196","382970","0.0-171.0","6155db00c1ddd261574dce05","665500ab8938657b03fbdba8","6657725f4271bb527e6e5d26","787","stimuli/0000110.jpg","1","","prediction_trial","0","","false","","0","false","false","true","true","false","false","[0]","000","110","0","","","","","","",""
"","","","","","image-keyboard-response","197","383565","0.0-172.0","6155db00c1ddd261574dce05","665500ab8938657b03fbdba8","6657725f4271bb527e6e5d26","593","stimuli/00001100.jpg"," ","","feedback_trial","0","","","","","","","","","","","","","","","","","","","","",""
"","","","","","image-keyboard-response","198","385635","0.0-173.0","6155db00c1ddd261574dce05","665500ab8938657b03fbdba8","6657725f4271bb527e6e5d26","2069","stimuli/0101010.jpg","0","","prediction_trial","2","","false","","0","true","true","false","false","false","false","[2,0]","101","010","0","","","","","","",""
"","","","","","image-keyboard-response","199","386231","0.0-174.0","6155db00c1ddd261574dce05","665500ab8938657b03fbdba8","6657725f4271bb527e6e5d26","594","stimuli/01010102.jpg"," ","","feedback_trial","2","","","","","","","","","","","","","","","","","","","","",""
"","","","","","image-keyboard-response","200","387628","0.0-175.0","6155db00c1ddd261574dce05","665500ab8938657b03fbdba8","6657725f4271bb527e6e5d26","1396","stimuli/0110010.jpg","0","","prediction_trial","1","","false","","0","true","true","false","false","false","false","[0,1]","110","010","0","","","","","","",""
"","","","","","image-keyboard-response","201","388217","0.0-176.0","6155db00c1ddd261574dce05","665500ab8938657b03fbdba8","6657725f4271bb527e6e5d26","587","stimuli/01100101.jpg"," ","","feedback_trial","0","","","","","","","","","","","","","","","","","","","","",""
"","","","","","image-keyboard-response","202","391824","0.0-177.0","6155db00c1ddd261574dce05","665500ab8938657b03fbdba8","6657725f4271bb527e6e5d26","3605","stimuli/1111011.jpg","2","","prediction_trial","1","","false","","1","false","false","false","false","false","false","[1,2,0]","111","011","0","","","","","","",""
"","","","","","image-keyboard-response","203","392431","0.0-178.0","6155db00c1ddd261574dce05","665500ab8938657b03fbdba8","6657725f4271bb527e6e5d26","605","stimuli/11110111.jpg"," ","","feedback_trial","1","","","","","","","","","","","","","","","","","","","","",""
"","","","","","image-keyboard-response","204","394388","0.0-179.0","6155db00c1ddd261574dce05","665500ab8938657b03fbdba8","6657725f4271bb527e6e5d26","1956","stimuli/2000011.jpg","1","","prediction_trial","2","","false","","2","false","false","true","true","false","false","[2]","000","011","0","","","","","","",""
"","","","","","image-keyboard-response","205","394995","0.0-180.0","6155db00c1ddd261574dce05","665500ab8938657b03fbdba8","6657725f4271bb527e6e5d26","605","stimuli/20000112.jpg"," ","","feedback_trial","2","","","","","","","","","","","","","","","","","","","","",""
"","","","","","image-keyboard-response","206","396114","0.0-181.0","6155db00c1ddd261574dce05","665500ab8938657b03fbdba8","6657725f4271bb527e6e5d26","1117","stimuli/0111110.jpg","0","","prediction_trial","1","","false","","0","false","false","false","false","false","false","[0,2,1]","111","110","0","","","","","","",""
"","","","","","image-keyboard-response","207","396658","0.0-182.0","6155db00c1ddd261574dce05","665500ab8938657b03fbdba8","6657725f4271bb527e6e5d26","542","stimuli/01111101.jpg"," ","","feedback_trial","0","","","","","","","","","","","","","","","","","","","","",""
"","","","","","image-keyboard-response","208","398382","0.0-183.0","6155db00c1ddd261574dce05","665500ab8938657b03fbdba8","6657725f4271bb527e6e5d26","1723","stimuli/0101001.jpg","0","","prediction_trial","2","","false","","0","true","true","false","false","false","false","[0,2]","101","001","0","","","","","","",""
"","","","","","image-keyboard-response","209","399008","0.0-184.0","6155db00c1ddd261574dce05","665500ab8938657b03fbdba8","6657725f4271bb527e6e5d26","624","stimuli/01010012.jpg"," ","","feedback_trial","0","","","","","","","","","","","","","","","","","","","","",""
"","","","","","image-keyboard-response","210","399964","0.0-185.0","6155db00c1ddd261574dce05","665500ab8938657b03fbdba8","6657725f4271bb527e6e5d26","955","stimuli/0111010.jpg","0","","prediction_trial","2","","false","","0","true","true","false","false","false","false","[0,1,2]","111","010","0","","","","","","",""
"","","","","","image-keyboard-response","211","400565","0.0-186.0","6155db00c1ddd261574dce05","665500ab8938657b03fbdba8","6657725f4271bb527e6e5d26","600","stimuli/01110102.jpg"," ","","feedback_trial","0","","","","","","","","","","","","","","","","","","","","",""
"","","","","","image-keyboard-response","212","401789","0.0-187.0","6155db00c1ddd261574dce05","665500ab8938657b03fbdba8","6657725f4271bb527e6e5d26","1222","stimuli/1000101.jpg","1","","prediction_trial","1","","true","","1","true","true","true","true","true","true","[1]","000","101","1","","","","","","",""
"","","","","","image-keyboard-response","213","402265","0.0-188.0","6155db00c1ddd261574dce05","665500ab8938657b03fbdba8","6657725f4271bb527e6e5d26","474","stimuli/10001011.jpg"," ","","feedback_trial","1","","","","","","","","","","","","","","","","","","","","",""
"","","","","","image-keyboard-response","214","404782","0.0-189.0","6155db00c1ddd261574dce05","665500ab8938657b03fbdba8","6657725f4271bb527e6e5d26","2516","stimuli/1000110.jpg","0","","prediction_trial","1","","false","","1","false","false","true","true","false","false","[1]","000","110","0","","","","","","",""
"","","","","","image-keyboard-response","215","405460","0.0-190.0","6155db00c1ddd261574dce05","665500ab8938657b03fbdba8","6657725f4271bb527e6e5d26","676","stimuli/10001101.jpg"," ","","feedback_trial","1","","","","","","","","","","","","","","","","","","","","",""
"","","","","","image-keyboard-response","216","406981","0.0-191.0","6155db00c1ddd261574dce05","665500ab8938657b03fbdba8","6657725f4271bb527e6e5d26","1511","stimuli/2110001.jpg","2","","prediction_trial","2","","true","","2","false","true","true","true","false","true","[2]","110","001","1","","","","","","",""
"","","","","","image-keyboard-response","217","407543","0.0-192.0","6155db00c1ddd261574dce05","665500ab8938657b03fbdba8","6657725f4271bb527e6e5d26","561","stimuli/21100012.jpg"," ","","feedback_trial","2","","","","","","","","","","","","","","","","","","","","",""
"","","","","","image-keyboard-response","218","408856","0.0-193.0","6155db00c1ddd261574dce05","665500ab8938657b03fbdba8","6657725f4271bb527e6e5d26","1311","stimuli/1101000.jpg","1","","prediction_trial","1","","true","","1","true","true","true","true","true","true","[1]","101","000","1","","","","","","",""
"","","","","","image-keyboard-response","219","409369","0.0-194.0","6155db00c1ddd261574dce05","665500ab8938657b03fbdba8","6657725f4271bb527e6e5d26","511","stimuli/11010001.jpg"," ","","feedback_trial","1","","","","","","","","","","","","","","","","","","","","",""
"","","","","","image-keyboard-response","220","411363","0.0-195.0","6155db00c1ddd261574dce05","665500ab8938657b03fbdba8","6657725f4271bb527e6e5d26","1992","stimuli/1011011.jpg","1","","prediction_trial","2","","false","","1","false","false","false","false","false","false","[2,1]","011","011","0","","","","","","",""
"","","","","","image-keyboard-response","221","412016","0.0-196.0","6155db00c1ddd261574dce05","665500ab8938657b03fbdba8","6657725f4271bb527e6e5d26","652","stimuli/10110112.jpg"," ","","feedback_trial","2","","","","","","","","","","","","","","","","","","","","",""
"","","","","","image-keyboard-response","222","413496","0.0-197.0","6155db00c1ddd261574dce05","665500ab8938657b03fbdba8","6657725f4271bb527e6e5d26","1478","stimuli/1010010.jpg","1","","prediction_trial","1","","true","","1","false","true","false","true","false","true","[1]","010","010","1","","","","","","",""
"","","","","","image-keyboard-response","223","414148","0.0-198.0","6155db00c1ddd261574dce05","665500ab8938657b03fbdba8","6657725f4271bb527e6e5d26","650","stimuli/10100101.jpg"," ","","feedback_trial","1","","","","","","","","","","","","","","","","","","","","",""
"","","","","","image-keyboard-response","224","415669","0.0-199.0","6155db00c1ddd261574dce05","665500ab8938657b03fbdba8","6657725f4271bb527e6e5d26","1519","stimuli/1010101.jpg","1","","prediction_trial","1","","true","","1","true","true","false","true","false","true","[1]","010","101","1","","","","","","",""
"","","","","","image-keyboard-response","225","416228","0.0-200.0","6155db00c1ddd261574dce05","665500ab8938657b03fbdba8","6657725f4271bb527e6e5d26","558","stimuli/10101011.jpg"," ","","feedback_trial","1","","","","","","","","","","","","","","","","","","","","",""
"","","","","","image-keyboard-response","226","417085","0.0-201.0","6155db00c1ddd261574dce05","665500ab8938657b03fbdba8","6657725f4271bb527e6e5d26","856","stimuli/1000000.jpg","1","","prediction_trial","1","","true","","1","true","true","true","true","true","true","[1]","000","000","1","","","","","","",""
"","","","","","image-keyboard-response","227","417586","0.0-202.0","6155db00c1ddd261574dce05","665500ab8938657b03fbdba8","6657725f4271bb527e6e5d26","499","stimuli/10000001.jpg"," ","","feedback_trial","1","","","","","","","","","","","","","","","","","","","","",""
"","","","","","image-keyboard-response","228","418596","0.0-203.0","6155db00c1ddd261574dce05","665500ab8938657b03fbdba8","6657725f4271bb527e6e5d26","1009","stimuli/0000011.jpg","0","","prediction_trial","0","","true","","0","true","true","true","true","true","true","[0]","000","011","1","","","","","","",""
"","","","","","image-keyboard-response","229","419011","0.0-204.0","6155db00c1ddd261574dce05","665500ab8938657b03fbdba8","6657725f4271bb527e6e5d26","413","stimuli/00000110.jpg"," ","","feedback_trial","0","","","","","","","","","","","","","","","","","","","","",""
"","","","","","image-keyboard-response","230","419791","0.0-205.0","6155db00c1ddd261574dce05","665500ab8938657b03fbdba8","6657725f4271bb527e6e5d26","778","stimuli/1100001.jpg","1","","prediction_trial","1","","true","","1","true","true","true","true","true","true","[1]","100","001","1","","","","","","",""
"","","","","","image-keyboard-response","231","420235","0.0-206.0","6155db00c1ddd261574dce05","665500ab8938657b03fbdba8","6657725f4271bb527e6e5d26","442","stimuli/11000011.jpg"," ","","feedback_trial","1","","","","","","","","","","","","","","","","","","","","",""
"","","","","","image-keyboard-response","232","421466","0.0-207.0","6155db00c1ddd261574dce05","665500ab8938657b03fbdba8","6657725f4271bb527e6e5d26","1230","stimuli/1011000.jpg","1","","prediction_trial","1","","true","","1","true","true","false","false","false","false","[2,1]","011","000","1","","","","","","",""
"","","","","","image-keyboard-response","233","421983","0.0-208.0","6155db00c1ddd261574dce05","665500ab8938657b03fbdba8","6657725f4271bb527e6e5d26","515","stimuli/10110001.jpg"," ","","feedback_trial","2","","","","","","","","","","","","","","","","","","","","",""
"","","","","","image-keyboard-response","234","423020","0.0-209.0","6155db00c1ddd261574dce05","665500ab8938657b03fbdba8","6657725f4271bb527e6e5d26","1035","stimuli/0010000.jpg","0","","prediction_trial","0","","true","","0","true","true","true","true","true","true","[0]","010","000","1","","","","","","",""
"","","","","","image-keyboard-response","235","423436","0.0-210.0","6155db00c1ddd261574dce05","665500ab8938657b03fbdba8","6657725f4271bb527e6e5d26","415","stimuli/00100000.jpg"," ","","feedback_trial","0","","","","","","","","","","","","","","","","","","","","",""
"","","","","","image-keyboard-response","236","424386","0.0-211.0","6155db00c1ddd261574dce05","665500ab8938657b03fbdba8","6657725f4271bb527e6e5d26","948","stimuli/1111101.jpg","1","","prediction_trial","1","","true","","1","true","true","false","false","false","false","[2,0,1]","111","101","1","","","","","","",""
"","","","","","image-keyboard-response","237","424944","0.0-212.0","6155db00c1ddd261574dce05","665500ab8938657b03fbdba8","6657725f4271bb527e6e5d26","556","stimuli/11111011.jpg"," ","","feedback_trial","2","","","","","","","","","","","","","","","","","","","","",""
"","","","","","image-keyboard-response","238","426307","0.0-213.0","6155db00c1ddd261574dce05","665500ab8938657b03fbdba8","6657725f4271bb527e6e5d26","1354","stimuli/2111111.jpg","1","","prediction_trial","0","","false","","2","false","false","false","false","false","false","[0,2,1]","111","111","0","","","","","","",""
"","","","","","image-keyboard-response","239","426944","0.0-214.0","6155db00c1ddd261574dce05","665500ab8938657b03fbdba8","6657725f4271bb527e6e5d26","634","stimuli/21111110.jpg"," ","","feedback_trial","0","","","","","","","","","","","","","","","","","","","","",""
"","","","","","image-keyboard-response","240","428049","0.0-215.0","6155db00c1ddd261574dce05","665500ab8938657b03fbdba8","6657725f4271bb527e6e5d26","1104","stimuli/1111100.jpg","1","","prediction_trial","2","","false","","1","true","true","false","false","false","false","[0,1,2]","111","100","0","","","","","","",""
"","","","","","image-keyboard-response","241","428627","0.0-216.0","6155db00c1ddd261574dce05","665500ab8938657b03fbdba8","6657725f4271bb527e6e5d26","576","stimuli/11111002.jpg"," ","","feedback_trial","0","","","","","","","","","","","","","","","","","","","","",""
"","","","","","image-keyboard-response","242","429843","0.0-217.0","6155db00c1ddd261574dce05","665500ab8938657b03fbdba8","6657725f4271bb527e6e5d26","1214","stimuli/2111100.jpg","1","","prediction_trial","0","","false","","2","true","true","false","false","false","false","[2,1,0]","111","100","0","","","","","","",""
"","","","","","image-keyboard-response","243","430396","0.0-218.0","6155db00c1ddd261574dce05","665500ab8938657b03fbdba8","6657725f4271bb527e6e5d26","552","stimuli/21111000.jpg"," ","","feedback_trial","2","","","","","","","","","","","","","","","","","","","","",""
"","","","","","image-keyboard-response","244","432136","0.0-219.0","6155db00c1ddd261574dce05","665500ab8938657b03fbdba8","6657725f4271bb527e6e5d26","1739","stimuli/1011110.jpg","1","","prediction_trial","1","","true","","1","false","false","false","false","false","false","[2,1]","011","110","1","","","","","","",""
"","","","","","image-keyboard-response","245","432869","0.0-220.0","6155db00c1ddd261574dce05","665500ab8938657b03fbdba8","6657725f4271bb527e6e5d26","731","stimuli/10111101.jpg"," ","","feedback_trial","2","","","","","","","","","","","","","","","","","","","","",""
"","","","","","image-keyboard-response","246","433825","0.0-221.0","6155db00c1ddd261574dce05","665500ab8938657b03fbdba8","6657725f4271bb527e6e5d26","955","stimuli/1110000.jpg","1","","prediction_trial","0","","false","","1","true","true","false","false","false","false","[1,0]","110","000","0","","","","","","",""
"","","","","","image-keyboard-response","247","434455","0.0-222.0","6155db00c1ddd261574dce05","665500ab8938657b03fbdba8","6657725f4271bb527e6e5d26","628","stimuli/11100000.jpg"," ","","feedback_trial","1","","","","","","","","","","","","","","","","","","","","",""
"","","","","","image-keyboard-response","248","435251","0.0-223.0","6155db00c1ddd261574dce05","665500ab8938657b03fbdba8","6657725f4271bb527e6e5d26","795","stimuli/1101101.jpg","1","","prediction_trial","1","","true","","1","true","true","true","true","true","true","[1]","101","101","1","","","","","","",""
"","","","","","image-keyboard-response","249","435767","0.0-224.0","6155db00c1ddd261574dce05","665500ab8938657b03fbdba8","6657725f4271bb527e6e5d26","514","stimuli/11011011.jpg"," ","","feedback_trial","1","","","","","","","","","","","","","","","","","","","","",""
"","","","","","image-keyboard-response","250","437397","0.0-225.0","6155db00c1ddd261574dce05","665500ab8938657b03fbdba8","6657725f4271bb527e6e5d26","1629","stimuli/2101000.jpg","2","","prediction_trial","2","","true","","2","true","true","false","false","false","false","[0,2]","101","000","1","","","","","","",""
"","","","","","image-keyboard-response","251","438005","0.0-226.0","6155db00c1ddd261574dce05","665500ab8938657b03fbdba8","6657725f4271bb527e6e5d26","606","stimuli/21010002.jpg"," ","","feedback_trial","0","","","","","","","","","","","","","","","","","","","","",""
"","","","","","image-keyboard-response","252","439501","0.0-227.0","6155db00c1ddd261574dce05","665500ab8938657b03fbdba8","6657725f4271bb527e6e5d26","1494","stimuli/0100001.jpg","0","","prediction_trial","0","","true","","0","true","true","false","true","false","true","[0]","100","001","1","","","","","","",""
"","","","","","image-keyboard-response","253","440012","0.0-228.0","6155db00c1ddd261574dce05","665500ab8938657b03fbdba8","6657725f4271bb527e6e5d26","510","stimuli/01000010.jpg"," ","","feedback_trial","0","","","","","","","","","","","","","","","","","","","","",""
"","","","","","image-keyboard-response","254","441473","0.0-229.0","6155db00c1ddd261574dce05","665500ab8938657b03fbdba8","6657725f4271bb527e6e5d26","1459","stimuli/2101101.jpg","0","","prediction_trial","0","","true","","2","false","false","false","false","false","false","[2,0]","101","101","1","","","","","","",""
"","","","","","image-keyboard-response","255","442065","0.0-230.0","6155db00c1ddd261574dce05","665500ab8938657b03fbdba8","6657725f4271bb527e6e5d26","590","stimuli/21011010.jpg"," ","","feedback_trial","2","","","","","","","","","","","","","","","","","","","","",""
"","","","","","image-keyboard-response","256","443233","0.0-231.0","6155db00c1ddd261574dce05","665500ab8938657b03fbdba8","6657725f4271bb527e6e5d26","1167","stimuli/0110000.jpg","0","","prediction_trial","1","","false","","0","true","true","false","false","false","false","[1,0]","110","000","0","","","","","","",""
"","","","","","image-keyboard-response","257","443917","0.0-232.0","6155db00c1ddd261574dce05","665500ab8938657b03fbdba8","6657725f4271bb527e6e5d26","683","stimuli/01100001.jpg"," ","","feedback_trial","1","","","","","","","","","","","","","","","","","","","","",""
"","","","","","image-keyboard-response","258","445114","0.0-233.0","6155db00c1ddd261574dce05","665500ab8938657b03fbdba8","6657725f4271bb527e6e5d26","1196","stimuli/0110101.jpg","0","","prediction_trial","1","","false","","0","false","false","false","false","false","false","[1,0]","110","101","0","","","","","","",""
"","","","","","image-keyboard-response","259","446703","0.0-234.0","6155db00c1ddd261574dce05","665500ab8938657b03fbdba8","6657725f4271bb527e6e5d26","1587","stimuli/01101011.jpg"," ","","feedback_trial","1","","","","","","","","","","","","","","","","","","","","",""
"","","","","","image-keyboard-response","260","448398","0.0-235.0","6155db00c1ddd261574dce05","665500ab8938657b03fbdba8","6657725f4271bb527e6e5d26","1685","stimuli/2001110.jpg","2","","prediction_trial","2","","true","","2","true","true","false","true","false","true","[2]","001","110","1","","","","","","",""
"","","","","","image-keyboard-response","261","448907","0.0-236.0","6155db00c1ddd261574dce05","665500ab8938657b03fbdba8","6657725f4271bb527e6e5d26","507","stimuli/20011102.jpg"," ","","feedback_trial","2","","","","","","","","","","","","","","","","","","","","",""
"","","","","","image-keyboard-response","262","450206","0.0-237.0","6155db00c1ddd261574dce05","665500ab8938657b03fbdba8","6657725f4271bb527e6e5d26","1298","stimuli/2110111.jpg","2","","prediction_trial","2","","true","","2","false","false","true","true","false","false","[2]","110","111","1","","","","","","",""
"","","","","","image-keyboard-response","263","450793","0.0-238.0","6155db00c1ddd261574dce05","665500ab8938657b03fbdba8","6657725f4271bb527e6e5d26","585","stimuli/21101112.jpg"," ","","feedback_trial","2","","","","","","","","","","","","","","","","","","","","",""
"","","","","","image-keyboard-response","264","453376","0.0-239.0","6155db00c1ddd261574dce05","665500ab8938657b03fbdba8","6657725f4271bb527e6e5d26","2582","stimuli/1100010.jpg","1","","prediction_trial","1","","true","","1","false","true","true","true","false","true","[1]","100","010","1","","","","","","",""
"","","","","","image-keyboard-response","265","453873","0.0-240.0","6155db00c1ddd261574dce05","665500ab8938657b03fbdba8","6657725f4271bb527e6e5d26","495","stimuli/11000101.jpg"," ","","feedback_trial","1","","","","","","","","","","","","","","","","","","","","",""
"","","","","","image-keyboard-response","266","455077","0.0-241.0","6155db00c1ddd261574dce05","665500ab8938657b03fbdba8","6657725f4271bb527e6e5d26","1203","stimuli/1101010.jpg","1","","prediction_trial","1","","true","","1","false","true","true","true","false","true","[1]","101","010","1","","","","","","",""
"","","","","","image-keyboard-response","267","455509","0.0-242.0","6155db00c1ddd261574dce05","665500ab8938657b03fbdba8","6657725f4271bb527e6e5d26","430","stimuli/11010101.jpg"," ","","feedback_trial","1","","","","","","","","","","","","","","","","","","","","",""
"","","","","","image-keyboard-response","268","458517","0.0-243.0","6155db00c1ddd261574dce05","665500ab8938657b03fbdba8","6657725f4271bb527e6e5d26","3006","stimuli/0010111.jpg","2","","prediction_trial","0","","false","","0","false","false","true","true","false","false","[0]","010","111","0","","","","","","",""
"","","","","","image-keyboard-response","269","459140","0.0-244.0","6155db00c1ddd261574dce05","665500ab8938657b03fbdba8","6657725f4271bb527e6e5d26","621","stimuli/00101110.jpg"," ","","feedback_trial","0","","","","","","","","","","","","","","","","","","","","",""
"","","","","","image-keyboard-response","270","461326","0.0-245.0","6155db00c1ddd261574dce05","665500ab8938657b03fbdba8","6657725f4271bb527e6e5d26","2184","stimuli/2011001.jpg","2","","prediction_trial","2","","true","","2","false","true","false","false","false","false","[2,1]","011","001","1","","","","","","",""
"","","","","","image-keyboard-response","271","462033","0.0-246.0","6155db00c1ddd261574dce05","665500ab8938657b03fbdba8","6657725f4271bb527e6e5d26","705","stimuli/20110012.jpg"," ","","feedback_trial","2","","","","","","","","","","","","","","","","","","","","",""
"","","","","","image-keyboard-response","272","462941","0.0-247.0","6155db00c1ddd261574dce05","665500ab8938657b03fbdba8","6657725f4271bb527e6e5d26","906","stimuli/2110010.jpg","2","","prediction_trial","2","","true","","2","true","true","true","true","true","true","[2]","110","010","1","","","","","","",""
"","","","","","image-keyboard-response","273","463435","0.0-248.0","6155db00c1ddd261574dce05","665500ab8938657b03fbdba8","6657725f4271bb527e6e5d26","493","stimuli/21100102.jpg"," ","","feedback_trial","2","","","","","","","","","","","","","","","","","","","","",""
"","","","","","image-keyboard-response","274","464188","0.0-249.0","6155db00c1ddd261574dce05","665500ab8938657b03fbdba8","6657725f4271bb527e6e5d26","752","stimuli/2100110.jpg","2","","prediction_trial","2","","true","","2","true","true","true","true","true","true","[2]","100","110","1","","","","","","",""
"","","","","","image-keyboard-response","275","464575","0.0-250.0","6155db00c1ddd261574dce05","665500ab8938657b03fbdba8","6657725f4271bb527e6e5d26","386","stimuli/21001102.jpg"," ","","feedback_trial","2","","","","","","","","","","","","","","","","","","","","",""
"","","","","","image-keyboard-response","276","465882","0.0-251.0","6155db00c1ddd261574dce05","665500ab8938657b03fbdba8","6657725f4271bb527e6e5d26","1306","stimuli/1100011.jpg","1","","prediction_trial","1","","true","","1","false","false","true","true","false","false","[1]","100","011","1","","","","","","",""
"","","","","","image-keyboard-response","277","466372","0.0-252.0","6155db00c1ddd261574dce05","665500ab8938657b03fbdba8","6657725f4271bb527e6e5d26","489","stimuli/11000111.jpg"," ","","feedback_trial","1","","","","","","","","","","","","","","","","","","","","",""
"","","","","","image-keyboard-response","278","467063","0.0-253.0","6155db00c1ddd261574dce05","665500ab8938657b03fbdba8","6657725f4271bb527e6e5d26","690","stimuli/2010100.jpg","2","","prediction_trial","2","","true","","2","true","true","true","true","true","true","[2]","010","100","1","","","","","","",""
"","","","","","image-keyboard-response","279","467423","0.0-254.0","6155db00c1ddd261574dce05","665500ab8938657b03fbdba8","6657725f4271bb527e6e5d26","358","stimuli/20101002.jpg"," ","","feedback_trial","2","","","","","","","","","","","","","","","","","","","","",""
"","","","","","image-keyboard-response","280","468900","0.0-255.0","6155db00c1ddd261574dce05","665500ab8938657b03fbdba8","6657725f4271bb527e6e5d26","1476","stimuli/1011010.jpg","0","","prediction_trial","2","","false","","1","false","true","false","false","false","false","[2,1]","011","010","0","","","","","","",""
"","","","","","image-keyboard-response","281","469759","0.0-256.0","6155db00c1ddd261574dce05","665500ab8938657b03fbdba8","6657725f4271bb527e6e5d26","857","stimuli/10110102.jpg"," ","","feedback_trial","2","","","","","","","","","","","","","","","","","","","","",""
"","","","","","image-keyboard-response","282","470653","0.0-257.0","6155db00c1ddd261574dce05","665500ab8938657b03fbdba8","6657725f4271bb527e6e5d26","891","stimuli/1100000.jpg","1","","prediction_trial","1","","true","","1","true","true","true","true","true","true","[1]","100","000","1","","","","","","",""
"","","","","","image-keyboard-response","283","471057","0.0-258.0","6155db00c1ddd261574dce05","665500ab8938657b03fbdba8","6657725f4271bb527e6e5d26","403","stimuli/11000001.jpg"," ","","feedback_trial","1","","","","","","","","","","","","","","","","","","","","",""
"","","","","","image-keyboard-response","284","472720","0.0-259.0","6155db00c1ddd261574dce05","665500ab8938657b03fbdba8","6657725f4271bb527e6e5d26","1662","stimuli/1001011.jpg","2","","prediction_trial","1","","false","","1","false","false","true","true","false","false","[1]","001","011","0","","","","","","",""
"","","","","","image-keyboard-response","285","473490","0.0-260.0","6155db00c1ddd261574dce05","665500ab8938657b03fbdba8","6657725f4271bb527e6e5d26","769","stimuli/10010111.jpg"," ","","feedback_trial","1","","","","","","","","","","","","","","","","","","","","",""
"","","","","","image-keyboard-response","286","474981","0.0-261.0","6155db00c1ddd261574dce05","665500ab8938657b03fbdba8","6657725f4271bb527e6e5d26","1489","stimuli/0000100.jpg","0","","prediction_trial","0","","true","","0","false","true","true","true","false","true","[0]","000","100","1","","","","","","",""
"","","","","","image-keyboard-response","287","475441","0.0-262.0","6155db00c1ddd261574dce05","665500ab8938657b03fbdba8","6657725f4271bb527e6e5d26","459","stimuli/00001000.jpg"," ","","feedback_trial","0","","","","","","","","","","","","","","","","","","","","",""
"","","","","","image-keyboard-response","288","477175","0.0-263.0","6155db00c1ddd261574dce05","665500ab8938657b03fbdba8","6657725f4271bb527e6e5d26","1733","stimuli/0110011.jpg","0","","prediction_trial","1","","false","","0","true","true","false","false","false","false","[1,0]","110","011","0","","","","","","",""
"","","","","","image-keyboard-response","289","477754","0.0-264.0","6155db00c1ddd261574dce05","665500ab8938657b03fbdba8","6657725f4271bb527e6e5d26","576","stimuli/01100111.jpg"," ","","feedback_trial","1","","","","","","","","","","","","","","","","","","","","",""
"","","","","","image-keyboard-response","290","478487","0.0-265.0","6155db00c1ddd261574dce05","665500ab8938657b03fbdba8","6657725f4271bb527e6e5d26","732","stimuli/0000010.jpg","0","","prediction_trial","0","","true","","0","true","true","true","true","true","true","[0]","000","010","1","","","","","","",""
"","","","","","image-keyboard-response","291","478890","0.0-266.0","6155db00c1ddd261574dce05","665500ab8938657b03fbdba8","6657725f4271bb527e6e5d26","401","stimuli/00000100.jpg"," ","","feedback_trial","0","","","","","","","","","","","","","","","","","","","","",""
"","","","","","image-keyboard-response","292","480036","0.0-267.0","6155db00c1ddd261574dce05","665500ab8938657b03fbdba8","6657725f4271bb527e6e5d26","1144","stimuli/0111000.jpg","0","","prediction_trial","0","","true","","0","true","true","false","false","false","false","[0,2,1]","111","000","1","","","","","","",""
"","","","","","image-keyboard-response","293","480525","0.0-268.0","6155db00c1ddd261574dce05","665500ab8938657b03fbdba8","6657725f4271bb527e6e5d26","488","stimuli/01110000.jpg"," ","","feedback_trial","0","","","","","","","","","","","","","","","","","","","","",""
"","","","","","image-keyboard-response","294","482080","0.0-269.0","6155db00c1ddd261574dce05","665500ab8938657b03fbdba8","6657725f4271bb527e6e5d26","1553","stimuli/0000111.jpg","0","","prediction_trial","0","","true","","0","false","false","true","true","false","false","[0]","000","111","1","","","","","","",""
"","","","","","image-keyboard-response","295","482622","0.0-270.0","6155db00c1ddd261574dce05","665500ab8938657b03fbdba8","6657725f4271bb527e6e5d26","541","stimuli/00001110.jpg"," ","","feedback_trial","0","","","","","","","","","","","","","","","","","","","","",""
"","","","","","image-keyboard-response","296","483933","0.0-271.0","6155db00c1ddd261574dce05","665500ab8938657b03fbdba8","6657725f4271bb527e6e5d26","1309","stimuli/2101010.jpg","2","","prediction_trial","2","","true","","2","true","true","false","false","false","false","[2,0]","101","010","1","","","","","","",""
"","","","","","image-keyboard-response","297","484472","0.0-272.0","6155db00c1ddd261574dce05","665500ab8938657b03fbdba8","6657725f4271bb527e6e5d26","538","stimuli/21010102.jpg"," ","","feedback_trial","2","","","","","","","","","","","","","","","","","","","","",""
"","","","","","image-keyboard-response","298","485668","0.0-273.0","6155db00c1ddd261574dce05","665500ab8938657b03fbdba8","6657725f4271bb527e6e5d26","1195","stimuli/2111000.jpg","2","","prediction_trial","0","","false","","2","true","true","false","false","false","false","[1,2,0]","111","000","0","","","","","","",""
"","","","","","image-keyboard-response","299","486191","0.0-274.0","6155db00c1ddd261574dce05","665500ab8938657b03fbdba8","6657725f4271bb527e6e5d26","521","stimuli/21110000.jpg"," ","","feedback_trial","1","","","","","","","","","","","","","","","","","","","","",""
"","","","","","image-keyboard-response","300","487181","0.0-275.0","6155db00c1ddd261574dce05","665500ab8938657b03fbdba8","6657725f4271bb527e6e5d26","989","stimuli/1010000.jpg","1","","prediction_trial","1","","true","","1","true","true","false","true","false","true","[1]","010","000","1","","","","","","",""
"","","","","","image-keyboard-response","301","487642","0.0-276.0","6155db00c1ddd261574dce05","665500ab8938657b03fbdba8","6657725f4271bb527e6e5d26","459","stimuli/10100001.jpg"," ","","feedback_trial","1","","","","","","","","","","","","","","","","","","","","",""
"","","","","","image-keyboard-response","302","488735","0.0-277.0","6155db00c1ddd261574dce05","665500ab8938657b03fbdba8","6657725f4271bb527e6e5d26","1092","stimuli/1110101.jpg","1","","prediction_trial","0","","false","","1","true","true","false","false","false","false","[1,0]","110","101","0","","","","","","",""
"","","","","","image-keyboard-response","303","489250","0.0-278.0","6155db00c1ddd261574dce05","665500ab8938657b03fbdba8","6657725f4271bb527e6e5d26","514","stimuli/11101010.jpg"," ","","feedback_trial","1","","","","","","","","","","","","","","","","","","","","",""
"","","","","","image-keyboard-response","304","490797","0.0-279.0","6155db00c1ddd261574dce05","665500ab8938657b03fbdba8","6657725f4271bb527e6e5d26","1545","stimuli/1111110.jpg","1","","prediction_trial","2","","false","","1","false","false","false","false","false","false","[1,0,2]","111","110","0","","","","","","",""
"","","","","","image-keyboard-response","305","491343","0.0-280.0","6155db00c1ddd261574dce05","665500ab8938657b03fbdba8","6657725f4271bb527e6e5d26","544","stimuli/11111102.jpg"," ","","feedback_trial","1","","","","","","","","","","","","","","","","","","","","",""
"","","","","","image-keyboard-response","306","492645","0.0-281.0","6155db00c1ddd261574dce05","665500ab8938657b03fbdba8","6657725f4271bb527e6e5d26","1301","stimuli/2011110.jpg","2","","prediction_trial","1","","false","","2","true","true","false","false","false","false","[1,2]","011","110","0","","","","","","",""
"","","","","","image-keyboard-response","307","493170","0.0-282.0","6155db00c1ddd261574dce05","665500ab8938657b03fbdba8","6657725f4271bb527e6e5d26","524","stimuli/20111101.jpg"," ","","feedback_trial","1","","","","","","","","","","","","","","","","","","","","",""
"","","","","","image-keyboard-response","308","494158","0.0-283.0","6155db00c1ddd261574dce05","665500ab8938657b03fbdba8","6657725f4271bb527e6e5d26","987","stimuli/0001001.jpg","0","","prediction_trial","0","","true","","0","true","true","true","true","true","true","[0]","001","001","1","","","","","","",""
"","","","","","image-keyboard-response","309","494561","0.0-284.0","6155db00c1ddd261574dce05","665500ab8938657b03fbdba8","6657725f4271bb527e6e5d26","401","stimuli/00010010.jpg"," ","","feedback_trial","0","","","","","","","","","","","","","","","","","","","","",""
"","","","","","image-keyboard-response","310","496101","0.0-285.0","6155db00c1ddd261574dce05","665500ab8938657b03fbdba8","6657725f4271bb527e6e5d26","1538","stimuli/0001110.jpg","0","","prediction_trial","0","","true","","0","false","false","true","true","false","false","[0]","001","110","1","","","","","","",""
"","","","","","image-keyboard-response","311","496626","0.0-286.0","6155db00c1ddd261574dce05","665500ab8938657b03fbdba8","6657725f4271bb527e6e5d26","523","stimuli/00011100.jpg"," ","","feedback_trial","0","","","","","","","","","","","","","","","","","","","","",""
"","","","","","image-keyboard-response","312","497459","0.0-287.0","6155db00c1ddd261574dce05","665500ab8938657b03fbdba8","6657725f4271bb527e6e5d26","832","stimuli/0010010.jpg","0","","prediction_trial","0","","true","","0","true","true","true","true","true","true","[0]","010","010","1","","","","","","",""
"","","","","","image-keyboard-response","313","497892","0.0-288.0","6155db00c1ddd261574dce05","665500ab8938657b03fbdba8","6657725f4271bb527e6e5d26","431","stimuli/00100100.jpg"," ","","feedback_trial","0","","","","","","","","","","","","","","","","","","","","",""
"","","","","","image-keyboard-response","314","499108","0.0-289.0","6155db00c1ddd261574dce05","665500ab8938657b03fbdba8","6657725f4271bb527e6e5d26","1214","stimuli/0111101.jpg","2","","prediction_trial","1","","false","","0","false","false","false","false","false","false","[2,0,1]","111","101","0","","","","","","",""
"","","","","","image-keyboard-response","315","500070","0.0-290.0","6155db00c1ddd261574dce05","665500ab8938657b03fbdba8","6657725f4271bb527e6e5d26","961","stimuli/01111011.jpg"," ","","feedback_trial","2","","","","","","","","","","","","","","","","","","","","",""
"","","","","","image-keyboard-response","316","502060","0.0-291.0","6155db00c1ddd261574dce05","665500ab8938657b03fbdba8","6657725f4271bb527e6e5d26","1988","stimuli/1110111.jpg","2","","prediction_trial","0","","false","","1","false","false","false","false","false","false","[1,0]","110","111","0","","","","","","",""
"","","","","","image-keyboard-response","317","502742","0.0-292.0","6155db00c1ddd261574dce05","665500ab8938657b03fbdba8","6657725f4271bb527e6e5d26","680","stimuli/11101110.jpg"," ","","feedback_trial","1","","","","","","","","","","","","","","","","","","","","",""
"","","","","","survey-html-form","318","558731","0.0-293.0","6155db00c1ddd261574dce05","665500ab8938657b03fbdba8","6657725f4271bb527e6e5d26","55990","","{""feedback"":""Clearly if we could both tell, it was easy to decide. I sought to find a pattern, but Sam did not have one."",""age"":""55"",""gender"":""Male"",""other_gender"":"""",""race"":""White"",""other_race"":"""",""ethnicity"":""Non-Hispanic""}","","exit_survey","","","","","","","","","","","","","","","","Clearly if we could both tell, it was easy to decide. I sought to find a pattern, but Sam did not have one.","55","Non-Hispanic","Male","White","0.5763888888888888","0.5763888888888888"
