"success","timeout","failed_images","failed_audio","failed_video","trial_type","trial_index","time_elapsed","internal_node_id","prolific_id","prolific_study_id","prolific_session_id","rt","stimulus","response","view_history","trial","character_choice","stimulus_dict","accuracy","correct_response","ball_pos","ego_ball_visible","ego_can_infer","alter_ball_visible","alter_can_infer","collective_ball_visible","collective_can_infer","search_locations","alter_occluders","ego_occluders","accuracy_bool","feedback","age","ethnicity","gender","race","overall_accuracy","bonus"
"true","false","[]","[]","[]","preload","0","64160","0.0-0.0","6155b9c45f96867d9d9631fd","665500ab8938657b03fbdba8","66577af68946f4ed5f7a0ace","","","","","","","","","","","","","","","","","","","","","","","","","","",""
"true","","","","","fullscreen","1","193134","0.0-1.0","6155b9c45f96867d9d9631fd","665500ab8938657b03fbdba8","66577af68946f4ed5f7a0ace","","","","","","","","","","","","","","","","","","","","","","","","","","",""
"","","","","","html-button-response","2","194512","0.0-2.0","6155b9c45f96867d9d9631fd","665500ab8938657b03fbdba8","66577af68946f4ed5f7a0ace","1374","<p><b>Consent Form</b></p> <div style=""text-align:left;background-color:lightgrey; padding:20px; max-width:900px;""><p>Please consider this information carefully before deciding whether to participate in this research.</p> <p>The purpose of this research is to examine which factors influence social judgment and decision-making. You will be asked to make judgements about individuals and actions in social scenarios. We are simply interested in your judgement. The study will take less than 1 hour to complete, and you will receive less than $20 on Prolific. Your compensation and time commitment are specified in the study description. There are no anticipated risks associated with participating in this study. The effects of participating should be comparable to those you would ordinarily experience from viewing a computer monitor and using a mouse or keyboard for a similar amount of time. At the end of the study, we will provide an explanation of the questions that motivate this line of research and will describe the potential implications. </p><p> Your participation in this study is completely voluntary and you may refuse to participate or you may choose to withdraw at any time without penalty or loss of benefits to you which are otherwise entitled. Your participation in this study will remain confidential. No personally identifiable information will be associated with your data. Also, all analyses of the data will be averaged across all the participants, so your individual responses will never be specifically analyzed. </p><p> If you have questions or concerns about your participation or payment, or want to request a summary of research findings, please contact Dr. Jonathan Phillips at Jonathan.S.Phillips@dartmouth.edu. </p><p> Please save a copy of this form for your records. </p><p><b>Agreement: </b>The nature and purpose of this research have been sufficiently explained and I agree to participate in this study. I understand that I am free to withdraw at any time without incurring any penalty. Please consent by clicking the button below to continue. Otherwise, please exit the study at any time. </p>","0","","","","","","","","","","","","","","","","","","","","","","","",""
"","","","","","instructions","3","261881","0.0-3.0-0.0","6155b9c45f96867d9d9631fd","665500ab8938657b03fbdba8","66577af68946f4ed5f7a0ace","67368","","","[{""page_index"":0,""viewing_time"":2247},{""page_index"":1,""viewing_time"":3176},{""page_index"":2,""viewing_time"":3176},{""page_index"":3,""viewing_time"":6592},{""page_index"":4,""viewing_time"":4264},{""page_index"":5,""viewing_time"":3632},{""page_index"":6,""viewing_time"":4816},{""page_index"":7,""viewing_time"":5992},{""page_index"":8,""viewing_time"":5848},{""page_index"":9,""viewing_time"":3080},{""page_index"":10,""viewing_time"":11936},{""page_index"":11,""viewing_time"":1580},{""page_index"":10,""viewing_time"":1076},{""page_index"":11,""viewing_time"":6201},{""page_index"":12,""viewing_time"":2808},{""page_index"":13,""viewing_time"":944}]","intro","","","","","","","","","","","","","","","","","","","","","",""
"","","","","","image-keyboard-response","4","266596","0.0-3.0-1.0","6155b9c45f96867d9d9631fd","665500ab8938657b03fbdba8","66577af68946f4ed5f7a0ace","4707","stimuli/2101111.jpg","1","","prediction_practice","0","{""filepath"":""stimuli/2101111.jpg"",""ball_pos"":2,""ego_ball_visible"":false,""ego_can_infer"":false,""alter_ball_visible"":false,""alter_can_infer"":false,""collective_ball_visible"":false,""collective_can_infer"":false,""search_locations"":[0,2],""alter_occluders"":""101"",""ego_occluders"":""111""}","false","","","","","","","","","","","","","","","","","","",""
"","","","","","image-keyboard-response","5","271863","0.0-3.0-2.0","6155b9c45f96867d9d9631fd","665500ab8938657b03fbdba8","66577af68946f4ed5f7a0ace","5265","stimuli/21011110.jpg"," ","","practrice_feedback","0","","","","","","","","","","","","","","","","","","","","",""
"","","","","","image-keyboard-response","6","277023","0.0-3.0-3.0","6155b9c45f96867d9d9631fd","665500ab8938657b03fbdba8","66577af68946f4ed5f7a0ace","5159","stimuli/1000001.jpg","1","","prediction_practice","1","{""filepath"":""stimuli/1000001.jpg"",""ball_pos"":1,""ego_ball_visible"":true,""ego_can_infer"":true,""alter_ball_visible"":true,""alter_can_infer"":true,""collective_ball_visible"":true,""collective_can_infer"":true,""search_locations"":[1],""alter_occluders"":""000"",""ego_occluders"":""001""}","true","","","","","","","","","","","","","","","","","","",""
"","","","","","image-keyboard-response","7","278703","0.0-3.0-4.0","6155b9c45f96867d9d9631fd","665500ab8938657b03fbdba8","66577af68946f4ed5f7a0ace","1679","stimuli/10000011.jpg"," ","","practrice_feedback","1","","","","","","","","","","","","","","","","","","","","",""
"","","","","","image-keyboard-response","8","281015","0.0-3.0-5.0","6155b9c45f96867d9d9631fd","665500ab8938657b03fbdba8","66577af68946f4ed5f7a0ace","2311","stimuli/2101001.jpg","2","","prediction_practice","2","{""filepath"":""stimuli/2101001.jpg"",""ball_pos"":2,""ego_ball_visible"":false,""ego_can_infer"":true,""alter_ball_visible"":false,""alter_can_infer"":false,""collective_ball_visible"":false,""collective_can_infer"":false,""search_locations"":[0,2],""alter_occluders"":""101"",""ego_occluders"":""001""}","true","","","","","","","","","","","","","","","","","","",""
"","","","","","image-keyboard-response","9","281623","0.0-3.0-6.0","6155b9c45f96867d9d9631fd","665500ab8938657b03fbdba8","66577af68946f4ed5f7a0ace","607","stimuli/21010012.jpg"," ","","practrice_feedback","0","","","","","","","","","","","","","","","","","","","","",""
"","","","","","image-keyboard-response","10","283103","0.0-3.0-7.0","6155b9c45f96867d9d9631fd","665500ab8938657b03fbdba8","66577af68946f4ed5f7a0ace","1479","stimuli/0101001.jpg","0","","prediction_practice","0","{""filepath"":""stimuli/0101001.jpg"",""ball_pos"":0,""ego_ball_visible"":true,""ego_can_infer"":true,""alter_ball_visible"":false,""alter_can_infer"":false,""collective_ball_visible"":false,""collective_can_infer"":false,""search_locations"":[2,0],""alter_occluders"":""101"",""ego_occluders"":""001""}","true","","","","","","","","","","","","","","","","","","",""
"","","","","","image-keyboard-response","11","283497","0.0-3.0-8.0","6155b9c45f96867d9d9631fd","665500ab8938657b03fbdba8","66577af68946f4ed5f7a0ace","384","stimuli/01010010.jpg"," ","","practrice_feedback","2","","","","","","","","","","","","","","","","","","","","",""
"","","","","","image-keyboard-response","12","285231","0.0-3.0-9.0","6155b9c45f96867d9d9631fd","665500ab8938657b03fbdba8","66577af68946f4ed5f7a0ace","1732","stimuli/1010100.jpg","1","","prediction_practice","1","{""filepath"":""stimuli/1010100.jpg"",""ball_pos"":1,""ego_ball_visible"":true,""ego_can_infer"":true,""alter_ball_visible"":false,""alter_can_infer"":true,""collective_ball_visible"":false,""collective_can_infer"":true,""search_locations"":[1],""alter_occluders"":""010"",""ego_occluders"":""100""}","true","","","","","","","","","","","","","","","","","","",""
"","","","","","image-keyboard-response","13","285527","0.0-3.0-10.0","6155b9c45f96867d9d9631fd","665500ab8938657b03fbdba8","66577af68946f4ed5f7a0ace","295","stimuli/10101001.jpg"," ","","practrice_feedback","1","","","","","","","","","","","","","","","","","","","","",""
"","","","","","image-keyboard-response","14","286463","0.0-3.0-11.0","6155b9c45f96867d9d9631fd","665500ab8938657b03fbdba8","66577af68946f4ed5f7a0ace","935","stimuli/2110100.jpg","2","","prediction_practice","2","{""filepath"":""stimuli/2110100.jpg"",""ball_pos"":2,""ego_ball_visible"":true,""ego_can_infer"":true,""alter_ball_visible"":true,""alter_can_infer"":true,""collective_ball_visible"":true,""collective_can_infer"":true,""search_locations"":[2],""alter_occluders"":""110"",""ego_occluders"":""100""}","true","","","","","","","","","","","","","","","","","","",""
"","","","","","image-keyboard-response","15","286743","0.0-3.0-12.0","6155b9c45f96867d9d9631fd","665500ab8938657b03fbdba8","66577af68946f4ed5f7a0ace","279","stimuli/21101002.jpg"," ","","practrice_feedback","2","","","","","","","","","","","","","","","","","","","","",""
"","","","","","image-keyboard-response","16","288183","0.0-3.0-13.0","6155b9c45f96867d9d9631fd","665500ab8938657b03fbdba8","66577af68946f4ed5f7a0ace","1439","stimuli/0111110.jpg","0","","prediction_practice","1","{""filepath"":""stimuli/0111110.jpg"",""ball_pos"":0,""ego_ball_visible"":false,""ego_can_infer"":false,""alter_ball_visible"":false,""alter_can_infer"":false,""collective_ball_visible"":false,""collective_can_infer"":false,""search_locations"":[0,2,1],""alter_occluders"":""111"",""ego_occluders"":""110""}","false","","","","","","","","","","","","","","","","","","",""
"","","","","","image-keyboard-response","17","288607","0.0-3.0-14.0","6155b9c45f96867d9d9631fd","665500ab8938657b03fbdba8","66577af68946f4ed5f7a0ace","418","stimuli/01111101.jpg"," ","","practrice_feedback","0","","","","","","","","","","","","","","","","","","","","",""
"","","","","","image-keyboard-response","18","289807","0.0-3.0-15.0","6155b9c45f96867d9d9631fd","665500ab8938657b03fbdba8","66577af68946f4ed5f7a0ace","1199","stimuli/0010100.jpg","0","","prediction_practice","0","{""filepath"":""stimuli/0010100.jpg"",""ball_pos"":0,""ego_ball_visible"":false,""ego_can_infer"":true,""alter_ball_visible"":true,""alter_can_infer"":true,""collective_ball_visible"":false,""collective_can_infer"":true,""search_locations"":[0],""alter_occluders"":""010"",""ego_occluders"":""100""}","true","","","","","","","","","","","","","","","","","","",""
"","","","","","image-keyboard-response","19","290119","0.0-3.0-16.0","6155b9c45f96867d9d9631fd","665500ab8938657b03fbdba8","66577af68946f4ed5f7a0ace","311","stimuli/00101000.jpg"," ","","practrice_feedback","0","","","","","","","","","","","","","","","","","","","","",""
"","","","","","image-keyboard-response","20","291391","0.0-3.0-17.0","6155b9c45f96867d9d9631fd","665500ab8938657b03fbdba8","66577af68946f4ed5f7a0ace","1271","stimuli/2100100.jpg","2","","prediction_practice","2","{""filepath"":""stimuli/2100100.jpg"",""ball_pos"":2,""ego_ball_visible"":true,""ego_can_infer"":true,""alter_ball_visible"":true,""alter_can_infer"":true,""collective_ball_visible"":true,""collective_can_infer"":true,""search_locations"":[2],""alter_occluders"":""100"",""ego_occluders"":""100""}","true","","","","","","","","","","","","","","","","","","",""
"","","","","","image-keyboard-response","21","291863","0.0-3.0-18.0","6155b9c45f96867d9d9631fd","665500ab8938657b03fbdba8","66577af68946f4ed5f7a0ace","471","stimuli/21001002.jpg"," ","","practrice_feedback","2","","","","","","","","","","","","","","","","","","","","",""
"","","","","","image-keyboard-response","22","293287","0.0-3.0-19.0","6155b9c45f96867d9d9631fd","665500ab8938657b03fbdba8","66577af68946f4ed5f7a0ace","1423","stimuli/0000101.jpg","0","","prediction_practice","0","{""filepath"":""stimuli/0000101.jpg"",""ball_pos"":0,""ego_ball_visible"":false,""ego_can_infer"":false,""alter_ball_visible"":true,""alter_can_infer"":true,""collective_ball_visible"":false,""collective_can_infer"":false,""search_locations"":[0],""alter_occluders"":""000"",""ego_occluders"":""101""}","true","","","","","","","","","","","","","","","","","","",""
"","","","","","image-keyboard-response","23","293599","0.0-3.0-20.0","6155b9c45f96867d9d9631fd","665500ab8938657b03fbdba8","66577af68946f4ed5f7a0ace","306","stimuli/00001010.jpg"," ","","practrice_feedback","0","","","","","","","","","","","","","","","","","","","","",""
"","","","","","html-button-response","24","296256","0.0-3.0-21.0","6155b9c45f96867d9d9631fd","665500ab8938657b03fbdba8","66577af68946f4ed5f7a0ace","2656","Now that you've had some practice, you'll be tested with a couple of easy trials. If you correctly predict Sam's choice, you'll move on to complete the experiment!","0","","","","","","","","","","","","","","","","","","","","","","","",""
"","","","","","image-keyboard-response","25","297567","0.0-3.0-22.0-0.0","6155b9c45f96867d9d9631fd","665500ab8938657b03fbdba8","66577af68946f4ed5f7a0ace","1310","stimuli/0000011.jpg","arrowleft","","comprehension_quiz","","","true","arrowleft","","","","","","","","","","","","","","","","","",""
"","","","","","image-keyboard-response","26","297943","0.0-3.0-22.0-1.0","6155b9c45f96867d9d9631fd","665500ab8938657b03fbdba8","66577af68946f4ed5f7a0ace","375","stimuli/00000110.jpg"," ","","comprehension_quiz","","","true"," ","","","","","","","","","","","","","","","","","",""
"","","","","","image-keyboard-response","27","301145","0.0-3.0-22.0-2.0","6155b9c45f96867d9d9631fd","665500ab8938657b03fbdba8","66577af68946f4ed5f7a0ace","3200","stimuli/1010010.jpg","arrowdown","","comprehension_quiz","","","true","arrowdown","","","","","","","","","","","","","","","","","",""
"","","","","","image-keyboard-response","28","301473","0.0-3.0-22.0-3.0","6155b9c45f96867d9d9631fd","665500ab8938657b03fbdba8","66577af68946f4ed5f7a0ace","326","stimuli/10100101.jpg"," ","","comprehension_quiz","","","true"," ","","","","","","","","","","","","","","","","","",""
"","","","","","html-button-response","29","303504","0.0-4.0","6155b9c45f96867d9d9631fd","665500ab8938657b03fbdba8","66577af68946f4ed5f7a0ace","2027","The experiment will now begin.","0","","","","","","","","","","","","","","","","","","","","","","","",""
"","","","","","image-keyboard-response","30","304743","0.0-5.0","6155b9c45f96867d9d9631fd","665500ab8938657b03fbdba8","66577af68946f4ed5f7a0ace","1238","stimuli/0111001.jpg","0","","prediction_trial","2","","false","","0","true","true","false","false","false","false","[0,1,2]","111","001","0","","","","","","",""
"","","","","","image-keyboard-response","31","308135","0.0-6.0","6155b9c45f96867d9d9631fd","665500ab8938657b03fbdba8","66577af68946f4ed5f7a0ace","3391","stimuli/01110012.jpg"," ","","feedback_trial","0","","","","","","","","","","","","","","","","","","","","",""
"","","","","","image-keyboard-response","32","309753","0.0-7.0","6155b9c45f96867d9d9631fd","665500ab8938657b03fbdba8","66577af68946f4ed5f7a0ace","1611","stimuli/2111111.jpg","1","","prediction_trial","1","","true","","2","false","false","false","false","false","false","[2,1,0]","111","111","1","","","","","","",""
"","","","","","image-keyboard-response","33","311384","0.0-8.0","6155b9c45f96867d9d9631fd","665500ab8938657b03fbdba8","66577af68946f4ed5f7a0ace","1628","stimuli/21111111.jpg"," ","","feedback_trial","2","","","","","","","","","","","","","","","","","","","","",""
"","","","","","image-keyboard-response","34","312377","0.0-9.0","6155b9c45f96867d9d9631fd","665500ab8938657b03fbdba8","66577af68946f4ed5f7a0ace","992","stimuli/2000110.jpg","2","","prediction_trial","2","","true","","2","true","true","true","true","true","true","[2]","000","110","1","","","","","","",""
"","","","","","image-keyboard-response","35","312760","0.0-10.0","6155b9c45f96867d9d9631fd","665500ab8938657b03fbdba8","66577af68946f4ed5f7a0ace","381","stimuli/20001102.jpg"," ","","feedback_trial","2","","","","","","","","","","","","","","","","","","","","",""
"","","","","","image-keyboard-response","36","317848","0.0-11.0","6155b9c45f96867d9d9631fd","665500ab8938657b03fbdba8","66577af68946f4ed5f7a0ace","5087","stimuli/1010110.jpg","1","","prediction_trial","1","","true","","1","false","false","false","true","false","false","[1]","010","110","1","","","","","","",""
"","","","","","image-keyboard-response","37","318505","0.0-12.0","6155b9c45f96867d9d9631fd","665500ab8938657b03fbdba8","66577af68946f4ed5f7a0ace","657","stimuli/10101101.jpg"," ","","feedback_trial","1","","","","","","","","","","","","","","","","","","","","",""
"","","","","","image-keyboard-response","38","320409","0.0-13.0","6155b9c45f96867d9d9631fd","665500ab8938657b03fbdba8","66577af68946f4ed5f7a0ace","1879","stimuli/0011111.jpg","2","","prediction_trial","0","","false","","0","false","false","true","true","false","false","[0]","011","111","0","","","","","","",""
"","","","","","image-keyboard-response","39","323320","0.0-14.0","6155b9c45f96867d9d9631fd","665500ab8938657b03fbdba8","66577af68946f4ed5f7a0ace","2909","stimuli/00111110.jpg"," ","","feedback_trial","0","","","","","","","","","","","","","","","","","","","","",""
"","","","","","image-keyboard-response","40","324369","0.0-15.0","6155b9c45f96867d9d9631fd","665500ab8938657b03fbdba8","66577af68946f4ed5f7a0ace","1047","stimuli/0101111.jpg","0","","prediction_trial","0","","true","","0","false","false","false","false","false","false","[2,0]","101","111","1","","","","","","",""
"","","","","","image-keyboard-response","41","328617","0.0-16.0","6155b9c45f96867d9d9631fd","665500ab8938657b03fbdba8","66577af68946f4ed5f7a0ace","4246","stimuli/01011110.jpg"," ","","feedback_trial","2","","","","","","","","","","","","","","","","","","","","",""
"","","","","","image-keyboard-response","42","330369","0.0-17.0","6155b9c45f96867d9d9631fd","665500ab8938657b03fbdba8","66577af68946f4ed5f7a0ace","1749","stimuli/1110101.jpg","1","","prediction_trial","1","","true","","1","true","true","false","false","false","false","[0,1]","110","101","1","","","","","","",""
"","","","","","image-keyboard-response","43","331177","0.0-18.0","6155b9c45f96867d9d9631fd","665500ab8938657b03fbdba8","66577af68946f4ed5f7a0ace","806","stimuli/11101011.jpg"," ","","feedback_trial","0","","","","","","","","","","","","","","","","","","","","",""
"","","","","","image-keyboard-response","44","333001","0.0-19.0","6155b9c45f96867d9d9631fd","665500ab8938657b03fbdba8","66577af68946f4ed5f7a0ace","1803","stimuli/0001100.jpg","0","","prediction_trial","0","","true","","0","false","true","true","true","false","true","[0]","001","100","1","","","","","","",""
"","","","","","image-keyboard-response","45","333832","0.0-20.0","6155b9c45f96867d9d9631fd","665500ab8938657b03fbdba8","66577af68946f4ed5f7a0ace","829","stimuli/00011000.jpg"," ","","feedback_trial","0","","","","","","","","","","","","","","","","","","","","",""
"","","","","","image-keyboard-response","46","334647","0.0-21.0","6155b9c45f96867d9d9631fd","665500ab8938657b03fbdba8","66577af68946f4ed5f7a0ace","814","stimuli/2001001.jpg","2","","prediction_trial","2","","true","","2","false","true","false","true","false","true","[2]","001","001","1","","","","","","",""
"","","","","","image-keyboard-response","47","335081","0.0-22.0","6155b9c45f96867d9d9631fd","665500ab8938657b03fbdba8","66577af68946f4ed5f7a0ace","433","stimuli/20010012.jpg"," ","","feedback_trial","2","","","","","","","","","","","","","","","","","","","","",""
"","","","","","image-keyboard-response","48","335816","0.0-23.0","6155b9c45f96867d9d9631fd","665500ab8938657b03fbdba8","66577af68946f4ed5f7a0ace","733","stimuli/0011000.jpg","0","","prediction_trial","0","","true","","0","true","true","true","true","true","true","[0]","011","000","1","","","","","","",""
"","","","","","image-keyboard-response","49","336145","0.0-24.0","6155b9c45f96867d9d9631fd","665500ab8938657b03fbdba8","66577af68946f4ed5f7a0ace","328","stimuli/00110000.jpg"," ","","feedback_trial","0","","","","","","","","","","","","","","","","","","","","",""
"","","","","","image-keyboard-response","50","337025","0.0-25.0","6155b9c45f96867d9d9631fd","665500ab8938657b03fbdba8","66577af68946f4ed5f7a0ace","861","stimuli/0010000.jpg","0","","prediction_trial","0","","true","","0","true","true","true","true","true","true","[0]","010","000","1","","","","","","",""
"","","","","","image-keyboard-response","51","337337","0.0-26.0","6155b9c45f96867d9d9631fd","665500ab8938657b03fbdba8","66577af68946f4ed5f7a0ace","310","stimuli/00100000.jpg"," ","","feedback_trial","0","","","","","","","","","","","","","","","","","","","","",""
"","","","","","image-keyboard-response","52","338401","0.0-27.0","6155b9c45f96867d9d9631fd","665500ab8938657b03fbdba8","66577af68946f4ed5f7a0ace","1061","stimuli/1100011.jpg","2","","prediction_trial","1","","false","","1","false","false","true","true","false","false","[1]","100","011","0","","","","","","",""
"","","","","","image-keyboard-response","53","339451","0.0-28.0","6155b9c45f96867d9d9631fd","665500ab8938657b03fbdba8","66577af68946f4ed5f7a0ace","1047","stimuli/11000111.jpg"," ","","feedback_trial","1","","","","","","","","","","","","","","","","","","","","",""
"","","","","","image-keyboard-response","54","340233","0.0-29.0","6155b9c45f96867d9d9631fd","665500ab8938657b03fbdba8","66577af68946f4ed5f7a0ace","780","stimuli/1011000.jpg","1","","prediction_trial","1","","true","","1","true","true","false","false","false","false","[1,2]","011","000","1","","","","","","",""
"","","","","","image-keyboard-response","55","340713","0.0-30.0","6155b9c45f96867d9d9631fd","665500ab8938657b03fbdba8","66577af68946f4ed5f7a0ace","478","stimuli/10110001.jpg"," ","","feedback_trial","1","","","","","","","","","","","","","","","","","","","","",""
"","","","","","image-keyboard-response","56","341897","0.0-31.0","6155b9c45f96867d9d9631fd","665500ab8938657b03fbdba8","66577af68946f4ed5f7a0ace","1164","stimuli/2011100.jpg","2","","prediction_trial","2","","true","","2","true","true","false","false","false","false","[1,2]","011","100","1","","","","","","",""
"","","","","","image-keyboard-response","57","342217","0.0-32.0","6155b9c45f96867d9d9631fd","665500ab8938657b03fbdba8","66577af68946f4ed5f7a0ace","318","stimuli/20111002.jpg"," ","","feedback_trial","1","","","","","","","","","","","","","","","","","","","","",""
"","","","","","image-keyboard-response","58","343073","0.0-33.0","6155b9c45f96867d9d9631fd","665500ab8938657b03fbdba8","66577af68946f4ed5f7a0ace","854","stimuli/2101000.jpg","2","","prediction_trial","0","","false","","2","true","true","false","false","false","false","[0,2]","101","000","0","","","","","","",""
"","","","","","image-keyboard-response","59","344177","0.0-34.0","6155b9c45f96867d9d9631fd","665500ab8938657b03fbdba8","66577af68946f4ed5f7a0ace","1102","stimuli/21010000.jpg"," ","","feedback_trial","0","","","","","","","","","","","","","","","","","","","","",""
"","","","","","image-keyboard-response","60","345745","0.0-35.0","6155b9c45f96867d9d9631fd","665500ab8938657b03fbdba8","66577af68946f4ed5f7a0ace","1565","stimuli/2110000.jpg","2","","prediction_trial","2","","true","","2","true","true","true","true","true","true","[2]","110","000","1","","","","","","",""
"","","","","","image-keyboard-response","61","346113","0.0-36.0","6155b9c45f96867d9d9631fd","665500ab8938657b03fbdba8","66577af68946f4ed5f7a0ace","366","stimuli/21100002.jpg"," ","","feedback_trial","2","","","","","","","","","","","","","","","","","","","","",""
"","","","","","image-keyboard-response","62","346841","0.0-37.0","6155b9c45f96867d9d9631fd","665500ab8938657b03fbdba8","66577af68946f4ed5f7a0ace","707","stimuli/0111011.jpg","0","","prediction_trial","2","","false","","0","true","true","false","false","false","false","[2,0,1]","111","011","0","","","","","","",""
"","","","","","image-keyboard-response","63","347856","0.0-38.0","6155b9c45f96867d9d9631fd","665500ab8938657b03fbdba8","66577af68946f4ed5f7a0ace","1013","stimuli/01110112.jpg"," ","","feedback_trial","2","","","","","","","","","","","","","","","","","","","","",""
"","","","","","image-keyboard-response","64","348705","0.0-39.0","6155b9c45f96867d9d9631fd","665500ab8938657b03fbdba8","66577af68946f4ed5f7a0ace","848","stimuli/0010010.jpg","0","","prediction_trial","0","","true","","0","true","true","true","true","true","true","[0]","010","010","1","","","","","","",""
"","","","","","image-keyboard-response","65","349041","0.0-40.0","6155b9c45f96867d9d9631fd","665500ab8938657b03fbdba8","66577af68946f4ed5f7a0ace","334","stimuli/00100100.jpg"," ","","feedback_trial","0","","","","","","","","","","","","","","","","","","","","",""
"","","","","","image-keyboard-response","66","350377","0.0-41.0","6155b9c45f96867d9d9631fd","665500ab8938657b03fbdba8","66577af68946f4ed5f7a0ace","1333","stimuli/0000101.jpg","2","","prediction_trial","0","","false","","0","false","false","true","true","false","false","[0]","000","101","0","","","","","","",""
"","","","","","image-keyboard-response","67","350849","0.0-42.0","6155b9c45f96867d9d9631fd","665500ab8938657b03fbdba8","66577af68946f4ed5f7a0ace","470","stimuli/00001010.jpg"," ","","feedback_trial","0","","","","","","","","","","","","","","","","","","","","",""
"","","","","","image-keyboard-response","68","351792","0.0-43.0","6155b9c45f96867d9d9631fd","665500ab8938657b03fbdba8","66577af68946f4ed5f7a0ace","917","stimuli/1011111.jpg","2","","prediction_trial","2","","true","","1","false","false","false","false","false","false","[2,1]","011","111","1","","","","","","",""
"","","","","","image-keyboard-response","69","352577","0.0-44.0","6155b9c45f96867d9d9631fd","665500ab8938657b03fbdba8","66577af68946f4ed5f7a0ace","784","stimuli/10111112.jpg"," ","","feedback_trial","2","","","","","","","","","","","","","","","","","","","","",""
"","","","","","image-keyboard-response","70","353736","0.0-45.0","6155b9c45f96867d9d9631fd","665500ab8938657b03fbdba8","66577af68946f4ed5f7a0ace","1158","stimuli/1101101.jpg","1","","prediction_trial","1","","true","","1","true","true","true","true","true","true","[1]","101","101","1","","","","","","",""
"","","","","","image-keyboard-response","71","354026","0.0-46.0","6155b9c45f96867d9d9631fd","665500ab8938657b03fbdba8","66577af68946f4ed5f7a0ace","289","stimuli/11011011.jpg"," ","","feedback_trial","1","","","","","","","","","","","","","","","","","","","","",""
"","","","","","image-keyboard-response","72","355113","0.0-47.0","6155b9c45f96867d9d9631fd","665500ab8938657b03fbdba8","66577af68946f4ed5f7a0ace","1085","stimuli/1111110.jpg","0","","prediction_trial","0","","true","","1","false","false","false","false","false","false","[1,0,2]","111","110","1","","","","","","",""
"","","","","","image-keyboard-response","73","355905","0.0-48.0","6155b9c45f96867d9d9631fd","665500ab8938657b03fbdba8","66577af68946f4ed5f7a0ace","790","stimuli/11111100.jpg"," ","","feedback_trial","1","","","","","","","","","","","","","","","","","","","","",""
"","","","","","image-keyboard-response","74","356961","0.0-49.0","6155b9c45f96867d9d9631fd","665500ab8938657b03fbdba8","66577af68946f4ed5f7a0ace","1041","stimuli/2011000.jpg","2","","prediction_trial","1","","false","","2","true","true","false","false","false","false","[2,1]","011","000","0","","","","","","",""
"","","","","","image-keyboard-response","75","357585","0.0-50.0","6155b9c45f96867d9d9631fd","665500ab8938657b03fbdba8","66577af68946f4ed5f7a0ace","622","stimuli/20110001.jpg"," ","","feedback_trial","2","","","","","","","","","","","","","","","","","","","","",""
"","","","","","image-keyboard-response","76","361393","0.0-51.0","6155b9c45f96867d9d9631fd","665500ab8938657b03fbdba8","66577af68946f4ed5f7a0ace","3806","stimuli/2100011.jpg","1","","prediction_trial","2","","false","","2","false","false","true","true","false","false","[2]","100","011","0","","","","","","",""
"","","","","","image-keyboard-response","77","362152","0.0-52.0","6155b9c45f96867d9d9631fd","665500ab8938657b03fbdba8","66577af68946f4ed5f7a0ace","756","stimuli/21000112.jpg"," ","","feedback_trial","2","","","","","","","","","","","","","","","","","","","","",""
"","","","","","image-keyboard-response","78","363161","0.0-53.0","6155b9c45f96867d9d9631fd","665500ab8938657b03fbdba8","66577af68946f4ed5f7a0ace","1008","stimuli/1110100.jpg","1","","prediction_trial","1","","true","","1","true","true","false","false","false","false","[0,1]","110","100","1","","","","","","",""
"","","","","","image-keyboard-response","79","363608","0.0-54.0","6155b9c45f96867d9d9631fd","665500ab8938657b03fbdba8","66577af68946f4ed5f7a0ace","445","stimuli/11101001.jpg"," ","","feedback_trial","0","","","","","","","","","","","","","","","","","","","","",""
"","","","","","image-keyboard-response","80","365305","0.0-55.0","6155b9c45f96867d9d9631fd","665500ab8938657b03fbdba8","66577af68946f4ed5f7a0ace","1690","stimuli/2101100.jpg","2","","prediction_trial","2","","true","","2","true","true","false","false","false","false","[0,2]","101","100","1","","","","","","",""
"","","","","","image-keyboard-response","81","365673","0.0-56.0","6155b9c45f96867d9d9631fd","665500ab8938657b03fbdba8","66577af68946f4ed5f7a0ace","366","stimuli/21011002.jpg"," ","","feedback_trial","0","","","","","","","","","","","","","","","","","","","","",""
"","","","","","image-keyboard-response","82","366609","0.0-57.0","6155b9c45f96867d9d9631fd","665500ab8938657b03fbdba8","66577af68946f4ed5f7a0ace","933","stimuli/0111000.jpg","0","","prediction_trial","0","","true","","0","true","true","false","false","false","false","[0,1,2]","111","000","1","","","","","","",""
"","","","","","image-keyboard-response","83","367313","0.0-58.0","6155b9c45f96867d9d9631fd","665500ab8938657b03fbdba8","66577af68946f4ed5f7a0ace","702","stimuli/01110000.jpg"," ","","feedback_trial","0","","","","","","","","","","","","","","","","","","","","",""
"","","","","","image-keyboard-response","84","368224","0.0-59.0","6155b9c45f96867d9d9631fd","665500ab8938657b03fbdba8","66577af68946f4ed5f7a0ace","909","stimuli/1000010.jpg","1","","prediction_trial","1","","true","","1","false","true","true","true","false","true","[1]","000","010","1","","","","","","",""
"","","","","","image-keyboard-response","85","368625","0.0-60.0","6155b9c45f96867d9d9631fd","665500ab8938657b03fbdba8","66577af68946f4ed5f7a0ace","399","stimuli/10000101.jpg"," ","","feedback_trial","1","","","","","","","","","","","","","","","","","","","","",""
"","","","","","image-keyboard-response","86","369977","0.0-61.0","6155b9c45f96867d9d9631fd","665500ab8938657b03fbdba8","66577af68946f4ed5f7a0ace","1340","stimuli/0100000.jpg","0","","prediction_trial","0","","true","","0","true","true","false","true","false","true","[0]","100","000","1","","","","","","",""
"","","","","","image-keyboard-response","87","370224","0.0-62.0","6155b9c45f96867d9d9631fd","665500ab8938657b03fbdba8","66577af68946f4ed5f7a0ace","245","stimuli/01000000.jpg"," ","","feedback_trial","0","","","","","","","","","","","","","","","","","","","","",""
"","","","","","image-keyboard-response","88","371553","0.0-63.0","6155b9c45f96867d9d9631fd","665500ab8938657b03fbdba8","66577af68946f4ed5f7a0ace","1327","stimuli/1100110.jpg","0","","prediction_trial","1","","false","","1","false","false","true","true","false","false","[1]","100","110","0","","","","","","",""
"","","","","","image-keyboard-response","89","371816","0.0-64.0","6155b9c45f96867d9d9631fd","665500ab8938657b03fbdba8","66577af68946f4ed5f7a0ace","261","stimuli/11001101.jpg"," ","","feedback_trial","1","","","","","","","","","","","","","","","","","","","","",""
"","","","","","image-keyboard-response","90","373239","0.0-65.0","6155b9c45f96867d9d9631fd","665500ab8938657b03fbdba8","66577af68946f4ed5f7a0ace","1423","stimuli/0010110.jpg","1","","prediction_trial","0","","false","","0","false","false","true","true","false","false","[0]","010","110","0","","","","","","",""
"","","","","","image-keyboard-response","91","374240","0.0-66.0","6155b9c45f96867d9d9631fd","665500ab8938657b03fbdba8","66577af68946f4ed5f7a0ace","999","stimuli/00101100.jpg"," ","","feedback_trial","0","","","","","","","","","","","","","","","","","","","","",""
"","","","","","image-keyboard-response","92","374855","0.0-67.0","6155b9c45f96867d9d9631fd","665500ab8938657b03fbdba8","66577af68946f4ed5f7a0ace","607","stimuli/0011011.jpg","0","","prediction_trial","0","","true","","0","true","true","true","true","true","true","[0]","011","011","1","","","","","","",""
"","","","","","image-keyboard-response","93","375096","0.0-68.0","6155b9c45f96867d9d9631fd","665500ab8938657b03fbdba8","66577af68946f4ed5f7a0ace","239","stimuli/00110110.jpg"," ","","feedback_trial","0","","","","","","","","","","","","","","","","","","","","",""
"","","","","","image-keyboard-response","94","375808","0.0-69.0","6155b9c45f96867d9d9631fd","665500ab8938657b03fbdba8","66577af68946f4ed5f7a0ace","711","stimuli/2100100.jpg","2","","prediction_trial","2","","true","","2","true","true","true","true","true","true","[2]","100","100","1","","","","","","",""
"","","","","","image-keyboard-response","95","376056","0.0-70.0","6155b9c45f96867d9d9631fd","665500ab8938657b03fbdba8","66577af68946f4ed5f7a0ace","247","stimuli/21001002.jpg"," ","","feedback_trial","2","","","","","","","","","","","","","","","","","","","","",""
"","","","","","image-keyboard-response","96","376943","0.0-71.0","6155b9c45f96867d9d9631fd","665500ab8938657b03fbdba8","66577af68946f4ed5f7a0ace","887","stimuli/0010100.jpg","0","","prediction_trial","0","","true","","0","false","true","true","true","false","true","[0]","010","100","1","","","","","","",""
"","","","","","image-keyboard-response","97","377209","0.0-72.0","6155b9c45f96867d9d9631fd","665500ab8938657b03fbdba8","66577af68946f4ed5f7a0ace","265","stimuli/00101000.jpg"," ","","feedback_trial","0","","","","","","","","","","","","","","","","","","","","",""
"","","","","","image-keyboard-response","98","378319","0.0-73.0","6155b9c45f96867d9d9631fd","665500ab8938657b03fbdba8","66577af68946f4ed5f7a0ace","1084","stimuli/1011010.jpg","1","","prediction_trial","2","","false","","1","false","true","false","false","false","false","[1,2]","011","010","0","","","","","","",""
"","","","","","image-keyboard-response","99","378569","0.0-74.0","6155b9c45f96867d9d9631fd","665500ab8938657b03fbdba8","66577af68946f4ed5f7a0ace","248","stimuli/10110102.jpg"," ","","feedback_trial","1","","","","","","","","","","","","","","","","","","","","",""
"","","","","","image-keyboard-response","100","382832","0.0-75.0","6155b9c45f96867d9d9631fd","665500ab8938657b03fbdba8","66577af68946f4ed5f7a0ace","4261","stimuli/2001111.jpg","2","","prediction_trial","2","","true","","2","false","false","false","true","false","false","[2]","001","111","1","","","","","","",""
"","","","","","image-keyboard-response","101","383248","0.0-76.0","6155b9c45f96867d9d9631fd","665500ab8938657b03fbdba8","66577af68946f4ed5f7a0ace","415","stimuli/20011112.jpg"," ","","feedback_trial","2","","","","","","","","","","","","","","","","","","","","",""
"","","","","","image-keyboard-response","102","384575","0.0-77.0","6155b9c45f96867d9d9631fd","665500ab8938657b03fbdba8","66577af68946f4ed5f7a0ace","1327","stimuli/2011101.jpg","0","","prediction_trial","1","","false","","2","false","false","false","false","false","false","[2,1]","011","101","0","","","","","","",""
"","","","","","image-keyboard-response","103","384856","0.0-78.0","6155b9c45f96867d9d9631fd","665500ab8938657b03fbdba8","66577af68946f4ed5f7a0ace","279","stimuli/20111011.jpg"," ","","feedback_trial","2","","","","","","","","","","","","","","","","","","","","",""
"","","","","","image-keyboard-response","104","385936","0.0-79.0","6155b9c45f96867d9d9631fd","665500ab8938657b03fbdba8","66577af68946f4ed5f7a0ace","1071","stimuli/0111010.jpg","1","","prediction_trial","0","","false","","0","true","true","false","false","false","false","[2,1,0]","111","010","0","","","","","","",""
"","","","","","image-keyboard-response","105","386264","0.0-80.0","6155b9c45f96867d9d9631fd","665500ab8938657b03fbdba8","66577af68946f4ed5f7a0ace","327","stimuli/01110100.jpg"," ","","feedback_trial","2","","","","","","","","","","","","","","","","","","","","",""
"","","","","","image-keyboard-response","106","386944","0.0-81.0","6155b9c45f96867d9d9631fd","665500ab8938657b03fbdba8","66577af68946f4ed5f7a0ace","679","stimuli/2100110.jpg","2","","prediction_trial","2","","true","","2","true","true","true","true","true","true","[2]","100","110","1","","","","","","",""
"","","","","","image-keyboard-response","107","387192","0.0-82.0","6155b9c45f96867d9d9631fd","665500ab8938657b03fbdba8","66577af68946f4ed5f7a0ace","247","stimuli/21001102.jpg"," ","","feedback_trial","2","","","","","","","","","","","","","","","","","","","","",""
"","","","","","image-keyboard-response","108","388984","0.0-83.0","6155b9c45f96867d9d9631fd","665500ab8938657b03fbdba8","66577af68946f4ed5f7a0ace","1791","stimuli/1100010.jpg","1","","prediction_trial","1","","true","","1","false","true","true","true","false","true","[1]","100","010","1","","","","","","",""
"","","","","","image-keyboard-response","109","389288","0.0-84.0","6155b9c45f96867d9d9631fd","665500ab8938657b03fbdba8","66577af68946f4ed5f7a0ace","303","stimuli/11000101.jpg"," ","","feedback_trial","1","","","","","","","","","","","","","","","","","","","","",""
"","","","","","image-keyboard-response","110","390353","0.0-85.0","6155b9c45f96867d9d9631fd","665500ab8938657b03fbdba8","66577af68946f4ed5f7a0ace","1059","stimuli/2001011.jpg","1","","prediction_trial","2","","false","","2","false","false","false","true","false","false","[2]","001","011","0","","","","","","",""
"","","","","","image-keyboard-response","111","390760","0.0-86.0","6155b9c45f96867d9d9631fd","665500ab8938657b03fbdba8","66577af68946f4ed5f7a0ace","405","stimuli/20010112.jpg"," ","","feedback_trial","2","","","","","","","","","","","","","","","","","","","","",""
"","","","","","image-keyboard-response","112","391271","0.0-87.0","6155b9c45f96867d9d9631fd","665500ab8938657b03fbdba8","66577af68946f4ed5f7a0ace","511","stimuli/1010000.jpg","1","","prediction_trial","1","","true","","1","true","true","false","true","false","true","[1]","010","000","1","","","","","","",""
"","","","","","image-keyboard-response","113","391649","0.0-88.0","6155b9c45f96867d9d9631fd","665500ab8938657b03fbdba8","66577af68946f4ed5f7a0ace","377","stimuli/10100001.jpg"," ","","feedback_trial","1","","","","","","","","","","","","","","","","","","","","",""
"","","","","","image-keyboard-response","114","392936","0.0-89.0","6155b9c45f96867d9d9631fd","665500ab8938657b03fbdba8","66577af68946f4ed5f7a0ace","1285","stimuli/0110000.jpg","1","","prediction_trial","0","","false","","0","true","true","false","false","false","false","[1,0]","110","000","0","","","","","","",""
"","","","","","image-keyboard-response","115","393288","0.0-90.0","6155b9c45f96867d9d9631fd","665500ab8938657b03fbdba8","66577af68946f4ed5f7a0ace","351","stimuli/01100000.jpg"," ","","feedback_trial","1","","","","","","","","","","","","","","","","","","","","",""
"","","","","","image-keyboard-response","116","394800","0.0-91.0","6155b9c45f96867d9d9631fd","665500ab8938657b03fbdba8","66577af68946f4ed5f7a0ace","1497","stimuli/1000011.jpg","1","","prediction_trial","1","","true","","1","false","false","true","true","false","false","[1]","000","011","1","","","","","","",""
"","","","","","image-keyboard-response","117","395328","0.0-92.0","6155b9c45f96867d9d9631fd","665500ab8938657b03fbdba8","66577af68946f4ed5f7a0ace","527","stimuli/10000111.jpg"," ","","feedback_trial","1","","","","","","","","","","","","","","","","","","","","",""
"","","","","","image-keyboard-response","118","396248","0.0-93.0","6155b9c45f96867d9d9631fd","665500ab8938657b03fbdba8","66577af68946f4ed5f7a0ace","919","stimuli/0000010.jpg","0","","prediction_trial","0","","true","","0","true","true","true","true","true","true","[0]","000","010","1","","","","","","",""
"","","","","","image-keyboard-response","119","396496","0.0-94.0","6155b9c45f96867d9d9631fd","665500ab8938657b03fbdba8","66577af68946f4ed5f7a0ace","248","stimuli/00000100.jpg"," ","","feedback_trial","0","","","","","","","","","","","","","","","","","","","","",""
"","","","","","image-keyboard-response","120","397591","0.0-95.0","6155b9c45f96867d9d9631fd","665500ab8938657b03fbdba8","66577af68946f4ed5f7a0ace","1094","stimuli/1110000.jpg","1","","prediction_trial","1","","true","","1","true","true","false","false","false","false","[0,1]","110","000","1","","","","","","",""
"","","","","","image-keyboard-response","121","397976","0.0-96.0","6155b9c45f96867d9d9631fd","665500ab8938657b03fbdba8","66577af68946f4ed5f7a0ace","383","stimuli/11100001.jpg"," ","","feedback_trial","0","","","","","","","","","","","","","","","","","","","","",""
"","","","","","image-keyboard-response","122","399007","0.0-97.0","6155b9c45f96867d9d9631fd","665500ab8938657b03fbdba8","66577af68946f4ed5f7a0ace","1023","stimuli/0011010.jpg","0","","prediction_trial","0","","true","","0","true","true","true","true","true","true","[0]","011","010","1","","","","","","",""
"","","","","","image-keyboard-response","123","399336","0.0-98.0","6155b9c45f96867d9d9631fd","665500ab8938657b03fbdba8","66577af68946f4ed5f7a0ace","327","stimuli/00110100.jpg"," ","","feedback_trial","0","","","","","","","","","","","","","","","","","","","","",""
"","","","","","image-keyboard-response","124","400808","0.0-99.0","6155b9c45f96867d9d9631fd","665500ab8938657b03fbdba8","66577af68946f4ed5f7a0ace","1471","stimuli/1110011.jpg","2","","prediction_trial","1","","false","","1","false","false","false","false","false","false","[1,0]","110","011","0","","","","","","",""
"","","","","","image-keyboard-response","125","401080","0.0-100.0","6155b9c45f96867d9d9631fd","665500ab8938657b03fbdba8","66577af68946f4ed5f7a0ace","272","stimuli/11100111.jpg"," ","","feedback_trial","1","","","","","","","","","","","","","","","","","","","","",""
"","","","","","image-keyboard-response","126","401984","0.0-101.0","6155b9c45f96867d9d9631fd","665500ab8938657b03fbdba8","66577af68946f4ed5f7a0ace","902","stimuli/1010111.jpg","1","","prediction_trial","1","","true","","1","false","false","false","true","false","false","[1]","010","111","1","","","","","","",""
"","","","","","image-keyboard-response","127","402328","0.0-102.0","6155b9c45f96867d9d9631fd","665500ab8938657b03fbdba8","66577af68946f4ed5f7a0ace","343","stimuli/10101111.jpg"," ","","feedback_trial","1","","","","","","","","","","","","","","","","","","","","",""
"","","","","","image-keyboard-response","128","403072","0.0-103.0","6155b9c45f96867d9d9631fd","665500ab8938657b03fbdba8","66577af68946f4ed5f7a0ace","736","stimuli/1011100.jpg","1","","prediction_trial","2","","false","","1","true","true","false","false","false","false","[1,2]","011","100","0","","","","","","",""
"","","","","","image-keyboard-response","129","403440","0.0-104.0","6155b9c45f96867d9d9631fd","665500ab8938657b03fbdba8","66577af68946f4ed5f7a0ace","367","stimuli/10111002.jpg"," ","","feedback_trial","1","","","","","","","","","","","","","","","","","","","","",""
"","","","","","image-keyboard-response","130","404512","0.0-105.0","6155b9c45f96867d9d9631fd","665500ab8938657b03fbdba8","66577af68946f4ed5f7a0ace","1071","stimuli/0011101.jpg","2","","prediction_trial","0","","false","","0","false","false","true","true","false","false","[0]","011","101","0","","","","","","",""
"","","","","","image-keyboard-response","131","404928","0.0-106.0","6155b9c45f96867d9d9631fd","665500ab8938657b03fbdba8","66577af68946f4ed5f7a0ace","415","stimuli/00111010.jpg"," ","","feedback_trial","0","","","","","","","","","","","","","","","","","","","","",""
"","","","","","image-keyboard-response","132","406088","0.0-107.0","6155b9c45f96867d9d9631fd","665500ab8938657b03fbdba8","66577af68946f4ed5f7a0ace","1159","stimuli/1010010.jpg","1","","prediction_trial","1","","true","","1","false","true","false","true","false","true","[1]","010","010","1","","","","","","",""
"","","","","","image-keyboard-response","133","406568","0.0-108.0","6155b9c45f96867d9d9631fd","665500ab8938657b03fbdba8","66577af68946f4ed5f7a0ace","479","stimuli/10100101.jpg"," ","","feedback_trial","1","","","","","","","","","","","","","","","","","","","","",""
"","","","","","image-keyboard-response","134","408199","0.0-109.0","6155b9c45f96867d9d9631fd","665500ab8938657b03fbdba8","66577af68946f4ed5f7a0ace","1623","stimuli/0111101.jpg","0","","prediction_trial","1","","false","","0","false","false","false","false","false","false","[2,0,1]","111","101","0","","","","","","",""
"","","","","","image-keyboard-response","135","408360","0.0-110.0","6155b9c45f96867d9d9631fd","665500ab8938657b03fbdba8","66577af68946f4ed5f7a0ace","159","stimuli/01111011.jpg"," ","","feedback_trial","2","","","","","","","","","","","","","","","","","","","","",""
"","","","","","image-keyboard-response","136","409151","0.0-111.0","6155b9c45f96867d9d9631fd","665500ab8938657b03fbdba8","66577af68946f4ed5f7a0ace","791","stimuli/0000100.jpg","0","","prediction_trial","0","","true","","0","false","true","true","true","false","true","[0]","000","100","1","","","","","","",""
"","","","","","image-keyboard-response","137","409376","0.0-112.0","6155b9c45f96867d9d9631fd","665500ab8938657b03fbdba8","66577af68946f4ed5f7a0ace","223","stimuli/00001000.jpg"," ","","feedback_trial","0","","","","","","","","","","","","","","","","","","","","",""
"","","","","","image-keyboard-response","138","410112","0.0-113.0","6155b9c45f96867d9d9631fd","665500ab8938657b03fbdba8","66577af68946f4ed5f7a0ace","735","stimuli/1101001.jpg","2","","prediction_trial","1","","false","","1","true","true","true","true","true","true","[1]","101","001","0","","","","","","",""
"","","","","","image-keyboard-response","139","410288","0.0-114.0","6155b9c45f96867d9d9631fd","665500ab8938657b03fbdba8","66577af68946f4ed5f7a0ace","175","stimuli/11010011.jpg"," ","","feedback_trial","1","","","","","","","","","","","","","","","","","","","","",""
"","","","","","image-keyboard-response","140","411080","0.0-115.0","6155b9c45f96867d9d9631fd","665500ab8938657b03fbdba8","66577af68946f4ed5f7a0ace","786","stimuli/1111100.jpg","1","","prediction_trial","2","","false","","1","true","true","false","false","false","false","[0,1,2]","111","100","0","","","","","","",""
"","","","","","image-keyboard-response","141","411272","0.0-116.0","6155b9c45f96867d9d9631fd","665500ab8938657b03fbdba8","66577af68946f4ed5f7a0ace","191","stimuli/11111002.jpg"," ","","feedback_trial","0","","","","","","","","","","","","","","","","","","","","",""
"","","","","","image-keyboard-response","142","412119","0.0-117.0","6155b9c45f96867d9d9631fd","665500ab8938657b03fbdba8","66577af68946f4ed5f7a0ace","847","stimuli/2111100.jpg","1","","prediction_trial","1","","true","","2","true","true","false","false","false","false","[2,1,0]","111","100","1","","","","","","",""
"","","","","","image-keyboard-response","143","412888","0.0-118.0","6155b9c45f96867d9d9631fd","665500ab8938657b03fbdba8","66577af68946f4ed5f7a0ace","767","stimuli/21111001.jpg"," ","","feedback_trial","2","","","","","","","","","","","","","","","","","","","","",""
"","","","","","image-keyboard-response","144","413768","0.0-119.0","6155b9c45f96867d9d9631fd","665500ab8938657b03fbdba8","66577af68946f4ed5f7a0ace","879","stimuli/2001101.jpg","2","","prediction_trial","2","","true","","2","false","false","false","true","false","false","[2]","001","101","1","","","","","","",""
"","","","","","image-keyboard-response","145","414296","0.0-120.0","6155b9c45f96867d9d9631fd","665500ab8938657b03fbdba8","66577af68946f4ed5f7a0ace","527","stimuli/20011012.jpg"," ","","feedback_trial","2","","","","","","","","","","","","","","","","","","","","",""
"","","","","","image-keyboard-response","146","415159","0.0-121.0","6155b9c45f96867d9d9631fd","665500ab8938657b03fbdba8","66577af68946f4ed5f7a0ace","857","stimuli/1100101.jpg","1","","prediction_trial","1","","true","","1","true","true","true","true","true","true","[1]","100","101","1","","","","","","",""
"","","","","","image-keyboard-response","147","415376","0.0-122.0","6155b9c45f96867d9d9631fd","665500ab8938657b03fbdba8","66577af68946f4ed5f7a0ace","215","stimuli/11001011.jpg"," ","","feedback_trial","1","","","","","","","","","","","","","","","","","","","","",""
"","","","","","image-keyboard-response","148","416776","0.0-123.0","6155b9c45f96867d9d9631fd","665500ab8938657b03fbdba8","66577af68946f4ed5f7a0ace","1399","stimuli/1010100.jpg","1","","prediction_trial","1","","true","","1","true","true","false","true","false","true","[1]","010","100","1","","","","","","",""
"","","","","","image-keyboard-response","149","416984","0.0-124.0","6155b9c45f96867d9d9631fd","665500ab8938657b03fbdba8","66577af68946f4ed5f7a0ace","207","stimuli/10101001.jpg"," ","","feedback_trial","1","","","","","","","","","","","","","","","","","","","","",""
"","","","","","image-keyboard-response","150","421001","0.0-125.0","6155b9c45f96867d9d9631fd","665500ab8938657b03fbdba8","66577af68946f4ed5f7a0ace","4016","stimuli/0110010.jpg","0","","prediction_trial","0","","true","","0","true","true","false","false","false","false","[0,1]","110","010","1","","","","","","",""
"","","","","","image-keyboard-response","151","421232","0.0-126.0","6155b9c45f96867d9d9631fd","665500ab8938657b03fbdba8","66577af68946f4ed5f7a0ace","229","stimuli/01100100.jpg"," ","","feedback_trial","0","","","","","","","","","","","","","","","","","","","","",""
"","","","","","image-keyboard-response","152","422705","0.0-127.0","6155b9c45f96867d9d9631fd","665500ab8938657b03fbdba8","66577af68946f4ed5f7a0ace","1459","stimuli/0100101.jpg","0","","prediction_trial","0","","true","","0","false","false","false","true","false","false","[0]","100","101","1","","","","","","",""
"","","","","","image-keyboard-response","153","422993","0.0-128.0","6155b9c45f96867d9d9631fd","665500ab8938657b03fbdba8","66577af68946f4ed5f7a0ace","286","stimuli/01001010.jpg"," ","","feedback_trial","0","","","","","","","","","","","","","","","","","","","","",""
"","","","","","image-keyboard-response","154","423809","0.0-129.0","6155b9c45f96867d9d9631fd","665500ab8938657b03fbdba8","66577af68946f4ed5f7a0ace","813","stimuli/2000000.jpg","2","","prediction_trial","2","","true","","2","true","true","true","true","true","true","[2]","000","000","1","","","","","","",""
"","","","","","image-keyboard-response","155","424585","0.0-130.0","6155b9c45f96867d9d9631fd","665500ab8938657b03fbdba8","66577af68946f4ed5f7a0ace","774","stimuli/20000002.jpg"," ","","feedback_trial","2","","","","","","","","","","","","","","","","","","","","",""
"","","","","","image-keyboard-response","156","426105","0.0-131.0","6155b9c45f96867d9d9631fd","665500ab8938657b03fbdba8","66577af68946f4ed5f7a0ace","1517","stimuli/1011101.jpg","1","","prediction_trial","1","","true","","1","true","true","false","false","false","false","[2,1]","011","101","1","","","","","","",""
"","","","","","image-keyboard-response","157","427257","0.0-132.0","6155b9c45f96867d9d9631fd","665500ab8938657b03fbdba8","66577af68946f4ed5f7a0ace","1150","stimuli/10111011.jpg"," ","","feedback_trial","2","","","","","","","","","","","","","","","","","","","","",""
"","","","","","image-keyboard-response","158","428617","0.0-133.0","6155b9c45f96867d9d9631fd","665500ab8938657b03fbdba8","66577af68946f4ed5f7a0ace","1340","stimuli/2000101.jpg","0","","prediction_trial","2","","false","","2","false","false","true","true","false","false","[2]","000","101","0","","","","","","",""
"","","","","","image-keyboard-response","159","429018","0.0-134.0","6155b9c45f96867d9d9631fd","665500ab8938657b03fbdba8","66577af68946f4ed5f7a0ace","398","stimuli/20001012.jpg"," ","","feedback_trial","2","","","","","","","","","","","","","","","","","","","","",""
"","","","","","image-keyboard-response","160","429801","0.0-135.0","6155b9c45f96867d9d9631fd","665500ab8938657b03fbdba8","66577af68946f4ed5f7a0ace","781","stimuli/0001000.jpg","0","","prediction_trial","0","","true","","0","true","true","true","true","true","true","[0]","001","000","1","","","","","","",""
"","","","","","image-keyboard-response","161","430257","0.0-136.0","6155b9c45f96867d9d9631fd","665500ab8938657b03fbdba8","66577af68946f4ed5f7a0ace","454","stimuli/00010000.jpg"," ","","feedback_trial","0","","","","","","","","","","","","","","","","","","","","",""
"","","","","","image-keyboard-response","162","432032","0.0-137.0","6155b9c45f96867d9d9631fd","665500ab8938657b03fbdba8","66577af68946f4ed5f7a0ace","1773","stimuli/0101000.jpg","0","","prediction_trial","2","","false","","0","true","true","false","false","false","false","[0,2]","101","000","0","","","","","","",""
"","","","","","image-keyboard-response","163","432297","0.0-138.0","6155b9c45f96867d9d9631fd","665500ab8938657b03fbdba8","66577af68946f4ed5f7a0ace","264","stimuli/01010002.jpg"," ","","feedback_trial","0","","","","","","","","","","","","","","","","","","","","",""
"","","","","","image-keyboard-response","164","433401","0.0-139.0","6155b9c45f96867d9d9631fd","665500ab8938657b03fbdba8","66577af68946f4ed5f7a0ace","1081","stimuli/0101100.jpg","1","","prediction_trial","2","","false","","0","false","true","false","false","false","false","[0,2]","101","100","0","","","","","","",""
"","","","","","image-keyboard-response","165","433954","0.0-140.0","6155b9c45f96867d9d9631fd","665500ab8938657b03fbdba8","66577af68946f4ed5f7a0ace","550","stimuli/01011002.jpg"," ","","feedback_trial","0","","","","","","","","","","","","","","","","","","","","",""
"","","","","","image-keyboard-response","166","434793","0.0-141.0","6155b9c45f96867d9d9631fd","665500ab8938657b03fbdba8","66577af68946f4ed5f7a0ace","837","stimuli/0010011.jpg","0","","prediction_trial","0","","true","","0","true","true","true","true","true","true","[0]","010","011","1","","","","","","",""
"","","","","","image-keyboard-response","167","435033","0.0-142.0","6155b9c45f96867d9d9631fd","665500ab8938657b03fbdba8","66577af68946f4ed5f7a0ace","238","stimuli/00100110.jpg"," ","","feedback_trial","0","","","","","","","","","","","","","","","","","","","","",""
"","","","","","image-keyboard-response","168","436088","0.0-143.0","6155b9c45f96867d9d9631fd","665500ab8938657b03fbdba8","66577af68946f4ed5f7a0ace","1053","stimuli/0101011.jpg","0","","prediction_trial","0","","true","","0","true","true","false","false","false","false","[0,2]","101","011","1","","","","","","",""
"","","","","","image-keyboard-response","169","436344","0.0-144.0","6155b9c45f96867d9d9631fd","665500ab8938657b03fbdba8","66577af68946f4ed5f7a0ace","255","stimuli/01010110.jpg"," ","","feedback_trial","0","","","","","","","","","","","","","","","","","","","","",""
"","","","","","image-keyboard-response","170","437000","0.0-145.0","6155b9c45f96867d9d9631fd","665500ab8938657b03fbdba8","66577af68946f4ed5f7a0ace","647","stimuli/2111110.jpg","2","","prediction_trial","0","","false","","2","true","true","false","false","false","false","[0,2,1]","111","110","0","","","","","","",""
"","","","","","image-keyboard-response","171","437296","0.0-146.0","6155b9c45f96867d9d9631fd","665500ab8938657b03fbdba8","66577af68946f4ed5f7a0ace","295","stimuli/21111100.jpg"," ","","feedback_trial","0","","","","","","","","","","","","","","","","","","","","",""
"","","","","","image-keyboard-response","172","438000","0.0-147.0","6155b9c45f96867d9d9631fd","665500ab8938657b03fbdba8","66577af68946f4ed5f7a0ace","703","stimuli/1001000.jpg","1","","prediction_trial","1","","true","","1","true","true","true","true","true","true","[1]","001","000","1","","","","","","",""
"","","","","","image-keyboard-response","173","438192","0.0-148.0","6155b9c45f96867d9d9631fd","665500ab8938657b03fbdba8","66577af68946f4ed5f7a0ace","190","stimuli/10010001.jpg"," ","","feedback_trial","1","","","","","","","","","","","","","","","","","","","","",""
"","","","","","image-keyboard-response","174","438872","0.0-149.0","6155b9c45f96867d9d9631fd","665500ab8938657b03fbdba8","66577af68946f4ed5f7a0ace","679","stimuli/2010010.jpg","2","","prediction_trial","2","","true","","2","true","true","true","true","true","true","[2]","010","010","1","","","","","","",""
"","","","","","image-keyboard-response","175","439105","0.0-150.0","6155b9c45f96867d9d9631fd","665500ab8938657b03fbdba8","66577af68946f4ed5f7a0ace","231","stimuli/20100102.jpg"," ","","feedback_trial","2","","","","","","","","","","","","","","","","","","","","",""
"","","","","","image-keyboard-response","176","439904","0.0-151.0","6155b9c45f96867d9d9631fd","665500ab8938657b03fbdba8","66577af68946f4ed5f7a0ace","785","stimuli/1010001.jpg","1","","prediction_trial","1","","true","","1","true","true","false","true","false","true","[1]","010","001","1","","","","","","",""
"","","","","","image-keyboard-response","177","440072","0.0-152.0","6155b9c45f96867d9d9631fd","665500ab8938657b03fbdba8","66577af68946f4ed5f7a0ace","167","stimuli/10100011.jpg"," ","","feedback_trial","1","","","","","","","","","","","","","","","","","","","","",""
"","","","","","image-keyboard-response","178","440721","0.0-153.0","6155b9c45f96867d9d9631fd","665500ab8938657b03fbdba8","66577af68946f4ed5f7a0ace","648","stimuli/2010110.jpg","2","","prediction_trial","2","","true","","2","true","true","true","true","true","true","[2]","010","110","1","","","","","","",""
"","","","","","image-keyboard-response","179","440945","0.0-154.0","6155b9c45f96867d9d9631fd","665500ab8938657b03fbdba8","66577af68946f4ed5f7a0ace","222","stimuli/20101102.jpg"," ","","feedback_trial","2","","","","","","","","","","","","","","","","","","","","",""
"","","","","","image-keyboard-response","180","442082","0.0-155.0","6155b9c45f96867d9d9631fd","665500ab8938657b03fbdba8","66577af68946f4ed5f7a0ace","1133","stimuli/1110010.jpg","1","","prediction_trial","1","","true","","1","false","true","false","false","false","false","[0,1]","110","010","1","","","","","","",""
"","","","","","image-keyboard-response","181","442305","0.0-156.0","6155b9c45f96867d9d9631fd","665500ab8938657b03fbdba8","66577af68946f4ed5f7a0ace","221","stimuli/11100101.jpg"," ","","feedback_trial","0","","","","","","","","","","","","","","","","","","","","",""
"","","","","","image-keyboard-response","182","443129","0.0-157.0","6155b9c45f96867d9d9631fd","665500ab8938657b03fbdba8","66577af68946f4ed5f7a0ace","803","stimuli/0001110.jpg","1","","prediction_trial","0","","false","","0","false","false","true","true","false","false","[0]","001","110","0","","","","","","",""
"","","","","","image-keyboard-response","183","443337","0.0-158.0","6155b9c45f96867d9d9631fd","665500ab8938657b03fbdba8","66577af68946f4ed5f7a0ace","206","stimuli/00011100.jpg"," ","","feedback_trial","0","","","","","","","","","","","","","","","","","","","","",""
"","","","","","image-keyboard-response","184","444025","0.0-159.0","6155b9c45f96867d9d9631fd","665500ab8938657b03fbdba8","66577af68946f4ed5f7a0ace","686","stimuli/0011110.jpg","1","","prediction_trial","0","","false","","0","false","false","true","true","false","false","[0]","011","110","0","","","","","","",""
"","","","","","image-keyboard-response","185","444193","0.0-160.0","6155b9c45f96867d9d9631fd","665500ab8938657b03fbdba8","66577af68946f4ed5f7a0ace","165","stimuli/00111100.jpg"," ","","feedback_trial","0","","","","","","","","","","","","","","","","","","","","",""
"","","","","","image-keyboard-response","186","444809","0.0-161.0","6155b9c45f96867d9d9631fd","665500ab8938657b03fbdba8","66577af68946f4ed5f7a0ace","613","stimuli/2011111.jpg","1","","prediction_trial","2","","false","","2","false","false","false","false","false","false","[1,2]","011","111","0","","","","","","",""
"","","","","","image-keyboard-response","187","444985","0.0-162.0","6155b9c45f96867d9d9631fd","665500ab8938657b03fbdba8","66577af68946f4ed5f7a0ace","175","stimuli/20111112.jpg"," ","","feedback_trial","1","","","","","","","","","","","","","","","","","","","","",""
"","","","","","image-keyboard-response","188","446602","0.0-163.0","6155b9c45f96867d9d9631fd","665500ab8938657b03fbdba8","66577af68946f4ed5f7a0ace","1598","stimuli/2100101.jpg","0","","prediction_trial","2","","false","","2","false","false","true","true","false","false","[2]","100","101","0","","","","","","",""
"","","","","","image-keyboard-response","189","446624","0.0-164.0","6155b9c45f96867d9d9631fd","665500ab8938657b03fbdba8","66577af68946f4ed5f7a0ace","21","stimuli/21001012.jpg"," ","","feedback_trial","2","","","","","","","","","","","","","","","","","","","","",""
"","","","","","image-keyboard-response","190","447440","0.0-165.0","6155b9c45f96867d9d9631fd","665500ab8938657b03fbdba8","66577af68946f4ed5f7a0ace","815","stimuli/1101100.jpg","1","","prediction_trial","1","","true","","1","true","true","true","true","true","true","[1]","101","100","1","","","","","","",""
"","","","","","image-keyboard-response","191","447688","0.0-166.0","6155b9c45f96867d9d9631fd","665500ab8938657b03fbdba8","66577af68946f4ed5f7a0ace","247","stimuli/11011001.jpg"," ","","feedback_trial","1","","","","","","","","","","","","","","","","","","","","",""
"","","","","","image-keyboard-response","192","448472","0.0-167.0","6155b9c45f96867d9d9631fd","665500ab8938657b03fbdba8","66577af68946f4ed5f7a0ace","783","stimuli/0110101.jpg","0","","prediction_trial","0","","true","","0","false","false","false","false","false","false","[0,1]","110","101","1","","","","","","",""
"","","","","","image-keyboard-response","193","449081","0.0-168.0","6155b9c45f96867d9d9631fd","665500ab8938657b03fbdba8","66577af68946f4ed5f7a0ace","609","stimuli/01101010.jpg"," ","","feedback_trial","0","","","","","","","","","","","","","","","","","","","","",""
"","","","","","image-keyboard-response","194","450016","0.0-169.0","6155b9c45f96867d9d9631fd","665500ab8938657b03fbdba8","66577af68946f4ed5f7a0ace","915","stimuli/1100000.jpg","1","","prediction_trial","1","","true","","1","true","true","true","true","true","true","[1]","100","000","1","","","","","","",""
"","","","","","image-keyboard-response","195","450256","0.0-170.0","6155b9c45f96867d9d9631fd","665500ab8938657b03fbdba8","66577af68946f4ed5f7a0ace","239","stimuli/11000001.jpg"," ","","feedback_trial","1","","","","","","","","","","","","","","","","","","","","",""
"","","","","","image-keyboard-response","196","451000","0.0-171.0","6155b9c45f96867d9d9631fd","665500ab8938657b03fbdba8","66577af68946f4ed5f7a0ace","743","stimuli/0110111.jpg","1","","prediction_trial","0","","false","","0","false","false","false","false","false","false","[1,0]","110","111","0","","","","","","",""
"","","","","","image-keyboard-response","197","451570","0.0-172.0","6155b9c45f96867d9d9631fd","665500ab8938657b03fbdba8","66577af68946f4ed5f7a0ace","568","stimuli/01101110.jpg"," ","","feedback_trial","1","","","","","","","","","","","","","","","","","","","","",""
"","","","","","image-keyboard-response","198","452833","0.0-173.0","6155b9c45f96867d9d9631fd","665500ab8938657b03fbdba8","66577af68946f4ed5f7a0ace","1261","stimuli/2110101.jpg","0","","prediction_trial","2","","false","","2","false","false","true","true","false","false","[2]","110","101","0","","","","","","",""
"","","","","","image-keyboard-response","199","453089","0.0-174.0","6155b9c45f96867d9d9631fd","665500ab8938657b03fbdba8","66577af68946f4ed5f7a0ace","254","stimuli/21101012.jpg"," ","","feedback_trial","2","","","","","","","","","","","","","","","","","","","","",""
"","","","","","image-keyboard-response","200","454130","0.0-175.0","6155b9c45f96867d9d9631fd","665500ab8938657b03fbdba8","66577af68946f4ed5f7a0ace","1023","stimuli/2101111.jpg","1","","prediction_trial","2","","false","","2","false","false","false","false","false","false","[0,2]","101","111","0","","","","","","",""
"","","","","","image-keyboard-response","201","454681","0.0-176.0","6155b9c45f96867d9d9631fd","665500ab8938657b03fbdba8","66577af68946f4ed5f7a0ace","549","stimuli/21011112.jpg"," ","","feedback_trial","0","","","","","","","","","","","","","","","","","","","","",""
"","","","","","image-keyboard-response","202","455881","0.0-177.0","6155b9c45f96867d9d9631fd","665500ab8938657b03fbdba8","66577af68946f4ed5f7a0ace","1198","stimuli/1101111.jpg","0","","prediction_trial","1","","false","","1","false","false","true","true","false","false","[1]","101","111","0","","","","","","",""
"","","","","","image-keyboard-response","203","456218","0.0-178.0","6155b9c45f96867d9d9631fd","665500ab8938657b03fbdba8","66577af68946f4ed5f7a0ace","334","stimuli/11011111.jpg"," ","","feedback_trial","1","","","","","","","","","","","","","","","","","","","","",""
"","","","","","image-keyboard-response","204","456977","0.0-179.0","6155b9c45f96867d9d9631fd","665500ab8938657b03fbdba8","66577af68946f4ed5f7a0ace","757","stimuli/1111101.jpg","1","","prediction_trial","0","","false","","1","true","true","false","false","false","false","[2,0,1]","111","101","0","","","","","","",""
"","","","","","image-keyboard-response","205","457322","0.0-180.0","6155b9c45f96867d9d9631fd","665500ab8938657b03fbdba8","66577af68946f4ed5f7a0ace","342","stimuli/11111010.jpg"," ","","feedback_trial","2","","","","","","","","","","","","","","","","","","","","",""
"","","","","","image-keyboard-response","206","458193","0.0-181.0","6155b9c45f96867d9d9631fd","665500ab8938657b03fbdba8","66577af68946f4ed5f7a0ace","854","stimuli/0011001.jpg","0","","prediction_trial","0","","true","","0","true","true","true","true","true","true","[0]","011","001","1","","","","","","",""
"","","","","","image-keyboard-response","207","458432","0.0-182.0","6155b9c45f96867d9d9631fd","665500ab8938657b03fbdba8","66577af68946f4ed5f7a0ace","237","stimuli/00110010.jpg"," ","","feedback_trial","0","","","","","","","","","","","","","","","","","","","","",""
"","","","","","image-keyboard-response","208","459353","0.0-183.0","6155b9c45f96867d9d9631fd","665500ab8938657b03fbdba8","66577af68946f4ed5f7a0ace","920","stimuli/1001001.jpg","1","","prediction_trial","1","","true","","1","true","true","true","true","true","true","[1]","001","001","1","","","","","","",""
"","","","","","image-keyboard-response","209","459744","0.0-184.0","6155b9c45f96867d9d9631fd","665500ab8938657b03fbdba8","66577af68946f4ed5f7a0ace","389","stimuli/10010011.jpg"," ","","feedback_trial","1","","","","","","","","","","","","","","","","","","","","",""
"","","","","","image-keyboard-response","210","460457","0.0-185.0","6155b9c45f96867d9d9631fd","665500ab8938657b03fbdba8","66577af68946f4ed5f7a0ace","711","stimuli/2110001.jpg","2","","prediction_trial","2","","true","","2","false","true","true","true","false","true","[2]","110","001","1","","","","","","",""
"","","","","","image-keyboard-response","211","460778","0.0-186.0","6155b9c45f96867d9d9631fd","665500ab8938657b03fbdba8","66577af68946f4ed5f7a0ace","318","stimuli/21100012.jpg"," ","","feedback_trial","2","","","","","","","","","","","","","","","","","","","","",""
"","","","","","image-keyboard-response","212","461664","0.0-187.0","6155b9c45f96867d9d9631fd","665500ab8938657b03fbdba8","66577af68946f4ed5f7a0ace","858","stimuli/2100111.jpg","1","","prediction_trial","2","","false","","2","false","false","true","true","false","false","[2]","100","111","0","","","","","","",""
"","","","","","image-keyboard-response","213","462145","0.0-188.0","6155b9c45f96867d9d9631fd","665500ab8938657b03fbdba8","66577af68946f4ed5f7a0ace","481","stimuli/21001112.jpg"," ","","feedback_trial","2","","","","","","","","","","","","","","","","","","","","",""
"","","","","","image-keyboard-response","214","463257","0.0-189.0","6155b9c45f96867d9d9631fd","665500ab8938657b03fbdba8","66577af68946f4ed5f7a0ace","1109","stimuli/0100100.jpg","0","","prediction_trial","0","","true","","0","false","true","false","true","false","true","[0]","100","100","1","","","","","","",""
"","","","","","image-keyboard-response","215","463520","0.0-190.0","6155b9c45f96867d9d9631fd","665500ab8938657b03fbdba8","66577af68946f4ed5f7a0ace","261","stimuli/01001000.jpg"," ","","feedback_trial","0","","","","","","","","","","","","","","","","","","","","",""
"","","","","","image-keyboard-response","216","464536","0.0-191.0","6155b9c45f96867d9d9631fd","665500ab8938657b03fbdba8","66577af68946f4ed5f7a0ace","1015","stimuli/0111111.jpg","1","","prediction_trial","0","","false","","0","false","false","false","false","false","false","[1,0,2]","111","111","0","","","","","","",""
"","","","","","image-keyboard-response","217","464864","0.0-192.0","6155b9c45f96867d9d9631fd","665500ab8938657b03fbdba8","66577af68946f4ed5f7a0ace","327","stimuli/01111110.jpg"," ","","feedback_trial","1","","","","","","","","","","","","","","","","","","","","",""
"","","","","","image-keyboard-response","218","465528","0.0-193.0","6155b9c45f96867d9d9631fd","665500ab8938657b03fbdba8","66577af68946f4ed5f7a0ace","658","stimuli/1010011.jpg","1","","prediction_trial","1","","true","","1","false","false","false","true","false","false","[1]","010","011","1","","","","","","",""
"","","","","","image-keyboard-response","219","465936","0.0-194.0","6155b9c45f96867d9d9631fd","665500ab8938657b03fbdba8","66577af68946f4ed5f7a0ace","407","stimuli/10100111.jpg"," ","","feedback_trial","1","","","","","","","","","","","","","","","","","","","","",""
"","","","","","image-keyboard-response","220","466816","0.0-195.0","6155b9c45f96867d9d9631fd","665500ab8938657b03fbdba8","66577af68946f4ed5f7a0ace","879","stimuli/0101110.jpg","1","","prediction_trial","0","","false","","0","false","false","false","false","false","false","[0,2]","101","110","0","","","","","","",""
"","","","","","image-keyboard-response","221","467128","0.0-196.0","6155b9c45f96867d9d9631fd","665500ab8938657b03fbdba8","66577af68946f4ed5f7a0ace","311","stimuli/01011100.jpg"," ","","feedback_trial","0","","","","","","","","","","","","","","","","","","","","",""
"","","","","","image-keyboard-response","222","467680","0.0-197.0","6155b9c45f96867d9d9631fd","665500ab8938657b03fbdba8","66577af68946f4ed5f7a0ace","551","stimuli/2110011.jpg","1","","prediction_trial","2","","false","","2","false","false","true","true","false","false","[2]","110","011","0","","","","","","",""
"","","","","","image-keyboard-response","223","468272","0.0-198.0","6155b9c45f96867d9d9631fd","665500ab8938657b03fbdba8","66577af68946f4ed5f7a0ace","591","stimuli/21100112.jpg"," ","","feedback_trial","2","","","","","","","","","","","","","","","","","","","","",""
"","","","","","image-keyboard-response","224","469169","0.0-199.0","6155b9c45f96867d9d9631fd","665500ab8938657b03fbdba8","66577af68946f4ed5f7a0ace","891","stimuli/1001110.jpg","0","","prediction_trial","1","","false","","1","false","false","true","true","false","false","[1]","001","110","0","","","","","","",""
"","","","","","image-keyboard-response","225","469512","0.0-200.0","6155b9c45f96867d9d9631fd","665500ab8938657b03fbdba8","66577af68946f4ed5f7a0ace","342","stimuli/10011101.jpg"," ","","feedback_trial","1","","","","","","","","","","","","","","","","","","","","",""
"","","","","","image-keyboard-response","226","470176","0.0-201.0","6155b9c45f96867d9d9631fd","665500ab8938657b03fbdba8","66577af68946f4ed5f7a0ace","663","stimuli/2110010.jpg","2","","prediction_trial","2","","true","","2","true","true","true","true","true","true","[2]","110","010","1","","","","","","",""
"","","","","","image-keyboard-response","227","470449","0.0-202.0","6155b9c45f96867d9d9631fd","665500ab8938657b03fbdba8","66577af68946f4ed5f7a0ace","272","stimuli/21100102.jpg"," ","","feedback_trial","2","","","","","","","","","","","","","","","","","","","","",""
"","","","","","image-keyboard-response","228","471208","0.0-203.0","6155b9c45f96867d9d9631fd","665500ab8938657b03fbdba8","66577af68946f4ed5f7a0ace","758","stimuli/1100100.jpg","1","","prediction_trial","1","","true","","1","true","true","true","true","true","true","[1]","100","100","1","","","","","","",""
"","","","","","image-keyboard-response","229","471488","0.0-204.0","6155b9c45f96867d9d9631fd","665500ab8938657b03fbdba8","66577af68946f4ed5f7a0ace","279","stimuli/11001001.jpg"," ","","feedback_trial","1","","","","","","","","","","","","","","","","","","","","",""
"","","","","","image-keyboard-response","230","472064","0.0-205.0","6155b9c45f96867d9d9631fd","665500ab8938657b03fbdba8","66577af68946f4ed5f7a0ace","570","stimuli/1001100.jpg","1","","prediction_trial","1","","true","","1","true","true","true","true","true","true","[1]","001","100","1","","","","","","",""
"","","","","","image-keyboard-response","231","472272","0.0-206.0","6155b9c45f96867d9d9631fd","665500ab8938657b03fbdba8","66577af68946f4ed5f7a0ace","207","stimuli/10011001.jpg"," ","","feedback_trial","1","","","","","","","","","","","","","","","","","","","","",""
"","","","","","image-keyboard-response","232","473416","0.0-207.0","6155b9c45f96867d9d9631fd","665500ab8938657b03fbdba8","66577af68946f4ed5f7a0ace","1143","stimuli/2110100.jpg","2","","prediction_trial","2","","true","","2","true","true","true","true","true","true","[2]","110","100","1","","","","","","",""
"","","","","","image-keyboard-response","233","473584","0.0-208.0","6155b9c45f96867d9d9631fd","665500ab8938657b03fbdba8","66577af68946f4ed5f7a0ace","167","stimuli/21101002.jpg"," ","","feedback_trial","2","","","","","","","","","","","","","","","","","","","","",""
"","","","","","image-keyboard-response","234","474240","0.0-209.0","6155b9c45f96867d9d9631fd","665500ab8938657b03fbdba8","66577af68946f4ed5f7a0ace","655","stimuli/0001010.jpg","0","","prediction_trial","0","","true","","0","true","true","true","true","true","true","[0]","001","010","1","","","","","","",""
"","","","","","image-keyboard-response","235","474456","0.0-210.0","6155b9c45f96867d9d9631fd","665500ab8938657b03fbdba8","66577af68946f4ed5f7a0ace","215","stimuli/00010100.jpg"," ","","feedback_trial","0","","","","","","","","","","","","","","","","","","","","",""
"","","","","","image-keyboard-response","236","475088","0.0-211.0","6155b9c45f96867d9d9631fd","665500ab8938657b03fbdba8","66577af68946f4ed5f7a0ace","625","stimuli/2000100.jpg","2","","prediction_trial","2","","true","","2","true","true","true","true","true","true","[2]","000","100","1","","","","","","",""
"","","","","","image-keyboard-response","237","475312","0.0-212.0","6155b9c45f96867d9d9631fd","665500ab8938657b03fbdba8","66577af68946f4ed5f7a0ace","224","stimuli/20001002.jpg"," ","","feedback_trial","2","","","","","","","","","","","","","","","","","","","","",""
"","","","","","image-keyboard-response","238","476016","0.0-213.0","6155b9c45f96867d9d9631fd","665500ab8938657b03fbdba8","66577af68946f4ed5f7a0ace","703","stimuli/1000000.jpg","1","","prediction_trial","1","","true","","1","true","true","true","true","true","true","[1]","000","000","1","","","","","","",""
"","","","","","image-keyboard-response","239","476249","0.0-214.0","6155b9c45f96867d9d9631fd","665500ab8938657b03fbdba8","66577af68946f4ed5f7a0ace","233","stimuli/10000001.jpg"," ","","feedback_trial","1","","","","","","","","","","","","","","","","","","","","",""
"","","","","","image-keyboard-response","240","477010","0.0-215.0","6155b9c45f96867d9d9631fd","665500ab8938657b03fbdba8","66577af68946f4ed5f7a0ace","760","stimuli/2110110.jpg","2","","prediction_trial","2","","true","","2","true","true","true","true","true","true","[2]","110","110","1","","","","","","",""
"","","","","","image-keyboard-response","241","477280","0.0-216.0","6155b9c45f96867d9d9631fd","665500ab8938657b03fbdba8","66577af68946f4ed5f7a0ace","269","stimuli/21101102.jpg"," ","","feedback_trial","2","","","","","","","","","","","","","","","","","","","","",""
"","","","","","image-keyboard-response","242","478689","0.0-217.0","6155b9c45f96867d9d9631fd","665500ab8938657b03fbdba8","66577af68946f4ed5f7a0ace","1402","stimuli/1001011.jpg","2","","prediction_trial","1","","false","","1","false","false","true","true","false","false","[1]","001","011","0","","","","","","",""
"","","","","","image-keyboard-response","243","478880","0.0-218.0","6155b9c45f96867d9d9631fd","665500ab8938657b03fbdba8","66577af68946f4ed5f7a0ace","190","stimuli/10010111.jpg"," ","","feedback_trial","1","","","","","","","","","","","","","","","","","","","","",""
"","","","","","image-keyboard-response","244","480160","0.0-219.0","6155b9c45f96867d9d9631fd","665500ab8938657b03fbdba8","66577af68946f4ed5f7a0ace","1279","stimuli/2101001.jpg","0","","prediction_trial","2","","false","","2","false","true","false","false","false","false","[0,2]","101","001","0","","","","","","",""
"","","","","","image-keyboard-response","245","480873","0.0-220.0","6155b9c45f96867d9d9631fd","665500ab8938657b03fbdba8","66577af68946f4ed5f7a0ace","713","stimuli/21010012.jpg"," ","","feedback_trial","0","","","","","","","","","","","","","","","","","","","","",""
"","","","","","image-keyboard-response","246","481872","0.0-221.0","6155b9c45f96867d9d9631fd","665500ab8938657b03fbdba8","66577af68946f4ed5f7a0ace","998","stimuli/2010100.jpg","2","","prediction_trial","2","","true","","2","true","true","true","true","true","true","[2]","010","100","1","","","","","","",""
"","","","","","image-keyboard-response","247","482176","0.0-222.0","6155b9c45f96867d9d9631fd","665500ab8938657b03fbdba8","66577af68946f4ed5f7a0ace","303","stimuli/20101002.jpg"," ","","feedback_trial","2","","","","","","","","","","","","","","","","","","","","",""
"","","","","","image-keyboard-response","248","483040","0.0-223.0","6155b9c45f96867d9d9631fd","665500ab8938657b03fbdba8","66577af68946f4ed5f7a0ace","855","stimuli/1000101.jpg","1","","prediction_trial","1","","true","","1","true","true","true","true","true","true","[1]","000","101","1","","","","","","",""
"","","","","","image-keyboard-response","249","483313","0.0-224.0","6155b9c45f96867d9d9631fd","665500ab8938657b03fbdba8","66577af68946f4ed5f7a0ace","273","stimuli/10001011.jpg"," ","","feedback_trial","1","","","","","","","","","","","","","","","","","","","","",""
"","","","","","image-keyboard-response","250","484056","0.0-225.0","6155b9c45f96867d9d9631fd","665500ab8938657b03fbdba8","66577af68946f4ed5f7a0ace","742","stimuli/0101001.jpg","0","","prediction_trial","0","","true","","0","true","true","false","false","false","false","[2,0]","101","001","1","","","","","","",""
"","","","","","image-keyboard-response","251","484304","0.0-226.0","6155b9c45f96867d9d9631fd","665500ab8938657b03fbdba8","66577af68946f4ed5f7a0ace","247","stimuli/01010010.jpg"," ","","feedback_trial","2","","","","","","","","","","","","","","","","","","","","",""
"","","","","","image-keyboard-response","252","486905","0.0-227.0","6155b9c45f96867d9d9631fd","665500ab8938657b03fbdba8","66577af68946f4ed5f7a0ace","2600","stimuli/0001111.jpg","0","","prediction_trial","0","","true","","0","false","false","true","true","false","false","[0]","001","111","1","","","","","","",""
"","","","","","image-keyboard-response","253","487257","0.0-228.0","6155b9c45f96867d9d9631fd","665500ab8938657b03fbdba8","66577af68946f4ed5f7a0ace","350","stimuli/00011110.jpg"," ","","feedback_trial","0","","","","","","","","","","","","","","","","","","","","",""
"","","","","","image-keyboard-response","254","488272","0.0-229.0","6155b9c45f96867d9d9631fd","665500ab8938657b03fbdba8","66577af68946f4ed5f7a0ace","996","stimuli/2101110.jpg","2","","prediction_trial","2","","true","","2","true","true","false","false","false","false","[2,0]","101","110","1","","","","","","",""
"","","","","","image-keyboard-response","255","490170","0.0-230.0","6155b9c45f96867d9d9631fd","665500ab8938657b03fbdba8","66577af68946f4ed5f7a0ace","1896","stimuli/21011102.jpg"," ","","feedback_trial","2","","","","","","","","","","","","","","","","","","","","",""
"","","","","","image-keyboard-response","256","492143","0.0-231.0","6155b9c45f96867d9d9631fd","665500ab8938657b03fbdba8","66577af68946f4ed5f7a0ace","1973","stimuli/0000111.jpg","1","","prediction_trial","0","","false","","0","false","false","true","true","false","false","[0]","000","111","0","","","","","","",""
"","","","","","image-keyboard-response","257","492567","0.0-232.0","6155b9c45f96867d9d9631fd","665500ab8938657b03fbdba8","66577af68946f4ed5f7a0ace","423","stimuli/00001110.jpg"," ","","feedback_trial","0","","","","","","","","","","","","","","","","","","","","",""
"","","","","","image-keyboard-response","258","494007","0.0-233.0","6155b9c45f96867d9d9631fd","665500ab8938657b03fbdba8","66577af68946f4ed5f7a0ace","1439","stimuli/0010111.jpg","1","","prediction_trial","0","","false","","0","false","false","true","true","false","false","[0]","010","111","0","","","","","","",""
"","","","","","image-keyboard-response","259","494431","0.0-234.0","6155b9c45f96867d9d9631fd","665500ab8938657b03fbdba8","66577af68946f4ed5f7a0ace","423","stimuli/00101110.jpg"," ","","feedback_trial","0","","","","","","","","","","","","","","","","","","","","",""
"","","","","","image-keyboard-response","260","495311","0.0-235.0","6155b9c45f96867d9d9631fd","665500ab8938657b03fbdba8","66577af68946f4ed5f7a0ace","874","stimuli/2011110.jpg","2","","prediction_trial","2","","true","","2","true","true","false","false","false","false","[2,1]","011","110","1","","","","","","",""
"","","","","","image-keyboard-response","261","495735","0.0-236.0","6155b9c45f96867d9d9631fd","665500ab8938657b03fbdba8","66577af68946f4ed5f7a0ace","423","stimuli/20111102.jpg"," ","","feedback_trial","2","","","","","","","","","","","","","","","","","","","","",""
"","","","","","image-keyboard-response","262","496335","0.0-237.0","6155b9c45f96867d9d9631fd","665500ab8938657b03fbdba8","66577af68946f4ed5f7a0ace","599","stimuli/1100001.jpg","1","","prediction_trial","1","","true","","1","true","true","true","true","true","true","[1]","100","001","1","","","","","","",""
"","","","","","image-keyboard-response","263","496629","0.0-238.0","6155b9c45f96867d9d9631fd","665500ab8938657b03fbdba8","66577af68946f4ed5f7a0ace","294","stimuli/11000011.jpg"," ","","feedback_trial","1","","","","","","","","","","","","","","","","","","","","",""
"","","","","","image-keyboard-response","264","498511","0.0-239.0","6155b9c45f96867d9d9631fd","665500ab8938657b03fbdba8","66577af68946f4ed5f7a0ace","1881","stimuli/2000011.jpg","2","","prediction_trial","2","","true","","2","false","false","true","true","false","false","[2]","000","011","1","","","","","","",""
"","","","","","image-keyboard-response","265","498841","0.0-240.0","6155b9c45f96867d9d9631fd","665500ab8938657b03fbdba8","66577af68946f4ed5f7a0ace","330","stimuli/20000112.jpg"," ","","feedback_trial","2","","","","","","","","","","","","","","","","","","","","",""
"","","","","","image-keyboard-response","266","499623","0.0-241.0","6155b9c45f96867d9d9631fd","665500ab8938657b03fbdba8","66577af68946f4ed5f7a0ace","772","stimuli/1000110.jpg","1","","prediction_trial","1","","true","","1","false","false","true","true","false","false","[1]","000","110","1","","","","","","",""
"","","","","","image-keyboard-response","267","500008","0.0-242.0","6155b9c45f96867d9d9631fd","665500ab8938657b03fbdba8","66577af68946f4ed5f7a0ace","384","stimuli/10001101.jpg"," ","","feedback_trial","1","","","","","","","","","","","","","","","","","","","","",""
"","","","","","image-keyboard-response","268","500583","0.0-243.0","6155b9c45f96867d9d9631fd","665500ab8938657b03fbdba8","66577af68946f4ed5f7a0ace","574","stimuli/1110110.jpg","1","","prediction_trial","0","","false","","1","false","false","false","false","false","false","[1,0]","110","110","0","","","","","","",""
"","","","","","image-keyboard-response","269","500897","0.0-244.0","6155b9c45f96867d9d9631fd","665500ab8938657b03fbdba8","66577af68946f4ed5f7a0ace","313","stimuli/11101100.jpg"," ","","feedback_trial","1","","","","","","","","","","","","","","","","","","","","",""
"","","","","","image-keyboard-response","270","501943","0.0-245.0","6155b9c45f96867d9d9631fd","665500ab8938657b03fbdba8","66577af68946f4ed5f7a0ace","1045","stimuli/0011100.jpg","0","","prediction_trial","0","","true","","0","false","true","true","true","false","true","[0]","011","100","1","","","","","","",""
"","","","","","image-keyboard-response","271","502161","0.0-246.0","6155b9c45f96867d9d9631fd","665500ab8938657b03fbdba8","66577af68946f4ed5f7a0ace","217","stimuli/00111000.jpg"," ","","feedback_trial","0","","","","","","","","","","","","","","","","","","","","",""
"","","","","","image-keyboard-response","272","502999","0.0-247.0","6155b9c45f96867d9d9631fd","665500ab8938657b03fbdba8","66577af68946f4ed5f7a0ace","829","stimuli/2011001.jpg","2","","prediction_trial","2","","true","","2","false","true","false","false","false","false","[1,2]","011","001","1","","","","","","",""
"","","","","","image-keyboard-response","273","503479","0.0-248.0","6155b9c45f96867d9d9631fd","665500ab8938657b03fbdba8","66577af68946f4ed5f7a0ace","479","stimuli/20110012.jpg"," ","","feedback_trial","1","","","","","","","","","","","","","","","","","","","","",""
"","","","","","image-keyboard-response","274","504239","0.0-249.0","6155b9c45f96867d9d9631fd","665500ab8938657b03fbdba8","66577af68946f4ed5f7a0ace","759","stimuli/0101101.jpg","0","","prediction_trial","0","","true","","0","false","false","false","false","false","false","[0,2]","101","101","1","","","","","","",""
"","","","","","image-keyboard-response","275","504599","0.0-250.0","6155b9c45f96867d9d9631fd","665500ab8938657b03fbdba8","66577af68946f4ed5f7a0ace","359","stimuli/01011010.jpg"," ","","feedback_trial","0","","","","","","","","","","","","","","","","","","","","",""
"","","","","","image-keyboard-response","276","505399","0.0-251.0","6155b9c45f96867d9d9631fd","665500ab8938657b03fbdba8","66577af68946f4ed5f7a0ace","799","stimuli/0100111.jpg","0","","prediction_trial","0","","true","","0","false","false","false","true","false","false","[0]","100","111","1","","","","","","",""
"","","","","","image-keyboard-response","277","505655","0.0-252.0","6155b9c45f96867d9d9631fd","665500ab8938657b03fbdba8","66577af68946f4ed5f7a0ace","255","stimuli/01001110.jpg"," ","","feedback_trial","0","","","","","","","","","","","","","","","","","","","","",""
"","","","","","image-keyboard-response","278","507423","0.0-253.0","6155b9c45f96867d9d9631fd","665500ab8938657b03fbdba8","66577af68946f4ed5f7a0ace","1758","stimuli/1001111.jpg","1","","prediction_trial","1","","true","","1","false","false","true","true","false","false","[1]","001","111","1","","","","","","",""
"","","","","","image-keyboard-response","279","507767","0.0-254.0","6155b9c45f96867d9d9631fd","665500ab8938657b03fbdba8","66577af68946f4ed5f7a0ace","343","stimuli/10011111.jpg"," ","","feedback_trial","1","","","","","","","","","","","","","","","","","","","","",""
"","","","","","image-keyboard-response","280","508375","0.0-255.0","6155b9c45f96867d9d9631fd","665500ab8938657b03fbdba8","66577af68946f4ed5f7a0ace","607","stimuli/2010101.jpg","0","","prediction_trial","2","","false","","2","false","false","true","true","false","false","[2]","010","101","0","","","","","","",""
"","","","","","image-keyboard-response","281","508647","0.0-256.0","6155b9c45f96867d9d9631fd","665500ab8938657b03fbdba8","66577af68946f4ed5f7a0ace","272","stimuli/20101012.jpg"," ","","feedback_trial","2","","","","","","","","","","","","","","","","","","","","",""
"","","","","","image-keyboard-response","282","509496","0.0-257.0","6155b9c45f96867d9d9631fd","665500ab8938657b03fbdba8","66577af68946f4ed5f7a0ace","847","stimuli/1011110.jpg","0","","prediction_trial","1","","false","","1","false","false","false","false","false","false","[2,1]","011","110","0","","","","","","",""
"","","","","","image-keyboard-response","283","509815","0.0-258.0","6155b9c45f96867d9d9631fd","665500ab8938657b03fbdba8","66577af68946f4ed5f7a0ace","319","stimuli/10111101.jpg"," ","","feedback_trial","2","","","","","","","","","","","","","","","","","","","","",""
"","","","","","image-keyboard-response","284","510421","0.0-259.0","6155b9c45f96867d9d9631fd","665500ab8938657b03fbdba8","66577af68946f4ed5f7a0ace","598","stimuli/1111001.jpg","1","","prediction_trial","0","","false","","1","true","true","false","false","false","false","[1,0,2]","111","001","0","","","","","","",""
"","","","","","image-keyboard-response","285","511282","0.0-260.0","6155b9c45f96867d9d9631fd","665500ab8938657b03fbdba8","66577af68946f4ed5f7a0ace","860","stimuli/11110010.jpg"," ","","feedback_trial","1","","","","","","","","","","","","","","","","","","","","",""
"","","","","","image-keyboard-response","286","511791","0.0-261.0","6155b9c45f96867d9d9631fd","665500ab8938657b03fbdba8","66577af68946f4ed5f7a0ace","508","stimuli/0101010.jpg","0","","prediction_trial","0","","true","","0","true","true","false","false","false","false","[2,0]","101","010","1","","","","","","",""
"","","","","","image-keyboard-response","287","512247","0.0-262.0","6155b9c45f96867d9d9631fd","665500ab8938657b03fbdba8","66577af68946f4ed5f7a0ace","455","stimuli/01010100.jpg"," ","","feedback_trial","2","","","","","","","","","","","","","","","","","","","","",""
"","","","","","image-keyboard-response","288","512903","0.0-263.0","6155b9c45f96867d9d9631fd","665500ab8938657b03fbdba8","66577af68946f4ed5f7a0ace","655","stimuli/1000001.jpg","1","","prediction_trial","1","","true","","1","true","true","true","true","true","true","[1]","000","001","1","","","","","","",""
"","","","","","image-keyboard-response","289","513227","0.0-264.0","6155b9c45f96867d9d9631fd","665500ab8938657b03fbdba8","66577af68946f4ed5f7a0ace","323","stimuli/10000011.jpg"," ","","feedback_trial","1","","","","","","","","","","","","","","","","","","","","",""
"","","","","","image-keyboard-response","290","513856","0.0-265.0","6155b9c45f96867d9d9631fd","665500ab8938657b03fbdba8","66577af68946f4ed5f7a0ace","620","stimuli/1111000.jpg","1","","prediction_trial","2","","false","","1","true","true","false","false","false","false","[0,2,1]","111","000","0","","","","","","",""
"","","","","","image-keyboard-response","291","514111","0.0-266.0","6155b9c45f96867d9d9631fd","665500ab8938657b03fbdba8","66577af68946f4ed5f7a0ace","254","stimuli/11110002.jpg"," ","","feedback_trial","0","","","","","","","","","","","","","","","","","","","","",""
"","","","","","image-keyboard-response","292","516965","0.0-267.0","6155b9c45f96867d9d9631fd","665500ab8938657b03fbdba8","66577af68946f4ed5f7a0ace","2853","stimuli/1000111.jpg","0","","prediction_trial","1","","false","","1","false","false","true","true","false","false","[1]","000","111","0","","","","","","",""
"","","","","","image-keyboard-response","293","517615","0.0-268.0","6155b9c45f96867d9d9631fd","665500ab8938657b03fbdba8","66577af68946f4ed5f7a0ace","649","stimuli/10001111.jpg"," ","","feedback_trial","1","","","","","","","","","","","","","","","","","","","","",""
"","","","","","image-keyboard-response","294","518487","0.0-269.0","6155b9c45f96867d9d9631fd","665500ab8938657b03fbdba8","66577af68946f4ed5f7a0ace","871","stimuli/2111011.jpg","2","","prediction_trial","2","","true","","2","false","false","false","false","false","false","[1,2,0]","111","011","1","","","","","","",""
"","","","","","image-keyboard-response","295","518785","0.0-270.0","6155b9c45f96867d9d9631fd","665500ab8938657b03fbdba8","66577af68946f4ed5f7a0ace","297","stimuli/21110112.jpg"," ","","feedback_trial","1","","","","","","","","","","","","","","","","","","","","",""
"","","","","","image-keyboard-response","296","519392","0.0-271.0","6155b9c45f96867d9d9631fd","665500ab8938657b03fbdba8","66577af68946f4ed5f7a0ace","598","stimuli/0001001.jpg","0","","prediction_trial","0","","true","","0","true","true","true","true","true","true","[0]","001","001","1","","","","","","",""
"","","","","","image-keyboard-response","297","519674","0.0-272.0","6155b9c45f96867d9d9631fd","665500ab8938657b03fbdba8","66577af68946f4ed5f7a0ace","281","stimuli/00010010.jpg"," ","","feedback_trial","0","","","","","","","","","","","","","","","","","","","","",""
"","","","","","image-keyboard-response","298","520495","0.0-273.0","6155b9c45f96867d9d9631fd","665500ab8938657b03fbdba8","66577af68946f4ed5f7a0ace","820","stimuli/2111101.jpg","1","","prediction_trial","1","","true","","2","false","false","false","false","false","false","[0,2,1]","111","101","1","","","","","","",""
"","","","","","image-keyboard-response","299","520863","0.0-274.0","6155b9c45f96867d9d9631fd","665500ab8938657b03fbdba8","66577af68946f4ed5f7a0ace","367","stimuli/21111011.jpg"," ","","feedback_trial","0","","","","","","","","","","","","","","","","","","","","",""
"","","","","","image-keyboard-response","300","521776","0.0-275.0","6155b9c45f96867d9d9631fd","665500ab8938657b03fbdba8","66577af68946f4ed5f7a0ace","912","stimuli/1100111.jpg","1","","prediction_trial","1","","true","","1","false","false","true","true","false","false","[1]","100","111","1","","","","","","",""
"","","","","","image-keyboard-response","301","522056","0.0-276.0","6155b9c45f96867d9d9631fd","665500ab8938657b03fbdba8","66577af68946f4ed5f7a0ace","278","stimuli/11001111.jpg"," ","","feedback_trial","1","","","","","","","","","","","","","","","","","","","","",""
"","","","","","image-keyboard-response","302","522480","0.0-277.0","6155b9c45f96867d9d9631fd","665500ab8938657b03fbdba8","66577af68946f4ed5f7a0ace","407","stimuli/1011001.jpg","1","","prediction_trial","2","","false","","1","true","true","false","false","false","false","[1,2]","011","001","0","","","","","","",""
"","","","","","image-keyboard-response","303","522880","0.0-278.0","6155b9c45f96867d9d9631fd","665500ab8938657b03fbdba8","66577af68946f4ed5f7a0ace","398","stimuli/10110012.jpg"," ","","feedback_trial","1","","","","","","","","","","","","","","","","","","","","",""
"","","","","","image-keyboard-response","304","523320","0.0-279.0","6155b9c45f96867d9d9631fd","665500ab8938657b03fbdba8","66577af68946f4ed5f7a0ace","438","stimuli/0111110.jpg","1","","prediction_trial","2","","false","","0","false","false","false","false","false","false","[0,2,1]","111","110","0","","","","","","",""
"","","","","","image-keyboard-response","305","523641","0.0-280.0","6155b9c45f96867d9d9631fd","665500ab8938657b03fbdba8","66577af68946f4ed5f7a0ace","318","stimuli/01111102.jpg"," ","","feedback_trial","0","","","","","","","","","","","","","","","","","","","","",""
"","","","","","image-keyboard-response","306","524064","0.0-281.0","6155b9c45f96867d9d9631fd","665500ab8938657b03fbdba8","66577af68946f4ed5f7a0ace","421","stimuli/0010101.jpg","1","","prediction_trial","0","","false","","0","false","false","true","true","false","false","[0]","010","101","0","","","","","","",""
"","","","","","image-keyboard-response","307","524441","0.0-282.0","6155b9c45f96867d9d9631fd","665500ab8938657b03fbdba8","66577af68946f4ed5f7a0ace","374","stimuli/00101010.jpg"," ","","feedback_trial","0","","","","","","","","","","","","","","","","","","","","",""
"","","","","","image-keyboard-response","308","524928","0.0-283.0","6155b9c45f96867d9d9631fd","665500ab8938657b03fbdba8","66577af68946f4ed5f7a0ace","467","stimuli/2111000.jpg","1","","prediction_trial","0","","false","","2","true","true","false","false","false","false","[2,1,0]","111","000","0","","","","","","",""
"","","","","","image-keyboard-response","309","526273","0.0-284.0","6155b9c45f96867d9d9631fd","665500ab8938657b03fbdba8","66577af68946f4ed5f7a0ace","1342","stimuli/21110000.jpg"," ","","feedback_trial","2","","","","","","","","","","","","","","","","","","","","",""
"","","","","","image-keyboard-response","310","527159","0.0-285.0","6155b9c45f96867d9d9631fd","665500ab8938657b03fbdba8","66577af68946f4ed5f7a0ace","884","stimuli/2100000.jpg","2","","prediction_trial","2","","true","","2","true","true","true","true","true","true","[2]","100","000","1","","","","","","",""
"","","","","","image-keyboard-response","311","527400","0.0-286.0","6155b9c45f96867d9d9631fd","665500ab8938657b03fbdba8","66577af68946f4ed5f7a0ace","239","stimuli/21000002.jpg"," ","","feedback_trial","2","","","","","","","","","","","","","","","","","","","","",""
"","","","","","image-keyboard-response","312","528072","0.0-287.0","6155b9c45f96867d9d9631fd","665500ab8938657b03fbdba8","66577af68946f4ed5f7a0ace","669","stimuli/1111011.jpg","1","","prediction_trial","0","","false","","1","false","false","false","false","false","false","[2,0,1]","111","011","0","","","","","","",""
"","","","","","image-keyboard-response","313","528809","0.0-288.0","6155b9c45f96867d9d9631fd","665500ab8938657b03fbdba8","66577af68946f4ed5f7a0ace","734","stimuli/11110110.jpg"," ","","feedback_trial","2","","","","","","","","","","","","","","","","","","","","",""
"","","","","","image-keyboard-response","314","529560","0.0-289.0","6155b9c45f96867d9d9631fd","665500ab8938657b03fbdba8","66577af68946f4ed5f7a0ace","733","stimuli/2110111.jpg","2","","prediction_trial","2","","true","","2","false","false","true","true","false","false","[2]","110","111","1","","","","","","",""
"","","","","","image-keyboard-response","315","529864","0.0-290.0","6155b9c45f96867d9d9631fd","665500ab8938657b03fbdba8","66577af68946f4ed5f7a0ace","302","stimuli/21101112.jpg"," ","","feedback_trial","2","","","","","","","","","","","","","","","","","","","","",""
"","","","","","image-keyboard-response","316","530456","0.0-291.0","6155b9c45f96867d9d9631fd","665500ab8938657b03fbdba8","66577af68946f4ed5f7a0ace","589","stimuli/2011010.jpg","2","","prediction_trial","2","","true","","2","true","true","false","false","false","false","[1,2]","011","010","1","","","","","","",""
"","","","","","image-keyboard-response","317","530936","0.0-292.0","6155b9c45f96867d9d9631fd","665500ab8938657b03fbdba8","66577af68946f4ed5f7a0ace","477","stimuli/20110102.jpg"," ","","feedback_trial","1","","","","","","","","","","","","","","","","","","","","",""
"","","","","","survey-html-form","318","554024","0.0-293.0","6155b9c45f96867d9d9631fd","665500ab8938657b03fbdba8","66577af68946f4ed5f7a0ace","23085","","{""feedback"":""no"",""age"":""29"",""gender"":""Female"",""other_gender"":"""",""race"":""White"",""other_race"":"""",""ethnicity"":""Non-Hispanic""}","","exit_survey","","","","","","","","","","","","","","","","no","29","Non-Hispanic","Female","White","0.625","0.625"
