"success","timeout","failed_images","failed_audio","failed_video","trial_type","trial_index","time_elapsed","internal_node_id","prolific_id","prolific_study_id","prolific_session_id","rt","stimulus","response","view_history","trial","character_choice","stimulus_dict","accuracy","correct_response","ball_pos","ego_ball_visible","ego_can_infer","alter_ball_visible","alter_can_infer","collective_ball_visible","collective_can_infer","search_locations","alter_occluders","ego_occluders","accuracy_bool","feedback","age","ethnicity","gender","race","overall_accuracy","bonus"
"true","false","[]","[]","[]","preload","0","1341","0.0-0.0","5654175604212700054a12b1","665500ab8938657b03fbdba8","665792376f27714bd610cced","","","","","","","","","","","","","","","","","","","","","","","","","","",""
"true","","","","","fullscreen","1","9354","0.0-1.0","5654175604212700054a12b1","665500ab8938657b03fbdba8","665792376f27714bd610cced","","","","","","","","","","","","","","","","","","","","","","","","","","",""
"","","","","","html-button-response","2","25278","0.0-2.0","5654175604212700054a12b1","665500ab8938657b03fbdba8","665792376f27714bd610cced","15923","<p><b>Consent Form</b></p> <div style=""text-align:left;background-color:lightgrey; padding:20px; max-width:900px;""><p>Please consider this information carefully before deciding whether to participate in this research.</p> <p>The purpose of this research is to examine which factors influence social judgment and decision-making. You will be asked to make judgements about individuals and actions in social scenarios. We are simply interested in your judgement. The study will take less than 1 hour to complete, and you will receive less than $20 on Prolific. Your compensation and time commitment are specified in the study description. There are no anticipated risks associated with participating in this study. The effects of participating should be comparable to those you would ordinarily experience from viewing a computer monitor and using a mouse or keyboard for a similar amount of time. At the end of the study, we will provide an explanation of the questions that motivate this line of research and will describe the potential implications. </p><p> Your participation in this study is completely voluntary and you may refuse to participate or you may choose to withdraw at any time without penalty or loss of benefits to you which are otherwise entitled. Your participation in this study will remain confidential. No personally identifiable information will be associated with your data. Also, all analyses of the data will be averaged across all the participants, so your individual responses will never be specifically analyzed. </p><p> If you have questions or concerns about your participation or payment, or want to request a summary of research findings, please contact Dr. Jonathan Phillips at Jonathan.S.Phillips@dartmouth.edu. </p><p> Please save a copy of this form for your records. </p><p><b>Agreement: </b>The nature and purpose of this research have been sufficiently explained and I agree to participate in this study. I understand that I am free to withdraw at any time without incurring any penalty. Please consent by clicking the button below to continue. Otherwise, please exit the study at any time. </p>","0","","","","","","","","","","","","","","","","","","","","","","","",""
"","","","","","instructions","3","113511","0.0-3.0-0.0","5654175604212700054a12b1","665500ab8938657b03fbdba8","665792376f27714bd610cced","88231","","","[{""page_index"":0,""viewing_time"":1094},{""page_index"":1,""viewing_time"":14294},{""page_index"":2,""viewing_time"":3230},{""page_index"":3,""viewing_time"":1901},{""page_index"":4,""viewing_time"":1094},{""page_index"":5,""viewing_time"":2276},{""page_index"":6,""viewing_time"":1972},{""page_index"":7,""viewing_time"":1784},{""page_index"":8,""viewing_time"":1485},{""page_index"":9,""viewing_time"":1153},{""page_index"":10,""viewing_time"":48978},{""page_index"":11,""viewing_time"":4365},{""page_index"":12,""viewing_time"":3879},{""page_index"":13,""viewing_time"":726}]","intro","","","","","","","","","","","","","","","","","","","","","",""
"","","","","","image-keyboard-response","4","115783","0.0-3.0-1.0","5654175604212700054a12b1","665500ab8938657b03fbdba8","665792376f27714bd610cced","2270","stimuli/2110100.jpg","2","","prediction_practice","2","{""filepath"":""stimuli/2110100.jpg"",""ball_pos"":2,""ego_ball_visible"":true,""ego_can_infer"":true,""alter_ball_visible"":true,""alter_can_infer"":true,""collective_ball_visible"":true,""collective_can_infer"":true,""search_locations"":[2],""alter_occluders"":""110"",""ego_occluders"":""100""}","true","","","","","","","","","","","","","","","","","","",""
"","","","","","image-keyboard-response","5","116504","0.0-3.0-2.0","5654175604212700054a12b1","665500ab8938657b03fbdba8","665792376f27714bd610cced","718","stimuli/21101002.jpg"," ","","practrice_feedback","2","","","","","","","","","","","","","","","","","","","","",""
"","","","","","image-keyboard-response","6","120526","0.0-3.0-3.0","5654175604212700054a12b1","665500ab8938657b03fbdba8","665792376f27714bd610cced","4021","stimuli/2111010.jpg","0","","prediction_practice","0","{""filepath"":""stimuli/2111010.jpg"",""ball_pos"":2,""ego_ball_visible"":true,""ego_can_infer"":true,""alter_ball_visible"":false,""alter_can_infer"":false,""collective_ball_visible"":false,""collective_can_infer"":false,""search_locations"":[0,2,1],""alter_occluders"":""111"",""ego_occluders"":""010""}","true","","","","","","","","","","","","","","","","","","",""
"","","","","","image-keyboard-response","7","120900","0.0-3.0-4.0","5654175604212700054a12b1","665500ab8938657b03fbdba8","665792376f27714bd610cced","372","stimuli/21110100.jpg"," ","","practrice_feedback","0","","","","","","","","","","","","","","","","","","","","",""
"","","","","","image-keyboard-response","8","124174","0.0-3.0-5.0","5654175604212700054a12b1","665500ab8938657b03fbdba8","665792376f27714bd610cced","3272","stimuli/1101111.jpg","1","","prediction_practice","1","{""filepath"":""stimuli/1101111.jpg"",""ball_pos"":1,""ego_ball_visible"":false,""ego_can_infer"":false,""alter_ball_visible"":true,""alter_can_infer"":true,""collective_ball_visible"":false,""collective_can_infer"":false,""search_locations"":[1],""alter_occluders"":""101"",""ego_occluders"":""111""}","true","","","","","","","","","","","","","","","","","","",""
"","","","","","image-keyboard-response","9","124697","0.0-3.0-6.0","5654175604212700054a12b1","665500ab8938657b03fbdba8","665792376f27714bd610cced","522","stimuli/11011111.jpg"," ","","practrice_feedback","1","","","","","","","","","","","","","","","","","","","","",""
"","","","","","image-keyboard-response","10","126148","0.0-3.0-7.0","5654175604212700054a12b1","665500ab8938657b03fbdba8","665792376f27714bd610cced","1451","stimuli/0110100.jpg","0","","prediction_practice","1","{""filepath"":""stimuli/0110100.jpg"",""ball_pos"":0,""ego_ball_visible"":false,""ego_can_infer"":true,""alter_ball_visible"":false,""alter_can_infer"":false,""collective_ball_visible"":false,""collective_can_infer"":false,""search_locations"":[0,1],""alter_occluders"":""110"",""ego_occluders"":""100""}","false","","","","","","","","","","","","","","","","","","",""
"","","","","","image-keyboard-response","11","127052","0.0-3.0-8.0","5654175604212700054a12b1","665500ab8938657b03fbdba8","665792376f27714bd610cced","903","stimuli/01101001.jpg"," ","","practrice_feedback","0","","","","","","","","","","","","","","","","","","","","",""
"","","","","","image-keyboard-response","12","129757","0.0-3.0-9.0","5654175604212700054a12b1","665500ab8938657b03fbdba8","665792376f27714bd610cced","2703","stimuli/0100101.jpg","0","","prediction_practice","0","{""filepath"":""stimuli/0100101.jpg"",""ball_pos"":0,""ego_ball_visible"":false,""ego_can_infer"":false,""alter_ball_visible"":false,""alter_can_infer"":true,""collective_ball_visible"":false,""collective_can_infer"":false,""search_locations"":[0],""alter_occluders"":""100"",""ego_occluders"":""101""}","true","","","","","","","","","","","","","","","","","","",""
"","","","","","image-keyboard-response","13","130282","0.0-3.0-10.0","5654175604212700054a12b1","665500ab8938657b03fbdba8","665792376f27714bd610cced","522","stimuli/01001010.jpg"," ","","practrice_feedback","0","","","","","","","","","","","","","","","","","","","","",""
"","","","","","image-keyboard-response","14","133536","0.0-3.0-11.0","5654175604212700054a12b1","665500ab8938657b03fbdba8","665792376f27714bd610cced","3251","stimuli/2111101.jpg","0","","prediction_practice","1","{""filepath"":""stimuli/2111101.jpg"",""ball_pos"":2,""ego_ball_visible"":false,""ego_can_infer"":false,""alter_ball_visible"":false,""alter_can_infer"":false,""collective_ball_visible"":false,""collective_can_infer"":false,""search_locations"":[2,0,1],""alter_occluders"":""111"",""ego_occluders"":""101""}","false","","","","","","","","","","","","","","","","","","",""
"","","","","","image-keyboard-response","15","133997","0.0-3.0-12.0","5654175604212700054a12b1","665500ab8938657b03fbdba8","665792376f27714bd610cced","459","stimuli/21111011.jpg"," ","","practrice_feedback","2","","","","","","","","","","","","","","","","","","","","",""
"","","","","","image-keyboard-response","16","135064","0.0-3.0-13.0","5654175604212700054a12b1","665500ab8938657b03fbdba8","665792376f27714bd610cced","1065","stimuli/2011101.jpg","1","","prediction_practice","2","{""filepath"":""stimuli/2011101.jpg"",""ball_pos"":2,""ego_ball_visible"":false,""ego_can_infer"":false,""alter_ball_visible"":false,""alter_can_infer"":false,""collective_ball_visible"":false,""collective_can_infer"":false,""search_locations"":[2,1],""alter_occluders"":""011"",""ego_occluders"":""101""}","false","","","","","","","","","","","","","","","","","","",""
"","","","","","image-keyboard-response","17","135823","0.0-3.0-14.0","5654175604212700054a12b1","665500ab8938657b03fbdba8","665792376f27714bd610cced","759","stimuli/20111012.jpg"," ","","practrice_feedback","2","","","","","","","","","","","","","","","","","","","","",""
"","","","","","image-keyboard-response","18","136667","0.0-3.0-15.0","5654175604212700054a12b1","665500ab8938657b03fbdba8","665792376f27714bd610cced","842","stimuli/2101100.jpg","2","","prediction_practice","0","{""filepath"":""stimuli/2101100.jpg"",""ball_pos"":2,""ego_ball_visible"":true,""ego_can_infer"":true,""alter_ball_visible"":false,""alter_can_infer"":false,""collective_ball_visible"":false,""collective_can_infer"":false,""search_locations"":[2,0],""alter_occluders"":""101"",""ego_occluders"":""100""}","false","","","","","","","","","","","","","","","","","","",""
"","","","","","image-keyboard-response","19","137209","0.0-3.0-16.0","5654175604212700054a12b1","665500ab8938657b03fbdba8","665792376f27714bd610cced","539","stimuli/21011000.jpg"," ","","practrice_feedback","2","","","","","","","","","","","","","","","","","","","","",""
"","","","","","image-keyboard-response","20","140146","0.0-3.0-17.0","5654175604212700054a12b1","665500ab8938657b03fbdba8","665792376f27714bd610cced","2936","stimuli/0001111.jpg","1","","prediction_practice","0","{""filepath"":""stimuli/0001111.jpg"",""ball_pos"":0,""ego_ball_visible"":false,""ego_can_infer"":false,""alter_ball_visible"":true,""alter_can_infer"":true,""collective_ball_visible"":false,""collective_can_infer"":false,""search_locations"":[0],""alter_occluders"":""001"",""ego_occluders"":""111""}","false","","","","","","","","","","","","","","","","","","",""
"","","","","","image-keyboard-response","21","140685","0.0-3.0-18.0","5654175604212700054a12b1","665500ab8938657b03fbdba8","665792376f27714bd610cced","537","stimuli/00011110.jpg"," ","","practrice_feedback","0","","","","","","","","","","","","","","","","","","","","",""
"","","","","","image-keyboard-response","22","141632","0.0-3.0-19.0","5654175604212700054a12b1","665500ab8938657b03fbdba8","665792376f27714bd610cced","944","stimuli/0101001.jpg","0","","prediction_practice","0","{""filepath"":""stimuli/0101001.jpg"",""ball_pos"":0,""ego_ball_visible"":true,""ego_can_infer"":true,""alter_ball_visible"":false,""alter_can_infer"":false,""collective_ball_visible"":false,""collective_can_infer"":false,""search_locations"":[2,0],""alter_occluders"":""101"",""ego_occluders"":""001""}","true","","","","","","","","","","","","","","","","","","",""
"","","","","","image-keyboard-response","23","141934","0.0-3.0-20.0","5654175604212700054a12b1","665500ab8938657b03fbdba8","665792376f27714bd610cced","301","stimuli/01010010.jpg"," ","","practrice_feedback","2","","","","","","","","","","","","","","","","","","","","",""
"","","","","","html-button-response","24","146021","0.0-3.0-21.0","5654175604212700054a12b1","665500ab8938657b03fbdba8","665792376f27714bd610cced","4086","Now that you've had some practice, you'll be tested with a couple of easy trials. If you correctly predict Sam's choice, you'll move on to complete the experiment!","0","","","","","","","","","","","","","","","","","","","","","","","",""
"","","","","","image-keyboard-response","25","147900","0.0-3.0-22.0-0.0","5654175604212700054a12b1","665500ab8938657b03fbdba8","665792376f27714bd610cced","1877","stimuli/0000011.jpg","arrowleft","","comprehension_quiz","","","true","arrowleft","","","","","","","","","","","","","","","","","",""
"","","","","","image-keyboard-response","26","148283","0.0-3.0-22.0-1.0","5654175604212700054a12b1","665500ab8938657b03fbdba8","665792376f27714bd610cced","381","stimuli/00000110.jpg"," ","","comprehension_quiz","","","true"," ","","","","","","","","","","","","","","","","","",""
"","","","","","image-keyboard-response","27","149968","0.0-3.0-22.0-2.0","5654175604212700054a12b1","665500ab8938657b03fbdba8","665792376f27714bd610cced","1683","stimuli/1010010.jpg","arrowdown","","comprehension_quiz","","","true","arrowdown","","","","","","","","","","","","","","","","","",""
"","","","","","image-keyboard-response","28","150250","0.0-3.0-22.0-3.0","5654175604212700054a12b1","665500ab8938657b03fbdba8","665792376f27714bd610cced","280","stimuli/10100101.jpg"," ","","comprehension_quiz","","","true"," ","","","","","","","","","","","","","","","","","",""
"","","","","","html-button-response","29","151782","0.0-4.0","5654175604212700054a12b1","665500ab8938657b03fbdba8","665792376f27714bd610cced","1532","The experiment will now begin.","0","","","","","","","","","","","","","","","","","","","","","","","",""
"","","","","","image-keyboard-response","30","153648","0.0-5.0","5654175604212700054a12b1","665500ab8938657b03fbdba8","665792376f27714bd610cced","1864","stimuli/2101101.jpg","0","","prediction_trial","0","","true","","2","false","false","false","false","false","false","[2,0]","101","101","1","","","","","","",""
"","","","","","image-keyboard-response","31","153962","0.0-6.0","5654175604212700054a12b1","665500ab8938657b03fbdba8","665792376f27714bd610cced","312","stimuli/21011010.jpg"," ","","feedback_trial","2","","","","","","","","","","","","","","","","","","","","",""
"","","","","","image-keyboard-response","32","155607","0.0-7.0","5654175604212700054a12b1","665500ab8938657b03fbdba8","665792376f27714bd610cced","1643","stimuli/2101110.jpg","2","","prediction_trial","0","","false","","2","true","true","false","false","false","false","[0,2]","101","110","0","","","","","","",""
"","","","","","image-keyboard-response","33","155968","0.0-8.0","5654175604212700054a12b1","665500ab8938657b03fbdba8","665792376f27714bd610cced","359","stimuli/21011100.jpg"," ","","feedback_trial","0","","","","","","","","","","","","","","","","","","","","",""
"","","","","","image-keyboard-response","34","157134","0.0-9.0","5654175604212700054a12b1","665500ab8938657b03fbdba8","665792376f27714bd610cced","1166","stimuli/2101100.jpg","2","","prediction_trial","0","","false","","2","true","true","false","false","false","false","[2,0]","101","100","0","","","","","","",""
"","","","","","image-keyboard-response","35","157536","0.0-10.0","5654175604212700054a12b1","665500ab8938657b03fbdba8","665792376f27714bd610cced","402","stimuli/21011000.jpg"," ","","feedback_trial","2","","","","","","","","","","","","","","","","","","","","",""
"","","","","","image-keyboard-response","36","159500","0.0-11.0","5654175604212700054a12b1","665500ab8938657b03fbdba8","665792376f27714bd610cced","1963","stimuli/1010000.jpg","1","","prediction_trial","1","","true","","1","true","true","false","true","false","true","[1]","010","000","1","","","","","","",""
"","","","","","image-keyboard-response","37","159689","0.0-12.0","5654175604212700054a12b1","665500ab8938657b03fbdba8","665792376f27714bd610cced","188","stimuli/10100001.jpg"," ","","feedback_trial","1","","","","","","","","","","","","","","","","","","","","",""
"","","","","","image-keyboard-response","38","160968","0.0-13.0","5654175604212700054a12b1","665500ab8938657b03fbdba8","665792376f27714bd610cced","1276","stimuli/2010110.jpg","2","","prediction_trial","2","","true","","2","true","true","true","true","true","true","[2]","010","110","1","","","","","","",""
"","","","","","image-keyboard-response","39","161252","0.0-14.0","5654175604212700054a12b1","665500ab8938657b03fbdba8","665792376f27714bd610cced","283","stimuli/20101102.jpg"," ","","feedback_trial","2","","","","","","","","","","","","","","","","","","","","",""
"","","","","","image-keyboard-response","40","162764","0.0-15.0","5654175604212700054a12b1","665500ab8938657b03fbdba8","665792376f27714bd610cced","1511","stimuli/0101011.jpg","0","","prediction_trial","0","","true","","0","true","true","false","false","false","false","[0,2]","101","011","1","","","","","","",""
"","","","","","image-keyboard-response","41","163079","0.0-16.0","5654175604212700054a12b1","665500ab8938657b03fbdba8","665792376f27714bd610cced","314","stimuli/01010110.jpg"," ","","feedback_trial","0","","","","","","","","","","","","","","","","","","","","",""
"","","","","","image-keyboard-response","42","164705","0.0-17.0","5654175604212700054a12b1","665500ab8938657b03fbdba8","665792376f27714bd610cced","1626","stimuli/1000010.jpg","1","","prediction_trial","1","","true","","1","false","true","true","true","false","true","[1]","000","010","1","","","","","","",""
"","","","","","image-keyboard-response","43","164946","0.0-18.0","5654175604212700054a12b1","665500ab8938657b03fbdba8","665792376f27714bd610cced","239","stimuli/10000101.jpg"," ","","feedback_trial","1","","","","","","","","","","","","","","","","","","","","",""
"","","","","","image-keyboard-response","44","165686","0.0-19.0","5654175604212700054a12b1","665500ab8938657b03fbdba8","665792376f27714bd610cced","740","stimuli/0011000.jpg","0","","prediction_trial","0","","true","","0","true","true","true","true","true","true","[0]","011","000","1","","","","","","",""
"","","","","","image-keyboard-response","45","165890","0.0-20.0","5654175604212700054a12b1","665500ab8938657b03fbdba8","665792376f27714bd610cced","202","stimuli/00110000.jpg"," ","","feedback_trial","0","","","","","","","","","","","","","","","","","","","","",""
"","","","","","image-keyboard-response","46","166672","0.0-21.0","5654175604212700054a12b1","665500ab8938657b03fbdba8","665792376f27714bd610cced","782","stimuli/0110011.jpg","0","","prediction_trial","0","","true","","0","true","true","false","false","false","false","[1,0]","110","011","1","","","","","","",""
"","","","","","image-keyboard-response","47","166896","0.0-22.0","5654175604212700054a12b1","665500ab8938657b03fbdba8","665792376f27714bd610cced","222","stimuli/01100110.jpg"," ","","feedback_trial","1","","","","","","","","","","","","","","","","","","","","",""
"","","","","","image-keyboard-response","48","170155","0.0-23.0","5654175604212700054a12b1","665500ab8938657b03fbdba8","665792376f27714bd610cced","3256","stimuli/1011000.jpg","1","","prediction_trial","1","","true","","1","true","true","false","false","false","false","[2,1]","011","000","1","","","","","","",""
"","","","","","image-keyboard-response","49","170353","0.0-24.0","5654175604212700054a12b1","665500ab8938657b03fbdba8","665792376f27714bd610cced","197","stimuli/10110001.jpg"," ","","feedback_trial","2","","","","","","","","","","","","","","","","","","","","",""
"","","","","","image-keyboard-response","50","171060","0.0-25.0","5654175604212700054a12b1","665500ab8938657b03fbdba8","665792376f27714bd610cced","704","stimuli/1101101.jpg","1","","prediction_trial","1","","true","","1","true","true","true","true","true","true","[1]","101","101","1","","","","","","",""
"","","","","","image-keyboard-response","51","171225","0.0-26.0","5654175604212700054a12b1","665500ab8938657b03fbdba8","665792376f27714bd610cced","165","stimuli/11011011.jpg"," ","","feedback_trial","1","","","","","","","","","","","","","","","","","","","","",""
"","","","","","image-keyboard-response","52","172969","0.0-27.0","5654175604212700054a12b1","665500ab8938657b03fbdba8","665792376f27714bd610cced","1741","stimuli/0110111.jpg","0","","prediction_trial","0","","true","","0","false","false","false","false","false","false","[0,1]","110","111","1","","","","","","",""
"","","","","","image-keyboard-response","53","173095","0.0-28.0","5654175604212700054a12b1","665500ab8938657b03fbdba8","665792376f27714bd610cced","124","stimuli/01101110.jpg"," ","","feedback_trial","0","","","","","","","","","","","","","","","","","","","","",""
"","","","","","image-keyboard-response","54","173753","0.0-29.0","5654175604212700054a12b1","665500ab8938657b03fbdba8","665792376f27714bd610cced","656","stimuli/0001001.jpg","0","","prediction_trial","0","","true","","0","true","true","true","true","true","true","[0]","001","001","1","","","","","","",""
"","","","","","image-keyboard-response","55","173953","0.0-30.0","5654175604212700054a12b1","665500ab8938657b03fbdba8","665792376f27714bd610cced","197","stimuli/00010010.jpg"," ","","feedback_trial","0","","","","","","","","","","","","","","","","","","","","",""
"","","","","","image-keyboard-response","56","174817","0.0-31.0","5654175604212700054a12b1","665500ab8938657b03fbdba8","665792376f27714bd610cced","863","stimuli/1010110.jpg","0","","prediction_trial","1","","false","","1","false","false","false","true","false","false","[1]","010","110","0","","","","","","",""
"","","","","","image-keyboard-response","57","175360","0.0-32.0","5654175604212700054a12b1","665500ab8938657b03fbdba8","665792376f27714bd610cced","542","stimuli/10101101.jpg"," ","","feedback_trial","1","","","","","","","","","","","","","","","","","","","","",""
"","","","","","image-keyboard-response","58","177830","0.0-33.0","5654175604212700054a12b1","665500ab8938657b03fbdba8","665792376f27714bd610cced","2469","stimuli/2101011.jpg","1","","prediction_trial","0","","false","","2","false","false","false","false","false","false","[2,0]","101","011","0","","","","","","",""
"","","","","","image-keyboard-response","59","178294","0.0-34.0","5654175604212700054a12b1","665500ab8938657b03fbdba8","665792376f27714bd610cced","462","stimuli/21010110.jpg"," ","","feedback_trial","2","","","","","","","","","","","","","","","","","","","","",""
"","","","","","image-keyboard-response","60","178982","0.0-35.0","5654175604212700054a12b1","665500ab8938657b03fbdba8","665792376f27714bd610cced","686","stimuli/0111000.jpg","0","","prediction_trial","1","","false","","0","true","true","false","false","false","false","[1,0,2]","111","000","0","","","","","","",""
"","","","","","image-keyboard-response","61","179218","0.0-36.0","5654175604212700054a12b1","665500ab8938657b03fbdba8","665792376f27714bd610cced","234","stimuli/01110001.jpg"," ","","feedback_trial","1","","","","","","","","","","","","","","","","","","","","",""
"","","","","","image-keyboard-response","62","181510","0.0-37.0","5654175604212700054a12b1","665500ab8938657b03fbdba8","665792376f27714bd610cced","2292","stimuli/2011110.jpg","2","","prediction_trial","1","","false","","2","true","true","false","false","false","false","[2,1]","011","110","0","","","","","","",""
"","","","","","image-keyboard-response","63","181854","0.0-38.0","5654175604212700054a12b1","665500ab8938657b03fbdba8","665792376f27714bd610cced","342","stimuli/20111101.jpg"," ","","feedback_trial","2","","","","","","","","","","","","","","","","","","","","",""
"","","","","","image-keyboard-response","64","182728","0.0-39.0","5654175604212700054a12b1","665500ab8938657b03fbdba8","665792376f27714bd610cced","872","stimuli/2000010.jpg","2","","prediction_trial","2","","true","","2","true","true","true","true","true","true","[2]","000","010","1","","","","","","",""
"","","","","","image-keyboard-response","65","182890","0.0-40.0","5654175604212700054a12b1","665500ab8938657b03fbdba8","665792376f27714bd610cced","160","stimuli/20000102.jpg"," ","","feedback_trial","2","","","","","","","","","","","","","","","","","","","","",""
"","","","","","image-keyboard-response","66","184178","0.0-41.0","5654175604212700054a12b1","665500ab8938657b03fbdba8","665792376f27714bd610cced","1285","stimuli/1100111.jpg","2","","prediction_trial","1","","false","","1","false","false","true","true","false","false","[1]","100","111","0","","","","","","",""
"","","","","","image-keyboard-response","67","184565","0.0-42.0","5654175604212700054a12b1","665500ab8938657b03fbdba8","665792376f27714bd610cced","385","stimuli/11001111.jpg"," ","","feedback_trial","1","","","","","","","","","","","","","","","","","","","","",""
"","","","","","image-keyboard-response","68","186392","0.0-43.0","5654175604212700054a12b1","665500ab8938657b03fbdba8","665792376f27714bd610cced","1825","stimuli/0010111.jpg","0","","prediction_trial","0","","true","","0","false","false","true","true","false","false","[0]","010","111","1","","","","","","",""
"","","","","","image-keyboard-response","69","186712","0.0-44.0","5654175604212700054a12b1","665500ab8938657b03fbdba8","665792376f27714bd610cced","319","stimuli/00101110.jpg"," ","","feedback_trial","0","","","","","","","","","","","","","","","","","","","","",""
"","","","","","image-keyboard-response","70","188075","0.0-45.0","5654175604212700054a12b1","665500ab8938657b03fbdba8","665792376f27714bd610cced","1361","stimuli/1111101.jpg","0","","prediction_trial","2","","false","","1","true","true","false","false","false","false","[0,2,1]","111","101","0","","","","","","",""
"","","","","","image-keyboard-response","71","188482","0.0-46.0","5654175604212700054a12b1","665500ab8938657b03fbdba8","665792376f27714bd610cced","406","stimuli/11111012.jpg"," ","","feedback_trial","0","","","","","","","","","","","","","","","","","","","","",""
"","","","","","image-keyboard-response","72","189245","0.0-47.0","5654175604212700054a12b1","665500ab8938657b03fbdba8","665792376f27714bd610cced","761","stimuli/1100110.jpg","0","","prediction_trial","1","","false","","1","false","false","true","true","false","false","[1]","100","110","0","","","","","","",""
"","","","","","image-keyboard-response","73","189629","0.0-48.0","5654175604212700054a12b1","665500ab8938657b03fbdba8","665792376f27714bd610cced","382","stimuli/11001101.jpg"," ","","feedback_trial","1","","","","","","","","","","","","","","","","","","","","",""
"","","","","","image-keyboard-response","74","190216","0.0-49.0","5654175604212700054a12b1","665500ab8938657b03fbdba8","665792376f27714bd610cced","586","stimuli/1100101.jpg","1","","prediction_trial","1","","true","","1","true","true","true","true","true","true","[1]","100","101","1","","","","","","",""
"","","","","","image-keyboard-response","75","190411","0.0-50.0","5654175604212700054a12b1","665500ab8938657b03fbdba8","665792376f27714bd610cced","193","stimuli/11001011.jpg"," ","","feedback_trial","1","","","","","","","","","","","","","","","","","","","","",""
"","","","","","image-keyboard-response","76","190911","0.0-51.0","5654175604212700054a12b1","665500ab8938657b03fbdba8","665792376f27714bd610cced","498","stimuli/1100100.jpg","1","","prediction_trial","1","","true","","1","true","true","true","true","true","true","[1]","100","100","1","","","","","","",""
"","","","","","image-keyboard-response","77","191092","0.0-52.0","5654175604212700054a12b1","665500ab8938657b03fbdba8","665792376f27714bd610cced","181","stimuli/11001001.jpg"," ","","feedback_trial","1","","","","","","","","","","","","","","","","","","","","",""
"","","","","","image-keyboard-response","78","192825","0.0-53.0","5654175604212700054a12b1","665500ab8938657b03fbdba8","665792376f27714bd610cced","1731","stimuli/1110011.jpg","2","","prediction_trial","1","","false","","1","false","false","false","false","false","false","[0,1]","110","011","0","","","","","","",""
"","","","","","image-keyboard-response","79","193203","0.0-54.0","5654175604212700054a12b1","665500ab8938657b03fbdba8","665792376f27714bd610cced","377","stimuli/11100111.jpg"," ","","feedback_trial","0","","","","","","","","","","","","","","","","","","","","",""
"","","","","","image-keyboard-response","80","193767","0.0-55.0","5654175604212700054a12b1","665500ab8938657b03fbdba8","665792376f27714bd610cced","562","stimuli/2000110.jpg","2","","prediction_trial","2","","true","","2","true","true","true","true","true","true","[2]","000","110","1","","","","","","",""
"","","","","","image-keyboard-response","81","193930","0.0-56.0","5654175604212700054a12b1","665500ab8938657b03fbdba8","665792376f27714bd610cced","160","stimuli/20001102.jpg"," ","","feedback_trial","2","","","","","","","","","","","","","","","","","","","","",""
"","","","","","image-keyboard-response","82","195134","0.0-57.0","5654175604212700054a12b1","665500ab8938657b03fbdba8","665792376f27714bd610cced","1204","stimuli/1000111.jpg","0","","prediction_trial","1","","false","","1","false","false","true","true","false","false","[1]","000","111","0","","","","","","",""
"","","","","","image-keyboard-response","83","195454","0.0-58.0","5654175604212700054a12b1","665500ab8938657b03fbdba8","665792376f27714bd610cced","320","stimuli/10001111.jpg"," ","","feedback_trial","1","","","","","","","","","","","","","","","","","","","","",""
"","","","","","image-keyboard-response","84","196602","0.0-59.0","5654175604212700054a12b1","665500ab8938657b03fbdba8","665792376f27714bd610cced","1145","stimuli/0000101.jpg","0","","prediction_trial","0","","true","","0","false","false","true","true","false","false","[0]","000","101","1","","","","","","",""
"","","","","","image-keyboard-response","85","196877","0.0-60.0","5654175604212700054a12b1","665500ab8938657b03fbdba8","665792376f27714bd610cced","275","stimuli/00001010.jpg"," ","","feedback_trial","0","","","","","","","","","","","","","","","","","","","","",""
"","","","","","image-keyboard-response","86","197758","0.0-61.0","5654175604212700054a12b1","665500ab8938657b03fbdba8","665792376f27714bd610cced","879","stimuli/0001100.jpg","0","","prediction_trial","0","","true","","0","false","true","true","true","false","true","[0]","001","100","1","","","","","","",""
"","","","","","image-keyboard-response","87","198139","0.0-62.0","5654175604212700054a12b1","665500ab8938657b03fbdba8","665792376f27714bd610cced","379","stimuli/00011000.jpg"," ","","feedback_trial","0","","","","","","","","","","","","","","","","","","","","",""
"","","","","","image-keyboard-response","88","199612","0.0-63.0","5654175604212700054a12b1","665500ab8938657b03fbdba8","665792376f27714bd610cced","1472","stimuli/2100111.jpg","0","","prediction_trial","2","","false","","2","false","false","true","true","false","false","[2]","100","111","0","","","","","","",""
"","","","","","image-keyboard-response","89","200156","0.0-64.0","5654175604212700054a12b1","665500ab8938657b03fbdba8","665792376f27714bd610cced","541","stimuli/21001112.jpg"," ","","feedback_trial","2","","","","","","","","","","","","","","","","","","","","",""
"","","","","","image-keyboard-response","90","200798","0.0-65.0","5654175604212700054a12b1","665500ab8938657b03fbdba8","665792376f27714bd610cced","641","stimuli/1010001.jpg","1","","prediction_trial","1","","true","","1","true","true","false","true","false","true","[1]","010","001","1","","","","","","",""
"","","","","","image-keyboard-response","91","200962","0.0-66.0","5654175604212700054a12b1","665500ab8938657b03fbdba8","665792376f27714bd610cced","163","stimuli/10100011.jpg"," ","","feedback_trial","1","","","","","","","","","","","","","","","","","","","","",""
"","","","","","image-keyboard-response","92","202902","0.0-67.0","5654175604212700054a12b1","665500ab8938657b03fbdba8","665792376f27714bd610cced","1937","stimuli/1011101.jpg","1","","prediction_trial","1","","true","","1","true","true","false","false","false","false","[1,2]","011","101","1","","","","","","",""
"","","","","","image-keyboard-response","93","203204","0.0-68.0","5654175604212700054a12b1","665500ab8938657b03fbdba8","665792376f27714bd610cced","301","stimuli/10111011.jpg"," ","","feedback_trial","1","","","","","","","","","","","","","","","","","","","","",""
"","","","","","image-keyboard-response","94","203844","0.0-69.0","5654175604212700054a12b1","665500ab8938657b03fbdba8","665792376f27714bd610cced","638","stimuli/1111100.jpg","1","","prediction_trial","1","","true","","1","true","true","false","false","false","false","[1,2,0]","111","100","1","","","","","","",""
"","","","","","image-keyboard-response","95","204132","0.0-70.0","5654175604212700054a12b1","665500ab8938657b03fbdba8","665792376f27714bd610cced","288","stimuli/11111001.jpg"," ","","feedback_trial","1","","","","","","","","","","","","","","","","","","","","",""
"","","","","","image-keyboard-response","96","205329","0.0-71.0","5654175604212700054a12b1","665500ab8938657b03fbdba8","665792376f27714bd610cced","1195","stimuli/1101010.jpg","1","","prediction_trial","1","","true","","1","false","true","true","true","false","true","[1]","101","010","1","","","","","","",""
"","","","","","image-keyboard-response","97","205514","0.0-72.0","5654175604212700054a12b1","665500ab8938657b03fbdba8","665792376f27714bd610cced","184","stimuli/11010101.jpg"," ","","feedback_trial","1","","","","","","","","","","","","","","","","","","","","",""
"","","","","","image-keyboard-response","98","206492","0.0-73.0","5654175604212700054a12b1","665500ab8938657b03fbdba8","665792376f27714bd610cced","977","stimuli/1110111.jpg","1","","prediction_trial","0","","false","","1","false","false","false","false","false","false","[1,0]","110","111","0","","","","","","",""
"","","","","","image-keyboard-response","99","206651","0.0-74.0","5654175604212700054a12b1","665500ab8938657b03fbdba8","665792376f27714bd610cced","158","stimuli/11101110.jpg"," ","","feedback_trial","1","","","","","","","","","","","","","","","","","","","","",""
"","","","","","image-keyboard-response","100","207193","0.0-75.0","5654175604212700054a12b1","665500ab8938657b03fbdba8","665792376f27714bd610cced","541","stimuli/1100001.jpg","1","","prediction_trial","1","","true","","1","true","true","true","true","true","true","[1]","100","001","1","","","","","","",""
"","","","","","image-keyboard-response","101","207353","0.0-76.0","5654175604212700054a12b1","665500ab8938657b03fbdba8","665792376f27714bd610cced","158","stimuli/11000011.jpg"," ","","feedback_trial","1","","","","","","","","","","","","","","","","","","","","",""
"","","","","","image-keyboard-response","102","209564","0.0-77.0","5654175604212700054a12b1","665500ab8938657b03fbdba8","665792376f27714bd610cced","2209","stimuli/1010011.jpg","1","","prediction_trial","1","","true","","1","false","false","false","true","false","false","[1]","010","011","1","","","","","","",""
"","","","","","image-keyboard-response","103","209886","0.0-78.0","5654175604212700054a12b1","665500ab8938657b03fbdba8","665792376f27714bd610cced","320","stimuli/10100111.jpg"," ","","feedback_trial","1","","","","","","","","","","","","","","","","","","","","",""
"","","","","","image-keyboard-response","104","211475","0.0-79.0","5654175604212700054a12b1","665500ab8938657b03fbdba8","665792376f27714bd610cced","1587","stimuli/0011110.jpg","1","","prediction_trial","0","","false","","0","false","false","true","true","false","false","[0]","011","110","0","","","","","","",""
"","","","","","image-keyboard-response","105","211818","0.0-80.0","5654175604212700054a12b1","665500ab8938657b03fbdba8","665792376f27714bd610cced","341","stimuli/00111100.jpg"," ","","feedback_trial","0","","","","","","","","","","","","","","","","","","","","",""
"","","","","","image-keyboard-response","106","212658","0.0-81.0","5654175604212700054a12b1","665500ab8938657b03fbdba8","665792376f27714bd610cced","838","stimuli/1110010.jpg","0","","prediction_trial","0","","true","","1","false","true","false","false","false","false","[1,0]","110","010","1","","","","","","",""
"","","","","","image-keyboard-response","107","213521","0.0-82.0","5654175604212700054a12b1","665500ab8938657b03fbdba8","665792376f27714bd610cced","862","stimuli/11100100.jpg"," ","","feedback_trial","1","","","","","","","","","","","","","","","","","","","","",""
"","","","","","image-keyboard-response","108","215391","0.0-83.0","5654175604212700054a12b1","665500ab8938657b03fbdba8","665792376f27714bd610cced","1869","stimuli/2010111.jpg","0","","prediction_trial","2","","false","","2","false","false","true","true","false","false","[2]","010","111","0","","","","","","",""
"","","","","","image-keyboard-response","109","215796","0.0-84.0","5654175604212700054a12b1","665500ab8938657b03fbdba8","665792376f27714bd610cced","404","stimuli/20101112.jpg"," ","","feedback_trial","2","","","","","","","","","","","","","","","","","","","","",""
"","","","","","image-keyboard-response","110","216302","0.0-85.0","5654175604212700054a12b1","665500ab8938657b03fbdba8","665792376f27714bd610cced","504","stimuli/0010011.jpg","0","","prediction_trial","0","","true","","0","true","true","true","true","true","true","[0]","010","011","1","","","","","","",""
"","","","","","image-keyboard-response","111","216496","0.0-86.0","5654175604212700054a12b1","665500ab8938657b03fbdba8","665792376f27714bd610cced","192","stimuli/00100110.jpg"," ","","feedback_trial","0","","","","","","","","","","","","","","","","","","","","",""
"","","","","","image-keyboard-response","112","217362","0.0-87.0","5654175604212700054a12b1","665500ab8938657b03fbdba8","665792376f27714bd610cced","865","stimuli/0011111.jpg","0","","prediction_trial","0","","true","","0","false","false","true","true","false","false","[0]","011","111","1","","","","","","",""
"","","","","","image-keyboard-response","113","217638","0.0-88.0","5654175604212700054a12b1","665500ab8938657b03fbdba8","665792376f27714bd610cced","274","stimuli/00111110.jpg"," ","","feedback_trial","0","","","","","","","","","","","","","","","","","","","","",""
"","","","","","image-keyboard-response","114","218259","0.0-89.0","5654175604212700054a12b1","665500ab8938657b03fbdba8","665792376f27714bd610cced","619","stimuli/0010110.jpg","0","","prediction_trial","0","","true","","0","false","false","true","true","false","false","[0]","010","110","1","","","","","","",""
"","","","","","image-keyboard-response","115","218519","0.0-90.0","5654175604212700054a12b1","665500ab8938657b03fbdba8","665792376f27714bd610cced","258","stimuli/00101100.jpg"," ","","feedback_trial","0","","","","","","","","","","","","","","","","","","","","",""
"","","","","","image-keyboard-response","116","219305","0.0-91.0","5654175604212700054a12b1","665500ab8938657b03fbdba8","665792376f27714bd610cced","784","stimuli/1100000.jpg","1","","prediction_trial","1","","true","","1","true","true","true","true","true","true","[1]","100","000","1","","","","","","",""
"","","","","","image-keyboard-response","117","219452","0.0-92.0","5654175604212700054a12b1","665500ab8938657b03fbdba8","665792376f27714bd610cced","146","stimuli/11000001.jpg"," ","","feedback_trial","1","","","","","","","","","","","","","","","","","","","","",""
"","","","","","image-keyboard-response","118","219926","0.0-93.0","5654175604212700054a12b1","665500ab8938657b03fbdba8","665792376f27714bd610cced","473","stimuli/0000001.jpg","0","","prediction_trial","0","","true","","0","true","true","true","true","true","true","[0]","000","001","1","","","","","","",""
"","","","","","image-keyboard-response","119","220072","0.0-94.0","5654175604212700054a12b1","665500ab8938657b03fbdba8","665792376f27714bd610cced","144","stimuli/00000010.jpg"," ","","feedback_trial","0","","","","","","","","","","","","","","","","","","","","",""
"","","","","","image-keyboard-response","120","220589","0.0-95.0","5654175604212700054a12b1","665500ab8938657b03fbdba8","665792376f27714bd610cced","515","stimuli/1101100.jpg","1","","prediction_trial","1","","true","","1","true","true","true","true","true","true","[1]","101","100","1","","","","","","",""
"","","","","","image-keyboard-response","121","220750","0.0-96.0","5654175604212700054a12b1","665500ab8938657b03fbdba8","665792376f27714bd610cced","159","stimuli/11011001.jpg"," ","","feedback_trial","1","","","","","","","","","","","","","","","","","","","","",""
"","","","","","image-keyboard-response","122","222041","0.0-97.0","5654175604212700054a12b1","665500ab8938657b03fbdba8","665792376f27714bd610cced","1289","stimuli/2001110.jpg","2","","prediction_trial","2","","true","","2","true","true","false","true","false","true","[2]","001","110","1","","","","","","",""
"","","","","","image-keyboard-response","123","222195","0.0-98.0","5654175604212700054a12b1","665500ab8938657b03fbdba8","665792376f27714bd610cced","152","stimuli/20011102.jpg"," ","","feedback_trial","2","","","","","","","","","","","","","","","","","","","","",""
"","","","","","image-keyboard-response","124","223059","0.0-99.0","5654175604212700054a12b1","665500ab8938657b03fbdba8","665792376f27714bd610cced","861","stimuli/2100011.jpg","2","","prediction_trial","2","","true","","2","false","false","true","true","false","false","[2]","100","011","1","","","","","","",""
"","","","","","image-keyboard-response","125","223298","0.0-100.0","5654175604212700054a12b1","665500ab8938657b03fbdba8","665792376f27714bd610cced","238","stimuli/21000112.jpg"," ","","feedback_trial","2","","","","","","","","","","","","","","","","","","","","",""
"","","","","","image-keyboard-response","126","224084","0.0-101.0","5654175604212700054a12b1","665500ab8938657b03fbdba8","665792376f27714bd610cced","784","stimuli/2011100.jpg","2","","prediction_trial","2","","true","","2","true","true","false","false","false","false","[1,2]","011","100","1","","","","","","",""
"","","","","","image-keyboard-response","127","224280","0.0-102.0","5654175604212700054a12b1","665500ab8938657b03fbdba8","665792376f27714bd610cced","195","stimuli/20111002.jpg"," ","","feedback_trial","1","","","","","","","","","","","","","","","","","","","","",""
"","","","","","image-keyboard-response","128","224985","0.0-103.0","5654175604212700054a12b1","665500ab8938657b03fbdba8","665792376f27714bd610cced","703","stimuli/2111000.jpg","2","","prediction_trial","0","","false","","2","true","true","false","false","false","false","[0,2,1]","111","000","0","","","","","","",""
"","","","","","image-keyboard-response","129","225268","0.0-104.0","5654175604212700054a12b1","665500ab8938657b03fbdba8","665792376f27714bd610cced","281","stimuli/21110000.jpg"," ","","feedback_trial","0","","","","","","","","","","","","","","","","","","","","",""
"","","","","","image-keyboard-response","130","225909","0.0-105.0","5654175604212700054a12b1","665500ab8938657b03fbdba8","665792376f27714bd610cced","640","stimuli/1000100.jpg","1","","prediction_trial","1","","true","","1","true","true","true","true","true","true","[1]","000","100","1","","","","","","",""
"","","","","","image-keyboard-response","131","226031","0.0-106.0","5654175604212700054a12b1","665500ab8938657b03fbdba8","665792376f27714bd610cced","121","stimuli/10001001.jpg"," ","","feedback_trial","1","","","","","","","","","","","","","","","","","","","","",""
"","","","","","image-keyboard-response","132","226494","0.0-107.0","5654175604212700054a12b1","665500ab8938657b03fbdba8","665792376f27714bd610cced","462","stimuli/0110010.jpg","0","","prediction_trial","0","","true","","0","true","true","false","false","false","false","[1,0]","110","010","1","","","","","","",""
"","","","","","image-keyboard-response","133","226714","0.0-108.0","5654175604212700054a12b1","665500ab8938657b03fbdba8","665792376f27714bd610cced","218","stimuli/01100100.jpg"," ","","feedback_trial","1","","","","","","","","","","","","","","","","","","","","",""
"","","","","","image-keyboard-response","134","227538","0.0-109.0","5654175604212700054a12b1","665500ab8938657b03fbdba8","665792376f27714bd610cced","822","stimuli/1001011.jpg","1","","prediction_trial","1","","true","","1","false","false","true","true","false","false","[1]","001","011","1","","","","","","",""
"","","","","","image-keyboard-response","135","227738","0.0-110.0","5654175604212700054a12b1","665500ab8938657b03fbdba8","665792376f27714bd610cced","199","stimuli/10010111.jpg"," ","","feedback_trial","1","","","","","","","","","","","","","","","","","","","","",""
"","","","","","image-keyboard-response","136","228479","0.0-111.0","5654175604212700054a12b1","665500ab8938657b03fbdba8","665792376f27714bd610cced","738","stimuli/2011111.jpg","0","","prediction_trial","1","","false","","2","false","false","false","false","false","false","[2,1]","011","111","0","","","","","","",""
"","","","","","image-keyboard-response","137","228703","0.0-112.0","5654175604212700054a12b1","665500ab8938657b03fbdba8","665792376f27714bd610cced","223","stimuli/20111111.jpg"," ","","feedback_trial","2","","","","","","","","","","","","","","","","","","","","",""
"","","","","","image-keyboard-response","138","230068","0.0-113.0","5654175604212700054a12b1","665500ab8938657b03fbdba8","665792376f27714bd610cced","1363","stimuli/2110011.jpg","2","","prediction_trial","2","","true","","2","false","false","true","true","false","false","[2]","110","011","1","","","","","","",""
"","","","","","image-keyboard-response","139","230227","0.0-114.0","5654175604212700054a12b1","665500ab8938657b03fbdba8","665792376f27714bd610cced","158","stimuli/21100112.jpg"," ","","feedback_trial","2","","","","","","","","","","","","","","","","","","","","",""
"","","","","","image-keyboard-response","140","230789","0.0-115.0","5654175604212700054a12b1","665500ab8938657b03fbdba8","665792376f27714bd610cced","561","stimuli/0011100.jpg","0","","prediction_trial","0","","true","","0","false","true","true","true","false","true","[0]","011","100","1","","","","","","",""
"","","","","","image-keyboard-response","141","230989","0.0-116.0","5654175604212700054a12b1","665500ab8938657b03fbdba8","665792376f27714bd610cced","198","stimuli/00111000.jpg"," ","","feedback_trial","0","","","","","","","","","","","","","","","","","","","","",""
"","","","","","image-keyboard-response","142","232617","0.0-117.0","5654175604212700054a12b1","665500ab8938657b03fbdba8","665792376f27714bd610cced","1627","stimuli/0010100.jpg","0","","prediction_trial","0","","true","","0","false","true","true","true","false","true","[0]","010","100","1","","","","","","",""
"","","","","","image-keyboard-response","143","232798","0.0-118.0","5654175604212700054a12b1","665500ab8938657b03fbdba8","665792376f27714bd610cced","180","stimuli/00101000.jpg"," ","","feedback_trial","0","","","","","","","","","","","","","","","","","","","","",""
"","","","","","image-keyboard-response","144","233544","0.0-119.0","5654175604212700054a12b1","665500ab8938657b03fbdba8","665792376f27714bd610cced","745","stimuli/0101111.jpg","1","","prediction_trial","2","","false","","0","false","false","false","false","false","false","[0,2]","101","111","0","","","","","","",""
"","","","","","image-keyboard-response","145","233744","0.0-120.0","5654175604212700054a12b1","665500ab8938657b03fbdba8","665792376f27714bd610cced","198","stimuli/01011112.jpg"," ","","feedback_trial","0","","","","","","","","","","","","","","","","","","","","",""
"","","","","","image-keyboard-response","146","234811","0.0-121.0","5654175604212700054a12b1","665500ab8938657b03fbdba8","665792376f27714bd610cced","1066","stimuli/0111110.jpg","2","","prediction_trial","0","","false","","0","false","false","false","false","false","false","[0,1,2]","111","110","0","","","","","","",""
"","","","","","image-keyboard-response","147","235155","0.0-122.0","5654175604212700054a12b1","665500ab8938657b03fbdba8","665792376f27714bd610cced","343","stimuli/01111100.jpg"," ","","feedback_trial","0","","","","","","","","","","","","","","","","","","","","",""
"","","","","","image-keyboard-response","148","235776","0.0-123.0","5654175604212700054a12b1","665500ab8938657b03fbdba8","665792376f27714bd610cced","620","stimuli/1001000.jpg","1","","prediction_trial","1","","true","","1","true","true","true","true","true","true","[1]","001","000","1","","","","","","",""
"","","","","","image-keyboard-response","149","235933","0.0-124.0","5654175604212700054a12b1","665500ab8938657b03fbdba8","665792376f27714bd610cced","155","stimuli/10010001.jpg"," ","","feedback_trial","1","","","","","","","","","","","","","","","","","","","","",""
"","","","","","image-keyboard-response","150","237097","0.0-125.0","5654175604212700054a12b1","665500ab8938657b03fbdba8","665792376f27714bd610cced","1162","stimuli/0100110.jpg","0","","prediction_trial","0","","true","","0","false","false","false","true","false","false","[0]","100","110","1","","","","","","",""
"","","","","","image-keyboard-response","151","237338","0.0-126.0","5654175604212700054a12b1","665500ab8938657b03fbdba8","665792376f27714bd610cced","240","stimuli/01001100.jpg"," ","","feedback_trial","0","","","","","","","","","","","","","","","","","","","","",""
"","","","","","image-keyboard-response","152","237860","0.0-127.0","5654175604212700054a12b1","665500ab8938657b03fbdba8","665792376f27714bd610cced","521","stimuli/0001000.jpg","0","","prediction_trial","0","","true","","0","true","true","true","true","true","true","[0]","001","000","1","","","","","","",""
"","","","","","image-keyboard-response","153","238062","0.0-128.0","5654175604212700054a12b1","665500ab8938657b03fbdba8","665792376f27714bd610cced","200","stimuli/00010000.jpg"," ","","feedback_trial","0","","","","","","","","","","","","","","","","","","","","",""
"","","","","","image-keyboard-response","154","238505","0.0-129.0","5654175604212700054a12b1","665500ab8938657b03fbdba8","665792376f27714bd610cced","441","stimuli/0001010.jpg","0","","prediction_trial","0","","true","","0","true","true","true","true","true","true","[0]","001","010","1","","","","","","",""
"","","","","","image-keyboard-response","155","238726","0.0-130.0","5654175604212700054a12b1","665500ab8938657b03fbdba8","665792376f27714bd610cced","219","stimuli/00010100.jpg"," ","","feedback_trial","0","","","","","","","","","","","","","","","","","","","","",""
"","","","","","image-keyboard-response","156","239408","0.0-131.0","5654175604212700054a12b1","665500ab8938657b03fbdba8","665792376f27714bd610cced","681","stimuli/2001111.jpg","0","","prediction_trial","2","","false","","2","false","false","false","true","false","false","[2]","001","111","0","","","","","","",""
"","","","","","image-keyboard-response","157","239630","0.0-132.0","5654175604212700054a12b1","665500ab8938657b03fbdba8","665792376f27714bd610cced","221","stimuli/20011112.jpg"," ","","feedback_trial","2","","","","","","","","","","","","","","","","","","","","",""
"","","","","","image-keyboard-response","158","240353","0.0-133.0","5654175604212700054a12b1","665500ab8938657b03fbdba8","665792376f27714bd610cced","720","stimuli/2111011.jpg","0","","prediction_trial","0","","true","","2","false","false","false","false","false","false","[1,2,0]","111","011","1","","","","","","",""
"","","","","","image-keyboard-response","159","240552","0.0-134.0","5654175604212700054a12b1","665500ab8938657b03fbdba8","665792376f27714bd610cced","199","stimuli/21110110.jpg"," ","","feedback_trial","1","","","","","","","","","","","","","","","","","","","","",""
"","","","","","image-keyboard-response","160","242500","0.0-135.0","5654175604212700054a12b1","665500ab8938657b03fbdba8","665792376f27714bd610cced","1946","stimuli/1000011.jpg","1","","prediction_trial","1","","true","","1","false","false","true","true","false","false","[1]","000","011","1","","","","","","",""
"","","","","","image-keyboard-response","161","242740","0.0-136.0","5654175604212700054a12b1","665500ab8938657b03fbdba8","665792376f27714bd610cced","238","stimuli/10000111.jpg"," ","","feedback_trial","1","","","","","","","","","","","","","","","","","","","","",""
"","","","","","image-keyboard-response","162","243305","0.0-137.0","5654175604212700054a12b1","665500ab8938657b03fbdba8","665792376f27714bd610cced","563","stimuli/2110110.jpg","2","","prediction_trial","2","","true","","2","true","true","true","true","true","true","[2]","110","110","1","","","","","","",""
"","","","","","image-keyboard-response","163","243447","0.0-138.0","5654175604212700054a12b1","665500ab8938657b03fbdba8","665792376f27714bd610cced","141","stimuli/21101102.jpg"," ","","feedback_trial","2","","","","","","","","","","","","","","","","","","","","",""
"","","","","","image-keyboard-response","164","243989","0.0-139.0","5654175604212700054a12b1","665500ab8938657b03fbdba8","665792376f27714bd610cced","540","stimuli/0000000.jpg","0","","prediction_trial","0","","true","","0","true","true","true","true","true","true","[0]","000","000","1","","","","","","",""
"","","","","","image-keyboard-response","165","244147","0.0-140.0","5654175604212700054a12b1","665500ab8938657b03fbdba8","665792376f27714bd610cced","156","stimuli/00000000.jpg"," ","","feedback_trial","0","","","","","","","","","","","","","","","","","","","","",""
"","","","","","image-keyboard-response","166","244535","0.0-141.0","5654175604212700054a12b1","665500ab8938657b03fbdba8","665792376f27714bd610cced","387","stimuli/0011010.jpg","0","","prediction_trial","0","","true","","0","true","true","true","true","true","true","[0]","011","010","1","","","","","","",""
"","","","","","image-keyboard-response","167","244727","0.0-142.0","5654175604212700054a12b1","665500ab8938657b03fbdba8","665792376f27714bd610cced","191","stimuli/00110100.jpg"," ","","feedback_trial","0","","","","","","","","","","","","","","","","","","","","",""
"","","","","","image-keyboard-response","168","245695","0.0-143.0","5654175604212700054a12b1","665500ab8938657b03fbdba8","665792376f27714bd610cced","965","stimuli/2001000.jpg","2","","prediction_trial","2","","true","","2","true","true","false","true","false","true","[2]","001","000","1","","","","","","",""
"","","","","","image-keyboard-response","169","245869","0.0-144.0","5654175604212700054a12b1","665500ab8938657b03fbdba8","665792376f27714bd610cced","174","stimuli/20010002.jpg"," ","","feedback_trial","2","","","","","","","","","","","","","","","","","","","","",""
"","","","","","image-keyboard-response","170","247157","0.0-145.0","5654175604212700054a12b1","665500ab8938657b03fbdba8","665792376f27714bd610cced","1287","stimuli/0001101.jpg","0","","prediction_trial","0","","true","","0","false","false","true","true","false","false","[0]","001","101","1","","","","","","",""
"","","","","","image-keyboard-response","171","247331","0.0-146.0","5654175604212700054a12b1","665500ab8938657b03fbdba8","665792376f27714bd610cced","173","stimuli/00011010.jpg"," ","","feedback_trial","0","","","","","","","","","","","","","","","","","","","","",""
"","","","","","image-keyboard-response","172","247758","0.0-147.0","5654175604212700054a12b1","665500ab8938657b03fbdba8","665792376f27714bd610cced","425","stimuli/2000000.jpg","2","","prediction_trial","2","","true","","2","true","true","true","true","true","true","[2]","000","000","1","","","","","","",""
"","","","","","image-keyboard-response","173","247931","0.0-148.0","5654175604212700054a12b1","665500ab8938657b03fbdba8","665792376f27714bd610cced","171","stimuli/20000002.jpg"," ","","feedback_trial","2","","","","","","","","","","","","","","","","","","","","",""
"","","","","","image-keyboard-response","174","248373","0.0-149.0","5654175604212700054a12b1","665500ab8938657b03fbdba8","665792376f27714bd610cced","440","stimuli/2100110.jpg","2","","prediction_trial","2","","true","","2","true","true","true","true","true","true","[2]","100","110","1","","","","","","",""
"","","","","","image-keyboard-response","175","248613","0.0-150.0","5654175604212700054a12b1","665500ab8938657b03fbdba8","665792376f27714bd610cced","238","stimuli/21001102.jpg"," ","","feedback_trial","2","","","","","","","","","","","","","","","","","","","","",""
"","","","","","image-keyboard-response","176","250441","0.0-151.0","5654175604212700054a12b1","665500ab8938657b03fbdba8","665792376f27714bd610cced","1826","stimuli/1111010.jpg","1","","prediction_trial","0","","false","","1","false","true","false","false","false","false","[1,2,0]","111","010","0","","","","","","",""
"","","","","","image-keyboard-response","177","250597","0.0-152.0","5654175604212700054a12b1","665500ab8938657b03fbdba8","665792376f27714bd610cced","154","stimuli/11110100.jpg"," ","","feedback_trial","1","","","","","","","","","","","","","","","","","","","","",""
"","","","","","image-keyboard-response","178","251439","0.0-153.0","5654175604212700054a12b1","665500ab8938657b03fbdba8","665792376f27714bd610cced","842","stimuli/2001011.jpg","0","","prediction_trial","2","","false","","2","false","false","false","true","false","false","[2]","001","011","0","","","","","","",""
"","","","","","image-keyboard-response","179","251739","0.0-154.0","5654175604212700054a12b1","665500ab8938657b03fbdba8","665792376f27714bd610cced","298","stimuli/20010112.jpg"," ","","feedback_trial","2","","","","","","","","","","","","","","","","","","","","",""
"","","","","","image-keyboard-response","180","252885","0.0-155.0","5654175604212700054a12b1","665500ab8938657b03fbdba8","665792376f27714bd610cced","1145","stimuli/1010010.jpg","1","","prediction_trial","1","","true","","1","false","true","false","true","false","true","[1]","010","010","1","","","","","","",""
"","","","","","image-keyboard-response","181","253027","0.0-156.0","5654175604212700054a12b1","665500ab8938657b03fbdba8","665792376f27714bd610cced","139","stimuli/10100101.jpg"," ","","feedback_trial","1","","","","","","","","","","","","","","","","","","","","",""
"","","","","","image-keyboard-response","182","253648","0.0-157.0","5654175604212700054a12b1","665500ab8938657b03fbdba8","665792376f27714bd610cced","620","stimuli/0101001.jpg","0","","prediction_trial","0","","true","","0","true","true","false","false","false","false","[2,0]","101","001","1","","","","","","",""
"","","","","","image-keyboard-response","183","253849","0.0-158.0","5654175604212700054a12b1","665500ab8938657b03fbdba8","665792376f27714bd610cced","199","stimuli/01010010.jpg"," ","","feedback_trial","2","","","","","","","","","","","","","","","","","","","","",""
"","","","","","image-keyboard-response","184","254979","0.0-159.0","5654175604212700054a12b1","665500ab8938657b03fbdba8","665792376f27714bd610cced","1127","stimuli/2101001.jpg","2","","prediction_trial","0","","false","","2","false","true","false","false","false","false","[2,0]","101","001","0","","","","","","",""
"","","","","","image-keyboard-response","185","255496","0.0-160.0","5654175604212700054a12b1","665500ab8938657b03fbdba8","665792376f27714bd610cced","517","stimuli/21010010.jpg"," ","","feedback_trial","2","","","","","","","","","","","","","","","","","","","","",""
"","","","","","image-keyboard-response","186","256099","0.0-161.0","5654175604212700054a12b1","665500ab8938657b03fbdba8","665792376f27714bd610cced","601","stimuli/1001110.jpg","0","","prediction_trial","1","","false","","1","false","false","true","true","false","false","[1]","001","110","0","","","","","","",""
"","","","","","image-keyboard-response","187","256319","0.0-162.0","5654175604212700054a12b1","665500ab8938657b03fbdba8","665792376f27714bd610cced","218","stimuli/10011101.jpg"," ","","feedback_trial","1","","","","","","","","","","","","","","","","","","","","",""
"","","","","","image-keyboard-response","188","256822","0.0-163.0","5654175604212700054a12b1","665500ab8938657b03fbdba8","665792376f27714bd610cced","500","stimuli/2000111.jpg","0","","prediction_trial","2","","false","","2","false","false","true","true","false","false","[2]","000","111","0","","","","","","",""
"","","","","","image-keyboard-response","189","257224","0.0-164.0","5654175604212700054a12b1","665500ab8938657b03fbdba8","665792376f27714bd610cced","401","stimuli/20001112.jpg"," ","","feedback_trial","2","","","","","","","","","","","","","","","","","","","","",""
"","","","","","image-keyboard-response","190","257804","0.0-165.0","5654175604212700054a12b1","665500ab8938657b03fbdba8","665792376f27714bd610cced","577","stimuli/2010001.jpg","1","","prediction_trial","2","","false","","2","false","true","true","true","false","true","[2]","010","001","0","","","","","","",""
"","","","","","image-keyboard-response","191","259674","0.0-166.0","5654175604212700054a12b1","665500ab8938657b03fbdba8","665792376f27714bd610cced","1869","stimuli/20100012.jpg"," ","","feedback_trial","2","","","","","","","","","","","","","","","","","","","","",""
"","","","","","image-keyboard-response","192","261019","0.0-167.0","5654175604212700054a12b1","665500ab8938657b03fbdba8","665792376f27714bd610cced","1344","stimuli/2101000.jpg","2","","prediction_trial","0","","false","","2","true","true","false","false","false","false","[0,2]","101","000","0","","","","","","",""
"","","","","","image-keyboard-response","193","261180","0.0-168.0","5654175604212700054a12b1","665500ab8938657b03fbdba8","665792376f27714bd610cced","158","stimuli/21010000.jpg"," ","","feedback_trial","0","","","","","","","","","","","","","","","","","","","","",""
"","","","","","image-keyboard-response","194","261684","0.0-169.0","5654175604212700054a12b1","665500ab8938657b03fbdba8","665792376f27714bd610cced","503","stimuli/2000100.jpg","2","","prediction_trial","2","","true","","2","true","true","true","true","true","true","[2]","000","100","1","","","","","","",""
"","","","","","image-keyboard-response","195","261844","0.0-170.0","5654175604212700054a12b1","665500ab8938657b03fbdba8","665792376f27714bd610cced","158","stimuli/20001002.jpg"," ","","feedback_trial","2","","","","","","","","","","","","","","","","","","","","",""
"","","","","","image-keyboard-response","196","262588","0.0-171.0","5654175604212700054a12b1","665500ab8938657b03fbdba8","665792376f27714bd610cced","744","stimuli/2010101.jpg","2","","prediction_trial","2","","true","","2","false","false","true","true","false","false","[2]","010","101","1","","","","","","",""
"","","","","","image-keyboard-response","197","262828","0.0-172.0","5654175604212700054a12b1","665500ab8938657b03fbdba8","665792376f27714bd610cced","238","stimuli/20101012.jpg"," ","","feedback_trial","2","","","","","","","","","","","","","","","","","","","","",""
"","","","","","image-keyboard-response","198","263291","0.0-173.0","5654175604212700054a12b1","665500ab8938657b03fbdba8","665792376f27714bd610cced","460","stimuli/2101010.jpg","2","","prediction_trial","0","","false","","2","true","true","false","false","false","false","[0,2]","101","010","0","","","","","","",""
"","","","","","image-keyboard-response","199","263472","0.0-174.0","5654175604212700054a12b1","665500ab8938657b03fbdba8","665792376f27714bd610cced","180","stimuli/21010100.jpg"," ","","feedback_trial","0","","","","","","","","","","","","","","","","","","","","",""
"","","","","","image-keyboard-response","200","264984","0.0-175.0","5654175604212700054a12b1","665500ab8938657b03fbdba8","665792376f27714bd610cced","1512","stimuli/2000101.jpg","0","","prediction_trial","2","","false","","2","false","false","true","true","false","false","[2]","000","101","0","","","","","","",""
"","","","","","image-keyboard-response","201","265403","0.0-176.0","5654175604212700054a12b1","665500ab8938657b03fbdba8","665792376f27714bd610cced","416","stimuli/20001012.jpg"," ","","feedback_trial","2","","","","","","","","","","","","","","","","","","","","",""
"","","","","","image-keyboard-response","202","265866","0.0-177.0","5654175604212700054a12b1","665500ab8938657b03fbdba8","665792376f27714bd610cced","462","stimuli/0110001.jpg","0","","prediction_trial","1","","false","","0","true","true","false","false","false","false","[1,0]","110","001","0","","","","","","",""
"","","","","","image-keyboard-response","203","266189","0.0-178.0","5654175604212700054a12b1","665500ab8938657b03fbdba8","665792376f27714bd610cced","321","stimuli/01100011.jpg"," ","","feedback_trial","1","","","","","","","","","","","","","","","","","","","","",""
"","","","","","image-keyboard-response","204","267192","0.0-179.0","5654175604212700054a12b1","665500ab8938657b03fbdba8","665792376f27714bd610cced","1001","stimuli/1111000.jpg","1","","prediction_trial","1","","true","","1","true","true","false","false","false","false","[2,0,1]","111","000","1","","","","","","",""
"","","","","","image-keyboard-response","205","267411","0.0-180.0","5654175604212700054a12b1","665500ab8938657b03fbdba8","665792376f27714bd610cced","218","stimuli/11110001.jpg"," ","","feedback_trial","2","","","","","","","","","","","","","","","","","","","","",""
"","","","","","image-keyboard-response","206","268281","0.0-181.0","5654175604212700054a12b1","665500ab8938657b03fbdba8","665792376f27714bd610cced","867","stimuli/0101110.jpg","1","","prediction_trial","2","","false","","0","false","false","false","false","false","false","[2,0]","101","110","0","","","","","","",""
"","","","","","image-keyboard-response","207","268662","0.0-182.0","5654175604212700054a12b1","665500ab8938657b03fbdba8","665792376f27714bd610cced","380","stimuli/01011102.jpg"," ","","feedback_trial","2","","","","","","","","","","","","","","","","","","","","",""
"","","","","","image-keyboard-response","208","269404","0.0-183.0","5654175604212700054a12b1","665500ab8938657b03fbdba8","665792376f27714bd610cced","741","stimuli/2111010.jpg","2","","prediction_trial","2","","true","","2","true","true","false","false","false","false","[0,2,1]","111","010","1","","","","","","",""
"","","","","","image-keyboard-response","209","269684","0.0-184.0","5654175604212700054a12b1","665500ab8938657b03fbdba8","665792376f27714bd610cced","280","stimuli/21110102.jpg"," ","","feedback_trial","0","","","","","","","","","","","","","","","","","","","","",""
"","","","","","image-keyboard-response","210","270333","0.0-185.0","5654175604212700054a12b1","665500ab8938657b03fbdba8","665792376f27714bd610cced","646","stimuli/1010111.jpg","0","","prediction_trial","1","","false","","1","false","false","false","true","false","false","[1]","010","111","0","","","","","","",""
"","","","","","image-keyboard-response","211","270647","0.0-186.0","5654175604212700054a12b1","665500ab8938657b03fbdba8","665792376f27714bd610cced","314","stimuli/10101111.jpg"," ","","feedback_trial","1","","","","","","","","","","","","","","","","","","","","",""
"","","","","","image-keyboard-response","212","271312","0.0-187.0","5654175604212700054a12b1","665500ab8938657b03fbdba8","665792376f27714bd610cced","662","stimuli/2011001.jpg","0","","prediction_trial","2","","false","","2","false","true","false","false","false","false","[2,1]","011","001","0","","","","","","",""
"","","","","","image-keyboard-response","213","271571","0.0-188.0","5654175604212700054a12b1","665500ab8938657b03fbdba8","665792376f27714bd610cced","259","stimuli/20110012.jpg"," ","","feedback_trial","2","","","","","","","","","","","","","","","","","","","","",""
"","","","","","image-keyboard-response","214","273683","0.0-189.0","5654175604212700054a12b1","665500ab8938657b03fbdba8","665792376f27714bd610cced","2110","stimuli/1101011.jpg","1","","prediction_trial","1","","true","","1","false","false","true","true","false","false","[1]","101","011","1","","","","","","",""
"","","","","","image-keyboard-response","215","273841","0.0-190.0","5654175604212700054a12b1","665500ab8938657b03fbdba8","665792376f27714bd610cced","157","stimuli/11010111.jpg"," ","","feedback_trial","1","","","","","","","","","","","","","","","","","","","","",""
"","","","","","image-keyboard-response","216","275187","0.0-191.0","5654175604212700054a12b1","665500ab8938657b03fbdba8","665792376f27714bd610cced","1344","stimuli/1011010.jpg","1","","prediction_trial","1","","true","","1","false","true","false","false","false","false","[1,2]","011","010","1","","","","","","",""
"","","","","","image-keyboard-response","217","275491","0.0-192.0","5654175604212700054a12b1","665500ab8938657b03fbdba8","665792376f27714bd610cced","302","stimuli/10110101.jpg"," ","","feedback_trial","1","","","","","","","","","","","","","","","","","","","","",""
"","","","","","image-keyboard-response","218","277305","0.0-193.0","5654175604212700054a12b1","665500ab8938657b03fbdba8","665792376f27714bd610cced","1812","stimuli/0100001.jpg","0","","prediction_trial","0","","true","","0","true","true","false","true","false","true","[0]","100","001","1","","","","","","",""
"","","","","","image-keyboard-response","219","277439","0.0-194.0","5654175604212700054a12b1","665500ab8938657b03fbdba8","665792376f27714bd610cced","131","stimuli/01000010.jpg"," ","","feedback_trial","0","","","","","","","","","","","","","","","","","","","","",""
"","","","","","image-keyboard-response","220","278367","0.0-195.0","5654175604212700054a12b1","665500ab8938657b03fbdba8","665792376f27714bd610cced","927","stimuli/0111101.jpg","0","","prediction_trial","1","","false","","0","false","false","false","false","false","false","[1,0,2]","111","101","0","","","","","","",""
"","","","","","image-keyboard-response","221","278592","0.0-196.0","5654175604212700054a12b1","665500ab8938657b03fbdba8","665792376f27714bd610cced","223","stimuli/01111011.jpg"," ","","feedback_trial","1","","","","","","","","","","","","","","","","","","","","",""
"","","","","","image-keyboard-response","222","279255","0.0-197.0","5654175604212700054a12b1","665500ab8938657b03fbdba8","665792376f27714bd610cced","662","stimuli/2010100.jpg","2","","prediction_trial","2","","true","","2","true","true","true","true","true","true","[2]","010","100","1","","","","","","",""
"","","","","","image-keyboard-response","223","279422","0.0-198.0","5654175604212700054a12b1","665500ab8938657b03fbdba8","665792376f27714bd610cced","165","stimuli/20101002.jpg"," ","","feedback_trial","2","","","","","","","","","","","","","","","","","","","","",""
"","","","","","image-keyboard-response","224","281284","0.0-199.0","5654175604212700054a12b1","665500ab8938657b03fbdba8","665792376f27714bd610cced","1859","stimuli/2111101.jpg","0","","prediction_trial","1","","false","","2","false","false","false","false","false","false","[2,0,1]","111","101","0","","","","","","",""
"","","","","","image-keyboard-response","225","281462","0.0-200.0","5654175604212700054a12b1","665500ab8938657b03fbdba8","665792376f27714bd610cced","178","stimuli/21111011.jpg"," ","","feedback_trial","2","","","","","","","","","","","","","","","","","","","","",""
"","","","","","image-keyboard-response","226","282188","0.0-201.0","5654175604212700054a12b1","665500ab8938657b03fbdba8","665792376f27714bd610cced","724","stimuli/2110001.jpg","2","","prediction_trial","2","","true","","2","false","true","true","true","false","true","[2]","110","001","1","","","","","","",""
"","","","","","image-keyboard-response","227","282407","0.0-202.0","5654175604212700054a12b1","665500ab8938657b03fbdba8","665792376f27714bd610cced","217","stimuli/21100012.jpg"," ","","feedback_trial","2","","","","","","","","","","","","","","","","","","","","",""
"","","","","","image-keyboard-response","228","283593","0.0-203.0","5654175604212700054a12b1","665500ab8938657b03fbdba8","665792376f27714bd610cced","1184","stimuli/1111011.jpg","2","","prediction_trial","1","","false","","1","false","false","false","false","false","false","[2,1,0]","111","011","0","","","","","","",""
"","","","","","image-keyboard-response","229","283778","0.0-204.0","5654175604212700054a12b1","665500ab8938657b03fbdba8","665792376f27714bd610cced","184","stimuli/11110111.jpg"," ","","feedback_trial","2","","","","","","","","","","","","","","","","","","","","",""
"","","","","","image-keyboard-response","230","285078","0.0-205.0","5654175604212700054a12b1","665500ab8938657b03fbdba8","665792376f27714bd610cced","1298","stimuli/2111111.jpg","2","","prediction_trial","2","","true","","2","false","false","false","false","false","false","[1,0,2]","111","111","1","","","","","","",""
"","","","","","image-keyboard-response","231","285301","0.0-206.0","5654175604212700054a12b1","665500ab8938657b03fbdba8","665792376f27714bd610cced","220","stimuli/21111112.jpg"," ","","feedback_trial","1","","","","","","","","","","","","","","","","","","","","",""
"","","","","","image-keyboard-response","232","286385","0.0-207.0","5654175604212700054a12b1","665500ab8938657b03fbdba8","665792376f27714bd610cced","1083","stimuli/2110111.jpg","2","","prediction_trial","2","","true","","2","false","false","true","true","false","false","[2]","110","111","1","","","","","","",""
"","","","","","image-keyboard-response","233","286589","0.0-208.0","5654175604212700054a12b1","665500ab8938657b03fbdba8","665792376f27714bd610cced","201","stimuli/21101112.jpg"," ","","feedback_trial","2","","","","","","","","","","","","","","","","","","","","",""
"","","","","","image-keyboard-response","234","287409","0.0-209.0","5654175604212700054a12b1","665500ab8938657b03fbdba8","665792376f27714bd610cced","819","stimuli/2001101.jpg","0","","prediction_trial","2","","false","","2","false","false","false","true","false","false","[2]","001","101","0","","","","","","",""
"","","","","","image-keyboard-response","235","287737","0.0-210.0","5654175604212700054a12b1","665500ab8938657b03fbdba8","665792376f27714bd610cced","326","stimuli/20011012.jpg"," ","","feedback_trial","2","","","","","","","","","","","","","","","","","","","","",""
"","","","","","image-keyboard-response","236","288230","0.0-211.0","5654175604212700054a12b1","665500ab8938657b03fbdba8","665792376f27714bd610cced","490","stimuli/0000011.jpg","0","","prediction_trial","0","","true","","0","true","true","true","true","true","true","[0]","000","011","1","","","","","","",""
"","","","","","image-keyboard-response","237","288430","0.0-212.0","5654175604212700054a12b1","665500ab8938657b03fbdba8","665792376f27714bd610cced","198","stimuli/00000110.jpg"," ","","feedback_trial","0","","","","","","","","","","","","","","","","","","","","",""
"","","","","","image-keyboard-response","238","288972","0.0-213.0","5654175604212700054a12b1","665500ab8938657b03fbdba8","665792376f27714bd610cced","539","stimuli/2100000.jpg","2","","prediction_trial","2","","true","","2","true","true","true","true","true","true","[2]","100","000","1","","","","","","",""
"","","","","","image-keyboard-response","239","289171","0.0-214.0","5654175604212700054a12b1","665500ab8938657b03fbdba8","665792376f27714bd610cced","197","stimuli/21000002.jpg"," ","","feedback_trial","2","","","","","","","","","","","","","","","","","","","","",""
"","","","","","image-keyboard-response","240","289596","0.0-215.0","5654175604212700054a12b1","665500ab8938657b03fbdba8","665792376f27714bd610cced","423","stimuli/0100011.jpg","0","","prediction_trial","0","","true","","0","true","true","false","true","false","true","[0]","100","011","1","","","","","","",""
"","","","","","image-keyboard-response","241","289879","0.0-216.0","5654175604212700054a12b1","665500ab8938657b03fbdba8","665792376f27714bd610cced","281","stimuli/01000110.jpg"," ","","feedback_trial","0","","","","","","","","","","","","","","","","","","","","",""
"","","","","","image-keyboard-response","242","291635","0.0-217.0","5654175604212700054a12b1","665500ab8938657b03fbdba8","665792376f27714bd610cced","1756","stimuli/0000110.jpg","0","","prediction_trial","0","","true","","0","false","false","true","true","false","false","[0]","000","110","1","","","","","","",""
"","","","","","image-keyboard-response","243","291909","0.0-218.0","5654175604212700054a12b1","665500ab8938657b03fbdba8","665792376f27714bd610cced","272","stimuli/00001100.jpg"," ","","feedback_trial","0","","","","","","","","","","","","","","","","","","","","",""
"","","","","","image-keyboard-response","244","292531","0.0-219.0","5654175604212700054a12b1","665500ab8938657b03fbdba8","665792376f27714bd610cced","621","stimuli/1001001.jpg","1","","prediction_trial","1","","true","","1","true","true","true","true","true","true","[1]","001","001","1","","","","","","",""
"","","","","","image-keyboard-response","245","292671","0.0-220.0","5654175604212700054a12b1","665500ab8938657b03fbdba8","665792376f27714bd610cced","138","stimuli/10010011.jpg"," ","","feedback_trial","1","","","","","","","","","","","","","","","","","","","","",""
"","","","","","image-keyboard-response","246","294437","0.0-221.0","5654175604212700054a12b1","665500ab8938657b03fbdba8","665792376f27714bd610cced","1764","stimuli/0110110.jpg","1","","prediction_trial","1","","true","","0","false","false","false","false","false","false","[1,0]","110","110","1","","","","","","",""
"","","","","","image-keyboard-response","247","294757","0.0-222.0","5654175604212700054a12b1","665500ab8938657b03fbdba8","665792376f27714bd610cced","319","stimuli/01101101.jpg"," ","","feedback_trial","1","","","","","","","","","","","","","","","","","","","","",""
"","","","","","image-keyboard-response","248","295399","0.0-223.0","5654175604212700054a12b1","665500ab8938657b03fbdba8","665792376f27714bd610cced","641","stimuli/2110100.jpg","2","","prediction_trial","2","","true","","2","true","true","true","true","true","true","[2]","110","100","1","","","","","","",""
"","","","","","image-keyboard-response","249","295519","0.0-224.0","5654175604212700054a12b1","665500ab8938657b03fbdba8","665792376f27714bd610cced","118","stimuli/21101002.jpg"," ","","feedback_trial","2","","","","","","","","","","","","","","","","","","","","",""
"","","","","","image-keyboard-response","250","296005","0.0-225.0","5654175604212700054a12b1","665500ab8938657b03fbdba8","665792376f27714bd610cced","485","stimuli/1101001.jpg","1","","prediction_trial","1","","true","","1","true","true","true","true","true","true","[1]","101","001","1","","","","","","",""
"","","","","","image-keyboard-response","251","296142","0.0-226.0","5654175604212700054a12b1","665500ab8938657b03fbdba8","665792376f27714bd610cced","137","stimuli/11010011.jpg"," ","","feedback_trial","1","","","","","","","","","","","","","","","","","","","","",""
"","","","","","image-keyboard-response","252","296641","0.0-227.0","5654175604212700054a12b1","665500ab8938657b03fbdba8","665792376f27714bd610cced","498","stimuli/1001101.jpg","1","","prediction_trial","1","","true","","1","true","true","true","true","true","true","[1]","001","101","1","","","","","","",""
"","","","","","image-keyboard-response","253","296765","0.0-228.0","5654175604212700054a12b1","665500ab8938657b03fbdba8","665792376f27714bd610cced","121","stimuli/10011011.jpg"," ","","feedback_trial","1","","","","","","","","","","","","","","","","","","","","",""
"","","","","","image-keyboard-response","254","297631","0.0-229.0","5654175604212700054a12b1","665500ab8938657b03fbdba8","665792376f27714bd610cced","865","stimuli/0100111.jpg","1","","prediction_trial","0","","false","","0","false","false","false","true","false","false","[0]","100","111","0","","","","","","",""
"","","","","","image-keyboard-response","255","297778","0.0-230.0","5654175604212700054a12b1","665500ab8938657b03fbdba8","665792376f27714bd610cced","144","stimuli/01001110.jpg"," ","","feedback_trial","0","","","","","","","","","","","","","","","","","","","","",""
"","","","","","image-keyboard-response","256","298276","0.0-231.0","5654175604212700054a12b1","665500ab8938657b03fbdba8","665792376f27714bd610cced","499","stimuli/0001011.jpg","0","","prediction_trial","0","","true","","0","true","true","true","true","true","true","[0]","001","011","1","","","","","","",""
"","","","","","image-keyboard-response","257","298431","0.0-232.0","5654175604212700054a12b1","665500ab8938657b03fbdba8","665792376f27714bd610cced","153","stimuli/00010110.jpg"," ","","feedback_trial","0","","","","","","","","","","","","","","","","","","","","",""
"","","","","","image-keyboard-response","258","299861","0.0-233.0","5654175604212700054a12b1","665500ab8938657b03fbdba8","665792376f27714bd610cced","1429","stimuli/2011101.jpg","0","","prediction_trial","2","","false","","2","false","false","false","false","false","false","[2,1]","011","101","0","","","","","","",""
"","","","","","image-keyboard-response","259","300021","0.0-234.0","5654175604212700054a12b1","665500ab8938657b03fbdba8","665792376f27714bd610cced","159","stimuli/20111012.jpg"," ","","feedback_trial","2","","","","","","","","","","","","","","","","","","","","",""
"","","","","","image-keyboard-response","260","301630","0.0-235.0","5654175604212700054a12b1","665500ab8938657b03fbdba8","665792376f27714bd610cced","1608","stimuli/2000011.jpg","2","","prediction_trial","2","","true","","2","false","false","true","true","false","false","[2]","000","011","1","","","","","","",""
"","","","","","image-keyboard-response","261","301837","0.0-236.0","5654175604212700054a12b1","665500ab8938657b03fbdba8","665792376f27714bd610cced","204","stimuli/20000112.jpg"," ","","feedback_trial","2","","","","","","","","","","","","","","","","","","","","",""
"","","","","","image-keyboard-response","262","302592","0.0-237.0","5654175604212700054a12b1","665500ab8938657b03fbdba8","665792376f27714bd610cced","753","stimuli/0111100.jpg","0","","prediction_trial","1","","false","","0","false","true","false","false","false","false","[1,2,0]","111","100","0","","","","","","",""
"","","","","","image-keyboard-response","263","302760","0.0-238.0","5654175604212700054a12b1","665500ab8938657b03fbdba8","665792376f27714bd610cced","167","stimuli/01111001.jpg"," ","","feedback_trial","1","","","","","","","","","","","","","","","","","","","","",""
"","","","","","image-keyboard-response","264","303239","0.0-239.0","5654175604212700054a12b1","665500ab8938657b03fbdba8","665792376f27714bd610cced","478","stimuli/0010001.jpg","0","","prediction_trial","0","","true","","0","true","true","true","true","true","true","[0]","010","001","1","","","","","","",""
"","","","","","image-keyboard-response","265","303381","0.0-240.0","5654175604212700054a12b1","665500ab8938657b03fbdba8","665792376f27714bd610cced","140","stimuli/00100010.jpg"," ","","feedback_trial","0","","","","","","","","","","","","","","","","","","","","",""
"","","","","","image-keyboard-response","266","303795","0.0-241.0","5654175604212700054a12b1","665500ab8938657b03fbdba8","665792376f27714bd610cced","411","stimuli/0111001.jpg","0","","prediction_trial","0","","true","","0","true","true","false","false","false","false","[2,0,1]","111","001","1","","","","","","",""
"","","","","","image-keyboard-response","267","303981","0.0-242.0","5654175604212700054a12b1","665500ab8938657b03fbdba8","665792376f27714bd610cced","186","stimuli/01110010.jpg"," ","","feedback_trial","2","","","","","","","","","","","","","","","","","","","","",""
"","","","","","image-keyboard-response","268","304797","0.0-243.0","5654175604212700054a12b1","665500ab8938657b03fbdba8","665792376f27714bd610cced","814","stimuli/0000100.jpg","0","","prediction_trial","0","","true","","0","false","true","true","true","false","true","[0]","000","100","1","","","","","","",""
"","","","","","image-keyboard-response","269","304996","0.0-244.0","5654175604212700054a12b1","665500ab8938657b03fbdba8","665792376f27714bd610cced","199","stimuli/00001000.jpg"," ","","feedback_trial","0","","","","","","","","","","","","","","","","","","","","",""
"","","","","","image-keyboard-response","270","306187","0.0-245.0","5654175604212700054a12b1","665500ab8938657b03fbdba8","665792376f27714bd610cced","1188","stimuli/1110110.jpg","0","","prediction_trial","0","","true","","1","false","false","false","false","false","false","[1,0]","110","110","1","","","","","","",""
"","","","","","image-keyboard-response","271","306402","0.0-246.0","5654175604212700054a12b1","665500ab8938657b03fbdba8","665792376f27714bd610cced","213","stimuli/11101100.jpg"," ","","feedback_trial","1","","","","","","","","","","","","","","","","","","","","",""
"","","","","","image-keyboard-response","272","307707","0.0-247.0","5654175604212700054a12b1","665500ab8938657b03fbdba8","665792376f27714bd610cced","1305","stimuli/1001111.jpg","0","","prediction_trial","1","","false","","1","false","false","true","true","false","false","[1]","001","111","0","","","","","","",""
"","","","","","image-keyboard-response","273","307927","0.0-248.0","5654175604212700054a12b1","665500ab8938657b03fbdba8","665792376f27714bd610cced","218","stimuli/10011111.jpg"," ","","feedback_trial","1","","","","","","","","","","","","","","","","","","","","",""
"","","","","","image-keyboard-response","274","308453","0.0-249.0","5654175604212700054a12b1","665500ab8938657b03fbdba8","665792376f27714bd610cced","524","stimuli/2100100.jpg","2","","prediction_trial","2","","true","","2","true","true","true","true","true","true","[2]","100","100","1","","","","","","",""
"","","","","","image-keyboard-response","275","308613","0.0-250.0","5654175604212700054a12b1","665500ab8938657b03fbdba8","665792376f27714bd610cced","158","stimuli/21001002.jpg"," ","","feedback_trial","2","","","","","","","","","","","","","","","","","","","","",""
"","","","","","image-keyboard-response","276","309800","0.0-251.0","5654175604212700054a12b1","665500ab8938657b03fbdba8","665792376f27714bd610cced","1186","stimuli/1110100.jpg","1","","prediction_trial","1","","true","","1","true","true","false","false","false","false","[1,0]","110","100","1","","","","","","",""
"","","","","","image-keyboard-response","277","310034","0.0-252.0","5654175604212700054a12b1","665500ab8938657b03fbdba8","665792376f27714bd610cced","232","stimuli/11101001.jpg"," ","","feedback_trial","1","","","","","","","","","","","","","","","","","","","","",""
"","","","","","image-keyboard-response","278","310594","0.0-253.0","5654175604212700054a12b1","665500ab8938657b03fbdba8","665792376f27714bd610cced","559","stimuli/0010000.jpg","0","","prediction_trial","0","","true","","0","true","true","true","true","true","true","[0]","010","000","1","","","","","","",""
"","","","","","image-keyboard-response","279","310725","0.0-254.0","5654175604212700054a12b1","665500ab8938657b03fbdba8","665792376f27714bd610cced","128","stimuli/00100000.jpg"," ","","feedback_trial","0","","","","","","","","","","","","","","","","","","","","",""
"","","","","","image-keyboard-response","280","311701","0.0-255.0","5654175604212700054a12b1","665500ab8938657b03fbdba8","665792376f27714bd610cced","975","stimuli/1101110.jpg","1","","prediction_trial","1","","true","","1","false","false","true","true","false","false","[1]","101","110","1","","","","","","",""
"","","","","","image-keyboard-response","281","311943","0.0-256.0","5654175604212700054a12b1","665500ab8938657b03fbdba8","665792376f27714bd610cced","241","stimuli/11011101.jpg"," ","","feedback_trial","1","","","","","","","","","","","","","","","","","","","","",""
"","","","","","image-keyboard-response","282","312870","0.0-257.0","5654175604212700054a12b1","665500ab8938657b03fbdba8","665792376f27714bd610cced","926","stimuli/2100001.jpg","1","","prediction_trial","2","","false","","2","false","true","true","true","false","true","[2]","100","001","0","","","","","","",""
"","","","","","image-keyboard-response","283","315755","0.0-258.0","5654175604212700054a12b1","665500ab8938657b03fbdba8","665792376f27714bd610cced","2884","stimuli/21000012.jpg"," ","","feedback_trial","2","","","","","","","","","","","","","","","","","","","","",""
"","","","","","image-keyboard-response","284","316484","0.0-259.0","5654175604212700054a12b1","665500ab8938657b03fbdba8","665792376f27714bd610cced","726","stimuli/0000111.jpg","0","","prediction_trial","0","","true","","0","false","false","true","true","false","false","[0]","000","111","1","","","","","","",""
"","","","","","image-keyboard-response","285","316739","0.0-260.0","5654175604212700054a12b1","665500ab8938657b03fbdba8","665792376f27714bd610cced","254","stimuli/00001110.jpg"," ","","feedback_trial","0","","","","","","","","","","","","","","","","","","","","",""
"","","","","","image-keyboard-response","286","317590","0.0-261.0","5654175604212700054a12b1","665500ab8938657b03fbdba8","665792376f27714bd610cced","848","stimuli/0101100.jpg","0","","prediction_trial","0","","true","","0","false","true","false","false","false","false","[2,0]","101","100","1","","","","","","",""
"","","","","","image-keyboard-response","287","317822","0.0-262.0","5654175604212700054a12b1","665500ab8938657b03fbdba8","665792376f27714bd610cced","231","stimuli/01011000.jpg"," ","","feedback_trial","2","","","","","","","","","","","","","","","","","","","","",""
"","","","","","image-keyboard-response","288","318716","0.0-263.0","5654175604212700054a12b1","665500ab8938657b03fbdba8","665792376f27714bd610cced","892","stimuli/2001001.jpg","2","","prediction_trial","2","","true","","2","false","true","false","true","false","true","[2]","001","001","1","","","","","","",""
"","","","","","image-keyboard-response","289","318871","0.0-264.0","5654175604212700054a12b1","665500ab8938657b03fbdba8","665792376f27714bd610cced","153","stimuli/20010012.jpg"," ","","feedback_trial","2","","","","","","","","","","","","","","","","","","","","",""
"","","","","","image-keyboard-response","290","319773","0.0-265.0","5654175604212700054a12b1","665500ab8938657b03fbdba8","665792376f27714bd610cced","899","stimuli/1111001.jpg","1","","prediction_trial","2","","false","","1","true","true","false","false","false","false","[2,1,0]","111","001","0","","","","","","",""
"","","","","","image-keyboard-response","291","319873","0.0-266.0","5654175604212700054a12b1","665500ab8938657b03fbdba8","665792376f27714bd610cced","99","stimuli/11110012.jpg"," ","","feedback_trial","2","","","","","","","","","","","","","","","","","","","","",""
"","","","","","image-keyboard-response","292","320774","0.0-267.0","5654175604212700054a12b1","665500ab8938657b03fbdba8","665792376f27714bd610cced","901","stimuli/1110000.jpg","1","","prediction_trial","0","","false","","1","true","true","false","false","false","false","[1,0]","110","000","0","","","","","","",""
"","","","","","image-keyboard-response","293","320895","0.0-268.0","5654175604212700054a12b1","665500ab8938657b03fbdba8","665792376f27714bd610cced","118","stimuli/11100000.jpg"," ","","feedback_trial","1","","","","","","","","","","","","","","","","","","","","",""
"","","","","","image-keyboard-response","294","322280","0.0-269.0","5654175604212700054a12b1","665500ab8938657b03fbdba8","665792376f27714bd610cced","1385","stimuli/2011011.jpg","2","","prediction_trial","2","","true","","2","false","false","false","false","false","false","[2,1]","011","011","1","","","","","","",""
"","","","","","image-keyboard-response","295","322446","0.0-270.0","5654175604212700054a12b1","665500ab8938657b03fbdba8","665792376f27714bd610cced","163","stimuli/20110112.jpg"," ","","feedback_trial","2","","","","","","","","","","","","","","","","","","","","",""
"","","","","","image-keyboard-response","296","325399","0.0-271.0","5654175604212700054a12b1","665500ab8938657b03fbdba8","665792376f27714bd610cced","2952","stimuli/1001010.jpg","1","","prediction_trial","1","","true","","1","false","true","true","true","false","true","[1]","001","010","1","","","","","","",""
"","","","","","image-keyboard-response","297","325683","0.0-272.0","5654175604212700054a12b1","665500ab8938657b03fbdba8","665792376f27714bd610cced","282","stimuli/10010101.jpg"," ","","feedback_trial","1","","","","","","","","","","","","","","","","","","","","",""
"","","","","","image-keyboard-response","298","328808","0.0-273.0","5654175604212700054a12b1","665500ab8938657b03fbdba8","665792376f27714bd610cced","3124","stimuli/2001010.jpg","2","","prediction_trial","2","","true","","2","true","true","false","true","false","true","[2]","001","010","1","","","","","","",""
"","","","","","image-keyboard-response","299","328949","0.0-274.0","5654175604212700054a12b1","665500ab8938657b03fbdba8","665792376f27714bd610cced","138","stimuli/20010102.jpg"," ","","feedback_trial","2","","","","","","","","","","","","","","","","","","","","",""
"","","","","","image-keyboard-response","300","329916","0.0-275.0","5654175604212700054a12b1","665500ab8938657b03fbdba8","665792376f27714bd610cced","967","stimuli/1110101.jpg","1","","prediction_trial","1","","true","","1","true","true","false","false","false","false","[1,0]","110","101","1","","","","","","",""
"","","","","","image-keyboard-response","301","330090","0.0-276.0","5654175604212700054a12b1","665500ab8938657b03fbdba8","665792376f27714bd610cced","172","stimuli/11101011.jpg"," ","","feedback_trial","1","","","","","","","","","","","","","","","","","","","","",""
"","","","","","image-keyboard-response","302","331394","0.0-277.0","5654175604212700054a12b1","665500ab8938657b03fbdba8","665792376f27714bd610cced","1302","stimuli/2110101.jpg","0","","prediction_trial","2","","false","","2","false","false","true","true","false","false","[2]","110","101","0","","","","","","",""
"","","","","","image-keyboard-response","303","331594","0.0-278.0","5654175604212700054a12b1","665500ab8938657b03fbdba8","665792376f27714bd610cced","198","stimuli/21101012.jpg"," ","","feedback_trial","2","","","","","","","","","","","","","","","","","","","","",""
"","","","","","image-keyboard-response","304","332097","0.0-279.0","5654175604212700054a12b1","665500ab8938657b03fbdba8","665792376f27714bd610cced","501","stimuli/2110010.jpg","2","","prediction_trial","2","","true","","2","true","true","true","true","true","true","[2]","110","010","1","","","","","","",""
"","","","","","image-keyboard-response","305","332256","0.0-280.0","5654175604212700054a12b1","665500ab8938657b03fbdba8","665792376f27714bd610cced","159","stimuli/21100102.jpg"," ","","feedback_trial","2","","","","","","","","","","","","","","","","","","","","",""
"","","","","","image-keyboard-response","306","332734","0.0-281.0","5654175604212700054a12b1","665500ab8938657b03fbdba8","665792376f27714bd610cced","476","stimuli/0101010.jpg","0","","prediction_trial","0","","true","","0","true","true","false","false","false","false","[0,2]","101","010","1","","","","","","",""
"","","","","","image-keyboard-response","307","332916","0.0-282.0","5654175604212700054a12b1","665500ab8938657b03fbdba8","665792376f27714bd610cced","180","stimuli/01010100.jpg"," ","","feedback_trial","0","","","","","","","","","","","","","","","","","","","","",""
"","","","","","image-keyboard-response","308","333421","0.0-283.0","5654175604212700054a12b1","665500ab8938657b03fbdba8","665792376f27714bd610cced","505","stimuli/0110000.jpg","0","","prediction_trial","1","","false","","0","true","true","false","false","false","false","[1,0]","110","000","0","","","","","","",""
"","","","","","image-keyboard-response","309","333621","0.0-284.0","5654175604212700054a12b1","665500ab8938657b03fbdba8","665792376f27714bd610cced","198","stimuli/01100001.jpg"," ","","feedback_trial","1","","","","","","","","","","","","","","","","","","","","",""
"","","","","","image-keyboard-response","310","334667","0.0-285.0","5654175604212700054a12b1","665500ab8938657b03fbdba8","665792376f27714bd610cced","1044","stimuli/0101000.jpg","0","","prediction_trial","0","","true","","0","true","true","false","false","false","false","[2,0]","101","000","1","","","","","","",""
"","","","","","image-keyboard-response","311","334867","0.0-286.0","5654175604212700054a12b1","665500ab8938657b03fbdba8","665792376f27714bd610cced","197","stimuli/01010000.jpg"," ","","feedback_trial","2","","","","","","","","","","","","","","","","","","","","",""
"","","","","","image-keyboard-response","312","336051","0.0-287.0","5654175604212700054a12b1","665500ab8938657b03fbdba8","665792376f27714bd610cced","1183","stimuli/0001111.jpg","0","","prediction_trial","0","","true","","0","false","false","true","true","false","false","[0]","001","111","1","","","","","","",""
"","","","","","image-keyboard-response","313","336296","0.0-288.0","5654175604212700054a12b1","665500ab8938657b03fbdba8","665792376f27714bd610cced","241","stimuli/00011110.jpg"," ","","feedback_trial","0","","","","","","","","","","","","","","","","","","","","",""
"","","","","","image-keyboard-response","314","337197","0.0-289.0","5654175604212700054a12b1","665500ab8938657b03fbdba8","665792376f27714bd610cced","900","stimuli/1101111.jpg","1","","prediction_trial","1","","true","","1","false","false","true","true","false","false","[1]","101","111","1","","","","","","",""
"","","","","","image-keyboard-response","315","337617","0.0-290.0","5654175604212700054a12b1","665500ab8938657b03fbdba8","665792376f27714bd610cced","419","stimuli/11011111.jpg"," ","","feedback_trial","1","","","","","","","","","","","","","","","","","","","","",""
"","","","","","image-keyboard-response","316","338181","0.0-291.0","5654175604212700054a12b1","665500ab8938657b03fbdba8","665792376f27714bd610cced","562","stimuli/0011001.jpg","0","","prediction_trial","0","","true","","0","true","true","true","true","true","true","[0]","011","001","1","","","","","","",""
"","","","","","image-keyboard-response","317","338321","0.0-292.0","5654175604212700054a12b1","665500ab8938657b03fbdba8","665792376f27714bd610cced","139","stimuli/00110010.jpg"," ","","feedback_trial","0","","","","","","","","","","","","","","","","","","","","",""
"","","","","","survey-html-form","318","348598","0.0-293.0","5654175604212700054a12b1","665500ab8938657b03fbdba8","665792376f27714bd610cced","10276","","{""feedback"":""None"",""age"":""33"",""gender"":""Male"",""other_gender"":"""",""race"":""Asian"",""other_race"":"""",""ethnicity"":""Non-Hispanic""}","","exit_survey","","","","","","","","","","","","","","","","None","33","Non-Hispanic","Male","Asian","0.6805555555555556","0.6805555555555556"
