"success","timeout","failed_images","failed_audio","failed_video","trial_type","trial_index","time_elapsed","internal_node_id","prolific_id","prolific_study_id","prolific_session_id","rt","stimulus","response","view_history","trial","character_choice","stimulus_dict","accuracy","correct_response","ball_pos","ego_ball_visible","ego_can_infer","alter_ball_visible","alter_can_infer","collective_ball_visible","collective_can_infer","search_locations","alter_occluders","ego_occluders","accuracy_bool","feedback","age","ethnicity","gender","race","overall_accuracy","bonus"
"true","false","[]","[]","[]","preload","0","8786","0.0-0.0","6320a1395b4e05325c746101","665500ab8938657b03fbdba8","665792ac3431f6ebb88869f1","","","","","","","","","","","","","","","","","","","","","","","","","","",""
"true","","","","","fullscreen","1","10767","0.0-1.0","6320a1395b4e05325c746101","665500ab8938657b03fbdba8","665792ac3431f6ebb88869f1","","","","","","","","","","","","","","","","","","","","","","","","","","",""
"","","","","","html-button-response","2","12192","0.0-2.0","6320a1395b4e05325c746101","665500ab8938657b03fbdba8","665792ac3431f6ebb88869f1","1425","<p><b>Consent Form</b></p> <div style=""text-align:left;background-color:lightgrey; padding:20px; max-width:900px;""><p>Please consider this information carefully before deciding whether to participate in this research.</p> <p>The purpose of this research is to examine which factors influence social judgment and decision-making. You will be asked to make judgements about individuals and actions in social scenarios. We are simply interested in your judgement. The study will take less than 1 hour to complete, and you will receive less than $20 on Prolific. Your compensation and time commitment are specified in the study description. There are no anticipated risks associated with participating in this study. The effects of participating should be comparable to those you would ordinarily experience from viewing a computer monitor and using a mouse or keyboard for a similar amount of time. At the end of the study, we will provide an explanation of the questions that motivate this line of research and will describe the potential implications. </p><p> Your participation in this study is completely voluntary and you may refuse to participate or you may choose to withdraw at any time without penalty or loss of benefits to you which are otherwise entitled. Your participation in this study will remain confidential. No personally identifiable information will be associated with your data. Also, all analyses of the data will be averaged across all the participants, so your individual responses will never be specifically analyzed. </p><p> If you have questions or concerns about your participation or payment, or want to request a summary of research findings, please contact Dr. Jonathan Phillips at Jonathan.S.Phillips@dartmouth.edu. </p><p> Please save a copy of this form for your records. </p><p><b>Agreement: </b>The nature and purpose of this research have been sufficiently explained and I agree to participate in this study. I understand that I am free to withdraw at any time without incurring any penalty. Please consent by clicking the button below to continue. Otherwise, please exit the study at any time. </p>","0","","","","","","","","","","","","","","","","","","","","","","","",""
"","","","","","instructions","3","83259","0.0-3.0-0.0","6320a1395b4e05325c746101","665500ab8938657b03fbdba8","665792ac3431f6ebb88869f1","71066","","","[{""page_index"":0,""viewing_time"":992},{""page_index"":1,""viewing_time"":1267},{""page_index"":2,""viewing_time"":1700},{""page_index"":3,""viewing_time"":3239},{""page_index"":4,""viewing_time"":1692},{""page_index"":5,""viewing_time"":28088},{""page_index"":6,""viewing_time"":2641},{""page_index"":7,""viewing_time"":2485},{""page_index"":8,""viewing_time"":3440},{""page_index"":9,""viewing_time"":2183},{""page_index"":10,""viewing_time"":10099},{""page_index"":11,""viewing_time"":8482},{""page_index"":12,""viewing_time"":3548},{""page_index"":13,""viewing_time"":1210}]","intro","","","","","","","","","","","","","","","","","","","","","",""
"","","","","","image-keyboard-response","4","85833","0.0-3.0-1.0","6320a1395b4e05325c746101","665500ab8938657b03fbdba8","665792ac3431f6ebb88869f1","2572","stimuli/1111110.jpg","0","","prediction_practice","1","{""filepath"":""stimuli/1111110.jpg"",""ball_pos"":1,""ego_ball_visible"":false,""ego_can_infer"":false,""alter_ball_visible"":false,""alter_can_infer"":false,""collective_ball_visible"":false,""collective_can_infer"":false,""search_locations"":[0,1,2],""alter_occluders"":""111"",""ego_occluders"":""110""}","false","","","","","","","","","","","","","","","","","","",""
"","","","","","image-keyboard-response","5","89262","0.0-3.0-2.0","6320a1395b4e05325c746101","665500ab8938657b03fbdba8","665792ac3431f6ebb88869f1","3429","stimuli/11111101.jpg"," ","","practrice_feedback","0","","","","","","","","","","","","","","","","","","","","",""
"","","","","","image-keyboard-response","6","90182","0.0-3.0-3.0","6320a1395b4e05325c746101","665500ab8938657b03fbdba8","665792ac3431f6ebb88869f1","919","stimuli/0001000.jpg","0","","prediction_practice","0","{""filepath"":""stimuli/0001000.jpg"",""ball_pos"":0,""ego_ball_visible"":true,""ego_can_infer"":true,""alter_ball_visible"":true,""alter_can_infer"":true,""collective_ball_visible"":true,""collective_can_infer"":true,""search_locations"":[0],""alter_occluders"":""001"",""ego_occluders"":""000""}","true","","","","","","","","","","","","","","","","","","",""
"","","","","","image-keyboard-response","7","90961","0.0-3.0-4.0","6320a1395b4e05325c746101","665500ab8938657b03fbdba8","665792ac3431f6ebb88869f1","779","stimuli/00010000.jpg"," ","","practrice_feedback","0","","","","","","","","","","","","","","","","","","","","",""
"","","","","","image-keyboard-response","8","91732","0.0-3.0-5.0","6320a1395b4e05325c746101","665500ab8938657b03fbdba8","665792ac3431f6ebb88869f1","770","stimuli/1011001.jpg","1","","prediction_practice","1","{""filepath"":""stimuli/1011001.jpg"",""ball_pos"":1,""ego_ball_visible"":true,""ego_can_infer"":true,""alter_ball_visible"":false,""alter_can_infer"":false,""collective_ball_visible"":false,""collective_can_infer"":false,""search_locations"":[1,2],""alter_occluders"":""011"",""ego_occluders"":""001""}","true","","","","","","","","","","","","","","","","","","",""
"","","","","","image-keyboard-response","9","92303","0.0-3.0-6.0","6320a1395b4e05325c746101","665500ab8938657b03fbdba8","665792ac3431f6ebb88869f1","570","stimuli/10110011.jpg"," ","","practrice_feedback","1","","","","","","","","","","","","","","","","","","","","",""
"","","","","","image-keyboard-response","10","93362","0.0-3.0-7.0","6320a1395b4e05325c746101","665500ab8938657b03fbdba8","665792ac3431f6ebb88869f1","1057","stimuli/1010110.jpg","1","","prediction_practice","1","{""filepath"":""stimuli/1010110.jpg"",""ball_pos"":1,""ego_ball_visible"":false,""ego_can_infer"":false,""alter_ball_visible"":false,""alter_can_infer"":true,""collective_ball_visible"":false,""collective_can_infer"":false,""search_locations"":[1],""alter_occluders"":""010"",""ego_occluders"":""110""}","true","","","","","","","","","","","","","","","","","","",""
"","","","","","image-keyboard-response","11","93922","0.0-3.0-8.0","6320a1395b4e05325c746101","665500ab8938657b03fbdba8","665792ac3431f6ebb88869f1","560","stimuli/10101101.jpg"," ","","practrice_feedback","1","","","","","","","","","","","","","","","","","","","","",""
"","","","","","image-keyboard-response","12","95111","0.0-3.0-9.0","6320a1395b4e05325c746101","665500ab8938657b03fbdba8","665792ac3431f6ebb88869f1","1189","stimuli/1000010.jpg","1","","prediction_practice","1","{""filepath"":""stimuli/1000010.jpg"",""ball_pos"":1,""ego_ball_visible"":false,""ego_can_infer"":true,""alter_ball_visible"":true,""alter_can_infer"":true,""collective_ball_visible"":false,""collective_can_infer"":true,""search_locations"":[1],""alter_occluders"":""000"",""ego_occluders"":""010""}","true","","","","","","","","","","","","","","","","","","",""
"","","","","","image-keyboard-response","13","95523","0.0-3.0-10.0","6320a1395b4e05325c746101","665500ab8938657b03fbdba8","665792ac3431f6ebb88869f1","412","stimuli/10000101.jpg"," ","","practrice_feedback","1","","","","","","","","","","","","","","","","","","","","",""
"","","","","","image-keyboard-response","14","96682","0.0-3.0-11.0","6320a1395b4e05325c746101","665500ab8938657b03fbdba8","665792ac3431f6ebb88869f1","1159","stimuli/2100110.jpg","2","","prediction_practice","2","{""filepath"":""stimuli/2100110.jpg"",""ball_pos"":2,""ego_ball_visible"":true,""ego_can_infer"":true,""alter_ball_visible"":true,""alter_can_infer"":true,""collective_ball_visible"":true,""collective_can_infer"":true,""search_locations"":[2],""alter_occluders"":""100"",""ego_occluders"":""110""}","true","","","","","","","","","","","","","","","","","","",""
"","","","","","image-keyboard-response","15","97182","0.0-3.0-12.0","6320a1395b4e05325c746101","665500ab8938657b03fbdba8","665792ac3431f6ebb88869f1","500","stimuli/21001102.jpg"," ","","practrice_feedback","2","","","","","","","","","","","","","","","","","","","","",""
"","","","","","image-keyboard-response","16","98042","0.0-3.0-13.0","6320a1395b4e05325c746101","665500ab8938657b03fbdba8","665792ac3431f6ebb88869f1","860","stimuli/0111000.jpg","0","","prediction_practice","0","{""filepath"":""stimuli/0111000.jpg"",""ball_pos"":0,""ego_ball_visible"":true,""ego_can_infer"":true,""alter_ball_visible"":false,""alter_can_infer"":false,""collective_ball_visible"":false,""collective_can_infer"":false,""search_locations"":[2,1,0],""alter_occluders"":""111"",""ego_occluders"":""000""}","true","","","","","","","","","","","","","","","","","","",""
"","","","","","image-keyboard-response","17","98462","0.0-3.0-14.0","6320a1395b4e05325c746101","665500ab8938657b03fbdba8","665792ac3431f6ebb88869f1","419","stimuli/01110000.jpg"," ","","practrice_feedback","2","","","","","","","","","","","","","","","","","","","","",""
"","","","","","image-keyboard-response","18","99111","0.0-3.0-15.0","6320a1395b4e05325c746101","665500ab8938657b03fbdba8","665792ac3431f6ebb88869f1","647","stimuli/1100000.jpg","1","","prediction_practice","1","{""filepath"":""stimuli/1100000.jpg"",""ball_pos"":1,""ego_ball_visible"":true,""ego_can_infer"":true,""alter_ball_visible"":true,""alter_can_infer"":true,""collective_ball_visible"":true,""collective_can_infer"":true,""search_locations"":[1],""alter_occluders"":""100"",""ego_occluders"":""000""}","true","","","","","","","","","","","","","","","","","","",""
"","","","","","image-keyboard-response","19","99492","0.0-3.0-16.0","6320a1395b4e05325c746101","665500ab8938657b03fbdba8","665792ac3431f6ebb88869f1","381","stimuli/11000001.jpg"," ","","practrice_feedback","1","","","","","","","","","","","","","","","","","","","","",""
"","","","","","image-keyboard-response","20","100523","0.0-3.0-17.0","6320a1395b4e05325c746101","665500ab8938657b03fbdba8","665792ac3431f6ebb88869f1","1031","stimuli/2001001.jpg","2","","prediction_practice","2","{""filepath"":""stimuli/2001001.jpg"",""ball_pos"":2,""ego_ball_visible"":false,""ego_can_infer"":true,""alter_ball_visible"":false,""alter_can_infer"":true,""collective_ball_visible"":false,""collective_can_infer"":true,""search_locations"":[2],""alter_occluders"":""001"",""ego_occluders"":""001""}","true","","","","","","","","","","","","","","","","","","",""
"","","","","","image-keyboard-response","21","100863","0.0-3.0-18.0","6320a1395b4e05325c746101","665500ab8938657b03fbdba8","665792ac3431f6ebb88869f1","338","stimuli/20010012.jpg"," ","","practrice_feedback","2","","","","","","","","","","","","","","","","","","","","",""
"","","","","","image-keyboard-response","22","102063","0.0-3.0-19.0","6320a1395b4e05325c746101","665500ab8938657b03fbdba8","665792ac3431f6ebb88869f1","1199","stimuli/0110110.jpg","0","","prediction_practice","0","{""filepath"":""stimuli/0110110.jpg"",""ball_pos"":0,""ego_ball_visible"":false,""ego_can_infer"":false,""alter_ball_visible"":false,""alter_can_infer"":false,""collective_ball_visible"":false,""collective_can_infer"":false,""search_locations"":[1,0],""alter_occluders"":""110"",""ego_occluders"":""110""}","true","","","","","","","","","","","","","","","","","","",""
"","","","","","image-keyboard-response","23","102392","0.0-3.0-20.0","6320a1395b4e05325c746101","665500ab8938657b03fbdba8","665792ac3431f6ebb88869f1","328","stimuli/01101100.jpg"," ","","practrice_feedback","1","","","","","","","","","","","","","","","","","","","","",""
"","","","","","html-button-response","24","104683","0.0-3.0-21.0","6320a1395b4e05325c746101","665500ab8938657b03fbdba8","665792ac3431f6ebb88869f1","2291","Now that you've had some practice, you'll be tested with a couple of easy trials. If you correctly predict Sam's choice, you'll move on to complete the experiment!","0","","","","","","","","","","","","","","","","","","","","","","","",""
"","","","","","image-keyboard-response","25","106012","0.0-3.0-22.0-0.0","6320a1395b4e05325c746101","665500ab8938657b03fbdba8","665792ac3431f6ebb88869f1","1328","stimuli/0000011.jpg","arrowleft","","comprehension_quiz","","","true","arrowleft","","","","","","","","","","","","","","","","","",""
"","","","","","image-keyboard-response","26","106713","0.0-3.0-22.0-1.0","6320a1395b4e05325c746101","665500ab8938657b03fbdba8","665792ac3431f6ebb88869f1","700","stimuli/00000110.jpg"," ","","comprehension_quiz","","","true"," ","","","","","","","","","","","","","","","","","",""
"","","","","","image-keyboard-response","27","107554","0.0-3.0-22.0-2.0","6320a1395b4e05325c746101","665500ab8938657b03fbdba8","665792ac3431f6ebb88869f1","841","stimuli/1010010.jpg","arrowdown","","comprehension_quiz","","","true","arrowdown","","","","","","","","","","","","","","","","","",""
"","","","","","image-keyboard-response","28","108743","0.0-3.0-22.0-3.0","6320a1395b4e05325c746101","665500ab8938657b03fbdba8","665792ac3431f6ebb88869f1","1189","stimuli/10100101.jpg"," ","","comprehension_quiz","","","true"," ","","","","","","","","","","","","","","","","","",""
"","","","","","html-button-response","29","110809","0.0-4.0","6320a1395b4e05325c746101","665500ab8938657b03fbdba8","665792ac3431f6ebb88869f1","2066","The experiment will now begin.","0","","","","","","","","","","","","","","","","","","","","","","","",""
"","","","","","image-keyboard-response","30","111942","0.0-5.0","6320a1395b4e05325c746101","665500ab8938657b03fbdba8","665792ac3431f6ebb88869f1","1133","stimuli/0011100.jpg","0","","prediction_trial","0","","true","","0","false","true","true","true","false","true","[0]","011","100","1","","","","","","",""
"","","","","","image-keyboard-response","31","112572","0.0-6.0","6320a1395b4e05325c746101","665500ab8938657b03fbdba8","665792ac3431f6ebb88869f1","630","stimuli/00111000.jpg"," ","","feedback_trial","0","","","","","","","","","","","","","","","","","","","","",""
"","","","","","image-keyboard-response","32","113212","0.0-7.0","6320a1395b4e05325c746101","665500ab8938657b03fbdba8","665792ac3431f6ebb88869f1","639","stimuli/1000100.jpg","1","","prediction_trial","1","","true","","1","true","true","true","true","true","true","[1]","000","100","1","","","","","","",""
"","","","","","image-keyboard-response","33","113592","0.0-8.0","6320a1395b4e05325c746101","665500ab8938657b03fbdba8","665792ac3431f6ebb88869f1","380","stimuli/10001001.jpg"," ","","feedback_trial","1","","","","","","","","","","","","","","","","","","","","",""
"","","","","","image-keyboard-response","34","114263","0.0-9.0","6320a1395b4e05325c746101","665500ab8938657b03fbdba8","665792ac3431f6ebb88869f1","671","stimuli/2110110.jpg","2","","prediction_trial","2","","true","","2","true","true","true","true","true","true","[2]","110","110","1","","","","","","",""
"","","","","","image-keyboard-response","35","114632","0.0-10.0","6320a1395b4e05325c746101","665500ab8938657b03fbdba8","665792ac3431f6ebb88869f1","368","stimuli/21101102.jpg"," ","","feedback_trial","2","","","","","","","","","","","","","","","","","","","","",""
"","","","","","image-keyboard-response","36","115611","0.0-11.0","6320a1395b4e05325c746101","665500ab8938657b03fbdba8","665792ac3431f6ebb88869f1","979","stimuli/2000001.jpg","2","","prediction_trial","2","","true","","2","false","true","true","true","false","true","[2]","000","001","1","","","","","","",""
"","","","","","image-keyboard-response","37","115841","0.0-12.0","6320a1395b4e05325c746101","665500ab8938657b03fbdba8","665792ac3431f6ebb88869f1","228","stimuli/20000012.jpg"," ","","feedback_trial","2","","","","","","","","","","","","","","","","","","","","",""
"","","","","","image-keyboard-response","38","116331","0.0-13.0","6320a1395b4e05325c746101","665500ab8938657b03fbdba8","665792ac3431f6ebb88869f1","490","stimuli/0000001.jpg","0","","prediction_trial","0","","true","","0","true","true","true","true","true","true","[0]","000","001","1","","","","","","",""
"","","","","","image-keyboard-response","39","116612","0.0-14.0","6320a1395b4e05325c746101","665500ab8938657b03fbdba8","665792ac3431f6ebb88869f1","282","stimuli/00000010.jpg"," ","","feedback_trial","0","","","","","","","","","","","","","","","","","","","","",""
"","","","","","image-keyboard-response","40","117862","0.0-15.0","6320a1395b4e05325c746101","665500ab8938657b03fbdba8","665792ac3431f6ebb88869f1","1249","stimuli/0100110.jpg","1","","prediction_trial","0","","false","","0","false","false","false","true","false","false","[0]","100","110","0","","","","","","",""
"","","","","","image-keyboard-response","41","118502","0.0-16.0","6320a1395b4e05325c746101","665500ab8938657b03fbdba8","665792ac3431f6ebb88869f1","641","stimuli/01001100.jpg"," ","","feedback_trial","0","","","","","","","","","","","","","","","","","","","","",""
"","","","","","image-keyboard-response","42","119122","0.0-17.0","6320a1395b4e05325c746101","665500ab8938657b03fbdba8","665792ac3431f6ebb88869f1","619","stimuli/2111000.jpg","2","","prediction_trial","1","","false","","2","true","true","false","false","false","false","[1,0,2]","111","000","0","","","","","","",""
"","","","","","image-keyboard-response","43","121843","0.0-18.0","6320a1395b4e05325c746101","665500ab8938657b03fbdba8","665792ac3431f6ebb88869f1","2722","stimuli/21110001.jpg"," ","","feedback_trial","1","","","","","","","","","","","","","","","","","","","","",""
"","","","","","image-keyboard-response","44","122872","0.0-19.0","6320a1395b4e05325c746101","665500ab8938657b03fbdba8","665792ac3431f6ebb88869f1","1029","stimuli/1111111.jpg","0","","prediction_trial","0","","true","","1","false","false","false","false","false","false","[0,2,1]","111","111","1","","","","","","",""
"","","","","","image-keyboard-response","45","123272","0.0-20.0","6320a1395b4e05325c746101","665500ab8938657b03fbdba8","665792ac3431f6ebb88869f1","399","stimuli/11111110.jpg"," ","","feedback_trial","0","","","","","","","","","","","","","","","","","","","","",""
"","","","","","image-keyboard-response","46","124022","0.0-21.0","6320a1395b4e05325c746101","665500ab8938657b03fbdba8","665792ac3431f6ebb88869f1","748","stimuli/2001101.jpg","2","","prediction_trial","2","","true","","2","false","false","false","true","false","false","[2]","001","101","1","","","","","","",""
"","","","","","image-keyboard-response","47","124542","0.0-22.0","6320a1395b4e05325c746101","665500ab8938657b03fbdba8","665792ac3431f6ebb88869f1","520","stimuli/20011012.jpg"," ","","feedback_trial","2","","","","","","","","","","","","","","","","","","","","",""
"","","","","","image-keyboard-response","48","125062","0.0-23.0","6320a1395b4e05325c746101","665500ab8938657b03fbdba8","665792ac3431f6ebb88869f1","520","stimuli/0101101.jpg","0","","prediction_trial","0","","true","","0","false","false","false","false","false","false","[0,2]","101","101","1","","","","","","",""
"","","","","","image-keyboard-response","49","125492","0.0-24.0","6320a1395b4e05325c746101","665500ab8938657b03fbdba8","665792ac3431f6ebb88869f1","429","stimuli/01011010.jpg"," ","","feedback_trial","0","","","","","","","","","","","","","","","","","","","","",""
"","","","","","image-keyboard-response","50","126202","0.0-25.0","6320a1395b4e05325c746101","665500ab8938657b03fbdba8","665792ac3431f6ebb88869f1","709","stimuli/0010110.jpg","0","","prediction_trial","0","","true","","0","false","false","true","true","false","false","[0]","010","110","1","","","","","","",""
"","","","","","image-keyboard-response","51","126552","0.0-26.0","6320a1395b4e05325c746101","665500ab8938657b03fbdba8","665792ac3431f6ebb88869f1","350","stimuli/00101100.jpg"," ","","feedback_trial","0","","","","","","","","","","","","","","","","","","","","",""
"","","","","","image-keyboard-response","52","127062","0.0-27.0","6320a1395b4e05325c746101","665500ab8938657b03fbdba8","665792ac3431f6ebb88869f1","508","stimuli/2101001.jpg","2","","prediction_trial","2","","true","","2","false","true","false","false","false","false","[2,0]","101","001","1","","","","","","",""
"","","","","","image-keyboard-response","53","127513","0.0-28.0","6320a1395b4e05325c746101","665500ab8938657b03fbdba8","665792ac3431f6ebb88869f1","451","stimuli/21010012.jpg"," ","","feedback_trial","2","","","","","","","","","","","","","","","","","","","","",""
"","","","","","image-keyboard-response","54","128252","0.0-29.0","6320a1395b4e05325c746101","665500ab8938657b03fbdba8","665792ac3431f6ebb88869f1","738","stimuli/2110100.jpg","0","","prediction_trial","2","","false","","2","true","true","true","true","true","true","[2]","110","100","0","","","","","","",""
"","","","","","image-keyboard-response","55","128812","0.0-30.0","6320a1395b4e05325c746101","665500ab8938657b03fbdba8","665792ac3431f6ebb88869f1","560","stimuli/21101002.jpg"," ","","feedback_trial","2","","","","","","","","","","","","","","","","","","","","",""
"","","","","","image-keyboard-response","56","129402","0.0-31.0","6320a1395b4e05325c746101","665500ab8938657b03fbdba8","665792ac3431f6ebb88869f1","589","stimuli/0010010.jpg","0","","prediction_trial","0","","true","","0","true","true","true","true","true","true","[0]","010","010","1","","","","","","",""
"","","","","","image-keyboard-response","57","129653","0.0-32.0","6320a1395b4e05325c746101","665500ab8938657b03fbdba8","665792ac3431f6ebb88869f1","250","stimuli/00100100.jpg"," ","","feedback_trial","0","","","","","","","","","","","","","","","","","","","","",""
"","","","","","image-keyboard-response","58","130722","0.0-33.0","6320a1395b4e05325c746101","665500ab8938657b03fbdba8","665792ac3431f6ebb88869f1","1069","stimuli/2100111.jpg","0","","prediction_trial","2","","false","","2","false","false","true","true","false","false","[2]","100","111","0","","","","","","",""
"","","","","","image-keyboard-response","59","131252","0.0-34.0","6320a1395b4e05325c746101","665500ab8938657b03fbdba8","665792ac3431f6ebb88869f1","529","stimuli/21001112.jpg"," ","","feedback_trial","2","","","","","","","","","","","","","","","","","","","","",""
"","","","","","image-keyboard-response","60","131792","0.0-35.0","6320a1395b4e05325c746101","665500ab8938657b03fbdba8","665792ac3431f6ebb88869f1","541","stimuli/1100001.jpg","1","","prediction_trial","1","","true","","1","true","true","true","true","true","true","[1]","100","001","1","","","","","","",""
"","","","","","image-keyboard-response","61","132092","0.0-36.0","6320a1395b4e05325c746101","665500ab8938657b03fbdba8","665792ac3431f6ebb88869f1","299","stimuli/11000011.jpg"," ","","feedback_trial","1","","","","","","","","","","","","","","","","","","","","",""
"","","","","","image-keyboard-response","62","132652","0.0-37.0","6320a1395b4e05325c746101","665500ab8938657b03fbdba8","665792ac3431f6ebb88869f1","559","stimuli/1110000.jpg","1","","prediction_trial","1","","true","","1","true","true","false","false","false","false","[0,1]","110","000","1","","","","","","",""
"","","","","","image-keyboard-response","63","132902","0.0-38.0","6320a1395b4e05325c746101","665500ab8938657b03fbdba8","665792ac3431f6ebb88869f1","249","stimuli/11100001.jpg"," ","","feedback_trial","0","","","","","","","","","","","","","","","","","","","","",""
"","","","","","image-keyboard-response","64","133662","0.0-39.0","6320a1395b4e05325c746101","665500ab8938657b03fbdba8","665792ac3431f6ebb88869f1","759","stimuli/1010010.jpg","1","","prediction_trial","1","","true","","1","false","true","false","true","false","true","[1]","010","010","1","","","","","","",""
"","","","","","image-keyboard-response","65","133872","0.0-40.0","6320a1395b4e05325c746101","665500ab8938657b03fbdba8","665792ac3431f6ebb88869f1","209","stimuli/10100101.jpg"," ","","feedback_trial","1","","","","","","","","","","","","","","","","","","","","",""
"","","","","","image-keyboard-response","66","134812","0.0-41.0","6320a1395b4e05325c746101","665500ab8938657b03fbdba8","665792ac3431f6ebb88869f1","939","stimuli/2001001.jpg","2","","prediction_trial","2","","true","","2","false","true","false","true","false","true","[2]","001","001","1","","","","","","",""
"","","","","","image-keyboard-response","67","135052","0.0-42.0","6320a1395b4e05325c746101","665500ab8938657b03fbdba8","665792ac3431f6ebb88869f1","239","stimuli/20010012.jpg"," ","","feedback_trial","2","","","","","","","","","","","","","","","","","","","","",""
"","","","","","image-keyboard-response","68","136172","0.0-43.0","6320a1395b4e05325c746101","665500ab8938657b03fbdba8","665792ac3431f6ebb88869f1","1120","stimuli/2110111.jpg","1","","prediction_trial","2","","false","","2","false","false","true","true","false","false","[2]","110","111","0","","","","","","",""
"","","","","","image-keyboard-response","69","136522","0.0-44.0","6320a1395b4e05325c746101","665500ab8938657b03fbdba8","665792ac3431f6ebb88869f1","350","stimuli/21101112.jpg"," ","","feedback_trial","2","","","","","","","","","","","","","","","","","","","","",""
"","","","","","image-keyboard-response","70","137682","0.0-45.0","6320a1395b4e05325c746101","665500ab8938657b03fbdba8","665792ac3431f6ebb88869f1","1159","stimuli/1011011.jpg","1","","prediction_trial","1","","true","","1","false","false","false","false","false","false","[2,1]","011","011","1","","","","","","",""
"","","","","","image-keyboard-response","71","137862","0.0-46.0","6320a1395b4e05325c746101","665500ab8938657b03fbdba8","665792ac3431f6ebb88869f1","180","stimuli/10110111.jpg"," ","","feedback_trial","2","","","","","","","","","","","","","","","","","","","","",""
"","","","","","image-keyboard-response","72","138592","0.0-47.0","6320a1395b4e05325c746101","665500ab8938657b03fbdba8","665792ac3431f6ebb88869f1","727","stimuli/0001011.jpg","0","","prediction_trial","0","","true","","0","true","true","true","true","true","true","[0]","001","011","1","","","","","","",""
"","","","","","image-keyboard-response","73","138762","0.0-48.0","6320a1395b4e05325c746101","665500ab8938657b03fbdba8","665792ac3431f6ebb88869f1","171","stimuli/00010110.jpg"," ","","feedback_trial","0","","","","","","","","","","","","","","","","","","","","",""
"","","","","","image-keyboard-response","74","141752","0.0-49.0","6320a1395b4e05325c746101","665500ab8938657b03fbdba8","665792ac3431f6ebb88869f1","2990","stimuli/1101010.jpg","1","","prediction_trial","1","","true","","1","false","true","true","true","false","true","[1]","101","010","1","","","","","","",""
"","","","","","image-keyboard-response","75","141982","0.0-50.0","6320a1395b4e05325c746101","665500ab8938657b03fbdba8","665792ac3431f6ebb88869f1","229","stimuli/11010101.jpg"," ","","feedback_trial","1","","","","","","","","","","","","","","","","","","","","",""
"","","","","","image-keyboard-response","76","142553","0.0-51.0","6320a1395b4e05325c746101","665500ab8938657b03fbdba8","665792ac3431f6ebb88869f1","571","stimuli/0111000.jpg","0","","prediction_trial","0","","true","","0","true","true","false","false","false","false","[2,1,0]","111","000","1","","","","","","",""
"","","","","","image-keyboard-response","77","142802","0.0-52.0","6320a1395b4e05325c746101","665500ab8938657b03fbdba8","665792ac3431f6ebb88869f1","249","stimuli/01110000.jpg"," ","","feedback_trial","2","","","","","","","","","","","","","","","","","","","","",""
"","","","","","image-keyboard-response","78","143382","0.0-53.0","6320a1395b4e05325c746101","665500ab8938657b03fbdba8","665792ac3431f6ebb88869f1","579","stimuli/2101010.jpg","2","","prediction_trial","0","","false","","2","true","true","false","false","false","false","[2,0]","101","010","0","","","","","","",""
"","","","","","image-keyboard-response","79","144912","0.0-54.0","6320a1395b4e05325c746101","665500ab8938657b03fbdba8","665792ac3431f6ebb88869f1","1531","stimuli/21010100.jpg"," ","","feedback_trial","2","","","","","","","","","","","","","","","","","","","","",""
"","","","","","image-keyboard-response","80","146342","0.0-55.0","6320a1395b4e05325c746101","665500ab8938657b03fbdba8","665792ac3431f6ebb88869f1","1429","stimuli/0110111.jpg","2","","prediction_trial","0","","false","","0","false","false","false","false","false","false","[1,0]","110","111","0","","","","","","",""
"","","","","","image-keyboard-response","81","146702","0.0-56.0","6320a1395b4e05325c746101","665500ab8938657b03fbdba8","665792ac3431f6ebb88869f1","359","stimuli/01101110.jpg"," ","","feedback_trial","1","","","","","","","","","","","","","","","","","","","","",""
"","","","","","image-keyboard-response","82","147602","0.0-57.0","6320a1395b4e05325c746101","665500ab8938657b03fbdba8","665792ac3431f6ebb88869f1","900","stimuli/2100001.jpg","2","","prediction_trial","2","","true","","2","false","true","true","true","false","true","[2]","100","001","1","","","","","","",""
"","","","","","image-keyboard-response","83","147872","0.0-58.0","6320a1395b4e05325c746101","665500ab8938657b03fbdba8","665792ac3431f6ebb88869f1","270","stimuli/21000012.jpg"," ","","feedback_trial","2","","","","","","","","","","","","","","","","","","","","",""
"","","","","","image-keyboard-response","84","148342","0.0-59.0","6320a1395b4e05325c746101","665500ab8938657b03fbdba8","665792ac3431f6ebb88869f1","469","stimuli/0001010.jpg","0","","prediction_trial","0","","true","","0","true","true","true","true","true","true","[0]","001","010","1","","","","","","",""
"","","","","","image-keyboard-response","85","148582","0.0-60.0","6320a1395b4e05325c746101","665500ab8938657b03fbdba8","665792ac3431f6ebb88869f1","239","stimuli/00010100.jpg"," ","","feedback_trial","0","","","","","","","","","","","","","","","","","","","","",""
"","","","","","image-keyboard-response","86","149042","0.0-61.0","6320a1395b4e05325c746101","665500ab8938657b03fbdba8","665792ac3431f6ebb88869f1","459","stimuli/2100100.jpg","2","","prediction_trial","2","","true","","2","true","true","true","true","true","true","[2]","100","100","1","","","","","","",""
"","","","","","image-keyboard-response","87","149302","0.0-62.0","6320a1395b4e05325c746101","665500ab8938657b03fbdba8","665792ac3431f6ebb88869f1","259","stimuli/21001002.jpg"," ","","feedback_trial","2","","","","","","","","","","","","","","","","","","","","",""
"","","","","","image-keyboard-response","88","149924","0.0-63.0","6320a1395b4e05325c746101","665500ab8938657b03fbdba8","665792ac3431f6ebb88869f1","621","stimuli/1101001.jpg","1","","prediction_trial","1","","true","","1","true","true","true","true","true","true","[1]","101","001","1","","","","","","",""
"","","","","","image-keyboard-response","89","150053","0.0-64.0","6320a1395b4e05325c746101","665500ab8938657b03fbdba8","665792ac3431f6ebb88869f1","129","stimuli/11010011.jpg"," ","","feedback_trial","1","","","","","","","","","","","","","","","","","","","","",""
"","","","","","image-keyboard-response","90","150702","0.0-65.0","6320a1395b4e05325c746101","665500ab8938657b03fbdba8","665792ac3431f6ebb88869f1","649","stimuli/2011011.jpg","1","","prediction_trial","2","","false","","2","false","false","false","false","false","false","[1,2]","011","011","0","","","","","","",""
"","","","","","image-keyboard-response","91","150832","0.0-66.0","6320a1395b4e05325c746101","665500ab8938657b03fbdba8","665792ac3431f6ebb88869f1","129","stimuli/20110112.jpg"," ","","feedback_trial","1","","","","","","","","","","","","","","","","","","","","",""
"","","","","","image-keyboard-response","92","151541","0.0-67.0","6320a1395b4e05325c746101","665500ab8938657b03fbdba8","665792ac3431f6ebb88869f1","709","stimuli/2011001.jpg","2","","prediction_trial","1","","false","","2","false","true","false","false","false","false","[2,1]","011","001","0","","","","","","",""
"","","","","","image-keyboard-response","93","151842","0.0-68.0","6320a1395b4e05325c746101","665500ab8938657b03fbdba8","665792ac3431f6ebb88869f1","299","stimuli/20110011.jpg"," ","","feedback_trial","2","","","","","","","","","","","","","","","","","","","","",""
"","","","","","image-keyboard-response","94","152662","0.0-69.0","6320a1395b4e05325c746101","665500ab8938657b03fbdba8","665792ac3431f6ebb88869f1","819","stimuli/1011110.jpg","1","","prediction_trial","1","","true","","1","false","false","false","false","false","false","[2,1]","011","110","1","","","","","","",""
"","","","","","image-keyboard-response","95","152962","0.0-70.0","6320a1395b4e05325c746101","665500ab8938657b03fbdba8","665792ac3431f6ebb88869f1","299","stimuli/10111101.jpg"," ","","feedback_trial","2","","","","","","","","","","","","","","","","","","","","",""
"","","","","","image-keyboard-response","96","153482","0.0-71.0","6320a1395b4e05325c746101","665500ab8938657b03fbdba8","665792ac3431f6ebb88869f1","520","stimuli/2011100.jpg","2","","prediction_trial","2","","true","","2","true","true","false","false","false","false","[2,1]","011","100","1","","","","","","",""
"","","","","","image-keyboard-response","97","153783","0.0-72.0","6320a1395b4e05325c746101","665500ab8938657b03fbdba8","665792ac3431f6ebb88869f1","301","stimuli/20111002.jpg"," ","","feedback_trial","2","","","","","","","","","","","","","","","","","","","","",""
"","","","","","image-keyboard-response","98","154212","0.0-73.0","6320a1395b4e05325c746101","665500ab8938657b03fbdba8","665792ac3431f6ebb88869f1","425","stimuli/0101001.jpg","0","","prediction_trial","2","","false","","0","true","true","false","false","false","false","[0,2]","101","001","0","","","","","","",""
"","","","","","image-keyboard-response","99","154612","0.0-74.0","6320a1395b4e05325c746101","665500ab8938657b03fbdba8","665792ac3431f6ebb88869f1","400","stimuli/01010012.jpg"," ","","feedback_trial","0","","","","","","","","","","","","","","","","","","","","",""
"","","","","","image-keyboard-response","100","155082","0.0-75.0","6320a1395b4e05325c746101","665500ab8938657b03fbdba8","665792ac3431f6ebb88869f1","469","stimuli/2101111.jpg","0","","prediction_trial","0","","true","","2","false","false","false","false","false","false","[0,2]","101","111","1","","","","","","",""
"","","","","","image-keyboard-response","101","155571","0.0-76.0","6320a1395b4e05325c746101","665500ab8938657b03fbdba8","665792ac3431f6ebb88869f1","490","stimuli/21011110.jpg"," ","","feedback_trial","0","","","","","","","","","","","","","","","","","","","","",""
"","","","","","image-keyboard-response","102","156373","0.0-77.0","6320a1395b4e05325c746101","665500ab8938657b03fbdba8","665792ac3431f6ebb88869f1","801","stimuli/0011110.jpg","1","","prediction_trial","0","","false","","0","false","false","true","true","false","false","[0]","011","110","0","","","","","","",""
"","","","","","image-keyboard-response","103","156694","0.0-78.0","6320a1395b4e05325c746101","665500ab8938657b03fbdba8","665792ac3431f6ebb88869f1","321","stimuli/00111100.jpg"," ","","feedback_trial","0","","","","","","","","","","","","","","","","","","","","",""
"","","","","","image-keyboard-response","104","157144","0.0-79.0","6320a1395b4e05325c746101","665500ab8938657b03fbdba8","665792ac3431f6ebb88869f1","448","stimuli/1010000.jpg","1","","prediction_trial","1","","true","","1","true","true","false","true","false","true","[1]","010","000","1","","","","","","",""
"","","","","","image-keyboard-response","105","157363","0.0-80.0","6320a1395b4e05325c746101","665500ab8938657b03fbdba8","665792ac3431f6ebb88869f1","218","stimuli/10100001.jpg"," ","","feedback_trial","1","","","","","","","","","","","","","","","","","","","","",""
"","","","","","image-keyboard-response","106","159092","0.0-81.0","6320a1395b4e05325c746101","665500ab8938657b03fbdba8","665792ac3431f6ebb88869f1","1728","stimuli/1100011.jpg","1","","prediction_trial","1","","true","","1","false","false","true","true","false","false","[1]","100","011","1","","","","","","",""
"","","","","","image-keyboard-response","107","159312","0.0-82.0","6320a1395b4e05325c746101","665500ab8938657b03fbdba8","665792ac3431f6ebb88869f1","220","stimuli/11000111.jpg"," ","","feedback_trial","1","","","","","","","","","","","","","","","","","","","","",""
"","","","","","image-keyboard-response","108","159932","0.0-83.0","6320a1395b4e05325c746101","665500ab8938657b03fbdba8","665792ac3431f6ebb88869f1","619","stimuli/0011000.jpg","0","","prediction_trial","0","","true","","0","true","true","true","true","true","true","[0]","011","000","1","","","","","","",""
"","","","","","image-keyboard-response","109","160142","0.0-84.0","6320a1395b4e05325c746101","665500ab8938657b03fbdba8","665792ac3431f6ebb88869f1","210","stimuli/00110000.jpg"," ","","feedback_trial","0","","","","","","","","","","","","","","","","","","","","",""
"","","","","","image-keyboard-response","110","161302","0.0-85.0","6320a1395b4e05325c746101","665500ab8938657b03fbdba8","665792ac3431f6ebb88869f1","1159","stimuli/1000010.jpg","1","","prediction_trial","1","","true","","1","false","true","true","true","false","true","[1]","000","010","1","","","","","","",""
"","","","","","image-keyboard-response","111","161492","0.0-86.0","6320a1395b4e05325c746101","665500ab8938657b03fbdba8","665792ac3431f6ebb88869f1","190","stimuli/10000101.jpg"," ","","feedback_trial","1","","","","","","","","","","","","","","","","","","","","",""
"","","","","","image-keyboard-response","112","162474","0.0-87.0","6320a1395b4e05325c746101","665500ab8938657b03fbdba8","665792ac3431f6ebb88869f1","981","stimuli/0100111.jpg","0","","prediction_trial","0","","true","","0","false","false","false","true","false","false","[0]","100","111","1","","","","","","",""
"","","","","","image-keyboard-response","113","162692","0.0-88.0","6320a1395b4e05325c746101","665500ab8938657b03fbdba8","665792ac3431f6ebb88869f1","216","stimuli/01001110.jpg"," ","","feedback_trial","0","","","","","","","","","","","","","","","","","","","","",""
"","","","","","image-keyboard-response","114","163322","0.0-89.0","6320a1395b4e05325c746101","665500ab8938657b03fbdba8","665792ac3431f6ebb88869f1","630","stimuli/0100001.jpg","0","","prediction_trial","0","","true","","0","true","true","false","true","false","true","[0]","100","001","1","","","","","","",""
"","","","","","image-keyboard-response","115","163542","0.0-90.0","6320a1395b4e05325c746101","665500ab8938657b03fbdba8","665792ac3431f6ebb88869f1","221","stimuli/01000010.jpg"," ","","feedback_trial","0","","","","","","","","","","","","","","","","","","","","",""
"","","","","","image-keyboard-response","116","164372","0.0-91.0","6320a1395b4e05325c746101","665500ab8938657b03fbdba8","665792ac3431f6ebb88869f1","830","stimuli/1010110.jpg","1","","prediction_trial","1","","true","","1","false","false","false","true","false","false","[1]","010","110","1","","","","","","",""
"","","","","","image-keyboard-response","117","164542","0.0-92.0","6320a1395b4e05325c746101","665500ab8938657b03fbdba8","665792ac3431f6ebb88869f1","169","stimuli/10101101.jpg"," ","","feedback_trial","1","","","","","","","","","","","","","","","","","","","","",""
"","","","","","image-keyboard-response","118","165772","0.0-93.0","6320a1395b4e05325c746101","665500ab8938657b03fbdba8","665792ac3431f6ebb88869f1","1230","stimuli/1001011.jpg","2","","prediction_trial","1","","false","","1","false","false","true","true","false","false","[1]","001","011","0","","","","","","",""
"","","","","","image-keyboard-response","119","166024","0.0-94.0","6320a1395b4e05325c746101","665500ab8938657b03fbdba8","665792ac3431f6ebb88869f1","251","stimuli/10010111.jpg"," ","","feedback_trial","1","","","","","","","","","","","","","","","","","","","","",""
"","","","","","image-keyboard-response","120","166732","0.0-95.0","6320a1395b4e05325c746101","665500ab8938657b03fbdba8","665792ac3431f6ebb88869f1","707","stimuli/0101010.jpg","0","","prediction_trial","0","","true","","0","true","true","false","false","false","false","[0,2]","101","010","1","","","","","","",""
"","","","","","image-keyboard-response","121","166932","0.0-96.0","6320a1395b4e05325c746101","665500ab8938657b03fbdba8","665792ac3431f6ebb88869f1","199","stimuli/01010100.jpg"," ","","feedback_trial","0","","","","","","","","","","","","","","","","","","","","",""
"","","","","","image-keyboard-response","122","168302","0.0-97.0","6320a1395b4e05325c746101","665500ab8938657b03fbdba8","665792ac3431f6ebb88869f1","1371","stimuli/2000000.jpg","2","","prediction_trial","2","","true","","2","true","true","true","true","true","true","[2]","000","000","1","","","","","","",""
"","","","","","image-keyboard-response","123","168483","0.0-98.0","6320a1395b4e05325c746101","665500ab8938657b03fbdba8","665792ac3431f6ebb88869f1","181","stimuli/20000002.jpg"," ","","feedback_trial","2","","","","","","","","","","","","","","","","","","","","",""
"","","","","","image-keyboard-response","124","169113","0.0-99.0","6320a1395b4e05325c746101","665500ab8938657b03fbdba8","665792ac3431f6ebb88869f1","627","stimuli/1000000.jpg","1","","prediction_trial","1","","true","","1","true","true","true","true","true","true","[1]","000","000","1","","","","","","",""
"","","","","","image-keyboard-response","125","169302","0.0-100.0","6320a1395b4e05325c746101","665500ab8938657b03fbdba8","665792ac3431f6ebb88869f1","187","stimuli/10000001.jpg"," ","","feedback_trial","1","","","","","","","","","","","","","","","","","","","","",""
"","","","","","image-keyboard-response","126","169812","0.0-101.0","6320a1395b4e05325c746101","665500ab8938657b03fbdba8","665792ac3431f6ebb88869f1","509","stimuli/2111100.jpg","2","","prediction_trial","1","","false","","2","true","true","false","false","false","false","[0,2,1]","111","100","0","","","","","","",""
"","","","","","image-keyboard-response","127","170222","0.0-102.0","6320a1395b4e05325c746101","665500ab8938657b03fbdba8","665792ac3431f6ebb88869f1","409","stimuli/21111001.jpg"," ","","feedback_trial","0","","","","","","","","","","","","","","","","","","","","",""
"","","","","","image-keyboard-response","128","170673","0.0-103.0","6320a1395b4e05325c746101","665500ab8938657b03fbdba8","665792ac3431f6ebb88869f1","450","stimuli/0010000.jpg","0","","prediction_trial","0","","true","","0","true","true","true","true","true","true","[0]","010","000","1","","","","","","",""
"","","","","","image-keyboard-response","129","170941","0.0-104.0","6320a1395b4e05325c746101","665500ab8938657b03fbdba8","665792ac3431f6ebb88869f1","268","stimuli/00100000.jpg"," ","","feedback_trial","0","","","","","","","","","","","","","","","","","","","","",""
"","","","","","image-keyboard-response","130","171482","0.0-105.0","6320a1395b4e05325c746101","665500ab8938657b03fbdba8","665792ac3431f6ebb88869f1","541","stimuli/0110001.jpg","0","","prediction_trial","0","","true","","0","true","true","false","false","false","false","[1,0]","110","001","1","","","","","","",""
"","","","","","image-keyboard-response","131","171723","0.0-106.0","6320a1395b4e05325c746101","665500ab8938657b03fbdba8","665792ac3431f6ebb88869f1","241","stimuli/01100010.jpg"," ","","feedback_trial","1","","","","","","","","","","","","","","","","","","","","",""
"","","","","","image-keyboard-response","132","172382","0.0-107.0","6320a1395b4e05325c746101","665500ab8938657b03fbdba8","665792ac3431f6ebb88869f1","658","stimuli/0100000.jpg","0","","prediction_trial","0","","true","","0","true","true","false","true","false","true","[0]","100","000","1","","","","","","",""
"","","","","","image-keyboard-response","133","172573","0.0-108.0","6320a1395b4e05325c746101","665500ab8938657b03fbdba8","665792ac3431f6ebb88869f1","190","stimuli/01000000.jpg"," ","","feedback_trial","0","","","","","","","","","","","","","","","","","","","","",""
"","","","","","image-keyboard-response","134","173122","0.0-109.0","6320a1395b4e05325c746101","665500ab8938657b03fbdba8","665792ac3431f6ebb88869f1","549","stimuli/1100100.jpg","1","","prediction_trial","1","","true","","1","true","true","true","true","true","true","[1]","100","100","1","","","","","","",""
"","","","","","image-keyboard-response","135","173322","0.0-110.0","6320a1395b4e05325c746101","665500ab8938657b03fbdba8","665792ac3431f6ebb88869f1","200","stimuli/11001001.jpg"," ","","feedback_trial","1","","","","","","","","","","","","","","","","","","","","",""
"","","","","","image-keyboard-response","136","173962","0.0-111.0","6320a1395b4e05325c746101","665500ab8938657b03fbdba8","665792ac3431f6ebb88869f1","640","stimuli/0000101.jpg","2","","prediction_trial","0","","false","","0","false","false","true","true","false","false","[0]","000","101","0","","","","","","",""
"","","","","","image-keyboard-response","137","174452","0.0-112.0","6320a1395b4e05325c746101","665500ab8938657b03fbdba8","665792ac3431f6ebb88869f1","490","stimuli/00001010.jpg"," ","","feedback_trial","0","","","","","","","","","","","","","","","","","","","","",""
"","","","","","image-keyboard-response","138","174862","0.0-113.0","6320a1395b4e05325c746101","665500ab8938657b03fbdba8","665792ac3431f6ebb88869f1","409","stimuli/0000010.jpg","0","","prediction_trial","0","","true","","0","true","true","true","true","true","true","[0]","000","010","1","","","","","","",""
"","","","","","image-keyboard-response","139","175132","0.0-114.0","6320a1395b4e05325c746101","665500ab8938657b03fbdba8","665792ac3431f6ebb88869f1","270","stimuli/00000100.jpg"," ","","feedback_trial","0","","","","","","","","","","","","","","","","","","","","",""
"","","","","","image-keyboard-response","140","175774","0.0-115.0","6320a1395b4e05325c746101","665500ab8938657b03fbdba8","665792ac3431f6ebb88869f1","642","stimuli/2001011.jpg","2","","prediction_trial","2","","true","","2","false","false","false","true","false","false","[2]","001","011","1","","","","","","",""
"","","","","","image-keyboard-response","141","176122","0.0-116.0","6320a1395b4e05325c746101","665500ab8938657b03fbdba8","665792ac3431f6ebb88869f1","348","stimuli/20010112.jpg"," ","","feedback_trial","2","","","","","","","","","","","","","","","","","","","","",""
"","","","","","image-keyboard-response","142","176612","0.0-117.0","6320a1395b4e05325c746101","665500ab8938657b03fbdba8","665792ac3431f6ebb88869f1","491","stimuli/2001010.jpg","2","","prediction_trial","2","","true","","2","true","true","false","true","false","true","[2]","001","010","1","","","","","","",""
"","","","","","image-keyboard-response","143","176902","0.0-118.0","6320a1395b4e05325c746101","665500ab8938657b03fbdba8","665792ac3431f6ebb88869f1","289","stimuli/20010102.jpg"," ","","feedback_trial","2","","","","","","","","","","","","","","","","","","","","",""
"","","","","","image-keyboard-response","144","177414","0.0-119.0","6320a1395b4e05325c746101","665500ab8938657b03fbdba8","665792ac3431f6ebb88869f1","513","stimuli/0001000.jpg","0","","prediction_trial","0","","true","","0","true","true","true","true","true","true","[0]","001","000","1","","","","","","",""
"","","","","","image-keyboard-response","145","177642","0.0-120.0","6320a1395b4e05325c746101","665500ab8938657b03fbdba8","665792ac3431f6ebb88869f1","227","stimuli/00010000.jpg"," ","","feedback_trial","0","","","","","","","","","","","","","","","","","","","","",""
"","","","","","image-keyboard-response","146","178292","0.0-121.0","6320a1395b4e05325c746101","665500ab8938657b03fbdba8","665792ac3431f6ebb88869f1","649","stimuli/1011010.jpg","1","","prediction_trial","2","","false","","1","false","true","false","false","false","false","[1,2]","011","010","0","","","","","","",""
"","","","","","image-keyboard-response","147","178622","0.0-122.0","6320a1395b4e05325c746101","665500ab8938657b03fbdba8","665792ac3431f6ebb88869f1","329","stimuli/10110102.jpg"," ","","feedback_trial","1","","","","","","","","","","","","","","","","","","","","",""
"","","","","","image-keyboard-response","148","179132","0.0-123.0","6320a1395b4e05325c746101","665500ab8938657b03fbdba8","665792ac3431f6ebb88869f1","510","stimuli/0010100.jpg","0","","prediction_trial","0","","true","","0","false","true","true","true","false","true","[0]","010","100","1","","","","","","",""
"","","","","","image-keyboard-response","149","179432","0.0-124.0","6320a1395b4e05325c746101","665500ab8938657b03fbdba8","665792ac3431f6ebb88869f1","300","stimuli/00101000.jpg"," ","","feedback_trial","0","","","","","","","","","","","","","","","","","","","","",""
"","","","","","image-keyboard-response","150","179862","0.0-125.0","6320a1395b4e05325c746101","665500ab8938657b03fbdba8","665792ac3431f6ebb88869f1","429","stimuli/0111010.jpg","0","","prediction_trial","2","","false","","0","true","true","false","false","false","false","[2,0,1]","111","010","0","","","","","","",""
"","","","","","image-keyboard-response","151","180182","0.0-126.0","6320a1395b4e05325c746101","665500ab8938657b03fbdba8","665792ac3431f6ebb88869f1","319","stimuli/01110102.jpg"," ","","feedback_trial","2","","","","","","","","","","","","","","","","","","","","",""
"","","","","","image-keyboard-response","152","180613","0.0-127.0","6320a1395b4e05325c746101","665500ab8938657b03fbdba8","665792ac3431f6ebb88869f1","430","stimuli/0010001.jpg","0","","prediction_trial","0","","true","","0","true","true","true","true","true","true","[0]","010","001","1","","","","","","",""
"","","","","","image-keyboard-response","153","180884","0.0-128.0","6320a1395b4e05325c746101","665500ab8938657b03fbdba8","665792ac3431f6ebb88869f1","270","stimuli/00100010.jpg"," ","","feedback_trial","0","","","","","","","","","","","","","","","","","","","","",""
"","","","","","image-keyboard-response","154","181442","0.0-129.0","6320a1395b4e05325c746101","665500ab8938657b03fbdba8","665792ac3431f6ebb88869f1","559","stimuli/1010001.jpg","1","","prediction_trial","1","","true","","1","true","true","false","true","false","true","[1]","010","001","1","","","","","","",""
"","","","","","image-keyboard-response","155","181642","0.0-130.0","6320a1395b4e05325c746101","665500ab8938657b03fbdba8","665792ac3431f6ebb88869f1","199","stimuli/10100011.jpg"," ","","feedback_trial","1","","","","","","","","","","","","","","","","","","","","",""
"","","","","","image-keyboard-response","156","182372","0.0-131.0","6320a1395b4e05325c746101","665500ab8938657b03fbdba8","665792ac3431f6ebb88869f1","730","stimuli/0101110.jpg","1","","prediction_trial","0","","false","","0","false","false","false","false","false","false","[0,2]","101","110","0","","","","","","",""
"","","","","","image-keyboard-response","157","182602","0.0-132.0","6320a1395b4e05325c746101","665500ab8938657b03fbdba8","665792ac3431f6ebb88869f1","229","stimuli/01011100.jpg"," ","","feedback_trial","0","","","","","","","","","","","","","","","","","","","","",""
"","","","","","image-keyboard-response","158","182992","0.0-133.0","6320a1395b4e05325c746101","665500ab8938657b03fbdba8","665792ac3431f6ebb88869f1","390","stimuli/1110111.jpg","0","","prediction_trial","1","","false","","1","false","false","false","false","false","false","[0,1]","110","111","0","","","","","","",""
"","","","","","image-keyboard-response","159","183472","0.0-134.0","6320a1395b4e05325c746101","665500ab8938657b03fbdba8","665792ac3431f6ebb88869f1","481","stimuli/11101111.jpg"," ","","feedback_trial","0","","","","","","","","","","","","","","","","","","","","",""
"","","","","","image-keyboard-response","160","184122","0.0-135.0","6320a1395b4e05325c746101","665500ab8938657b03fbdba8","665792ac3431f6ebb88869f1","650","stimuli/2010111.jpg","1","","prediction_trial","2","","false","","2","false","false","true","true","false","false","[2]","010","111","0","","","","","","",""
"","","","","","image-keyboard-response","161","184452","0.0-136.0","6320a1395b4e05325c746101","665500ab8938657b03fbdba8","665792ac3431f6ebb88869f1","329","stimuli/20101112.jpg"," ","","feedback_trial","2","","","","","","","","","","","","","","","","","","","","",""
"","","","","","image-keyboard-response","162","184862","0.0-137.0","6320a1395b4e05325c746101","665500ab8938657b03fbdba8","665792ac3431f6ebb88869f1","410","stimuli/1110011.jpg","2","","prediction_trial","1","","false","","1","false","false","false","false","false","false","[0,1]","110","011","0","","","","","","",""
"","","","","","image-keyboard-response","163","185252","0.0-138.0","6320a1395b4e05325c746101","665500ab8938657b03fbdba8","665792ac3431f6ebb88869f1","390","stimuli/11100111.jpg"," ","","feedback_trial","0","","","","","","","","","","","","","","","","","","","","",""
"","","","","","image-keyboard-response","164","185664","0.0-139.0","6320a1395b4e05325c746101","665500ab8938657b03fbdba8","665792ac3431f6ebb88869f1","410","stimuli/0100010.jpg","0","","prediction_trial","0","","true","","0","true","true","false","true","false","true","[0]","100","010","1","","","","","","",""
"","","","","","image-keyboard-response","165","185994","0.0-140.0","6320a1395b4e05325c746101","665500ab8938657b03fbdba8","665792ac3431f6ebb88869f1","327","stimuli/01000100.jpg"," ","","feedback_trial","0","","","","","","","","","","","","","","","","","","","","",""
"","","","","","image-keyboard-response","166","186722","0.0-141.0","6320a1395b4e05325c746101","665500ab8938657b03fbdba8","665792ac3431f6ebb88869f1","726","stimuli/1111010.jpg","1","","prediction_trial","1","","true","","1","false","true","false","false","false","false","[2,0,1]","111","010","1","","","","","","",""
"","","","","","image-keyboard-response","167","186912","0.0-142.0","6320a1395b4e05325c746101","665500ab8938657b03fbdba8","665792ac3431f6ebb88869f1","190","stimuli/11110101.jpg"," ","","feedback_trial","2","","","","","","","","","","","","","","","","","","","","",""
"","","","","","image-keyboard-response","168","187435","0.0-143.0","6320a1395b4e05325c746101","665500ab8938657b03fbdba8","665792ac3431f6ebb88869f1","523","stimuli/2011000.jpg","2","","prediction_trial","1","","false","","2","true","true","false","false","false","false","[1,2]","011","000","0","","","","","","",""
"","","","","","image-keyboard-response","169","187972","0.0-144.0","6320a1395b4e05325c746101","665500ab8938657b03fbdba8","665792ac3431f6ebb88869f1","536","stimuli/20110001.jpg"," ","","feedback_trial","1","","","","","","","","","","","","","","","","","","","","",""
"","","","","","image-keyboard-response","170","188882","0.0-145.0","6320a1395b4e05325c746101","665500ab8938657b03fbdba8","665792ac3431f6ebb88869f1","910","stimuli/2100101.jpg","2","","prediction_trial","2","","true","","2","false","false","true","true","false","false","[2]","100","101","1","","","","","","",""
"","","","","","image-keyboard-response","171","189112","0.0-146.0","6320a1395b4e05325c746101","665500ab8938657b03fbdba8","665792ac3431f6ebb88869f1","230","stimuli/21001012.jpg"," ","","feedback_trial","2","","","","","","","","","","","","","","","","","","","","",""
"","","","","","image-keyboard-response","172","189912","0.0-147.0","6320a1395b4e05325c746101","665500ab8938657b03fbdba8","665792ac3431f6ebb88869f1","799","stimuli/1100101.jpg","1","","prediction_trial","1","","true","","1","true","true","true","true","true","true","[1]","100","101","1","","","","","","",""
"","","","","","image-keyboard-response","173","190142","0.0-148.0","6320a1395b4e05325c746101","665500ab8938657b03fbdba8","665792ac3431f6ebb88869f1","230","stimuli/11001011.jpg"," ","","feedback_trial","1","","","","","","","","","","","","","","","","","","","","",""
"","","","","","image-keyboard-response","174","190594","0.0-149.0","6320a1395b4e05325c746101","665500ab8938657b03fbdba8","665792ac3431f6ebb88869f1","450","stimuli/2111010.jpg","2","","prediction_trial","0","","false","","2","true","true","false","false","false","false","[1,0,2]","111","010","0","","","","","","",""
"","","","","","image-keyboard-response","175","191143","0.0-150.0","6320a1395b4e05325c746101","665500ab8938657b03fbdba8","665792ac3431f6ebb88869f1","548","stimuli/21110100.jpg"," ","","feedback_trial","1","","","","","","","","","","","","","","","","","","","","",""
"","","","","","image-keyboard-response","176","191792","0.0-151.0","6320a1395b4e05325c746101","665500ab8938657b03fbdba8","665792ac3431f6ebb88869f1","646","stimuli/0110100.jpg","0","","prediction_trial","1","","false","","0","false","true","false","false","false","false","[0,1]","110","100","0","","","","","","",""
"","","","","","image-keyboard-response","177","192072","0.0-152.0","6320a1395b4e05325c746101","665500ab8938657b03fbdba8","665792ac3431f6ebb88869f1","281","stimuli/01101001.jpg"," ","","feedback_trial","0","","","","","","","","","","","","","","","","","","","","",""
"","","","","","image-keyboard-response","178","192582","0.0-153.0","6320a1395b4e05325c746101","665500ab8938657b03fbdba8","665792ac3431f6ebb88869f1","510","stimuli/1111100.jpg","1","","prediction_trial","2","","false","","1","true","true","false","false","false","false","[0,2,1]","111","100","0","","","","","","",""
"","","","","","image-keyboard-response","179","192964","0.0-154.0","6320a1395b4e05325c746101","665500ab8938657b03fbdba8","665792ac3431f6ebb88869f1","381","stimuli/11111002.jpg"," ","","feedback_trial","0","","","","","","","","","","","","","","","","","","","","",""
"","","","","","image-keyboard-response","180","193624","0.0-155.0","6320a1395b4e05325c746101","665500ab8938657b03fbdba8","665792ac3431f6ebb88869f1","660","stimuli/0111100.jpg","0","","prediction_trial","0","","true","","0","false","true","false","false","false","false","[0,2,1]","111","100","1","","","","","","",""
"","","","","","image-keyboard-response","181","193944","0.0-156.0","6320a1395b4e05325c746101","665500ab8938657b03fbdba8","665792ac3431f6ebb88869f1","320","stimuli/01111000.jpg"," ","","feedback_trial","0","","","","","","","","","","","","","","","","","","","","",""
"","","","","","image-keyboard-response","182","194494","0.0-157.0","6320a1395b4e05325c746101","665500ab8938657b03fbdba8","665792ac3431f6ebb88869f1","550","stimuli/1110010.jpg","1","","prediction_trial","1","","true","","1","false","true","false","false","false","false","[1,0]","110","010","1","","","","","","",""
"","","","","","image-keyboard-response","183","194734","0.0-158.0","6320a1395b4e05325c746101","665500ab8938657b03fbdba8","665792ac3431f6ebb88869f1","240","stimuli/11100101.jpg"," ","","feedback_trial","1","","","","","","","","","","","","","","","","","","","","",""
"","","","","","image-keyboard-response","184","195262","0.0-159.0","6320a1395b4e05325c746101","665500ab8938657b03fbdba8","665792ac3431f6ebb88869f1","527","stimuli/0000011.jpg","0","","prediction_trial","0","","true","","0","true","true","true","true","true","true","[0]","000","011","1","","","","","","",""
"","","","","","image-keyboard-response","185","195654","0.0-160.0","6320a1395b4e05325c746101","665500ab8938657b03fbdba8","665792ac3431f6ebb88869f1","392","stimuli/00000110.jpg"," ","","feedback_trial","0","","","","","","","","","","","","","","","","","","","","",""
"","","","","","image-keyboard-response","186","196284","0.0-161.0","6320a1395b4e05325c746101","665500ab8938657b03fbdba8","665792ac3431f6ebb88869f1","629","stimuli/0110110.jpg","1","","prediction_trial","0","","false","","0","false","false","false","false","false","false","[1,0]","110","110","0","","","","","","",""
"","","","","","image-keyboard-response","187","196623","0.0-162.0","6320a1395b4e05325c746101","665500ab8938657b03fbdba8","665792ac3431f6ebb88869f1","340","stimuli/01101100.jpg"," ","","feedback_trial","1","","","","","","","","","","","","","","","","","","","","",""
"","","","","","image-keyboard-response","188","197143","0.0-163.0","6320a1395b4e05325c746101","665500ab8938657b03fbdba8","665792ac3431f6ebb88869f1","519","stimuli/2111001.jpg","2","","prediction_trial","0","","false","","2","false","true","false","false","false","false","[1,0,2]","111","001","0","","","","","","",""
"","","","","","image-keyboard-response","189","197612","0.0-164.0","6320a1395b4e05325c746101","665500ab8938657b03fbdba8","665792ac3431f6ebb88869f1","468","stimuli/21110010.jpg"," ","","feedback_trial","1","","","","","","","","","","","","","","","","","","","","",""
"","","","","","image-keyboard-response","190","198234","0.0-165.0","6320a1395b4e05325c746101","665500ab8938657b03fbdba8","665792ac3431f6ebb88869f1","622","stimuli/2011110.jpg","2","","prediction_trial","1","","false","","2","true","true","false","false","false","false","[1,2]","011","110","0","","","","","","",""
"","","","","","image-keyboard-response","191","198452","0.0-166.0","6320a1395b4e05325c746101","665500ab8938657b03fbdba8","665792ac3431f6ebb88869f1","218","stimuli/20111101.jpg"," ","","feedback_trial","1","","","","","","","","","","","","","","","","","","","","",""
"","","","","","image-keyboard-response","192","199022","0.0-167.0","6320a1395b4e05325c746101","665500ab8938657b03fbdba8","665792ac3431f6ebb88869f1","569","stimuli/1100000.jpg","1","","prediction_trial","1","","true","","1","true","true","true","true","true","true","[1]","100","000","1","","","","","","",""
"","","","","","image-keyboard-response","193","199392","0.0-168.0","6320a1395b4e05325c746101","665500ab8938657b03fbdba8","665792ac3431f6ebb88869f1","369","stimuli/11000001.jpg"," ","","feedback_trial","1","","","","","","","","","","","","","","","","","","","","",""
"","","","","","image-keyboard-response","194","199872","0.0-169.0","6320a1395b4e05325c746101","665500ab8938657b03fbdba8","665792ac3431f6ebb88869f1","479","stimuli/1011100.jpg","1","","prediction_trial","2","","false","","1","true","true","false","false","false","false","[1,2]","011","100","0","","","","","","",""
"","","","","","image-keyboard-response","195","200202","0.0-170.0","6320a1395b4e05325c746101","665500ab8938657b03fbdba8","665792ac3431f6ebb88869f1","329","stimuli/10111002.jpg"," ","","feedback_trial","1","","","","","","","","","","","","","","","","","","","","",""
"","","","","","image-keyboard-response","196","200642","0.0-171.0","6320a1395b4e05325c746101","665500ab8938657b03fbdba8","665792ac3431f6ebb88869f1","439","stimuli/1001111.jpg","2","","prediction_trial","1","","false","","1","false","false","true","true","false","false","[1]","001","111","0","","","","","","",""
"","","","","","image-keyboard-response","197","201282","0.0-172.0","6320a1395b4e05325c746101","665500ab8938657b03fbdba8","665792ac3431f6ebb88869f1","640","stimuli/10011111.jpg"," ","","feedback_trial","1","","","","","","","","","","","","","","","","","","","","",""
"","","","","","image-keyboard-response","198","201822","0.0-173.0","6320a1395b4e05325c746101","665500ab8938657b03fbdba8","665792ac3431f6ebb88869f1","539","stimuli/1011101.jpg","1","","prediction_trial","2","","false","","1","true","true","false","false","false","false","[1,2]","011","101","0","","","","","","",""
"","","","","","image-keyboard-response","199","202194","0.0-174.0","6320a1395b4e05325c746101","665500ab8938657b03fbdba8","665792ac3431f6ebb88869f1","371","stimuli/10111012.jpg"," ","","feedback_trial","1","","","","","","","","","","","","","","","","","","","","",""
"","","","","","image-keyboard-response","200","202672","0.0-175.0","6320a1395b4e05325c746101","665500ab8938657b03fbdba8","665792ac3431f6ebb88869f1","477","stimuli/1001101.jpg","1","","prediction_trial","1","","true","","1","true","true","true","true","true","true","[1]","001","101","1","","","","","","",""
"","","","","","image-keyboard-response","201","202962","0.0-176.0","6320a1395b4e05325c746101","665500ab8938657b03fbdba8","665792ac3431f6ebb88869f1","290","stimuli/10011011.jpg"," ","","feedback_trial","1","","","","","","","","","","","","","","","","","","","","",""
"","","","","","image-keyboard-response","202","203834","0.0-177.0","6320a1395b4e05325c746101","665500ab8938657b03fbdba8","665792ac3431f6ebb88869f1","869","stimuli/2010011.jpg","1","","prediction_trial","2","","false","","2","false","false","true","true","false","false","[2]","010","011","0","","","","","","",""
"","","","","","image-keyboard-response","203","204113","0.0-178.0","6320a1395b4e05325c746101","665500ab8938657b03fbdba8","665792ac3431f6ebb88869f1","278","stimuli/20100112.jpg"," ","","feedback_trial","2","","","","","","","","","","","","","","","","","","","","",""
"","","","","","image-keyboard-response","204","204935","0.0-179.0","6320a1395b4e05325c746101","665500ab8938657b03fbdba8","665792ac3431f6ebb88869f1","821","stimuli/2001111.jpg","2","","prediction_trial","2","","true","","2","false","false","false","true","false","false","[2]","001","111","1","","","","","","",""
"","","","","","image-keyboard-response","205","205203","0.0-180.0","6320a1395b4e05325c746101","665500ab8938657b03fbdba8","665792ac3431f6ebb88869f1","267","stimuli/20011112.jpg"," ","","feedback_trial","2","","","","","","","","","","","","","","","","","","","","",""
"","","","","","image-keyboard-response","206","205752","0.0-181.0","6320a1395b4e05325c746101","665500ab8938657b03fbdba8","665792ac3431f6ebb88869f1","549","stimuli/2000010.jpg","2","","prediction_trial","2","","true","","2","true","true","true","true","true","true","[2]","000","010","1","","","","","","",""
"","","","","","image-keyboard-response","207","206003","0.0-182.0","6320a1395b4e05325c746101","665500ab8938657b03fbdba8","665792ac3431f6ebb88869f1","251","stimuli/20000102.jpg"," ","","feedback_trial","2","","","","","","","","","","","","","","","","","","","","",""
"","","","","","image-keyboard-response","208","206562","0.0-183.0","6320a1395b4e05325c746101","665500ab8938657b03fbdba8","665792ac3431f6ebb88869f1","558","stimuli/1001100.jpg","1","","prediction_trial","1","","true","","1","true","true","true","true","true","true","[1]","001","100","1","","","","","","",""
"","","","","","image-keyboard-response","209","206762","0.0-184.0","6320a1395b4e05325c746101","665500ab8938657b03fbdba8","665792ac3431f6ebb88869f1","199","stimuli/10011001.jpg"," ","","feedback_trial","1","","","","","","","","","","","","","","","","","","","","",""
"","","","","","image-keyboard-response","210","207202","0.0-185.0","6320a1395b4e05325c746101","665500ab8938657b03fbdba8","665792ac3431f6ebb88869f1","440","stimuli/0011010.jpg","0","","prediction_trial","0","","true","","0","true","true","true","true","true","true","[0]","011","010","1","","","","","","",""
"","","","","","image-keyboard-response","211","207492","0.0-186.0","6320a1395b4e05325c746101","665500ab8938657b03fbdba8","665792ac3431f6ebb88869f1","289","stimuli/00110100.jpg"," ","","feedback_trial","0","","","","","","","","","","","","","","","","","","","","",""
"","","","","","image-keyboard-response","212","208013","0.0-187.0","6320a1395b4e05325c746101","665500ab8938657b03fbdba8","665792ac3431f6ebb88869f1","520","stimuli/0111011.jpg","0","","prediction_trial","2","","false","","0","true","true","false","false","false","false","[2,0,1]","111","011","0","","","","","","",""
"","","","","","image-keyboard-response","213","208332","0.0-188.0","6320a1395b4e05325c746101","665500ab8938657b03fbdba8","665792ac3431f6ebb88869f1","320","stimuli/01110112.jpg"," ","","feedback_trial","2","","","","","","","","","","","","","","","","","","","","",""
"","","","","","image-keyboard-response","214","208832","0.0-189.0","6320a1395b4e05325c746101","665500ab8938657b03fbdba8","665792ac3431f6ebb88869f1","500","stimuli/1110110.jpg","2","","prediction_trial","0","","false","","1","false","false","false","false","false","false","[1,0]","110","110","0","","","","","","",""
"","","","","","image-keyboard-response","215","209312","0.0-190.0","6320a1395b4e05325c746101","665500ab8938657b03fbdba8","665792ac3431f6ebb88869f1","479","stimuli/11101100.jpg"," ","","feedback_trial","1","","","","","","","","","","","","","","","","","","","","",""
"","","","","","image-keyboard-response","216","209582","0.0-191.0","6320a1395b4e05325c746101","665500ab8938657b03fbdba8","665792ac3431f6ebb88869f1","270","stimuli/2101110.jpg","1","","prediction_trial","2","","false","","2","true","true","false","false","false","false","[2,0]","101","110","0","","","","","","",""
"","","","","","image-keyboard-response","217","210102","0.0-192.0","6320a1395b4e05325c746101","665500ab8938657b03fbdba8","665792ac3431f6ebb88869f1","519","stimuli/21011102.jpg"," ","","feedback_trial","2","","","","","","","","","","","","","","","","","","","","",""
"","","","","","image-keyboard-response","218","210992","0.0-193.0","6320a1395b4e05325c746101","665500ab8938657b03fbdba8","665792ac3431f6ebb88869f1","890","stimuli/1100010.jpg","0","","prediction_trial","1","","false","","1","false","true","true","true","false","true","[1]","100","010","0","","","","","","",""
"","","","","","image-keyboard-response","219","211222","0.0-194.0","6320a1395b4e05325c746101","665500ab8938657b03fbdba8","665792ac3431f6ebb88869f1","230","stimuli/11000101.jpg"," ","","feedback_trial","1","","","","","","","","","","","","","","","","","","","","",""
"","","","","","image-keyboard-response","220","211702","0.0-195.0","6320a1395b4e05325c746101","665500ab8938657b03fbdba8","665792ac3431f6ebb88869f1","481","stimuli/0100011.jpg","0","","prediction_trial","0","","true","","0","true","true","false","true","false","true","[0]","100","011","1","","","","","","",""
"","","","","","image-keyboard-response","221","211864","0.0-196.0","6320a1395b4e05325c746101","665500ab8938657b03fbdba8","665792ac3431f6ebb88869f1","161","stimuli/01000110.jpg"," ","","feedback_trial","0","","","","","","","","","","","","","","","","","","","","",""
"","","","","","image-keyboard-response","222","212722","0.0-197.0","6320a1395b4e05325c746101","665500ab8938657b03fbdba8","665792ac3431f6ebb88869f1","857","stimuli/2111101.jpg","2","","prediction_trial","2","","true","","2","false","false","false","false","false","false","[1,2,0]","111","101","1","","","","","","",""
"","","","","","image-keyboard-response","223","213023","0.0-198.0","6320a1395b4e05325c746101","665500ab8938657b03fbdba8","665792ac3431f6ebb88869f1","300","stimuli/21111012.jpg"," ","","feedback_trial","1","","","","","","","","","","","","","","","","","","","","",""
"","","","","","image-keyboard-response","224","213502","0.0-199.0","6320a1395b4e05325c746101","665500ab8938657b03fbdba8","665792ac3431f6ebb88869f1","478","stimuli/0101000.jpg","0","","prediction_trial","2","","false","","0","true","true","false","false","false","false","[2,0]","101","000","0","","","","","","",""
"","","","","","image-keyboard-response","225","213922","0.0-200.0","6320a1395b4e05325c746101","665500ab8938657b03fbdba8","665792ac3431f6ebb88869f1","420","stimuli/01010002.jpg"," ","","feedback_trial","2","","","","","","","","","","","","","","","","","","","","",""
"","","","","","image-keyboard-response","226","214512","0.0-201.0","6320a1395b4e05325c746101","665500ab8938657b03fbdba8","665792ac3431f6ebb88869f1","589","stimuli/2010101.jpg","2","","prediction_trial","2","","true","","2","false","false","true","true","false","false","[2]","010","101","1","","","","","","",""
"","","","","","image-keyboard-response","227","214872","0.0-202.0","6320a1395b4e05325c746101","665500ab8938657b03fbdba8","665792ac3431f6ebb88869f1","359","stimuli/20101012.jpg"," ","","feedback_trial","2","","","","","","","","","","","","","","","","","","","","",""
"","","","","","image-keyboard-response","228","215662","0.0-203.0","6320a1395b4e05325c746101","665500ab8938657b03fbdba8","665792ac3431f6ebb88869f1","788","stimuli/0010101.jpg","2","","prediction_trial","0","","false","","0","false","false","true","true","false","false","[0]","010","101","0","","","","","","",""
"","","","","","image-keyboard-response","229","215963","0.0-204.0","6320a1395b4e05325c746101","665500ab8938657b03fbdba8","665792ac3431f6ebb88869f1","301","stimuli/00101010.jpg"," ","","feedback_trial","0","","","","","","","","","","","","","","","","","","","","",""
"","","","","","image-keyboard-response","230","216472","0.0-205.0","6320a1395b4e05325c746101","665500ab8938657b03fbdba8","665792ac3431f6ebb88869f1","508","stimuli/2101011.jpg","2","","prediction_trial","2","","true","","2","false","false","false","false","false","false","[2,0]","101","011","1","","","","","","",""
"","","","","","image-keyboard-response","231","216912","0.0-206.0","6320a1395b4e05325c746101","665500ab8938657b03fbdba8","665792ac3431f6ebb88869f1","439","stimuli/21010112.jpg"," ","","feedback_trial","2","","","","","","","","","","","","","","","","","","","","",""
"","","","","","image-keyboard-response","232","217452","0.0-207.0","6320a1395b4e05325c746101","665500ab8938657b03fbdba8","665792ac3431f6ebb88869f1","540","stimuli/1000001.jpg","1","","prediction_trial","1","","true","","1","true","true","true","true","true","true","[1]","000","001","1","","","","","","",""
"","","","","","image-keyboard-response","233","217682","0.0-208.0","6320a1395b4e05325c746101","665500ab8938657b03fbdba8","665792ac3431f6ebb88869f1","231","stimuli/10000011.jpg"," ","","feedback_trial","1","","","","","","","","","","","","","","","","","","","","",""
"","","","","","image-keyboard-response","234","218482","0.0-209.0","6320a1395b4e05325c746101","665500ab8938657b03fbdba8","665792ac3431f6ebb88869f1","799","stimuli/0000111.jpg","1","","prediction_trial","0","","false","","0","false","false","true","true","false","false","[0]","000","111","0","","","","","","",""
"","","","","","image-keyboard-response","235","218712","0.0-210.0","6320a1395b4e05325c746101","665500ab8938657b03fbdba8","665792ac3431f6ebb88869f1","229","stimuli/00001110.jpg"," ","","feedback_trial","0","","","","","","","","","","","","","","","","","","","","",""
"","","","","","image-keyboard-response","236","219252","0.0-211.0","6320a1395b4e05325c746101","665500ab8938657b03fbdba8","665792ac3431f6ebb88869f1","540","stimuli/1101101.jpg","1","","prediction_trial","1","","true","","1","true","true","true","true","true","true","[1]","101","101","1","","","","","","",""
"","","","","","image-keyboard-response","237","219492","0.0-212.0","6320a1395b4e05325c746101","665500ab8938657b03fbdba8","665792ac3431f6ebb88869f1","239","stimuli/11011011.jpg"," ","","feedback_trial","1","","","","","","","","","","","","","","","","","","","","",""
"","","","","","image-keyboard-response","238","219912","0.0-213.0","6320a1395b4e05325c746101","665500ab8938657b03fbdba8","665792ac3431f6ebb88869f1","420","stimuli/0000000.jpg","0","","prediction_trial","0","","true","","0","true","true","true","true","true","true","[0]","000","000","1","","","","","","",""
"","","","","","image-keyboard-response","239","220165","0.0-214.0","6320a1395b4e05325c746101","665500ab8938657b03fbdba8","665792ac3431f6ebb88869f1","252","stimuli/00000000.jpg"," ","","feedback_trial","0","","","","","","","","","","","","","","","","","","","","",""
"","","","","","image-keyboard-response","240","221133","0.0-215.0","6320a1395b4e05325c746101","665500ab8938657b03fbdba8","665792ac3431f6ebb88869f1","968","stimuli/1000111.jpg","1","","prediction_trial","1","","true","","1","false","false","true","true","false","false","[1]","000","111","1","","","","","","",""
"","","","","","image-keyboard-response","241","221353","0.0-216.0","6320a1395b4e05325c746101","665500ab8938657b03fbdba8","665792ac3431f6ebb88869f1","219","stimuli/10001111.jpg"," ","","feedback_trial","1","","","","","","","","","","","","","","","","","","","","",""
"","","","","","image-keyboard-response","242","221822","0.0-217.0","6320a1395b4e05325c746101","665500ab8938657b03fbdba8","665792ac3431f6ebb88869f1","468","stimuli/2011010.jpg","2","","prediction_trial","2","","true","","2","true","true","false","false","false","false","[2,1]","011","010","1","","","","","","",""
"","","","","","image-keyboard-response","243","222133","0.0-218.0","6320a1395b4e05325c746101","665500ab8938657b03fbdba8","665792ac3431f6ebb88869f1","310","stimuli/20110102.jpg"," ","","feedback_trial","2","","","","","","","","","","","","","","","","","","","","",""
"","","","","","image-keyboard-response","244","222862","0.0-219.0","6320a1395b4e05325c746101","665500ab8938657b03fbdba8","665792ac3431f6ebb88869f1","728","stimuli/0001101.jpg","0","","prediction_trial","0","","true","","0","false","false","true","true","false","false","[0]","001","101","1","","","","","","",""
"","","","","","image-keyboard-response","245","223132","0.0-220.0","6320a1395b4e05325c746101","665500ab8938657b03fbdba8","665792ac3431f6ebb88869f1","270","stimuli/00011010.jpg"," ","","feedback_trial","0","","","","","","","","","","","","","","","","","","","","",""
"","","","","","image-keyboard-response","246","223802","0.0-221.0","6320a1395b4e05325c746101","665500ab8938657b03fbdba8","665792ac3431f6ebb88869f1","670","stimuli/1000101.jpg","1","","prediction_trial","1","","true","","1","true","true","true","true","true","true","[1]","000","101","1","","","","","","",""
"","","","","","image-keyboard-response","247","223992","0.0-222.0","6320a1395b4e05325c746101","665500ab8938657b03fbdba8","665792ac3431f6ebb88869f1","190","stimuli/10001011.jpg"," ","","feedback_trial","1","","","","","","","","","","","","","","","","","","","","",""
"","","","","","image-keyboard-response","248","224565","0.0-223.0","6320a1395b4e05325c746101","665500ab8938657b03fbdba8","665792ac3431f6ebb88869f1","572","stimuli/0101111.jpg","2","","prediction_trial","0","","false","","0","false","false","false","false","false","false","[0,2]","101","111","0","","","","","","",""
"","","","","","image-keyboard-response","249","224882","0.0-224.0","6320a1395b4e05325c746101","665500ab8938657b03fbdba8","665792ac3431f6ebb88869f1","317","stimuli/01011110.jpg"," ","","feedback_trial","0","","","","","","","","","","","","","","","","","","","","",""
"","","","","","image-keyboard-response","250","225374","0.0-225.0","6320a1395b4e05325c746101","665500ab8938657b03fbdba8","665792ac3431f6ebb88869f1","491","stimuli/1110001.jpg","1","","prediction_trial","1","","true","","1","true","true","false","false","false","false","[1,0]","110","001","1","","","","","","",""
"","","","","","image-keyboard-response","251","225692","0.0-226.0","6320a1395b4e05325c746101","665500ab8938657b03fbdba8","665792ac3431f6ebb88869f1","318","stimuli/11100011.jpg"," ","","feedback_trial","1","","","","","","","","","","","","","","","","","","","","",""
"","","","","","image-keyboard-response","252","226252","0.0-227.0","6320a1395b4e05325c746101","665500ab8938657b03fbdba8","665792ac3431f6ebb88869f1","559","stimuli/0111101.jpg","0","","prediction_trial","0","","true","","0","false","false","false","false","false","false","[2,1,0]","111","101","1","","","","","","",""
"","","","","","image-keyboard-response","253","226604","0.0-228.0","6320a1395b4e05325c746101","665500ab8938657b03fbdba8","665792ac3431f6ebb88869f1","351","stimuli/01111010.jpg"," ","","feedback_trial","2","","","","","","","","","","","","","","","","","","","","",""
"","","","","","image-keyboard-response","254","227673","0.0-229.0","6320a1395b4e05325c746101","665500ab8938657b03fbdba8","665792ac3431f6ebb88869f1","1065","stimuli/0000100.jpg","2","","prediction_trial","0","","false","","0","false","true","true","true","false","true","[0]","000","100","0","","","","","","",""
"","","","","","image-keyboard-response","255","228142","0.0-230.0","6320a1395b4e05325c746101","665500ab8938657b03fbdba8","665792ac3431f6ebb88869f1","467","stimuli/00001000.jpg"," ","","feedback_trial","0","","","","","","","","","","","","","","","","","","","","",""
"","","","","","image-keyboard-response","256","228692","0.0-231.0","6320a1395b4e05325c746101","665500ab8938657b03fbdba8","665792ac3431f6ebb88869f1","549","stimuli/0011011.jpg","0","","prediction_trial","0","","true","","0","true","true","true","true","true","true","[0]","011","011","1","","","","","","",""
"","","","","","image-keyboard-response","257","228882","0.0-232.0","6320a1395b4e05325c746101","665500ab8938657b03fbdba8","665792ac3431f6ebb88869f1","190","stimuli/00110110.jpg"," ","","feedback_trial","0","","","","","","","","","","","","","","","","","","","","",""
"","","","","","image-keyboard-response","258","229482","0.0-233.0","6320a1395b4e05325c746101","665500ab8938657b03fbdba8","665792ac3431f6ebb88869f1","599","stimuli/1000110.jpg","0","","prediction_trial","1","","false","","1","false","false","true","true","false","false","[1]","000","110","0","","","","","","",""
"","","","","","image-keyboard-response","259","229622","0.0-234.0","6320a1395b4e05325c746101","665500ab8938657b03fbdba8","665792ac3431f6ebb88869f1","140","stimuli/10001101.jpg"," ","","feedback_trial","1","","","","","","","","","","","","","","","","","","","","",""
"","","","","","image-keyboard-response","260","230322","0.0-235.0","6320a1395b4e05325c746101","665500ab8938657b03fbdba8","665792ac3431f6ebb88869f1","700","stimuli/2010000.jpg","2","","prediction_trial","2","","true","","2","true","true","true","true","true","true","[2]","010","000","1","","","","","","",""
"","","","","","image-keyboard-response","261","230552","0.0-236.0","6320a1395b4e05325c746101","665500ab8938657b03fbdba8","665792ac3431f6ebb88869f1","229","stimuli/20100002.jpg"," ","","feedback_trial","2","","","","","","","","","","","","","","","","","","","","",""
"","","","","","image-keyboard-response","262","231292","0.0-237.0","6320a1395b4e05325c746101","665500ab8938657b03fbdba8","665792ac3431f6ebb88869f1","739","stimuli/1001110.jpg","1","","prediction_trial","1","","true","","1","false","false","true","true","false","false","[1]","001","110","1","","","","","","",""
"","","","","","image-keyboard-response","263","231722","0.0-238.0","6320a1395b4e05325c746101","665500ab8938657b03fbdba8","665792ac3431f6ebb88869f1","430","stimuli/10011101.jpg"," ","","feedback_trial","1","","","","","","","","","","","","","","","","","","","","",""
"","","","","","image-keyboard-response","264","233292","0.0-239.0","6320a1395b4e05325c746101","665500ab8938657b03fbdba8","665792ac3431f6ebb88869f1","1569","stimuli/2111111.jpg","0","","prediction_trial","1","","false","","2","false","false","false","false","false","false","[1,2,0]","111","111","0","","","","","","",""
"","","","","","image-keyboard-response","265","233663","0.0-240.0","6320a1395b4e05325c746101","665500ab8938657b03fbdba8","665792ac3431f6ebb88869f1","370","stimuli/21111111.jpg"," ","","feedback_trial","1","","","","","","","","","","","","","","","","","","","","",""
"","","","","","image-keyboard-response","266","234213","0.0-241.0","6320a1395b4e05325c746101","665500ab8938657b03fbdba8","665792ac3431f6ebb88869f1","550","stimuli/2010110.jpg","2","","prediction_trial","2","","true","","2","true","true","true","true","true","true","[2]","010","110","1","","","","","","",""
"","","","","","image-keyboard-response","267","234472","0.0-242.0","6320a1395b4e05325c746101","665500ab8938657b03fbdba8","665792ac3431f6ebb88869f1","259","stimuli/20101102.jpg"," ","","feedback_trial","2","","","","","","","","","","","","","","","","","","","","",""
"","","","","","image-keyboard-response","268","235102","0.0-243.0","6320a1395b4e05325c746101","665500ab8938657b03fbdba8","665792ac3431f6ebb88869f1","630","stimuli/1010011.jpg","1","","prediction_trial","1","","true","","1","false","false","false","true","false","false","[1]","010","011","1","","","","","","",""
"","","","","","image-keyboard-response","269","235332","0.0-244.0","6320a1395b4e05325c746101","665500ab8938657b03fbdba8","665792ac3431f6ebb88869f1","230","stimuli/10100111.jpg"," ","","feedback_trial","1","","","","","","","","","","","","","","","","","","","","",""
"","","","","","image-keyboard-response","270","235903","0.0-245.0","6320a1395b4e05325c746101","665500ab8938657b03fbdba8","665792ac3431f6ebb88869f1","571","stimuli/1100110.jpg","0","","prediction_trial","1","","false","","1","false","false","true","true","false","false","[1]","100","110","0","","","","","","",""
"","","","","","image-keyboard-response","271","236142","0.0-246.0","6320a1395b4e05325c746101","665500ab8938657b03fbdba8","665792ac3431f6ebb88869f1","239","stimuli/11001101.jpg"," ","","feedback_trial","1","","","","","","","","","","","","","","","","","","","","",""
"","","","","","image-keyboard-response","272","236622","0.0-247.0","6320a1395b4e05325c746101","665500ab8938657b03fbdba8","665792ac3431f6ebb88869f1","479","stimuli/1101000.jpg","1","","prediction_trial","1","","true","","1","true","true","true","true","true","true","[1]","101","000","1","","","","","","",""
"","","","","","image-keyboard-response","273","236842","0.0-248.0","6320a1395b4e05325c746101","665500ab8938657b03fbdba8","665792ac3431f6ebb88869f1","220","stimuli/11010001.jpg"," ","","feedback_trial","1","","","","","","","","","","","","","","","","","","","","",""
"","","","","","image-keyboard-response","274","237453","0.0-249.0","6320a1395b4e05325c746101","665500ab8938657b03fbdba8","665792ac3431f6ebb88869f1","610","stimuli/2110001.jpg","2","","prediction_trial","2","","true","","2","false","true","true","true","false","true","[2]","110","001","1","","","","","","",""
"","","","","","image-keyboard-response","275","237682","0.0-250.0","6320a1395b4e05325c746101","665500ab8938657b03fbdba8","665792ac3431f6ebb88869f1","229","stimuli/21100012.jpg"," ","","feedback_trial","2","","","","","","","","","","","","","","","","","","","","",""
"","","","","","image-keyboard-response","276","238252","0.0-251.0","6320a1395b4e05325c746101","665500ab8938657b03fbdba8","665792ac3431f6ebb88869f1","569","stimuli/2101000.jpg","2","","prediction_trial","2","","true","","2","true","true","false","false","false","false","[0,2]","101","000","1","","","","","","",""
"","","","","","image-keyboard-response","277","238402","0.0-252.0","6320a1395b4e05325c746101","665500ab8938657b03fbdba8","665792ac3431f6ebb88869f1","150","stimuli/21010002.jpg"," ","","feedback_trial","0","","","","","","","","","","","","","","","","","","","","",""
"","","","","","image-keyboard-response","278","238962","0.0-253.0","6320a1395b4e05325c746101","665500ab8938657b03fbdba8","665792ac3431f6ebb88869f1","560","stimuli/0011111.jpg","2","","prediction_trial","0","","false","","0","false","false","true","true","false","false","[0]","011","111","0","","","","","","",""
"","","","","","image-keyboard-response","279","239422","0.0-254.0","6320a1395b4e05325c746101","665500ab8938657b03fbdba8","665792ac3431f6ebb88869f1","460","stimuli/00111110.jpg"," ","","feedback_trial","0","","","","","","","","","","","","","","","","","","","","",""
"","","","","","image-keyboard-response","280","239775","0.0-255.0","6320a1395b4e05325c746101","665500ab8938657b03fbdba8","665792ac3431f6ebb88869f1","351","stimuli/1011000.jpg","1","","prediction_trial","1","","true","","1","true","true","false","false","false","false","[1,2]","011","000","1","","","","","","",""
"","","","","","image-keyboard-response","281","240002","0.0-256.0","6320a1395b4e05325c746101","665500ab8938657b03fbdba8","665792ac3431f6ebb88869f1","226","stimuli/10110001.jpg"," ","","feedback_trial","1","","","","","","","","","","","","","","","","","","","","",""
"","","","","","image-keyboard-response","282","240443","0.0-257.0","6320a1395b4e05325c746101","665500ab8938657b03fbdba8","665792ac3431f6ebb88869f1","439","stimuli/2000100.jpg","2","","prediction_trial","2","","true","","2","true","true","true","true","true","true","[2]","000","100","1","","","","","","",""
"","","","","","image-keyboard-response","283","240673","0.0-258.0","6320a1395b4e05325c746101","665500ab8938657b03fbdba8","665792ac3431f6ebb88869f1","230","stimuli/20001002.jpg"," ","","feedback_trial","2","","","","","","","","","","","","","","","","","","","","",""
"","","","","","image-keyboard-response","284","241423","0.0-259.0","6320a1395b4e05325c746101","665500ab8938657b03fbdba8","665792ac3431f6ebb88869f1","749","stimuli/0010111.jpg","1","","prediction_trial","0","","false","","0","false","false","true","true","false","false","[0]","010","111","0","","","","","","",""
"","","","","","image-keyboard-response","285","241712","0.0-260.0","6320a1395b4e05325c746101","665500ab8938657b03fbdba8","665792ac3431f6ebb88869f1","290","stimuli/00101110.jpg"," ","","feedback_trial","0","","","","","","","","","","","","","","","","","","","","",""
"","","","","","image-keyboard-response","286","242292","0.0-261.0","6320a1395b4e05325c746101","665500ab8938657b03fbdba8","665792ac3431f6ebb88869f1","579","stimuli/0011001.jpg","0","","prediction_trial","0","","true","","0","true","true","true","true","true","true","[0]","011","001","1","","","","","","",""
"","","","","","image-keyboard-response","287","242453","0.0-262.0","6320a1395b4e05325c746101","665500ab8938657b03fbdba8","665792ac3431f6ebb88869f1","160","stimuli/00110010.jpg"," ","","feedback_trial","0","","","","","","","","","","","","","","","","","","","","",""
"","","","","","image-keyboard-response","288","242812","0.0-263.0","6320a1395b4e05325c746101","665500ab8938657b03fbdba8","665792ac3431f6ebb88869f1","359","stimuli/2101100.jpg","2","","prediction_trial","0","","false","","2","true","true","false","false","false","false","[2,0]","101","100","0","","","","","","",""
"","","","","","image-keyboard-response","289","243022","0.0-264.0","6320a1395b4e05325c746101","665500ab8938657b03fbdba8","665792ac3431f6ebb88869f1","210","stimuli/21011000.jpg"," ","","feedback_trial","2","","","","","","","","","","","","","","","","","","","","",""
"","","","","","image-keyboard-response","290","243603","0.0-265.0","6320a1395b4e05325c746101","665500ab8938657b03fbdba8","665792ac3431f6ebb88869f1","580","stimuli/1101111.jpg","2","","prediction_trial","1","","false","","1","false","false","true","true","false","false","[1]","101","111","0","","","","","","",""
"","","","","","image-keyboard-response","291","244022","0.0-266.0","6320a1395b4e05325c746101","665500ab8938657b03fbdba8","665792ac3431f6ebb88869f1","420","stimuli/11011111.jpg"," ","","feedback_trial","1","","","","","","","","","","","","","","","","","","","","",""
"","","","","","image-keyboard-response","292","244543","0.0-267.0","6320a1395b4e05325c746101","665500ab8938657b03fbdba8","665792ac3431f6ebb88869f1","520","stimuli/2110010.jpg","2","","prediction_trial","2","","true","","2","true","true","true","true","true","true","[2]","110","010","1","","","","","","",""
"","","","","","image-keyboard-response","293","244763","0.0-268.0","6320a1395b4e05325c746101","665500ab8938657b03fbdba8","665792ac3431f6ebb88869f1","220","stimuli/21100102.jpg"," ","","feedback_trial","2","","","","","","","","","","","","","","","","","","","","",""
"","","","","","image-keyboard-response","294","245292","0.0-269.0","6320a1395b4e05325c746101","665500ab8938657b03fbdba8","665792ac3431f6ebb88869f1","529","stimuli/1111000.jpg","1","","prediction_trial","2","","false","","1","true","true","false","false","false","false","[0,1,2]","111","000","0","","","","","","",""
"","","","","","image-keyboard-response","295","245473","0.0-270.0","6320a1395b4e05325c746101","665500ab8938657b03fbdba8","665792ac3431f6ebb88869f1","179","stimuli/11110002.jpg"," ","","feedback_trial","0","","","","","","","","","","","","","","","","","","","","",""
"","","","","","image-keyboard-response","296","246153","0.0-271.0","6320a1395b4e05325c746101","665500ab8938657b03fbdba8","665792ac3431f6ebb88869f1","679","stimuli/2100110.jpg","2","","prediction_trial","2","","true","","2","true","true","true","true","true","true","[2]","100","110","1","","","","","","",""
"","","","","","image-keyboard-response","297","246353","0.0-272.0","6320a1395b4e05325c746101","665500ab8938657b03fbdba8","665792ac3431f6ebb88869f1","200","stimuli/21001102.jpg"," ","","feedback_trial","2","","","","","","","","","","","","","","","","","","","","",""
"","","","","","image-keyboard-response","298","246882","0.0-273.0","6320a1395b4e05325c746101","665500ab8938657b03fbdba8","665792ac3431f6ebb88869f1","528","stimuli/2000011.jpg","0","","prediction_trial","2","","false","","2","false","false","true","true","false","false","[2]","000","011","0","","","","","","",""
"","","","","","image-keyboard-response","299","247222","0.0-274.0","6320a1395b4e05325c746101","665500ab8938657b03fbdba8","665792ac3431f6ebb88869f1","340","stimuli/20000112.jpg"," ","","feedback_trial","2","","","","","","","","","","","","","","","","","","","","",""
"","","","","","image-keyboard-response","300","247722","0.0-275.0","6320a1395b4e05325c746101","665500ab8938657b03fbdba8","665792ac3431f6ebb88869f1","500","stimuli/2001000.jpg","2","","prediction_trial","2","","true","","2","true","true","false","true","false","true","[2]","001","000","1","","","","","","",""
"","","","","","image-keyboard-response","301","248062","0.0-276.0","6320a1395b4e05325c746101","665500ab8938657b03fbdba8","665792ac3431f6ebb88869f1","339","stimuli/20010002.jpg"," ","","feedback_trial","2","","","","","","","","","","","","","","","","","","","","",""
"","","","","","image-keyboard-response","302","248993","0.0-277.0","6320a1395b4e05325c746101","665500ab8938657b03fbdba8","665792ac3431f6ebb88869f1","930","stimuli/0110101.jpg","0","","prediction_trial","1","","false","","0","false","false","false","false","false","false","[0,1]","110","101","0","","","","","","",""
"","","","","","image-keyboard-response","303","249192","0.0-278.0","6320a1395b4e05325c746101","665500ab8938657b03fbdba8","665792ac3431f6ebb88869f1","199","stimuli/01101011.jpg"," ","","feedback_trial","0","","","","","","","","","","","","","","","","","","","","",""
"","","","","","image-keyboard-response","304","249792","0.0-279.0","6320a1395b4e05325c746101","665500ab8938657b03fbdba8","665792ac3431f6ebb88869f1","600","stimuli/0001111.jpg","2","","prediction_trial","0","","false","","0","false","false","true","true","false","false","[0]","001","111","0","","","","","","",""
"","","","","","image-keyboard-response","305","250222","0.0-280.0","6320a1395b4e05325c746101","665500ab8938657b03fbdba8","665792ac3431f6ebb88869f1","430","stimuli/00011110.jpg"," ","","feedback_trial","0","","","","","","","","","","","","","","","","","","","","",""
"","","","","","image-keyboard-response","306","250862","0.0-281.0","6320a1395b4e05325c746101","665500ab8938657b03fbdba8","665792ac3431f6ebb88869f1","637","stimuli/0110000.jpg","0","","prediction_trial","0","","true","","0","true","true","false","false","false","false","[1,0]","110","000","1","","","","","","",""
"","","","","","image-keyboard-response","307","251062","0.0-282.0","6320a1395b4e05325c746101","665500ab8938657b03fbdba8","665792ac3431f6ebb88869f1","200","stimuli/01100000.jpg"," ","","feedback_trial","1","","","","","","","","","","","","","","","","","","","","",""
"","","","","","image-keyboard-response","308","252592","0.0-283.0","6320a1395b4e05325c746101","665500ab8938657b03fbdba8","665792ac3431f6ebb88869f1","1530","stimuli/1100111.jpg","1","","prediction_trial","1","","true","","1","false","false","true","true","false","false","[1]","100","111","1","","","","","","",""
"","","","","","image-keyboard-response","309","252822","0.0-284.0","6320a1395b4e05325c746101","665500ab8938657b03fbdba8","665792ac3431f6ebb88869f1","229","stimuli/11001111.jpg"," ","","feedback_trial","1","","","","","","","","","","","","","","","","","","","","",""
"","","","","","image-keyboard-response","310","253583","0.0-285.0","6320a1395b4e05325c746101","665500ab8938657b03fbdba8","665792ac3431f6ebb88869f1","761","stimuli/2010010.jpg","2","","prediction_trial","2","","true","","2","true","true","true","true","true","true","[2]","010","010","1","","","","","","",""
"","","","","","image-keyboard-response","311","253742","0.0-286.0","6320a1395b4e05325c746101","665500ab8938657b03fbdba8","665792ac3431f6ebb88869f1","159","stimuli/20100102.jpg"," ","","feedback_trial","2","","","","","","","","","","","","","","","","","","","","",""
"","","","","","image-keyboard-response","312","254882","0.0-287.0","6320a1395b4e05325c746101","665500ab8938657b03fbdba8","665792ac3431f6ebb88869f1","1140","stimuli/1000011.jpg","0","","prediction_trial","1","","false","","1","false","false","true","true","false","false","[1]","000","011","0","","","","","","",""
"","","","","","image-keyboard-response","313","254992","0.0-288.0","6320a1395b4e05325c746101","665500ab8938657b03fbdba8","665792ac3431f6ebb88869f1","110","stimuli/10000111.jpg"," ","","feedback_trial","1","","","","","","","","","","","","","","","","","","","","",""
"","","","","","image-keyboard-response","314","255893","0.0-289.0","6320a1395b4e05325c746101","665500ab8938657b03fbdba8","665792ac3431f6ebb88869f1","899","stimuli/0111111.jpg","0","","prediction_trial","0","","true","","0","false","false","false","false","false","false","[2,1,0]","111","111","1","","","","","","",""
"","","","","","image-keyboard-response","315","256123","0.0-290.0","6320a1395b4e05325c746101","665500ab8938657b03fbdba8","665792ac3431f6ebb88869f1","230","stimuli/01111110.jpg"," ","","feedback_trial","2","","","","","","","","","","","","","","","","","","","","",""
"","","","","","image-keyboard-response","316","256693","0.0-291.0","6320a1395b4e05325c746101","665500ab8938657b03fbdba8","665792ac3431f6ebb88869f1","569","stimuli/2000101.jpg","2","","prediction_trial","2","","true","","2","false","false","true","true","false","false","[2]","000","101","1","","","","","","",""
"","","","","","image-keyboard-response","317","257573","0.0-292.0","6320a1395b4e05325c746101","665500ab8938657b03fbdba8","665792ac3431f6ebb88869f1","880","stimuli/20001012.jpg"," ","","feedback_trial","2","","","","","","","","","","","","","","","","","","","","",""
"","","","","","survey-html-form","318","283801","0.0-293.0","6320a1395b4e05325c746101","665500ab8938657b03fbdba8","665792ac3431f6ebb88869f1","26227","","{""feedback"":""No questions or comments, good study!"",""age"":""23"",""gender"":""Male"",""other_gender"":"""",""race"":""White"",""other_race"":"""",""ethnicity"":""Non-Hispanic""}","","exit_survey","","","","","","","","","","","","","","","","No questions or comments, good study!","23","Non-Hispanic","Male","White","0.6388888888888888","0.6388888888888888"
