"success","timeout","failed_images","failed_audio","failed_video","trial_type","trial_index","time_elapsed","internal_node_id","prolific_id","prolific_study_id","prolific_session_id","rt","stimulus","response","view_history","trial","character_choice","stimulus_dict","accuracy","correct_response","ball_pos","ego_ball_visible","ego_can_infer","alter_ball_visible","alter_can_infer","collective_ball_visible","collective_can_infer","search_locations","alter_occluders","ego_occluders","accuracy_bool","feedback","age","ethnicity","gender","race","overall_accuracy","bonus"
"true","false","[]","[]","[]","preload","0","4673","0.0-0.0","61705dad05413013eb3d7d00","665500ab8938657b03fbdba8","665792a195cc9ccd2b0b7bc2","","","","","","","","","","","","","","","","","","","","","","","","","","",""
"true","","","","","fullscreen","1","11311","0.0-1.0","61705dad05413013eb3d7d00","665500ab8938657b03fbdba8","665792a195cc9ccd2b0b7bc2","","","","","","","","","","","","","","","","","","","","","","","","","","",""
"","","","","","html-button-response","2","14573","0.0-2.0","61705dad05413013eb3d7d00","665500ab8938657b03fbdba8","665792a195cc9ccd2b0b7bc2","3257","<p><b>Consent Form</b></p> <div style=""text-align:left;background-color:lightgrey; padding:20px; max-width:900px;""><p>Please consider this information carefully before deciding whether to participate in this research.</p> <p>The purpose of this research is to examine which factors influence social judgment and decision-making. You will be asked to make judgements about individuals and actions in social scenarios. We are simply interested in your judgement. The study will take less than 1 hour to complete, and you will receive less than $20 on Prolific. Your compensation and time commitment are specified in the study description. There are no anticipated risks associated with participating in this study. The effects of participating should be comparable to those you would ordinarily experience from viewing a computer monitor and using a mouse or keyboard for a similar amount of time. At the end of the study, we will provide an explanation of the questions that motivate this line of research and will describe the potential implications. </p><p> Your participation in this study is completely voluntary and you may refuse to participate or you may choose to withdraw at any time without penalty or loss of benefits to you which are otherwise entitled. Your participation in this study will remain confidential. No personally identifiable information will be associated with your data. Also, all analyses of the data will be averaged across all the participants, so your individual responses will never be specifically analyzed. </p><p> If you have questions or concerns about your participation or payment, or want to request a summary of research findings, please contact Dr. Jonathan Phillips at Jonathan.S.Phillips@dartmouth.edu. </p><p> Please save a copy of this form for your records. </p><p><b>Agreement: </b>The nature and purpose of this research have been sufficiently explained and I agree to participate in this study. I understand that I am free to withdraw at any time without incurring any penalty. Please consent by clicking the button below to continue. Otherwise, please exit the study at any time. </p>","0","","","","","","","","","","","","","","","","","","","","","","","",""
"","","","","","instructions","3","59927","0.0-3.0-0.0","61705dad05413013eb3d7d00","665500ab8938657b03fbdba8","665792a195cc9ccd2b0b7bc2","45352","","","[{""page_index"":0,""viewing_time"":2348},{""page_index"":1,""viewing_time"":1932},{""page_index"":2,""viewing_time"":2036},{""page_index"":3,""viewing_time"":3740},{""page_index"":4,""viewing_time"":2456},{""page_index"":5,""viewing_time"":3047},{""page_index"":6,""viewing_time"":3287},{""page_index"":7,""viewing_time"":2858},{""page_index"":8,""viewing_time"":2455},{""page_index"":9,""viewing_time"":3673},{""page_index"":10,""viewing_time"":5712},{""page_index"":11,""viewing_time"":6027},{""page_index"":12,""viewing_time"":4298},{""page_index"":13,""viewing_time"":1482}]","intro","","","","","","","","","","","","","","","","","","","","","",""
"","","","","","image-keyboard-response","4","62585","0.0-3.0-1.0","61705dad05413013eb3d7d00","665500ab8938657b03fbdba8","665792a195cc9ccd2b0b7bc2","2649","stimuli/2011111.jpg","0","","prediction_practice","1","{""filepath"":""stimuli/2011111.jpg"",""ball_pos"":2,""ego_ball_visible"":false,""ego_can_infer"":false,""alter_ball_visible"":false,""alter_can_infer"":false,""collective_ball_visible"":false,""collective_can_infer"":false,""search_locations"":[1,2],""alter_occluders"":""011"",""ego_occluders"":""111""}","false","","","","","","","","","","","","","","","","","","",""
"","","","","","image-keyboard-response","5","66181","0.0-3.0-2.0","61705dad05413013eb3d7d00","665500ab8938657b03fbdba8","665792a195cc9ccd2b0b7bc2","3591","stimuli/20111111.jpg"," ","","practrice_feedback","1","","","","","","","","","","","","","","","","","","","","",""
"","","","","","image-keyboard-response","6","70750","0.0-3.0-3.0","61705dad05413013eb3d7d00","665500ab8938657b03fbdba8","665792a195cc9ccd2b0b7bc2","4566","stimuli/0101010.jpg","1","","prediction_practice","0","{""filepath"":""stimuli/0101010.jpg"",""ball_pos"":0,""ego_ball_visible"":true,""ego_can_infer"":true,""alter_ball_visible"":false,""alter_can_infer"":false,""collective_ball_visible"":false,""collective_can_infer"":false,""search_locations"":[2,0],""alter_occluders"":""101"",""ego_occluders"":""010""}","false","","","","","","","","","","","","","","","","","","",""
"","","","","","image-keyboard-response","7","75366","0.0-3.0-4.0","61705dad05413013eb3d7d00","665500ab8938657b03fbdba8","665792a195cc9ccd2b0b7bc2","4612","stimuli/01010100.jpg"," ","","practrice_feedback","2","","","","","","","","","","","","","","","","","","","","",""
"","","","","","image-keyboard-response","8","80608","0.0-3.0-5.0","61705dad05413013eb3d7d00","665500ab8938657b03fbdba8","665792a195cc9ccd2b0b7bc2","5239","stimuli/2100101.jpg","1","","prediction_practice","2","{""filepath"":""stimuli/2100101.jpg"",""ball_pos"":2,""ego_ball_visible"":false,""ego_can_infer"":false,""alter_ball_visible"":true,""alter_can_infer"":true,""collective_ball_visible"":false,""collective_can_infer"":false,""search_locations"":[2],""alter_occluders"":""100"",""ego_occluders"":""101""}","false","","","","","","","","","","","","","","","","","","",""
"","","","","","image-keyboard-response","9","85383","0.0-3.0-6.0","61705dad05413013eb3d7d00","665500ab8938657b03fbdba8","665792a195cc9ccd2b0b7bc2","4771","stimuli/21001012.jpg"," ","","practrice_feedback","2","","","","","","","","","","","","","","","","","","","","",""
"","","","","","image-keyboard-response","10","88021","0.0-3.0-7.0","61705dad05413013eb3d7d00","665500ab8938657b03fbdba8","665792a195cc9ccd2b0b7bc2","2635","stimuli/1010100.jpg","2","","prediction_practice","1","{""filepath"":""stimuli/1010100.jpg"",""ball_pos"":1,""ego_ball_visible"":true,""ego_can_infer"":true,""alter_ball_visible"":false,""alter_can_infer"":true,""collective_ball_visible"":false,""collective_can_infer"":true,""search_locations"":[1],""alter_occluders"":""010"",""ego_occluders"":""100""}","false","","","","","","","","","","","","","","","","","","",""
"","","","","","image-keyboard-response","11","90279","0.0-3.0-8.0","61705dad05413013eb3d7d00","665500ab8938657b03fbdba8","665792a195cc9ccd2b0b7bc2","2255","stimuli/10101001.jpg"," ","","practrice_feedback","1","","","","","","","","","","","","","","","","","","","","",""
"","","","","","image-keyboard-response","12","96814","0.0-3.0-9.0","61705dad05413013eb3d7d00","665500ab8938657b03fbdba8","665792a195cc9ccd2b0b7bc2","6531","stimuli/2000101.jpg","1","","prediction_practice","2","{""filepath"":""stimuli/2000101.jpg"",""ball_pos"":2,""ego_ball_visible"":false,""ego_can_infer"":false,""alter_ball_visible"":true,""alter_can_infer"":true,""collective_ball_visible"":false,""collective_can_infer"":false,""search_locations"":[2],""alter_occluders"":""000"",""ego_occluders"":""101""}","false","","","","","","","","","","","","","","","","","","",""
"","","","","","image-keyboard-response","13","99712","0.0-3.0-10.0","61705dad05413013eb3d7d00","665500ab8938657b03fbdba8","665792a195cc9ccd2b0b7bc2","2895","stimuli/20001012.jpg"," ","","practrice_feedback","2","","","","","","","","","","","","","","","","","","","","",""
"","","","","","image-keyboard-response","14","100939","0.0-3.0-11.0","61705dad05413013eb3d7d00","665500ab8938657b03fbdba8","665792a195cc9ccd2b0b7bc2","1224","stimuli/2011011.jpg","0","","prediction_practice","1","{""filepath"":""stimuli/2011011.jpg"",""ball_pos"":2,""ego_ball_visible"":false,""ego_can_infer"":false,""alter_ball_visible"":false,""alter_can_infer"":false,""collective_ball_visible"":false,""collective_can_infer"":false,""search_locations"":[1,2],""alter_occluders"":""011"",""ego_occluders"":""011""}","false","","","","","","","","","","","","","","","","","","",""
"","","","","","image-keyboard-response","15","103762","0.0-3.0-12.0","61705dad05413013eb3d7d00","665500ab8938657b03fbdba8","665792a195cc9ccd2b0b7bc2","2820","stimuli/20110111.jpg"," ","","practrice_feedback","1","","","","","","","","","","","","","","","","","","","","",""
"","","","","","image-keyboard-response","16","105183","0.0-3.0-13.0","61705dad05413013eb3d7d00","665500ab8938657b03fbdba8","665792a195cc9ccd2b0b7bc2","1418","stimuli/1001000.jpg","0","","prediction_practice","1","{""filepath"":""stimuli/1001000.jpg"",""ball_pos"":1,""ego_ball_visible"":true,""ego_can_infer"":true,""alter_ball_visible"":true,""alter_can_infer"":true,""collective_ball_visible"":true,""collective_can_infer"":true,""search_locations"":[1],""alter_occluders"":""001"",""ego_occluders"":""000""}","false","","","","","","","","","","","","","","","","","","",""
"","","","","","image-keyboard-response","17","108274","0.0-3.0-14.0","61705dad05413013eb3d7d00","665500ab8938657b03fbdba8","665792a195cc9ccd2b0b7bc2","3087","stimuli/10010001.jpg"," ","","practrice_feedback","1","","","","","","","","","","","","","","","","","","","","",""
"","","","","","image-keyboard-response","18","111429","0.0-3.0-15.0","61705dad05413013eb3d7d00","665500ab8938657b03fbdba8","665792a195cc9ccd2b0b7bc2","3152","stimuli/2111110.jpg","2","","prediction_practice","1","{""filepath"":""stimuli/2111110.jpg"",""ball_pos"":2,""ego_ball_visible"":true,""ego_can_infer"":true,""alter_ball_visible"":false,""alter_can_infer"":false,""collective_ball_visible"":false,""collective_can_infer"":false,""search_locations"":[0,2,1],""alter_occluders"":""111"",""ego_occluders"":""110""}","false","","","","","","","","","","","","","","","","","","",""
"","","","","","image-keyboard-response","19","112902","0.0-3.0-16.0","61705dad05413013eb3d7d00","665500ab8938657b03fbdba8","665792a195cc9ccd2b0b7bc2","1470","stimuli/21111101.jpg"," ","","practrice_feedback","0","","","","","","","","","","","","","","","","","","","","",""
"","","","","","image-keyboard-response","20","118587","0.0-3.0-17.0","61705dad05413013eb3d7d00","665500ab8938657b03fbdba8","665792a195cc9ccd2b0b7bc2","5683","stimuli/1011001.jpg","0","","prediction_practice","1","{""filepath"":""stimuli/1011001.jpg"",""ball_pos"":1,""ego_ball_visible"":true,""ego_can_infer"":true,""alter_ball_visible"":false,""alter_can_infer"":false,""collective_ball_visible"":false,""collective_can_infer"":false,""search_locations"":[1,2],""alter_occluders"":""011"",""ego_occluders"":""001""}","false","","","","","","","","","","","","","","","","","","",""
"","","","","","image-keyboard-response","21","120563","0.0-3.0-18.0","61705dad05413013eb3d7d00","665500ab8938657b03fbdba8","665792a195cc9ccd2b0b7bc2","1973","stimuli/10110011.jpg"," ","","practrice_feedback","1","","","","","","","","","","","","","","","","","","","","",""
"","","","","","image-keyboard-response","22","122119","0.0-3.0-19.0","61705dad05413013eb3d7d00","665500ab8938657b03fbdba8","665792a195cc9ccd2b0b7bc2","1554","stimuli/1000010.jpg","2","","prediction_practice","1","{""filepath"":""stimuli/1000010.jpg"",""ball_pos"":1,""ego_ball_visible"":false,""ego_can_infer"":true,""alter_ball_visible"":true,""alter_can_infer"":true,""collective_ball_visible"":false,""collective_can_infer"":true,""search_locations"":[1],""alter_occluders"":""000"",""ego_occluders"":""010""}","false","","","","","","","","","","","","","","","","","","",""
"","","","","","image-keyboard-response","23","123624","0.0-3.0-20.0","61705dad05413013eb3d7d00","665500ab8938657b03fbdba8","665792a195cc9ccd2b0b7bc2","1503","stimuli/10000101.jpg"," ","","practrice_feedback","1","","","","","","","","","","","","","","","","","","","","",""
"","","","","","html-button-response","24","126739","0.0-3.0-21.0","61705dad05413013eb3d7d00","665500ab8938657b03fbdba8","665792a195cc9ccd2b0b7bc2","3112","Now that you've had some practice, you'll be tested with a couple of easy trials. If you correctly predict Sam's choice, you'll move on to complete the experiment!","0","","","","","","","","","","","","","","","","","","","","","","","",""
"","","","","","image-keyboard-response","25","138436","0.0-3.0-22.0-0.0","61705dad05413013eb3d7d00","665500ab8938657b03fbdba8","665792a195cc9ccd2b0b7bc2","11694","stimuli/0000011.jpg","arrowleft","","comprehension_quiz","","","true","arrowleft","","","","","","","","","","","","","","","","","",""
"","","","","","image-keyboard-response","26","140343","0.0-3.0-22.0-1.0","61705dad05413013eb3d7d00","665500ab8938657b03fbdba8","665792a195cc9ccd2b0b7bc2","1901","stimuli/00000110.jpg"," ","","comprehension_quiz","","","true"," ","","","","","","","","","","","","","","","","","",""
"","","","","","image-keyboard-response","27","141976","0.0-3.0-22.0-2.0","61705dad05413013eb3d7d00","665500ab8938657b03fbdba8","665792a195cc9ccd2b0b7bc2","1630","stimuli/1010010.jpg","arrowright","","comprehension_quiz","","","false","arrowdown","","","","","","","","","","","","","","","","","",""
"","","","","","image-keyboard-response","28","142867","0.0-3.0-22.0-3.0","61705dad05413013eb3d7d00","665500ab8938657b03fbdba8","665792a195cc9ccd2b0b7bc2","889","stimuli/10100101.jpg"," ","","comprehension_quiz","","","true"," ","","","","","","","","","","","","","","","","","",""
"","","","","","html-button-response","29","145904","0.0-3.0-23.0-0.0","61705dad05413013eb3d7d00","665500ab8938657b03fbdba8","665792a195cc9ccd2b0b7bc2","3032","<p> Oops! You have answered one or more questions incorrectly.</p><p> Please Review the instructions again before continuing with the experiment </p>","0","","fail_message","","","false","","","","","","","","","","","","","","","","","","",""
"","","","","","instructions","30","169578","0.0-3.1-0.1","61705dad05413013eb3d7d00","665500ab8938657b03fbdba8","665792a195cc9ccd2b0b7bc2","23672","","","[{""page_index"":0,""viewing_time"":2261},{""page_index"":1,""viewing_time"":1225},{""page_index"":2,""viewing_time"":1947},{""page_index"":3,""viewing_time"":1093},{""page_index"":4,""viewing_time"":855},{""page_index"":5,""viewing_time"":456},{""page_index"":6,""viewing_time"":543},{""page_index"":7,""viewing_time"":685},{""page_index"":8,""viewing_time"":838},{""page_index"":9,""viewing_time"":571},{""page_index"":10,""viewing_time"":8414},{""page_index"":11,""viewing_time"":2109},{""page_index"":12,""viewing_time"":1687},{""page_index"":13,""viewing_time"":988}]","intro","","","","","","","","","","","","","","","","","","","","","",""
"","","","","","image-keyboard-response","31","172449","0.0-3.1-1.1","61705dad05413013eb3d7d00","665500ab8938657b03fbdba8","665792a195cc9ccd2b0b7bc2","2867","stimuli/2011111.jpg","0","","prediction_practice","1","{""filepath"":""stimuli/2011111.jpg"",""ball_pos"":2,""ego_ball_visible"":false,""ego_can_infer"":false,""alter_ball_visible"":false,""alter_can_infer"":false,""collective_ball_visible"":false,""collective_can_infer"":false,""search_locations"":[1,2],""alter_occluders"":""011"",""ego_occluders"":""111""}","false","","","","","","","","","","","","","","","","","","",""
"","","","","","image-keyboard-response","32","175994","0.0-3.1-2.1","61705dad05413013eb3d7d00","665500ab8938657b03fbdba8","665792a195cc9ccd2b0b7bc2","3542","stimuli/20111111.jpg"," ","","practrice_feedback","1","","","","","","","","","","","","","","","","","","","","",""
"","","","","","image-keyboard-response","33","179201","0.0-3.1-3.1","61705dad05413013eb3d7d00","665500ab8938657b03fbdba8","665792a195cc9ccd2b0b7bc2","3205","stimuli/0101010.jpg","1","","prediction_practice","0","{""filepath"":""stimuli/0101010.jpg"",""ball_pos"":0,""ego_ball_visible"":true,""ego_can_infer"":true,""alter_ball_visible"":false,""alter_can_infer"":false,""collective_ball_visible"":false,""collective_can_infer"":false,""search_locations"":[2,0],""alter_occluders"":""101"",""ego_occluders"":""010""}","false","","","","","","","","","","","","","","","","","","",""
"","","","","","image-keyboard-response","34","181949","0.0-3.1-4.1","61705dad05413013eb3d7d00","665500ab8938657b03fbdba8","665792a195cc9ccd2b0b7bc2","2745","stimuli/01010100.jpg"," ","","practrice_feedback","2","","","","","","","","","","","","","","","","","","","","",""
"","","","","","image-keyboard-response","35","183051","0.0-3.1-5.1","61705dad05413013eb3d7d00","665500ab8938657b03fbdba8","665792a195cc9ccd2b0b7bc2","1099","stimuli/2100101.jpg","0","","prediction_practice","2","{""filepath"":""stimuli/2100101.jpg"",""ball_pos"":2,""ego_ball_visible"":false,""ego_can_infer"":false,""alter_ball_visible"":true,""alter_can_infer"":true,""collective_ball_visible"":false,""collective_can_infer"":false,""search_locations"":[2],""alter_occluders"":""100"",""ego_occluders"":""101""}","false","","","","","","","","","","","","","","","","","","",""
"","","","","","image-keyboard-response","36","185018","0.0-3.1-6.1","61705dad05413013eb3d7d00","665500ab8938657b03fbdba8","665792a195cc9ccd2b0b7bc2","1963","stimuli/21001012.jpg"," ","","practrice_feedback","2","","","","","","","","","","","","","","","","","","","","",""
"","","","","","image-keyboard-response","37","187861","0.0-3.1-7.1","61705dad05413013eb3d7d00","665500ab8938657b03fbdba8","665792a195cc9ccd2b0b7bc2","2840","stimuli/1010100.jpg","2","","prediction_practice","1","{""filepath"":""stimuli/1010100.jpg"",""ball_pos"":1,""ego_ball_visible"":true,""ego_can_infer"":true,""alter_ball_visible"":false,""alter_can_infer"":true,""collective_ball_visible"":false,""collective_can_infer"":true,""search_locations"":[1],""alter_occluders"":""010"",""ego_occluders"":""100""}","false","","","","","","","","","","","","","","","","","","",""
"","","","","","image-keyboard-response","38","190084","0.0-3.1-8.1","61705dad05413013eb3d7d00","665500ab8938657b03fbdba8","665792a195cc9ccd2b0b7bc2","2221","stimuli/10101001.jpg"," ","","practrice_feedback","1","","","","","","","","","","","","","","","","","","","","",""
"","","","","","image-keyboard-response","39","191900","0.0-3.1-9.1","61705dad05413013eb3d7d00","665500ab8938657b03fbdba8","665792a195cc9ccd2b0b7bc2","1815","stimuli/2000101.jpg","0","","prediction_practice","2","{""filepath"":""stimuli/2000101.jpg"",""ball_pos"":2,""ego_ball_visible"":false,""ego_can_infer"":false,""alter_ball_visible"":true,""alter_can_infer"":true,""collective_ball_visible"":false,""collective_can_infer"":false,""search_locations"":[2],""alter_occluders"":""000"",""ego_occluders"":""101""}","false","","","","","","","","","","","","","","","","","","",""
"","","","","","image-keyboard-response","40","194815","0.0-3.1-10.1","61705dad05413013eb3d7d00","665500ab8938657b03fbdba8","665792a195cc9ccd2b0b7bc2","2911","stimuli/20001012.jpg"," ","","practrice_feedback","2","","","","","","","","","","","","","","","","","","","","",""
"","","","","","image-keyboard-response","41","196049","0.0-3.1-11.1","61705dad05413013eb3d7d00","665500ab8938657b03fbdba8","665792a195cc9ccd2b0b7bc2","1232","stimuli/2011011.jpg","2","","prediction_practice","1","{""filepath"":""stimuli/2011011.jpg"",""ball_pos"":2,""ego_ball_visible"":false,""ego_can_infer"":false,""alter_ball_visible"":false,""alter_can_infer"":false,""collective_ball_visible"":false,""collective_can_infer"":false,""search_locations"":[1,2],""alter_occluders"":""011"",""ego_occluders"":""011""}","false","","","","","","","","","","","","","","","","","","",""
"","","","","","image-keyboard-response","42","197608","0.0-3.1-12.1","61705dad05413013eb3d7d00","665500ab8938657b03fbdba8","665792a195cc9ccd2b0b7bc2","1555","stimuli/20110111.jpg"," ","","practrice_feedback","1","","","","","","","","","","","","","","","","","","","","",""
"","","","","","image-keyboard-response","43","200877","0.0-3.1-13.1","61705dad05413013eb3d7d00","665500ab8938657b03fbdba8","665792a195cc9ccd2b0b7bc2","3267","stimuli/1001000.jpg","1","","prediction_practice","1","{""filepath"":""stimuli/1001000.jpg"",""ball_pos"":1,""ego_ball_visible"":true,""ego_can_infer"":true,""alter_ball_visible"":true,""alter_can_infer"":true,""collective_ball_visible"":true,""collective_can_infer"":true,""search_locations"":[1],""alter_occluders"":""001"",""ego_occluders"":""000""}","true","","","","","","","","","","","","","","","","","","",""
"","","","","","image-keyboard-response","44","202099","0.0-3.1-14.1","61705dad05413013eb3d7d00","665500ab8938657b03fbdba8","665792a195cc9ccd2b0b7bc2","1221","stimuli/10010001.jpg"," ","","practrice_feedback","1","","","","","","","","","","","","","","","","","","","","",""
"","","","","","image-keyboard-response","45","203576","0.0-3.1-15.1","61705dad05413013eb3d7d00","665500ab8938657b03fbdba8","665792a195cc9ccd2b0b7bc2","1474","stimuli/2111110.jpg","2","","prediction_practice","1","{""filepath"":""stimuli/2111110.jpg"",""ball_pos"":2,""ego_ball_visible"":true,""ego_can_infer"":true,""alter_ball_visible"":false,""alter_can_infer"":false,""collective_ball_visible"":false,""collective_can_infer"":false,""search_locations"":[0,2,1],""alter_occluders"":""111"",""ego_occluders"":""110""}","false","","","","","","","","","","","","","","","","","","",""
"","","","","","image-keyboard-response","46","205049","0.0-3.1-16.1","61705dad05413013eb3d7d00","665500ab8938657b03fbdba8","665792a195cc9ccd2b0b7bc2","1470","stimuli/21111101.jpg"," ","","practrice_feedback","0","","","","","","","","","","","","","","","","","","","","",""
"","","","","","image-keyboard-response","47","207275","0.0-3.1-17.1","61705dad05413013eb3d7d00","665500ab8938657b03fbdba8","665792a195cc9ccd2b0b7bc2","2222","stimuli/1011001.jpg","0","","prediction_practice","1","{""filepath"":""stimuli/1011001.jpg"",""ball_pos"":1,""ego_ball_visible"":true,""ego_can_infer"":true,""alter_ball_visible"":false,""alter_can_infer"":false,""collective_ball_visible"":false,""collective_can_infer"":false,""search_locations"":[1,2],""alter_occluders"":""011"",""ego_occluders"":""001""}","false","","","","","","","","","","","","","","","","","","",""
"","","","","","image-keyboard-response","48","208425","0.0-3.1-18.1","61705dad05413013eb3d7d00","665500ab8938657b03fbdba8","665792a195cc9ccd2b0b7bc2","1148","stimuli/10110011.jpg"," ","","practrice_feedback","1","","","","","","","","","","","","","","","","","","","","",""
"","","","","","image-keyboard-response","49","209076","0.0-3.1-19.1","61705dad05413013eb3d7d00","665500ab8938657b03fbdba8","665792a195cc9ccd2b0b7bc2","648","stimuli/1000010.jpg","1","","prediction_practice","1","{""filepath"":""stimuli/1000010.jpg"",""ball_pos"":1,""ego_ball_visible"":false,""ego_can_infer"":true,""alter_ball_visible"":true,""alter_can_infer"":true,""collective_ball_visible"":false,""collective_can_infer"":true,""search_locations"":[1],""alter_occluders"":""000"",""ego_occluders"":""010""}","true","","","","","","","","","","","","","","","","","","",""
"","","","","","image-keyboard-response","50","213443","0.0-3.1-20.1","61705dad05413013eb3d7d00","665500ab8938657b03fbdba8","665792a195cc9ccd2b0b7bc2","4364","stimuli/10000101.jpg"," ","","practrice_feedback","1","","","","","","","","","","","","","","","","","","","","",""
"","","","","","html-button-response","51","216180","0.0-3.1-21.1","61705dad05413013eb3d7d00","665500ab8938657b03fbdba8","665792a195cc9ccd2b0b7bc2","2733","Now that you've had some practice, you'll be tested with a couple of easy trials. If you correctly predict Sam's choice, you'll move on to complete the experiment!","0","","","","","","","","","","","","","","","","","","","","","","","",""
"","","","","","image-keyboard-response","52","218827","0.0-3.1-22.1-0.1","61705dad05413013eb3d7d00","665500ab8938657b03fbdba8","665792a195cc9ccd2b0b7bc2","2644","stimuli/0000011.jpg","arrowleft","","comprehension_quiz","","","true","arrowleft","","","","","","","","","","","","","","","","","",""
"","","","","","image-keyboard-response","53","220091","0.0-3.1-22.1-1.1","61705dad05413013eb3d7d00","665500ab8938657b03fbdba8","665792a195cc9ccd2b0b7bc2","1260","stimuli/00000110.jpg"," ","","comprehension_quiz","","","true"," ","","","","","","","","","","","","","","","","","",""
"","","","","","image-keyboard-response","54","222196","0.0-3.1-22.1-2.1","61705dad05413013eb3d7d00","665500ab8938657b03fbdba8","665792a195cc9ccd2b0b7bc2","2102","stimuli/1010010.jpg","arrowright","","comprehension_quiz","","","false","arrowdown","","","","","","","","","","","","","","","","","",""
"","","","","","image-keyboard-response","55","223325","0.0-3.1-22.1-3.1","61705dad05413013eb3d7d00","665500ab8938657b03fbdba8","665792a195cc9ccd2b0b7bc2","1125","stimuli/10100101.jpg"," ","","comprehension_quiz","","","true"," ","","","","","","","","","","","","","","","","","",""
"","","","","","html-button-response","56","225927","0.0-3.1-23.1-0.1","61705dad05413013eb3d7d00","665500ab8938657b03fbdba8","665792a195cc9ccd2b0b7bc2","2598","<p> Oops! You have answered one or more questions incorrectly.</p><p> Please Review the instructions again before continuing with the experiment </p>","0","","fail_message","","","false","","","","","","","","","","","","","","","","","","",""
"","","","","","instructions","57","244024","0.0-3.2-0.2","61705dad05413013eb3d7d00","665500ab8938657b03fbdba8","665792a195cc9ccd2b0b7bc2","18095","","","[{""page_index"":0,""viewing_time"":1024},{""page_index"":1,""viewing_time"":2397},{""page_index"":2,""viewing_time"":455},{""page_index"":3,""viewing_time"":296},{""page_index"":4,""viewing_time"":493},{""page_index"":5,""viewing_time"":239},{""page_index"":6,""viewing_time"":198},{""page_index"":7,""viewing_time"":467},{""page_index"":8,""viewing_time"":485},{""page_index"":9,""viewing_time"":514},{""page_index"":10,""viewing_time"":6984},{""page_index"":11,""viewing_time"":1086},{""page_index"":12,""viewing_time"":992},{""page_index"":13,""viewing_time"":2463}]","intro","","","","","","","","","","","","","","","","","","","","","",""
"","","","","","image-keyboard-response","58","246076","0.0-3.2-1.2","61705dad05413013eb3d7d00","665500ab8938657b03fbdba8","665792a195cc9ccd2b0b7bc2","2050","stimuli/2011111.jpg","2","","prediction_practice","1","{""filepath"":""stimuli/2011111.jpg"",""ball_pos"":2,""ego_ball_visible"":false,""ego_can_infer"":false,""alter_ball_visible"":false,""alter_can_infer"":false,""collective_ball_visible"":false,""collective_can_infer"":false,""search_locations"":[1,2],""alter_occluders"":""011"",""ego_occluders"":""111""}","false","","","","","","","","","","","","","","","","","","",""
"","","","","","image-keyboard-response","59","248009","0.0-3.2-2.2","61705dad05413013eb3d7d00","665500ab8938657b03fbdba8","665792a195cc9ccd2b0b7bc2","1931","stimuli/20111111.jpg"," ","","practrice_feedback","1","","","","","","","","","","","","","","","","","","","","",""
"","","","","","image-keyboard-response","60","250512","0.0-3.2-3.2","61705dad05413013eb3d7d00","665500ab8938657b03fbdba8","665792a195cc9ccd2b0b7bc2","2500","stimuli/0101010.jpg","1","","prediction_practice","0","{""filepath"":""stimuli/0101010.jpg"",""ball_pos"":0,""ego_ball_visible"":true,""ego_can_infer"":true,""alter_ball_visible"":false,""alter_can_infer"":false,""collective_ball_visible"":false,""collective_can_infer"":false,""search_locations"":[2,0],""alter_occluders"":""101"",""ego_occluders"":""010""}","false","","","","","","","","","","","","","","","","","","",""
"","","","","","image-keyboard-response","61","251711","0.0-3.2-4.2","61705dad05413013eb3d7d00","665500ab8938657b03fbdba8","665792a195cc9ccd2b0b7bc2","1196","stimuli/01010100.jpg"," ","","practrice_feedback","2","","","","","","","","","","","","","","","","","","","","",""
"","","","","","image-keyboard-response","62","252543","0.0-3.2-5.2","61705dad05413013eb3d7d00","665500ab8938657b03fbdba8","665792a195cc9ccd2b0b7bc2","829","stimuli/2100101.jpg","0","","prediction_practice","2","{""filepath"":""stimuli/2100101.jpg"",""ball_pos"":2,""ego_ball_visible"":false,""ego_can_infer"":false,""alter_ball_visible"":true,""alter_can_infer"":true,""collective_ball_visible"":false,""collective_can_infer"":false,""search_locations"":[2],""alter_occluders"":""100"",""ego_occluders"":""101""}","false","","","","","","","","","","","","","","","","","","",""
"","","","","","image-keyboard-response","63","253507","0.0-3.2-6.2","61705dad05413013eb3d7d00","665500ab8938657b03fbdba8","665792a195cc9ccd2b0b7bc2","961","stimuli/21001012.jpg"," ","","practrice_feedback","2","","","","","","","","","","","","","","","","","","","","",""
"","","","","","image-keyboard-response","64","254218","0.0-3.2-7.2","61705dad05413013eb3d7d00","665500ab8938657b03fbdba8","665792a195cc9ccd2b0b7bc2","709","stimuli/1010100.jpg","2","","prediction_practice","1","{""filepath"":""stimuli/1010100.jpg"",""ball_pos"":1,""ego_ball_visible"":true,""ego_can_infer"":true,""alter_ball_visible"":false,""alter_can_infer"":true,""collective_ball_visible"":false,""collective_can_infer"":true,""search_locations"":[1],""alter_occluders"":""010"",""ego_occluders"":""100""}","false","","","","","","","","","","","","","","","","","","",""
"","","","","","image-keyboard-response","65","255406","0.0-3.2-8.2","61705dad05413013eb3d7d00","665500ab8938657b03fbdba8","665792a195cc9ccd2b0b7bc2","1184","stimuli/10101001.jpg"," ","","practrice_feedback","1","","","","","","","","","","","","","","","","","","","","",""
"","","","","","image-keyboard-response","66","257232","0.0-3.2-9.2","61705dad05413013eb3d7d00","665500ab8938657b03fbdba8","665792a195cc9ccd2b0b7bc2","1824","stimuli/2000101.jpg","1","","prediction_practice","2","{""filepath"":""stimuli/2000101.jpg"",""ball_pos"":2,""ego_ball_visible"":false,""ego_can_infer"":false,""alter_ball_visible"":true,""alter_can_infer"":true,""collective_ball_visible"":false,""collective_can_infer"":false,""search_locations"":[2],""alter_occluders"":""000"",""ego_occluders"":""101""}","false","","","","","","","","","","","","","","","","","","",""
"","","","","","image-keyboard-response","67","258565","0.0-3.2-10.2","61705dad05413013eb3d7d00","665500ab8938657b03fbdba8","665792a195cc9ccd2b0b7bc2","1330","stimuli/20001012.jpg"," ","","practrice_feedback","2","","","","","","","","","","","","","","","","","","","","",""
"","","","","","image-keyboard-response","68","259251","0.0-3.2-11.2","61705dad05413013eb3d7d00","665500ab8938657b03fbdba8","665792a195cc9ccd2b0b7bc2","682","stimuli/2011011.jpg","0","","prediction_practice","1","{""filepath"":""stimuli/2011011.jpg"",""ball_pos"":2,""ego_ball_visible"":false,""ego_can_infer"":false,""alter_ball_visible"":false,""alter_can_infer"":false,""collective_ball_visible"":false,""collective_can_infer"":false,""search_locations"":[1,2],""alter_occluders"":""011"",""ego_occluders"":""011""}","false","","","","","","","","","","","","","","","","","","",""
"","","","","","image-keyboard-response","69","260296","0.0-3.2-12.2","61705dad05413013eb3d7d00","665500ab8938657b03fbdba8","665792a195cc9ccd2b0b7bc2","1042","stimuli/20110111.jpg"," ","","practrice_feedback","1","","","","","","","","","","","","","","","","","","","","",""
"","","","","","image-keyboard-response","70","260961","0.0-3.2-13.2","61705dad05413013eb3d7d00","665500ab8938657b03fbdba8","665792a195cc9ccd2b0b7bc2","663","stimuli/1001000.jpg","2","","prediction_practice","1","{""filepath"":""stimuli/1001000.jpg"",""ball_pos"":1,""ego_ball_visible"":true,""ego_can_infer"":true,""alter_ball_visible"":true,""alter_can_infer"":true,""collective_ball_visible"":true,""collective_can_infer"":true,""search_locations"":[1],""alter_occluders"":""001"",""ego_occluders"":""000""}","false","","","","","","","","","","","","","","","","","","",""
"","","","","","image-keyboard-response","71","262212","0.0-3.2-14.2","61705dad05413013eb3d7d00","665500ab8938657b03fbdba8","665792a195cc9ccd2b0b7bc2","1249","stimuli/10010001.jpg"," ","","practrice_feedback","1","","","","","","","","","","","","","","","","","","","","",""
"","","","","","image-keyboard-response","72","262703","0.0-3.2-15.2","61705dad05413013eb3d7d00","665500ab8938657b03fbdba8","665792a195cc9ccd2b0b7bc2","489","stimuli/2111110.jpg","1","","prediction_practice","1","{""filepath"":""stimuli/2111110.jpg"",""ball_pos"":2,""ego_ball_visible"":true,""ego_can_infer"":true,""alter_ball_visible"":false,""alter_can_infer"":false,""collective_ball_visible"":false,""collective_can_infer"":false,""search_locations"":[0,2,1],""alter_occluders"":""111"",""ego_occluders"":""110""}","true","","","","","","","","","","","","","","","","","","",""
"","","","","","image-keyboard-response","73","263955","0.0-3.2-16.2","61705dad05413013eb3d7d00","665500ab8938657b03fbdba8","665792a195cc9ccd2b0b7bc2","1249","stimuli/21111101.jpg"," ","","practrice_feedback","0","","","","","","","","","","","","","","","","","","","","",""
"","","","","","image-keyboard-response","74","265322","0.0-3.2-17.2","61705dad05413013eb3d7d00","665500ab8938657b03fbdba8","665792a195cc9ccd2b0b7bc2","1364","stimuli/1011001.jpg","1","","prediction_practice","1","{""filepath"":""stimuli/1011001.jpg"",""ball_pos"":1,""ego_ball_visible"":true,""ego_can_infer"":true,""alter_ball_visible"":false,""alter_can_infer"":false,""collective_ball_visible"":false,""collective_can_infer"":false,""search_locations"":[1,2],""alter_occluders"":""011"",""ego_occluders"":""001""}","true","","","","","","","","","","","","","","","","","","",""
"","","","","","image-keyboard-response","75","266197","0.0-3.2-18.2","61705dad05413013eb3d7d00","665500ab8938657b03fbdba8","665792a195cc9ccd2b0b7bc2","872","stimuli/10110011.jpg"," ","","practrice_feedback","1","","","","","","","","","","","","","","","","","","","","",""
"","","","","","image-keyboard-response","76","268098","0.0-3.2-19.2","61705dad05413013eb3d7d00","665500ab8938657b03fbdba8","665792a195cc9ccd2b0b7bc2","1900","stimuli/1000010.jpg","1","","prediction_practice","1","{""filepath"":""stimuli/1000010.jpg"",""ball_pos"":1,""ego_ball_visible"":false,""ego_can_infer"":true,""alter_ball_visible"":true,""alter_can_infer"":true,""collective_ball_visible"":false,""collective_can_infer"":true,""search_locations"":[1],""alter_occluders"":""000"",""ego_occluders"":""010""}","true","","","","","","","","","","","","","","","","","","",""
"","","","","","image-keyboard-response","77","268900","0.0-3.2-20.2","61705dad05413013eb3d7d00","665500ab8938657b03fbdba8","665792a195cc9ccd2b0b7bc2","801","stimuli/10000101.jpg"," ","","practrice_feedback","1","","","","","","","","","","","","","","","","","","","","",""
"","","","","","html-button-response","78","270679","0.0-3.2-21.2","61705dad05413013eb3d7d00","665500ab8938657b03fbdba8","665792a195cc9ccd2b0b7bc2","1775","Now that you've had some practice, you'll be tested with a couple of easy trials. If you correctly predict Sam's choice, you'll move on to complete the experiment!","0","","","","","","","","","","","","","","","","","","","","","","","",""
"","","","","","image-keyboard-response","79","272316","0.0-3.2-22.2-0.2","61705dad05413013eb3d7d00","665500ab8938657b03fbdba8","665792a195cc9ccd2b0b7bc2","1635","stimuli/0000011.jpg","arrowleft","","comprehension_quiz","","","true","arrowleft","","","","","","","","","","","","","","","","","",""
"","","","","","image-keyboard-response","80","273576","0.0-3.2-22.2-1.2","61705dad05413013eb3d7d00","665500ab8938657b03fbdba8","665792a195cc9ccd2b0b7bc2","1255","stimuli/00000110.jpg"," ","","comprehension_quiz","","","true"," ","","","","","","","","","","","","","","","","","",""
"","","","","","image-keyboard-response","81","275374","0.0-3.2-22.2-2.2","61705dad05413013eb3d7d00","665500ab8938657b03fbdba8","665792a195cc9ccd2b0b7bc2","1795","stimuli/1010010.jpg","arrowleft","","comprehension_quiz","","","false","arrowdown","","","","","","","","","","","","","","","","","",""
"","","","","","image-keyboard-response","82","276856","0.0-3.2-22.2-3.2","61705dad05413013eb3d7d00","665500ab8938657b03fbdba8","665792a195cc9ccd2b0b7bc2","1479","stimuli/10100101.jpg"," ","","comprehension_quiz","","","true"," ","","","","","","","","","","","","","","","","","",""
"","","","","","html-button-response","83","278495","0.0-3.2-23.2-0.2","61705dad05413013eb3d7d00","665500ab8938657b03fbdba8","665792a195cc9ccd2b0b7bc2","1634","<p> Oops! You have answered one or more questions incorrectly.</p><p> Please Review the instructions again before continuing with the experiment </p>","0","","fail_message","","","false","","","","","","","","","","","","","","","","","","",""
"","","","","","instructions","84","287263","0.0-3.3-0.3","61705dad05413013eb3d7d00","665500ab8938657b03fbdba8","665792a195cc9ccd2b0b7bc2","8766","","","[{""page_index"":0,""viewing_time"":712},{""page_index"":1,""viewing_time"":1103},{""page_index"":2,""viewing_time"":1961},{""page_index"":3,""viewing_time"":304},{""page_index"":4,""viewing_time"":210},{""page_index"":5,""viewing_time"":542},{""page_index"":6,""viewing_time"":200},{""page_index"":7,""viewing_time"":163},{""page_index"":8,""viewing_time"":203},{""page_index"":9,""viewing_time"":201},{""page_index"":10,""viewing_time"":761},{""page_index"":11,""viewing_time"":722},{""page_index"":12,""viewing_time"":894},{""page_index"":13,""viewing_time"":791}]","intro","","","","","","","","","","","","","","","","","","","","","",""
"","","","","","image-keyboard-response","85","289712","0.0-3.3-1.3","61705dad05413013eb3d7d00","665500ab8938657b03fbdba8","665792a195cc9ccd2b0b7bc2","2447","stimuli/2011111.jpg","0","","prediction_practice","1","{""filepath"":""stimuli/2011111.jpg"",""ball_pos"":2,""ego_ball_visible"":false,""ego_can_infer"":false,""alter_ball_visible"":false,""alter_can_infer"":false,""collective_ball_visible"":false,""collective_can_infer"":false,""search_locations"":[1,2],""alter_occluders"":""011"",""ego_occluders"":""111""}","false","","","","","","","","","","","","","","","","","","",""
"","","","","","image-keyboard-response","86","291711","0.0-3.3-2.3","61705dad05413013eb3d7d00","665500ab8938657b03fbdba8","665792a195cc9ccd2b0b7bc2","1996","stimuli/20111111.jpg"," ","","practrice_feedback","1","","","","","","","","","","","","","","","","","","","","",""
"","","","","","image-keyboard-response","87","293232","0.0-3.3-3.3","61705dad05413013eb3d7d00","665500ab8938657b03fbdba8","665792a195cc9ccd2b0b7bc2","1519","stimuli/0101010.jpg","1","","prediction_practice","0","{""filepath"":""stimuli/0101010.jpg"",""ball_pos"":0,""ego_ball_visible"":true,""ego_can_infer"":true,""alter_ball_visible"":false,""alter_can_infer"":false,""collective_ball_visible"":false,""collective_can_infer"":false,""search_locations"":[2,0],""alter_occluders"":""101"",""ego_occluders"":""010""}","false","","","","","","","","","","","","","","","","","","",""
"","","","","","image-keyboard-response","88","294369","0.0-3.3-4.3","61705dad05413013eb3d7d00","665500ab8938657b03fbdba8","665792a195cc9ccd2b0b7bc2","1136","stimuli/01010100.jpg"," ","","practrice_feedback","2","","","","","","","","","","","","","","","","","","","","",""
"","","","","","image-keyboard-response","89","295365","0.0-3.3-5.3","61705dad05413013eb3d7d00","665500ab8938657b03fbdba8","665792a195cc9ccd2b0b7bc2","993","stimuli/2100101.jpg","1","","prediction_practice","2","{""filepath"":""stimuli/2100101.jpg"",""ball_pos"":2,""ego_ball_visible"":false,""ego_can_infer"":false,""alter_ball_visible"":true,""alter_can_infer"":true,""collective_ball_visible"":false,""collective_can_infer"":false,""search_locations"":[2],""alter_occluders"":""100"",""ego_occluders"":""101""}","false","","","","","","","","","","","","","","","","","","",""
"","","","","","image-keyboard-response","90","298043","0.0-3.3-6.3","61705dad05413013eb3d7d00","665500ab8938657b03fbdba8","665792a195cc9ccd2b0b7bc2","2676","stimuli/21001012.jpg"," ","","practrice_feedback","2","","","","","","","","","","","","","","","","","","","","",""
"","","","","","image-keyboard-response","91","299955","0.0-3.3-7.3","61705dad05413013eb3d7d00","665500ab8938657b03fbdba8","665792a195cc9ccd2b0b7bc2","1909","stimuli/1010100.jpg","1","","prediction_practice","1","{""filepath"":""stimuli/1010100.jpg"",""ball_pos"":1,""ego_ball_visible"":true,""ego_can_infer"":true,""alter_ball_visible"":false,""alter_can_infer"":true,""collective_ball_visible"":false,""collective_can_infer"":true,""search_locations"":[1],""alter_occluders"":""010"",""ego_occluders"":""100""}","true","","","","","","","","","","","","","","","","","","",""
"","","","","","image-keyboard-response","92","300881","0.0-3.3-8.3","61705dad05413013eb3d7d00","665500ab8938657b03fbdba8","665792a195cc9ccd2b0b7bc2","924","stimuli/10101001.jpg"," ","","practrice_feedback","1","","","","","","","","","","","","","","","","","","","","",""
"","","","","","image-keyboard-response","93","302705","0.0-3.3-9.3","61705dad05413013eb3d7d00","665500ab8938657b03fbdba8","665792a195cc9ccd2b0b7bc2","1822","stimuli/2000101.jpg","2","","prediction_practice","2","{""filepath"":""stimuli/2000101.jpg"",""ball_pos"":2,""ego_ball_visible"":false,""ego_can_infer"":false,""alter_ball_visible"":true,""alter_can_infer"":true,""collective_ball_visible"":false,""collective_can_infer"":false,""search_locations"":[2],""alter_occluders"":""000"",""ego_occluders"":""101""}","true","","","","","","","","","","","","","","","","","","",""
"","","","","","image-keyboard-response","94","303146","0.0-3.3-10.3","61705dad05413013eb3d7d00","665500ab8938657b03fbdba8","665792a195cc9ccd2b0b7bc2","439","stimuli/20001012.jpg"," ","","practrice_feedback","2","","","","","","","","","","","","","","","","","","","","",""
"","","","","","image-keyboard-response","95","304709","0.0-3.3-11.3","61705dad05413013eb3d7d00","665500ab8938657b03fbdba8","665792a195cc9ccd2b0b7bc2","1561","stimuli/2011011.jpg","0","","prediction_practice","1","{""filepath"":""stimuli/2011011.jpg"",""ball_pos"":2,""ego_ball_visible"":false,""ego_can_infer"":false,""alter_ball_visible"":false,""alter_can_infer"":false,""collective_ball_visible"":false,""collective_can_infer"":false,""search_locations"":[1,2],""alter_occluders"":""011"",""ego_occluders"":""011""}","false","","","","","","","","","","","","","","","","","","",""
"","","","","","image-keyboard-response","96","305761","0.0-3.3-12.3","61705dad05413013eb3d7d00","665500ab8938657b03fbdba8","665792a195cc9ccd2b0b7bc2","1049","stimuli/20110111.jpg"," ","","practrice_feedback","1","","","","","","","","","","","","","","","","","","","","",""
"","","","","","image-keyboard-response","97","306807","0.0-3.3-13.3","61705dad05413013eb3d7d00","665500ab8938657b03fbdba8","665792a195cc9ccd2b0b7bc2","1043","stimuli/1001000.jpg","1","","prediction_practice","1","{""filepath"":""stimuli/1001000.jpg"",""ball_pos"":1,""ego_ball_visible"":true,""ego_can_infer"":true,""alter_ball_visible"":true,""alter_can_infer"":true,""collective_ball_visible"":true,""collective_can_infer"":true,""search_locations"":[1],""alter_occluders"":""001"",""ego_occluders"":""000""}","true","","","","","","","","","","","","","","","","","","",""
"","","","","","image-keyboard-response","98","307389","0.0-3.3-14.3","61705dad05413013eb3d7d00","665500ab8938657b03fbdba8","665792a195cc9ccd2b0b7bc2","579","stimuli/10010001.jpg"," ","","practrice_feedback","1","","","","","","","","","","","","","","","","","","","","",""
"","","","","","image-keyboard-response","99","308420","0.0-3.3-15.3","61705dad05413013eb3d7d00","665500ab8938657b03fbdba8","665792a195cc9ccd2b0b7bc2","1028","stimuli/2111110.jpg","2","","prediction_practice","1","{""filepath"":""stimuli/2111110.jpg"",""ball_pos"":2,""ego_ball_visible"":true,""ego_can_infer"":true,""alter_ball_visible"":false,""alter_can_infer"":false,""collective_ball_visible"":false,""collective_can_infer"":false,""search_locations"":[0,2,1],""alter_occluders"":""111"",""ego_occluders"":""110""}","false","","","","","","","","","","","","","","","","","","",""
"","","","","","image-keyboard-response","100","310332","0.0-3.3-16.3","61705dad05413013eb3d7d00","665500ab8938657b03fbdba8","665792a195cc9ccd2b0b7bc2","1909","stimuli/21111101.jpg"," ","","practrice_feedback","0","","","","","","","","","","","","","","","","","","","","",""
"","","","","","image-keyboard-response","101","313856","0.0-3.3-17.3","61705dad05413013eb3d7d00","665500ab8938657b03fbdba8","665792a195cc9ccd2b0b7bc2","3522","stimuli/1011001.jpg","1","","prediction_practice","1","{""filepath"":""stimuli/1011001.jpg"",""ball_pos"":1,""ego_ball_visible"":true,""ego_can_infer"":true,""alter_ball_visible"":false,""alter_can_infer"":false,""collective_ball_visible"":false,""collective_can_infer"":false,""search_locations"":[1,2],""alter_occluders"":""011"",""ego_occluders"":""001""}","true","","","","","","","","","","","","","","","","","","",""
"","","","","","image-keyboard-response","102","314809","0.0-3.3-18.3","61705dad05413013eb3d7d00","665500ab8938657b03fbdba8","665792a195cc9ccd2b0b7bc2","952","stimuli/10110011.jpg"," ","","practrice_feedback","1","","","","","","","","","","","","","","","","","","","","",""
"","","","","","image-keyboard-response","103","315856","0.0-3.3-19.3","61705dad05413013eb3d7d00","665500ab8938657b03fbdba8","665792a195cc9ccd2b0b7bc2","1044","stimuli/1000010.jpg","1","","prediction_practice","1","{""filepath"":""stimuli/1000010.jpg"",""ball_pos"":1,""ego_ball_visible"":false,""ego_can_infer"":true,""alter_ball_visible"":true,""alter_can_infer"":true,""collective_ball_visible"":false,""collective_can_infer"":true,""search_locations"":[1],""alter_occluders"":""000"",""ego_occluders"":""010""}","true","","","","","","","","","","","","","","","","","","",""
"","","","","","image-keyboard-response","104","316323","0.0-3.3-20.3","61705dad05413013eb3d7d00","665500ab8938657b03fbdba8","665792a195cc9ccd2b0b7bc2","464","stimuli/10000101.jpg"," ","","practrice_feedback","1","","","","","","","","","","","","","","","","","","","","",""
"","","","","","html-button-response","105","318164","0.0-3.3-21.3","61705dad05413013eb3d7d00","665500ab8938657b03fbdba8","665792a195cc9ccd2b0b7bc2","1838","Now that you've had some practice, you'll be tested with a couple of easy trials. If you correctly predict Sam's choice, you'll move on to complete the experiment!","0","","","","","","","","","","","","","","","","","","","","","","","",""
"","","","","","image-keyboard-response","106","319717","0.0-3.3-22.3-0.3","61705dad05413013eb3d7d00","665500ab8938657b03fbdba8","665792a195cc9ccd2b0b7bc2","1550","stimuli/0000011.jpg","arrowleft","","comprehension_quiz","","","true","arrowleft","","","","","","","","","","","","","","","","","",""
"","","","","","image-keyboard-response","107","320835","0.0-3.3-22.3-1.3","61705dad05413013eb3d7d00","665500ab8938657b03fbdba8","665792a195cc9ccd2b0b7bc2","1113","stimuli/00000110.jpg"," ","","comprehension_quiz","","","true"," ","","","","","","","","","","","","","","","","","",""
"","","","","","image-keyboard-response","108","323604","0.0-3.3-22.3-2.3","61705dad05413013eb3d7d00","665500ab8938657b03fbdba8","665792a195cc9ccd2b0b7bc2","2766","stimuli/1010010.jpg","arrowdown","","comprehension_quiz","","","true","arrowdown","","","","","","","","","","","","","","","","","",""
"","","","","","image-keyboard-response","109","324473","0.0-3.3-22.3-3.3","61705dad05413013eb3d7d00","665500ab8938657b03fbdba8","665792a195cc9ccd2b0b7bc2","869","stimuli/10100101.jpg"," ","","comprehension_quiz","","","true"," ","","","","","","","","","","","","","","","","","",""
"","","","","","html-button-response","110","326259","0.0-4.0","61705dad05413013eb3d7d00","665500ab8938657b03fbdba8","665792a195cc9ccd2b0b7bc2","1783","The experiment will now begin.","0","","","","","","","","","","","","","","","","","","","","","","","",""
"","","","","","image-keyboard-response","111","327843","0.0-5.0","61705dad05413013eb3d7d00","665500ab8938657b03fbdba8","665792a195cc9ccd2b0b7bc2","1580","stimuli/2011100.jpg","2","","prediction_trial","2","","true","","2","true","true","false","false","false","false","[1,2]","011","100","1","","","","","","",""
"","","","","","image-keyboard-response","112","329359","0.0-6.0","61705dad05413013eb3d7d00","665500ab8938657b03fbdba8","665792a195cc9ccd2b0b7bc2","1512","stimuli/20111002.jpg"," ","","feedback_trial","1","","","","","","","","","","","","","","","","","","","","",""
"","","","","","image-keyboard-response","113","330888","0.0-7.0","61705dad05413013eb3d7d00","665500ab8938657b03fbdba8","665792a195cc9ccd2b0b7bc2","1526","stimuli/2111011.jpg","1","","prediction_trial","0","","false","","2","false","false","false","false","false","false","[0,1,2]","111","011","0","","","","","","",""
"","","","","","image-keyboard-response","114","332137","0.0-8.0","61705dad05413013eb3d7d00","665500ab8938657b03fbdba8","665792a195cc9ccd2b0b7bc2","1246","stimuli/21110110.jpg"," ","","feedback_trial","0","","","","","","","","","","","","","","","","","","","","",""
"","","","","","image-keyboard-response","115","334391","0.0-9.0","61705dad05413013eb3d7d00","665500ab8938657b03fbdba8","665792a195cc9ccd2b0b7bc2","2251","stimuli/2001101.jpg","0","","prediction_trial","2","","false","","2","false","false","false","true","false","false","[2]","001","101","0","","","","","","",""
"","","","","","image-keyboard-response","116","335654","0.0-10.0","61705dad05413013eb3d7d00","665500ab8938657b03fbdba8","665792a195cc9ccd2b0b7bc2","1261","stimuli/20011012.jpg"," ","","feedback_trial","2","","","","","","","","","","","","","","","","","","","","",""
"","","","","","image-keyboard-response","117","336893","0.0-11.0","61705dad05413013eb3d7d00","665500ab8938657b03fbdba8","665792a195cc9ccd2b0b7bc2","1235","stimuli/2100110.jpg","2","","prediction_trial","2","","true","","2","true","true","true","true","true","true","[2]","100","110","1","","","","","","",""
"","","","","","image-keyboard-response","118","337456","0.0-12.0","61705dad05413013eb3d7d00","665500ab8938657b03fbdba8","665792a195cc9ccd2b0b7bc2","561","stimuli/21001102.jpg"," ","","feedback_trial","2","","","","","","","","","","","","","","","","","","","","",""
"","","","","","image-keyboard-response","119","338376","0.0-13.0","61705dad05413013eb3d7d00","665500ab8938657b03fbdba8","665792a195cc9ccd2b0b7bc2","917","stimuli/2101010.jpg","2","","prediction_trial","2","","true","","2","true","true","false","false","false","false","[2,0]","101","010","1","","","","","","",""
"","","","","","image-keyboard-response","120","338845","0.0-14.0","61705dad05413013eb3d7d00","665500ab8938657b03fbdba8","665792a195cc9ccd2b0b7bc2","466","stimuli/21010102.jpg"," ","","feedback_trial","2","","","","","","","","","","","","","","","","","","","","",""
"","","","","","image-keyboard-response","121","339608","0.0-15.0","61705dad05413013eb3d7d00","665500ab8938657b03fbdba8","665792a195cc9ccd2b0b7bc2","760","stimuli/0110000.jpg","0","","prediction_trial","1","","false","","0","true","true","false","false","false","false","[0,1]","110","000","0","","","","","","",""
"","","","","","image-keyboard-response","122","340105","0.0-16.0","61705dad05413013eb3d7d00","665500ab8938657b03fbdba8","665792a195cc9ccd2b0b7bc2","494","stimuli/01100001.jpg"," ","","feedback_trial","0","","","","","","","","","","","","","","","","","","","","",""
"","","","","","image-keyboard-response","123","342358","0.0-17.0","61705dad05413013eb3d7d00","665500ab8938657b03fbdba8","665792a195cc9ccd2b0b7bc2","2250","stimuli/0010111.jpg","2","","prediction_trial","0","","false","","0","false","false","true","true","false","false","[0]","010","111","0","","","","","","",""
"","","","","","image-keyboard-response","124","342812","0.0-18.0","61705dad05413013eb3d7d00","665500ab8938657b03fbdba8","665792a195cc9ccd2b0b7bc2","451","stimuli/00101110.jpg"," ","","feedback_trial","0","","","","","","","","","","","","","","","","","","","","",""
"","","","","","image-keyboard-response","125","344349","0.0-19.0","61705dad05413013eb3d7d00","665500ab8938657b03fbdba8","665792a195cc9ccd2b0b7bc2","1535","stimuli/2001001.jpg","1","","prediction_trial","2","","false","","2","false","true","false","true","false","true","[2]","001","001","0","","","","","","",""
"","","","","","image-keyboard-response","126","344887","0.0-20.0","61705dad05413013eb3d7d00","665500ab8938657b03fbdba8","665792a195cc9ccd2b0b7bc2","536","stimuli/20010012.jpg"," ","","feedback_trial","2","","","","","","","","","","","","","","","","","","","","",""
"","","","","","image-keyboard-response","127","346413","0.0-21.0","61705dad05413013eb3d7d00","665500ab8938657b03fbdba8","665792a195cc9ccd2b0b7bc2","1523","stimuli/0010101.jpg","0","","prediction_trial","0","","true","","0","false","false","true","true","false","false","[0]","010","101","1","","","","","","",""
"","","","","","image-keyboard-response","128","346903","0.0-22.0","61705dad05413013eb3d7d00","665500ab8938657b03fbdba8","665792a195cc9ccd2b0b7bc2","487","stimuli/00101010.jpg"," ","","feedback_trial","0","","","","","","","","","","","","","","","","","","","","",""
"","","","","","image-keyboard-response","129","348013","0.0-23.0","61705dad05413013eb3d7d00","665500ab8938657b03fbdba8","665792a195cc9ccd2b0b7bc2","1108","stimuli/2110101.jpg","2","","prediction_trial","2","","true","","2","false","false","true","true","false","false","[2]","110","101","1","","","","","","",""
"","","","","","image-keyboard-response","130","348553","0.0-24.0","61705dad05413013eb3d7d00","665500ab8938657b03fbdba8","665792a195cc9ccd2b0b7bc2","538","stimuli/21101012.jpg"," ","","feedback_trial","2","","","","","","","","","","","","","","","","","","","","",""
"","","","","","image-keyboard-response","131","350425","0.0-25.0","61705dad05413013eb3d7d00","665500ab8938657b03fbdba8","665792a195cc9ccd2b0b7bc2","1870","stimuli/2100111.jpg","1","","prediction_trial","2","","false","","2","false","false","true","true","false","false","[2]","100","111","0","","","","","","",""
"","","","","","image-keyboard-response","132","351572","0.0-26.0","61705dad05413013eb3d7d00","665500ab8938657b03fbdba8","665792a195cc9ccd2b0b7bc2","1145","stimuli/21001112.jpg"," ","","feedback_trial","2","","","","","","","","","","","","","","","","","","","","",""
"","","","","","image-keyboard-response","133","352400","0.0-27.0","61705dad05413013eb3d7d00","665500ab8938657b03fbdba8","665792a195cc9ccd2b0b7bc2","824","stimuli/0011010.jpg","0","","prediction_trial","0","","true","","0","true","true","true","true","true","true","[0]","011","010","1","","","","","","",""
"","","","","","image-keyboard-response","134","353122","0.0-28.0","61705dad05413013eb3d7d00","665500ab8938657b03fbdba8","665792a195cc9ccd2b0b7bc2","719","stimuli/00110100.jpg"," ","","feedback_trial","0","","","","","","","","","","","","","","","","","","","","",""
"","","","","","image-keyboard-response","135","353985","0.0-29.0","61705dad05413013eb3d7d00","665500ab8938657b03fbdba8","665792a195cc9ccd2b0b7bc2","860","stimuli/2010010.jpg","2","","prediction_trial","2","","true","","2","true","true","true","true","true","true","[2]","010","010","1","","","","","","",""
"","","","","","image-keyboard-response","136","354510","0.0-30.0","61705dad05413013eb3d7d00","665500ab8938657b03fbdba8","665792a195cc9ccd2b0b7bc2","524","stimuli/20100102.jpg"," ","","feedback_trial","2","","","","","","","","","","","","","","","","","","","","",""
"","","","","","image-keyboard-response","137","355388","0.0-31.0","61705dad05413013eb3d7d00","665500ab8938657b03fbdba8","665792a195cc9ccd2b0b7bc2","875","stimuli/2000000.jpg","2","","prediction_trial","2","","true","","2","true","true","true","true","true","true","[2]","000","000","1","","","","","","",""
"","","","","","image-keyboard-response","138","355830","0.0-32.0","61705dad05413013eb3d7d00","665500ab8938657b03fbdba8","665792a195cc9ccd2b0b7bc2","439","stimuli/20000002.jpg"," ","","feedback_trial","2","","","","","","","","","","","","","","","","","","","","",""
"","","","","","image-keyboard-response","139","356475","0.0-33.0","61705dad05413013eb3d7d00","665500ab8938657b03fbdba8","665792a195cc9ccd2b0b7bc2","642","stimuli/2010100.jpg","2","","prediction_trial","2","","true","","2","true","true","true","true","true","true","[2]","010","100","1","","","","","","",""
"","","","","","image-keyboard-response","140","356940","0.0-34.0","61705dad05413013eb3d7d00","665500ab8938657b03fbdba8","665792a195cc9ccd2b0b7bc2","464","stimuli/20101002.jpg"," ","","feedback_trial","2","","","","","","","","","","","","","","","","","","","","",""
"","","","","","image-keyboard-response","141","357918","0.0-35.0","61705dad05413013eb3d7d00","665500ab8938657b03fbdba8","665792a195cc9ccd2b0b7bc2","976","stimuli/0010110.jpg","0","","prediction_trial","0","","true","","0","false","false","true","true","false","false","[0]","010","110","1","","","","","","",""
"","","","","","image-keyboard-response","142","358330","0.0-36.0","61705dad05413013eb3d7d00","665500ab8938657b03fbdba8","665792a195cc9ccd2b0b7bc2","409","stimuli/00101100.jpg"," ","","feedback_trial","0","","","","","","","","","","","","","","","","","","","","",""
"","","","","","image-keyboard-response","143","359151","0.0-37.0","61705dad05413013eb3d7d00","665500ab8938657b03fbdba8","665792a195cc9ccd2b0b7bc2","818","stimuli/1111101.jpg","1","","prediction_trial","0","","false","","1","true","true","false","false","false","false","[2,0,1]","111","101","0","","","","","","",""
"","","","","","image-keyboard-response","144","360059","0.0-38.0","61705dad05413013eb3d7d00","665500ab8938657b03fbdba8","665792a195cc9ccd2b0b7bc2","905","stimuli/11111010.jpg"," ","","feedback_trial","2","","","","","","","","","","","","","","","","","","","","",""
"","","","","","image-keyboard-response","145","361062","0.0-39.0","61705dad05413013eb3d7d00","665500ab8938657b03fbdba8","665792a195cc9ccd2b0b7bc2","1001","stimuli/1011101.jpg","1","","prediction_trial","2","","false","","1","true","true","false","false","false","false","[1,2]","011","101","0","","","","","","",""
"","","","","","image-keyboard-response","146","361869","0.0-40.0","61705dad05413013eb3d7d00","665500ab8938657b03fbdba8","665792a195cc9ccd2b0b7bc2","803","stimuli/10111012.jpg"," ","","feedback_trial","1","","","","","","","","","","","","","","","","","","","","",""
"","","","","","image-keyboard-response","147","362287","0.0-41.0","61705dad05413013eb3d7d00","665500ab8938657b03fbdba8","665792a195cc9ccd2b0b7bc2","415","stimuli/1010100.jpg","1","","prediction_trial","1","","true","","1","true","true","false","true","false","true","[1]","010","100","1","","","","","","",""
"","","","","","image-keyboard-response","148","362895","0.0-42.0","61705dad05413013eb3d7d00","665500ab8938657b03fbdba8","665792a195cc9ccd2b0b7bc2","605","stimuli/10101001.jpg"," ","","feedback_trial","1","","","","","","","","","","","","","","","","","","","","",""
"","","","","","image-keyboard-response","149","363888","0.0-43.0","61705dad05413013eb3d7d00","665500ab8938657b03fbdba8","665792a195cc9ccd2b0b7bc2","990","stimuli/2101101.jpg","2","","prediction_trial","2","","true","","2","false","false","false","false","false","false","[2,0]","101","101","1","","","","","","",""
"","","","","","image-keyboard-response","150","364400","0.0-44.0","61705dad05413013eb3d7d00","665500ab8938657b03fbdba8","665792a195cc9ccd2b0b7bc2","508","stimuli/21011012.jpg"," ","","feedback_trial","2","","","","","","","","","","","","","","","","","","","","",""
"","","","","","image-keyboard-response","151","365701","0.0-45.0","61705dad05413013eb3d7d00","665500ab8938657b03fbdba8","665792a195cc9ccd2b0b7bc2","1298","stimuli/0110110.jpg","1","","prediction_trial","0","","false","","0","false","false","false","false","false","false","[1,0]","110","110","0","","","","","","",""
"","","","","","image-keyboard-response","152","366313","0.0-46.0","61705dad05413013eb3d7d00","665500ab8938657b03fbdba8","665792a195cc9ccd2b0b7bc2","609","stimuli/01101100.jpg"," ","","feedback_trial","1","","","","","","","","","","","","","","","","","","","","",""
"","","","","","image-keyboard-response","153","366980","0.0-47.0","61705dad05413013eb3d7d00","665500ab8938657b03fbdba8","665792a195cc9ccd2b0b7bc2","664","stimuli/0110011.jpg","0","","prediction_trial","0","","true","","0","true","true","false","false","false","false","[0,1]","110","011","1","","","","","","",""
"","","","","","image-keyboard-response","154","367474","0.0-48.0","61705dad05413013eb3d7d00","665500ab8938657b03fbdba8","665792a195cc9ccd2b0b7bc2","491","stimuli/01100110.jpg"," ","","feedback_trial","0","","","","","","","","","","","","","","","","","","","","",""
"","","","","","image-keyboard-response","155","368386","0.0-49.0","61705dad05413013eb3d7d00","665500ab8938657b03fbdba8","665792a195cc9ccd2b0b7bc2","910","stimuli/1100101.jpg","1","","prediction_trial","1","","true","","1","true","true","true","true","true","true","[1]","100","101","1","","","","","","",""
"","","","","","image-keyboard-response","156","368921","0.0-50.0","61705dad05413013eb3d7d00","665500ab8938657b03fbdba8","665792a195cc9ccd2b0b7bc2","533","stimuli/11001011.jpg"," ","","feedback_trial","1","","","","","","","","","","","","","","","","","","","","",""
"","","","","","image-keyboard-response","157","369849","0.0-51.0","61705dad05413013eb3d7d00","665500ab8938657b03fbdba8","665792a195cc9ccd2b0b7bc2","926","stimuli/2100011.jpg","1","","prediction_trial","2","","false","","2","false","false","true","true","false","false","[2]","100","011","0","","","","","","",""
"","","","","","image-keyboard-response","158","370871","0.0-52.0","61705dad05413013eb3d7d00","665500ab8938657b03fbdba8","665792a195cc9ccd2b0b7bc2","1020","stimuli/21000112.jpg"," ","","feedback_trial","2","","","","","","","","","","","","","","","","","","","","",""
"","","","","","image-keyboard-response","159","371839","0.0-53.0","61705dad05413013eb3d7d00","665500ab8938657b03fbdba8","665792a195cc9ccd2b0b7bc2","966","stimuli/0111010.jpg","0","","prediction_trial","1","","false","","0","true","true","false","false","false","false","[2,0,1]","111","010","0","","","","","","",""
"","","","","","image-keyboard-response","160","372939","0.0-54.0","61705dad05413013eb3d7d00","665500ab8938657b03fbdba8","665792a195cc9ccd2b0b7bc2","1097","stimuli/01110101.jpg"," ","","feedback_trial","2","","","","","","","","","","","","","","","","","","","","",""
"","","","","","image-keyboard-response","161","373666","0.0-55.0","61705dad05413013eb3d7d00","665500ab8938657b03fbdba8","665792a195cc9ccd2b0b7bc2","724","stimuli/1100110.jpg","0","","prediction_trial","1","","false","","1","false","false","true","true","false","false","[1]","100","110","0","","","","","","",""
"","","","","","image-keyboard-response","162","374106","0.0-56.0","61705dad05413013eb3d7d00","665500ab8938657b03fbdba8","665792a195cc9ccd2b0b7bc2","438","stimuli/11001101.jpg"," ","","feedback_trial","1","","","","","","","","","","","","","","","","","","","","",""
"","","","","","image-keyboard-response","163","374982","0.0-57.0","61705dad05413013eb3d7d00","665500ab8938657b03fbdba8","665792a195cc9ccd2b0b7bc2","874","stimuli/0011011.jpg","0","","prediction_trial","0","","true","","0","true","true","true","true","true","true","[0]","011","011","1","","","","","","",""
"","","","","","image-keyboard-response","164","375416","0.0-58.0","61705dad05413013eb3d7d00","665500ab8938657b03fbdba8","665792a195cc9ccd2b0b7bc2","431","stimuli/00110110.jpg"," ","","feedback_trial","0","","","","","","","","","","","","","","","","","","","","",""
"","","","","","image-keyboard-response","165","376655","0.0-59.0","61705dad05413013eb3d7d00","665500ab8938657b03fbdba8","665792a195cc9ccd2b0b7bc2","1237","stimuli/2010111.jpg","2","","prediction_trial","2","","true","","2","false","false","true","true","false","false","[2]","010","111","1","","","","","","",""
"","","","","","image-keyboard-response","166","377115","0.0-60.0","61705dad05413013eb3d7d00","665500ab8938657b03fbdba8","665792a195cc9ccd2b0b7bc2","459","stimuli/20101112.jpg"," ","","feedback_trial","2","","","","","","","","","","","","","","","","","","","","",""
"","","","","","image-keyboard-response","167","377911","0.0-61.0","61705dad05413013eb3d7d00","665500ab8938657b03fbdba8","665792a195cc9ccd2b0b7bc2","794","stimuli/2000010.jpg","2","","prediction_trial","2","","true","","2","true","true","true","true","true","true","[2]","000","010","1","","","","","","",""
"","","","","","image-keyboard-response","168","378405","0.0-62.0","61705dad05413013eb3d7d00","665500ab8938657b03fbdba8","665792a195cc9ccd2b0b7bc2","491","stimuli/20000102.jpg"," ","","feedback_trial","2","","","","","","","","","","","","","","","","","","","","",""
"","","","","","image-keyboard-response","169","379192","0.0-63.0","61705dad05413013eb3d7d00","665500ab8938657b03fbdba8","665792a195cc9ccd2b0b7bc2","785","stimuli/1011001.jpg","1","","prediction_trial","2","","false","","1","true","true","false","false","false","false","[1,2]","011","001","0","","","","","","",""
"","","","","","image-keyboard-response","170","380717","0.0-64.0","61705dad05413013eb3d7d00","665500ab8938657b03fbdba8","665792a195cc9ccd2b0b7bc2","1522","stimuli/10110012.jpg"," ","","feedback_trial","1","","","","","","","","","","","","","","","","","","","","",""
"","","","","","image-keyboard-response","171","381546","0.0-65.0","61705dad05413013eb3d7d00","665500ab8938657b03fbdba8","665792a195cc9ccd2b0b7bc2","827","stimuli/2101001.jpg","2","","prediction_trial","0","","false","","2","false","true","false","false","false","false","[0,2]","101","001","0","","","","","","",""
"","","","","","image-keyboard-response","172","382386","0.0-66.0","61705dad05413013eb3d7d00","665500ab8938657b03fbdba8","665792a195cc9ccd2b0b7bc2","837","stimuli/21010010.jpg"," ","","feedback_trial","0","","","","","","","","","","","","","","","","","","","","",""
"","","","","","image-keyboard-response","173","383450","0.0-67.0","61705dad05413013eb3d7d00","665500ab8938657b03fbdba8","665792a195cc9ccd2b0b7bc2","1062","stimuli/1001010.jpg","1","","prediction_trial","1","","true","","1","false","true","true","true","false","true","[1]","001","010","1","","","","","","",""
"","","","","","image-keyboard-response","174","383973","0.0-68.0","61705dad05413013eb3d7d00","665500ab8938657b03fbdba8","665792a195cc9ccd2b0b7bc2","520","stimuli/10010101.jpg"," ","","feedback_trial","1","","","","","","","","","","","","","","","","","","","","",""
"","","","","","image-keyboard-response","175","384730","0.0-69.0","61705dad05413013eb3d7d00","665500ab8938657b03fbdba8","665792a195cc9ccd2b0b7bc2","755","stimuli/2110000.jpg","2","","prediction_trial","2","","true","","2","true","true","true","true","true","true","[2]","110","000","1","","","","","","",""
"","","","","","image-keyboard-response","176","385202","0.0-70.0","61705dad05413013eb3d7d00","665500ab8938657b03fbdba8","665792a195cc9ccd2b0b7bc2","468","stimuli/21100002.jpg"," ","","feedback_trial","2","","","","","","","","","","","","","","","","","","","","",""
"","","","","","image-keyboard-response","177","385904","0.0-71.0","61705dad05413013eb3d7d00","665500ab8938657b03fbdba8","665792a195cc9ccd2b0b7bc2","699","stimuli/1100001.jpg","1","","prediction_trial","1","","true","","1","true","true","true","true","true","true","[1]","100","001","1","","","","","","",""
"","","","","","image-keyboard-response","178","386536","0.0-72.0","61705dad05413013eb3d7d00","665500ab8938657b03fbdba8","665792a195cc9ccd2b0b7bc2","629","stimuli/11000011.jpg"," ","","feedback_trial","1","","","","","","","","","","","","","","","","","","","","",""
"","","","","","image-keyboard-response","179","387272","0.0-73.0","61705dad05413013eb3d7d00","665500ab8938657b03fbdba8","665792a195cc9ccd2b0b7bc2","734","stimuli/0110100.jpg","0","","prediction_trial","0","","true","","0","false","true","false","false","false","false","[1,0]","110","100","1","","","","","","",""
"","","","","","image-keyboard-response","180","388154","0.0-74.0","61705dad05413013eb3d7d00","665500ab8938657b03fbdba8","665792a195cc9ccd2b0b7bc2","879","stimuli/01101000.jpg"," ","","feedback_trial","1","","","","","","","","","","","","","","","","","","","","",""
"","","","","","image-keyboard-response","181","388747","0.0-75.0","61705dad05413013eb3d7d00","665500ab8938657b03fbdba8","665792a195cc9ccd2b0b7bc2","590","stimuli/1011100.jpg","1","","prediction_trial","2","","false","","1","true","true","false","false","false","false","[1,2]","011","100","0","","","","","","",""
"","","","","","image-keyboard-response","182","390120","0.0-76.0","61705dad05413013eb3d7d00","665500ab8938657b03fbdba8","665792a195cc9ccd2b0b7bc2","1370","stimuli/10111002.jpg"," ","","feedback_trial","1","","","","","","","","","","","","","","","","","","","","",""
"","","","","","image-keyboard-response","183","391407","0.0-77.0","61705dad05413013eb3d7d00","665500ab8938657b03fbdba8","665792a195cc9ccd2b0b7bc2","1284","stimuli/0001101.jpg","0","","prediction_trial","0","","true","","0","false","false","true","true","false","false","[0]","001","101","1","","","","","","",""
"","","","","","image-keyboard-response","184","391806","0.0-78.0","61705dad05413013eb3d7d00","665500ab8938657b03fbdba8","665792a195cc9ccd2b0b7bc2","396","stimuli/00011010.jpg"," ","","feedback_trial","0","","","","","","","","","","","","","","","","","","","","",""
"","","","","","image-keyboard-response","185","393022","0.0-79.0","61705dad05413013eb3d7d00","665500ab8938657b03fbdba8","665792a195cc9ccd2b0b7bc2","1213","stimuli/0100110.jpg","1","","prediction_trial","0","","false","","0","false","false","false","true","false","false","[0]","100","110","0","","","","","","",""
"","","","","","image-keyboard-response","186","394321","0.0-80.0","61705dad05413013eb3d7d00","665500ab8938657b03fbdba8","665792a195cc9ccd2b0b7bc2","1298","stimuli/01001100.jpg"," ","","feedback_trial","0","","","","","","","","","","","","","","","","","","","","",""
"","","","","","image-keyboard-response","187","395319","0.0-81.0","61705dad05413013eb3d7d00","665500ab8938657b03fbdba8","665792a195cc9ccd2b0b7bc2","996","stimuli/1010110.jpg","0","","prediction_trial","1","","false","","1","false","false","false","true","false","false","[1]","010","110","0","","","","","","",""
"","","","","","image-keyboard-response","188","395958","0.0-82.0","61705dad05413013eb3d7d00","665500ab8938657b03fbdba8","665792a195cc9ccd2b0b7bc2","636","stimuli/10101101.jpg"," ","","feedback_trial","1","","","","","","","","","","","","","","","","","","","","",""
"","","","","","image-keyboard-response","189","396792","0.0-83.0","61705dad05413013eb3d7d00","665500ab8938657b03fbdba8","665792a195cc9ccd2b0b7bc2","832","stimuli/2111110.jpg","2","","prediction_trial","2","","true","","2","true","true","false","false","false","false","[0,2,1]","111","110","1","","","","","","",""
"","","","","","image-keyboard-response","190","397345","0.0-84.0","61705dad05413013eb3d7d00","665500ab8938657b03fbdba8","665792a195cc9ccd2b0b7bc2","550","stimuli/21111102.jpg"," ","","feedback_trial","0","","","","","","","","","","","","","","","","","","","","",""
"","","","","","image-keyboard-response","191","398249","0.0-85.0","61705dad05413013eb3d7d00","665500ab8938657b03fbdba8","665792a195cc9ccd2b0b7bc2","901","stimuli/1000011.jpg","1","","prediction_trial","1","","true","","1","false","false","true","true","false","false","[1]","000","011","1","","","","","","",""
"","","","","","image-keyboard-response","192","399055","0.0-86.0","61705dad05413013eb3d7d00","665500ab8938657b03fbdba8","665792a195cc9ccd2b0b7bc2","803","stimuli/10000111.jpg"," ","","feedback_trial","1","","","","","","","","","","","","","","","","","","","","",""
"","","","","","image-keyboard-response","193","399837","0.0-87.0","61705dad05413013eb3d7d00","665500ab8938657b03fbdba8","665792a195cc9ccd2b0b7bc2","781","stimuli/2011111.jpg","0","","prediction_trial","1","","false","","2","false","false","false","false","false","false","[1,2]","011","111","0","","","","","","",""
"","","","","","image-keyboard-response","194","400816","0.0-88.0","61705dad05413013eb3d7d00","665500ab8938657b03fbdba8","665792a195cc9ccd2b0b7bc2","975","stimuli/20111111.jpg"," ","","feedback_trial","1","","","","","","","","","","","","","","","","","","","","",""
"","","","","","image-keyboard-response","195","401511","0.0-89.0","61705dad05413013eb3d7d00","665500ab8938657b03fbdba8","665792a195cc9ccd2b0b7bc2","693","stimuli/1011000.jpg","1","","prediction_trial","2","","false","","1","true","true","false","false","false","false","[2,1]","011","000","0","","","","","","",""
"","","","","","image-keyboard-response","196","402615","0.0-90.0","61705dad05413013eb3d7d00","665500ab8938657b03fbdba8","665792a195cc9ccd2b0b7bc2","1102","stimuli/10110002.jpg"," ","","feedback_trial","2","","","","","","","","","","","","","","","","","","","","",""
"","","","","","image-keyboard-response","197","404359","0.0-91.0","61705dad05413013eb3d7d00","665500ab8938657b03fbdba8","665792a195cc9ccd2b0b7bc2","1743","stimuli/0111110.jpg","0","","prediction_trial","1","","false","","0","false","false","false","false","false","false","[1,0,2]","111","110","0","","","","","","",""
"","","","","","image-keyboard-response","198","404750","0.0-92.0","61705dad05413013eb3d7d00","665500ab8938657b03fbdba8","665792a195cc9ccd2b0b7bc2","387","stimuli/01111101.jpg"," ","","feedback_trial","1","","","","","","","","","","","","","","","","","","","","",""
"","","","","","image-keyboard-response","199","405620","0.0-93.0","61705dad05413013eb3d7d00","665500ab8938657b03fbdba8","665792a195cc9ccd2b0b7bc2","867","stimuli/1111010.jpg","1","","prediction_trial","1","","true","","1","false","true","false","false","false","false","[0,1,2]","111","010","1","","","","","","",""
"","","","","","image-keyboard-response","200","406134","0.0-94.0","61705dad05413013eb3d7d00","665500ab8938657b03fbdba8","665792a195cc9ccd2b0b7bc2","511","stimuli/11110101.jpg"," ","","feedback_trial","0","","","","","","","","","","","","","","","","","","","","",""
"","","","","","image-keyboard-response","201","407261","0.0-95.0","61705dad05413013eb3d7d00","665500ab8938657b03fbdba8","665792a195cc9ccd2b0b7bc2","1125","stimuli/1011110.jpg","1","","prediction_trial","1","","true","","1","false","false","false","false","false","false","[2,1]","011","110","1","","","","","","",""
"","","","","","image-keyboard-response","202","407803","0.0-96.0","61705dad05413013eb3d7d00","665500ab8938657b03fbdba8","665792a195cc9ccd2b0b7bc2","540","stimuli/10111101.jpg"," ","","feedback_trial","2","","","","","","","","","","","","","","","","","","","","",""
"","","","","","image-keyboard-response","203","408577","0.0-97.0","61705dad05413013eb3d7d00","665500ab8938657b03fbdba8","665792a195cc9ccd2b0b7bc2","771","stimuli/2101100.jpg","2","","prediction_trial","2","","true","","2","true","true","false","false","false","false","[2,0]","101","100","1","","","","","","",""
"","","","","","image-keyboard-response","204","409131","0.0-98.0","61705dad05413013eb3d7d00","665500ab8938657b03fbdba8","665792a195cc9ccd2b0b7bc2","552","stimuli/21011002.jpg"," ","","feedback_trial","2","","","","","","","","","","","","","","","","","","","","",""
"","","","","","image-keyboard-response","205","410265","0.0-99.0","61705dad05413013eb3d7d00","665500ab8938657b03fbdba8","665792a195cc9ccd2b0b7bc2","1131","stimuli/1101011.jpg","1","","prediction_trial","1","","true","","1","false","false","true","true","false","false","[1]","101","011","1","","","","","","",""
"","","","","","image-keyboard-response","206","410805","0.0-100.0","61705dad05413013eb3d7d00","665500ab8938657b03fbdba8","665792a195cc9ccd2b0b7bc2","536","stimuli/11010111.jpg"," ","","feedback_trial","1","","","","","","","","","","","","","","","","","","","","",""
"","","","","","image-keyboard-response","207","411589","0.0-101.0","61705dad05413013eb3d7d00","665500ab8938657b03fbdba8","665792a195cc9ccd2b0b7bc2","781","stimuli/0100000.jpg","0","","prediction_trial","0","","true","","0","true","true","false","true","false","true","[0]","100","000","1","","","","","","",""
"","","","","","image-keyboard-response","208","412047","0.0-102.0","61705dad05413013eb3d7d00","665500ab8938657b03fbdba8","665792a195cc9ccd2b0b7bc2","457","stimuli/01000000.jpg"," ","","feedback_trial","0","","","","","","","","","","","","","","","","","","","","",""
"","","","","","image-keyboard-response","209","413231","0.0-103.0","61705dad05413013eb3d7d00","665500ab8938657b03fbdba8","665792a195cc9ccd2b0b7bc2","1182","stimuli/0111101.jpg","2","","prediction_trial","2","","true","","0","false","false","false","false","false","false","[2,0,1]","111","101","1","","","","","","",""
"","","","","","image-keyboard-response","210","413595","0.0-104.0","61705dad05413013eb3d7d00","665500ab8938657b03fbdba8","665792a195cc9ccd2b0b7bc2","362","stimuli/01111012.jpg"," ","","feedback_trial","2","","","","","","","","","","","","","","","","","","","","",""
"","","","","","image-keyboard-response","211","415269","0.0-105.0","61705dad05413013eb3d7d00","665500ab8938657b03fbdba8","665792a195cc9ccd2b0b7bc2","1671","stimuli/1010011.jpg","2","","prediction_trial","1","","false","","1","false","false","false","true","false","false","[1]","010","011","0","","","","","","",""
"","","","","","image-keyboard-response","212","415961","0.0-106.0","61705dad05413013eb3d7d00","665500ab8938657b03fbdba8","665792a195cc9ccd2b0b7bc2","690","stimuli/10100111.jpg"," ","","feedback_trial","1","","","","","","","","","","","","","","","","","","","","",""
"","","","","","image-keyboard-response","213","416949","0.0-107.0","61705dad05413013eb3d7d00","665500ab8938657b03fbdba8","665792a195cc9ccd2b0b7bc2","985","stimuli/0111100.jpg","0","","prediction_trial","1","","false","","0","false","true","false","false","false","false","[0,1,2]","111","100","0","","","","","","",""
"","","","","","image-keyboard-response","214","417861","0.0-108.0","61705dad05413013eb3d7d00","665500ab8938657b03fbdba8","665792a195cc9ccd2b0b7bc2","909","stimuli/01111001.jpg"," ","","feedback_trial","0","","","","","","","","","","","","","","","","","","","","",""
"","","","","","image-keyboard-response","215","418765","0.0-109.0","61705dad05413013eb3d7d00","665500ab8938657b03fbdba8","665792a195cc9ccd2b0b7bc2","901","stimuli/0110010.jpg","0","","prediction_trial","0","","true","","0","true","true","false","false","false","false","[1,0]","110","010","1","","","","","","",""
"","","","","","image-keyboard-response","216","419175","0.0-110.0","61705dad05413013eb3d7d00","665500ab8938657b03fbdba8","665792a195cc9ccd2b0b7bc2","407","stimuli/01100100.jpg"," ","","feedback_trial","1","","","","","","","","","","","","","","","","","","","","",""
"","","","","","image-keyboard-response","217","419814","0.0-111.0","61705dad05413013eb3d7d00","665500ab8938657b03fbdba8","665792a195cc9ccd2b0b7bc2","638","stimuli/0000010.jpg","0","","prediction_trial","0","","true","","0","true","true","true","true","true","true","[0]","000","010","1","","","","","","",""
"","","","","","image-keyboard-response","218","420234","0.0-112.0","61705dad05413013eb3d7d00","665500ab8938657b03fbdba8","665792a195cc9ccd2b0b7bc2","416","stimuli/00000100.jpg"," ","","feedback_trial","0","","","","","","","","","","","","","","","","","","","","",""
"","","","","","image-keyboard-response","219","420837","0.0-113.0","61705dad05413013eb3d7d00","665500ab8938657b03fbdba8","665792a195cc9ccd2b0b7bc2","601","stimuli/2011010.jpg","2","","prediction_trial","1","","false","","2","true","true","false","false","false","false","[2,1]","011","010","0","","","","","","",""
"","","","","","image-keyboard-response","220","421884","0.0-114.0","61705dad05413013eb3d7d00","665500ab8938657b03fbdba8","665792a195cc9ccd2b0b7bc2","1044","stimuli/20110101.jpg"," ","","feedback_trial","2","","","","","","","","","","","","","","","","","","","","",""
"","","","","","image-keyboard-response","221","422539","0.0-115.0","61705dad05413013eb3d7d00","665500ab8938657b03fbdba8","665792a195cc9ccd2b0b7bc2","652","stimuli/1001011.jpg","1","","prediction_trial","1","","true","","1","false","false","true","true","false","false","[1]","001","011","1","","","","","","",""
"","","","","","image-keyboard-response","222","423593","0.0-116.0","61705dad05413013eb3d7d00","665500ab8938657b03fbdba8","665792a195cc9ccd2b0b7bc2","1052","stimuli/10010111.jpg"," ","","feedback_trial","1","","","","","","","","","","","","","","","","","","","","",""
"","","","","","image-keyboard-response","223","424218","0.0-117.0","61705dad05413013eb3d7d00","665500ab8938657b03fbdba8","665792a195cc9ccd2b0b7bc2","625","stimuli/1110100.jpg","1","","prediction_trial","1","","true","","1","true","true","false","false","false","false","[0,1]","110","100","1","","","","","","",""
"","","","","","image-keyboard-response","224","424647","0.0-118.0","61705dad05413013eb3d7d00","665500ab8938657b03fbdba8","665792a195cc9ccd2b0b7bc2","426","stimuli/11101001.jpg"," ","","feedback_trial","0","","","","","","","","","","","","","","","","","","","","",""
"","","","","","image-keyboard-response","225","425329","0.0-119.0","61705dad05413013eb3d7d00","665500ab8938657b03fbdba8","665792a195cc9ccd2b0b7bc2","679","stimuli/2011000.jpg","2","","prediction_trial","2","","true","","2","true","true","false","false","false","false","[2,1]","011","000","1","","","","","","",""
"","","","","","image-keyboard-response","226","425782","0.0-120.0","61705dad05413013eb3d7d00","665500ab8938657b03fbdba8","665792a195cc9ccd2b0b7bc2","451","stimuli/20110002.jpg"," ","","feedback_trial","2","","","","","","","","","","","","","","","","","","","","",""
"","","","","","image-keyboard-response","227","426355","0.0-121.0","61705dad05413013eb3d7d00","665500ab8938657b03fbdba8","665792a195cc9ccd2b0b7bc2","572","stimuli/0000000.jpg","0","","prediction_trial","0","","true","","0","true","true","true","true","true","true","[0]","000","000","1","","","","","","",""
"","","","","","image-keyboard-response","228","426752","0.0-122.0","61705dad05413013eb3d7d00","665500ab8938657b03fbdba8","665792a195cc9ccd2b0b7bc2","395","stimuli/00000000.jpg"," ","","feedback_trial","0","","","","","","","","","","","","","","","","","","","","",""
"","","","","","image-keyboard-response","229","427337","0.0-123.0","61705dad05413013eb3d7d00","665500ab8938657b03fbdba8","665792a195cc9ccd2b0b7bc2","582","stimuli/2011001.jpg","2","","prediction_trial","2","","true","","2","false","true","false","false","false","false","[2,1]","011","001","1","","","","","","",""
"","","","","","image-keyboard-response","230","427739","0.0-124.0","61705dad05413013eb3d7d00","665500ab8938657b03fbdba8","665792a195cc9ccd2b0b7bc2","397","stimuli/20110012.jpg"," ","","feedback_trial","2","","","","","","","","","","","","","","","","","","","","",""
"","","","","","image-keyboard-response","231","428708","0.0-125.0","61705dad05413013eb3d7d00","665500ab8938657b03fbdba8","665792a195cc9ccd2b0b7bc2","967","stimuli/0011110.jpg","0","","prediction_trial","0","","true","","0","false","false","true","true","false","false","[0]","011","110","1","","","","","","",""
"","","","","","image-keyboard-response","232","429079","0.0-126.0","61705dad05413013eb3d7d00","665500ab8938657b03fbdba8","665792a195cc9ccd2b0b7bc2","368","stimuli/00111100.jpg"," ","","feedback_trial","0","","","","","","","","","","","","","","","","","","","","",""
"","","","","","image-keyboard-response","233","429688","0.0-127.0","61705dad05413013eb3d7d00","665500ab8938657b03fbdba8","665792a195cc9ccd2b0b7bc2","607","stimuli/2010000.jpg","2","","prediction_trial","2","","true","","2","true","true","true","true","true","true","[2]","010","000","1","","","","","","",""
"","","","","","image-keyboard-response","234","430064","0.0-128.0","61705dad05413013eb3d7d00","665500ab8938657b03fbdba8","665792a195cc9ccd2b0b7bc2","373","stimuli/20100002.jpg"," ","","feedback_trial","2","","","","","","","","","","","","","","","","","","","","",""
"","","","","","image-keyboard-response","235","430913","0.0-129.0","61705dad05413013eb3d7d00","665500ab8938657b03fbdba8","665792a195cc9ccd2b0b7bc2","846","stimuli/1000101.jpg","1","","prediction_trial","1","","true","","1","true","true","true","true","true","true","[1]","000","101","1","","","","","","",""
"","","","","","image-keyboard-response","236","431314","0.0-130.0","61705dad05413013eb3d7d00","665500ab8938657b03fbdba8","665792a195cc9ccd2b0b7bc2","400","stimuli/10001011.jpg"," ","","feedback_trial","1","","","","","","","","","","","","","","","","","","","","",""
"","","","","","image-keyboard-response","237","431914","0.0-131.0","61705dad05413013eb3d7d00","665500ab8938657b03fbdba8","665792a195cc9ccd2b0b7bc2","596","stimuli/1101000.jpg","1","","prediction_trial","1","","true","","1","true","true","true","true","true","true","[1]","101","000","1","","","","","","",""
"","","","","","image-keyboard-response","238","432326","0.0-132.0","61705dad05413013eb3d7d00","665500ab8938657b03fbdba8","665792a195cc9ccd2b0b7bc2","409","stimuli/11010001.jpg"," ","","feedback_trial","1","","","","","","","","","","","","","","","","","","","","",""
"","","","","","image-keyboard-response","239","433546","0.0-133.0","61705dad05413013eb3d7d00","665500ab8938657b03fbdba8","665792a195cc9ccd2b0b7bc2","1219","stimuli/2110011.jpg","2","","prediction_trial","2","","true","","2","false","false","true","true","false","false","[2]","110","011","1","","","","","","",""
"","","","","","image-keyboard-response","240","433972","0.0-134.0","61705dad05413013eb3d7d00","665500ab8938657b03fbdba8","665792a195cc9ccd2b0b7bc2","423","stimuli/21100112.jpg"," ","","feedback_trial","2","","","","","","","","","","","","","","","","","","","","",""
"","","","","","image-keyboard-response","241","434603","0.0-135.0","61705dad05413013eb3d7d00","665500ab8938657b03fbdba8","665792a195cc9ccd2b0b7bc2","629","stimuli/2011011.jpg","0","","prediction_trial","2","","false","","2","false","false","false","false","false","false","[1,2]","011","011","0","","","","","","",""
"","","","","","image-keyboard-response","242","435669","0.0-136.0","61705dad05413013eb3d7d00","665500ab8938657b03fbdba8","665792a195cc9ccd2b0b7bc2","1064","stimuli/20110112.jpg"," ","","feedback_trial","1","","","","","","","","","","","","","","","","","","","","",""
"","","","","","image-keyboard-response","243","436340","0.0-137.0","61705dad05413013eb3d7d00","665500ab8938657b03fbdba8","665792a195cc9ccd2b0b7bc2","668","stimuli/1110001.jpg","1","","prediction_trial","1","","true","","1","true","true","false","false","false","false","[1,0]","110","001","1","","","","","","",""
"","","","","","image-keyboard-response","244","436794","0.0-138.0","61705dad05413013eb3d7d00","665500ab8938657b03fbdba8","665792a195cc9ccd2b0b7bc2","451","stimuli/11100011.jpg"," ","","feedback_trial","1","","","","","","","","","","","","","","","","","","","","",""
"","","","","","image-keyboard-response","245","437678","0.0-139.0","61705dad05413013eb3d7d00","665500ab8938657b03fbdba8","665792a195cc9ccd2b0b7bc2","881","stimuli/2110001.jpg","2","","prediction_trial","2","","true","","2","false","true","true","true","false","true","[2]","110","001","1","","","","","","",""
"","","","","","image-keyboard-response","246","438091","0.0-140.0","61705dad05413013eb3d7d00","665500ab8938657b03fbdba8","665792a195cc9ccd2b0b7bc2","410","stimuli/21100012.jpg"," ","","feedback_trial","2","","","","","","","","","","","","","","","","","","","","",""
"","","","","","image-keyboard-response","247","438695","0.0-141.0","61705dad05413013eb3d7d00","665500ab8938657b03fbdba8","665792a195cc9ccd2b0b7bc2","601","stimuli/0111000.jpg","0","","prediction_trial","2","","false","","0","true","true","false","false","false","false","[1,2,0]","111","000","0","","","","","","",""
"","","","","","image-keyboard-response","248","439743","0.0-142.0","61705dad05413013eb3d7d00","665500ab8938657b03fbdba8","665792a195cc9ccd2b0b7bc2","1047","stimuli/01110002.jpg"," ","","feedback_trial","1","","","","","","","","","","","","","","","","","","","","",""
"","","","","","image-keyboard-response","249","440667","0.0-143.0","61705dad05413013eb3d7d00","665500ab8938657b03fbdba8","665792a195cc9ccd2b0b7bc2","922","stimuli/1110110.jpg","1","","prediction_trial","0","","false","","1","false","false","false","false","false","false","[1,0]","110","110","0","","","","","","",""
"","","","","","image-keyboard-response","250","441590","0.0-144.0","61705dad05413013eb3d7d00","665500ab8938657b03fbdba8","665792a195cc9ccd2b0b7bc2","920","stimuli/11101100.jpg"," ","","feedback_trial","1","","","","","","","","","","","","","","","","","","","","",""
"","","","","","image-keyboard-response","251","443035","0.0-145.0","61705dad05413013eb3d7d00","665500ab8938657b03fbdba8","665792a195cc9ccd2b0b7bc2","1444","stimuli/1011010.jpg","1","","prediction_trial","1","","true","","1","false","true","false","false","false","false","[2,1]","011","010","1","","","","","","",""
"","","","","","image-keyboard-response","252","443473","0.0-146.0","61705dad05413013eb3d7d00","665500ab8938657b03fbdba8","665792a195cc9ccd2b0b7bc2","435","stimuli/10110101.jpg"," ","","feedback_trial","2","","","","","","","","","","","","","","","","","","","","",""
"","","","","","image-keyboard-response","253","444701","0.0-147.0","61705dad05413013eb3d7d00","665500ab8938657b03fbdba8","665792a195cc9ccd2b0b7bc2","1225","stimuli/1100011.jpg","1","","prediction_trial","1","","true","","1","false","false","true","true","false","false","[1]","100","011","1","","","","","","",""
"","","","","","image-keyboard-response","254","445552","0.0-148.0","61705dad05413013eb3d7d00","665500ab8938657b03fbdba8","665792a195cc9ccd2b0b7bc2","849","stimuli/11000111.jpg"," ","","feedback_trial","1","","","","","","","","","","","","","","","","","","","","",""
"","","","","","image-keyboard-response","255","446470","0.0-149.0","61705dad05413013eb3d7d00","665500ab8938657b03fbdba8","665792a195cc9ccd2b0b7bc2","915","stimuli/0101100.jpg","0","","prediction_trial","2","","false","","0","false","true","false","false","false","false","[0,2]","101","100","0","","","","","","",""
"","","","","","image-keyboard-response","256","447189","0.0-150.0","61705dad05413013eb3d7d00","665500ab8938657b03fbdba8","665792a195cc9ccd2b0b7bc2","715","stimuli/01011002.jpg"," ","","feedback_trial","0","","","","","","","","","","","","","","","","","","","","",""
"","","","","","image-keyboard-response","257","448064","0.0-151.0","61705dad05413013eb3d7d00","665500ab8938657b03fbdba8","665792a195cc9ccd2b0b7bc2","872","stimuli/1001001.jpg","1","","prediction_trial","1","","true","","1","true","true","true","true","true","true","[1]","001","001","1","","","","","","",""
"","","","","","image-keyboard-response","258","448533","0.0-152.0","61705dad05413013eb3d7d00","665500ab8938657b03fbdba8","665792a195cc9ccd2b0b7bc2","466","stimuli/10010011.jpg"," ","","feedback_trial","1","","","","","","","","","","","","","","","","","","","","",""
"","","","","","image-keyboard-response","259","449525","0.0-153.0","61705dad05413013eb3d7d00","665500ab8938657b03fbdba8","665792a195cc9ccd2b0b7bc2","990","stimuli/2011101.jpg","2","","prediction_trial","2","","true","","2","false","false","false","false","false","false","[2,1]","011","101","1","","","","","","",""
"","","","","","image-keyboard-response","260","449956","0.0-154.0","61705dad05413013eb3d7d00","665500ab8938657b03fbdba8","665792a195cc9ccd2b0b7bc2","428","stimuli/20111012.jpg"," ","","feedback_trial","2","","","","","","","","","","","","","","","","","","","","",""
"","","","","","image-keyboard-response","261","450833","0.0-155.0","61705dad05413013eb3d7d00","665500ab8938657b03fbdba8","665792a195cc9ccd2b0b7bc2","874","stimuli/1111110.jpg","2","","prediction_trial","2","","true","","1","false","false","false","false","false","false","[2,0,1]","111","110","1","","","","","","",""
"","","","","","image-keyboard-response","262","451272","0.0-156.0","61705dad05413013eb3d7d00","665500ab8938657b03fbdba8","665792a195cc9ccd2b0b7bc2","436","stimuli/11111102.jpg"," ","","feedback_trial","2","","","","","","","","","","","","","","","","","","","","",""
"","","","","","image-keyboard-response","263","452173","0.0-157.0","61705dad05413013eb3d7d00","665500ab8938657b03fbdba8","665792a195cc9ccd2b0b7bc2","898","stimuli/1011011.jpg","1","","prediction_trial","2","","false","","1","false","false","false","false","false","false","[2,1]","011","011","0","","","","","","",""
"","","","","","image-keyboard-response","264","452811","0.0-158.0","61705dad05413013eb3d7d00","665500ab8938657b03fbdba8","665792a195cc9ccd2b0b7bc2","636","stimuli/10110112.jpg"," ","","feedback_trial","2","","","","","","","","","","","","","","","","","","","","",""
"","","","","","image-keyboard-response","265","453628","0.0-159.0","61705dad05413013eb3d7d00","665500ab8938657b03fbdba8","665792a195cc9ccd2b0b7bc2","815","stimuli/2110110.jpg","1","","prediction_trial","2","","false","","2","true","true","true","true","true","true","[2]","110","110","0","","","","","","",""
"","","","","","image-keyboard-response","266","454750","0.0-160.0","61705dad05413013eb3d7d00","665500ab8938657b03fbdba8","665792a195cc9ccd2b0b7bc2","1119","stimuli/21101102.jpg"," ","","feedback_trial","2","","","","","","","","","","","","","","","","","","","","",""
"","","","","","image-keyboard-response","267","456172","0.0-161.0","61705dad05413013eb3d7d00","665500ab8938657b03fbdba8","665792a195cc9ccd2b0b7bc2","1419","stimuli/1110011.jpg","2","","prediction_trial","1","","false","","1","false","false","false","false","false","false","[0,1]","110","011","0","","","","","","",""
"","","","","","image-keyboard-response","268","456891","0.0-162.0","61705dad05413013eb3d7d00","665500ab8938657b03fbdba8","665792a195cc9ccd2b0b7bc2","716","stimuli/11100111.jpg"," ","","feedback_trial","0","","","","","","","","","","","","","","","","","","","","",""
"","","","","","image-keyboard-response","269","457740","0.0-163.0","61705dad05413013eb3d7d00","665500ab8938657b03fbdba8","665792a195cc9ccd2b0b7bc2","847","stimuli/0000100.jpg","0","","prediction_trial","0","","true","","0","false","true","true","true","false","true","[0]","000","100","1","","","","","","",""
"","","","","","image-keyboard-response","270","458132","0.0-164.0","61705dad05413013eb3d7d00","665500ab8938657b03fbdba8","665792a195cc9ccd2b0b7bc2","389","stimuli/00001000.jpg"," ","","feedback_trial","0","","","","","","","","","","","","","","","","","","","","",""
"","","","","","image-keyboard-response","271","459109","0.0-165.0","61705dad05413013eb3d7d00","665500ab8938657b03fbdba8","665792a195cc9ccd2b0b7bc2","975","stimuli/0001000.jpg","0","","prediction_trial","0","","true","","0","true","true","true","true","true","true","[0]","001","000","1","","","","","","",""
"","","","","","image-keyboard-response","272","459557","0.0-166.0","61705dad05413013eb3d7d00","665500ab8938657b03fbdba8","665792a195cc9ccd2b0b7bc2","445","stimuli/00010000.jpg"," ","","feedback_trial","0","","","","","","","","","","","","","","","","","","","","",""
"","","","","","image-keyboard-response","273","460236","0.0-167.0","61705dad05413013eb3d7d00","665500ab8938657b03fbdba8","665792a195cc9ccd2b0b7bc2","678","stimuli/2100100.jpg","2","","prediction_trial","2","","true","","2","true","true","true","true","true","true","[2]","100","100","1","","","","","","",""
"","","","","","image-keyboard-response","274","460641","0.0-168.0","61705dad05413013eb3d7d00","665500ab8938657b03fbdba8","665792a195cc9ccd2b0b7bc2","401","stimuli/21001002.jpg"," ","","feedback_trial","2","","","","","","","","","","","","","","","","","","","","",""
"","","","","","image-keyboard-response","275","461422","0.0-169.0","61705dad05413013eb3d7d00","665500ab8938657b03fbdba8","665792a195cc9ccd2b0b7bc2","779","stimuli/1010000.jpg","1","","prediction_trial","1","","true","","1","true","true","false","true","false","true","[1]","010","000","1","","","","","","",""
"","","","","","image-keyboard-response","276","461920","0.0-170.0","61705dad05413013eb3d7d00","665500ab8938657b03fbdba8","665792a195cc9ccd2b0b7bc2","495","stimuli/10100001.jpg"," ","","feedback_trial","1","","","","","","","","","","","","","","","","","","","","",""
"","","","","","image-keyboard-response","277","462930","0.0-171.0","61705dad05413013eb3d7d00","665500ab8938657b03fbdba8","665792a195cc9ccd2b0b7bc2","1006","stimuli/0010000.jpg","0","","prediction_trial","0","","true","","0","true","true","true","true","true","true","[0]","010","000","1","","","","","","",""
"","","","","","image-keyboard-response","278","463451","0.0-172.0","61705dad05413013eb3d7d00","665500ab8938657b03fbdba8","665792a195cc9ccd2b0b7bc2","518","stimuli/00100000.jpg"," ","","feedback_trial","0","","","","","","","","","","","","","","","","","","","","",""
"","","","","","image-keyboard-response","279","464324","0.0-173.0","61705dad05413013eb3d7d00","665500ab8938657b03fbdba8","665792a195cc9ccd2b0b7bc2","871","stimuli/0110111.jpg","1","","prediction_trial","0","","false","","0","false","false","false","false","false","false","[0,1]","110","111","0","","","","","","",""
"","","","","","image-keyboard-response","280","465091","0.0-174.0","61705dad05413013eb3d7d00","665500ab8938657b03fbdba8","665792a195cc9ccd2b0b7bc2","765","stimuli/01101110.jpg"," ","","feedback_trial","0","","","","","","","","","","","","","","","","","","","","",""
"","","","","","image-keyboard-response","281","465992","0.0-175.0","61705dad05413013eb3d7d00","665500ab8938657b03fbdba8","665792a195cc9ccd2b0b7bc2","898","stimuli/1110111.jpg","1","","prediction_trial","1","","true","","1","false","false","false","false","false","false","[0,1]","110","111","1","","","","","","",""
"","","","","","image-keyboard-response","282","466839","0.0-176.0","61705dad05413013eb3d7d00","665500ab8938657b03fbdba8","665792a195cc9ccd2b0b7bc2","844","stimuli/11101111.jpg"," ","","feedback_trial","0","","","","","","","","","","","","","","","","","","","","",""
"","","","","","image-keyboard-response","283","467595","0.0-177.0","61705dad05413013eb3d7d00","665500ab8938657b03fbdba8","665792a195cc9ccd2b0b7bc2","752","stimuli/0011111.jpg","1","","prediction_trial","0","","false","","0","false","false","true","true","false","false","[0]","011","111","0","","","","","","",""
"","","","","","image-keyboard-response","284","468665","0.0-178.0","61705dad05413013eb3d7d00","665500ab8938657b03fbdba8","665792a195cc9ccd2b0b7bc2","1067","stimuli/00111110.jpg"," ","","feedback_trial","0","","","","","","","","","","","","","","","","","","","","",""
"","","","","","image-keyboard-response","285","469458","0.0-179.0","61705dad05413013eb3d7d00","665500ab8938657b03fbdba8","665792a195cc9ccd2b0b7bc2","790","stimuli/1101111.jpg","2","","prediction_trial","1","","false","","1","false","false","true","true","false","false","[1]","101","111","0","","","","","","",""
