"success","timeout","failed_images","failed_audio","failed_video","trial_type","trial_index","time_elapsed","internal_node_id","prolific_id","prolific_study_id","prolific_session_id","rt","stimulus","response","view_history","trial","character_choice","stimulus_dict","accuracy","correct_response","ball_pos","ego_ball_visible","ego_can_infer","alter_ball_visible","alter_can_infer","collective_ball_visible","collective_can_infer","search_locations","alter_occluders","ego_occluders","accuracy_bool","feedback","age","ethnicity","gender","race","overall_accuracy","bonus"
"true","false","[]","[]","[]","preload","0","15914","0.0-0.0","63e688adbc8788de6d596c93","665500ab8938657b03fbdba8","6657753cec2b45982c0ccdb8","","","","","","","","","","","","","","","","","","","","","","","","","","",""
"true","","","","","fullscreen","1","38046","0.0-1.0","63e688adbc8788de6d596c93","665500ab8938657b03fbdba8","6657753cec2b45982c0ccdb8","","","","","","","","","","","","","","","","","","","","","","","","","","",""
"","","","","","html-button-response","2","55389","0.0-2.0","63e688adbc8788de6d596c93","665500ab8938657b03fbdba8","6657753cec2b45982c0ccdb8","17340","<p><b>Consent Form</b></p> <div style=""text-align:left;background-color:lightgrey; padding:20px; max-width:900px;""><p>Please consider this information carefully before deciding whether to participate in this research.</p> <p>The purpose of this research is to examine which factors influence social judgment and decision-making. You will be asked to make judgements about individuals and actions in social scenarios. We are simply interested in your judgement. The study will take less than 1 hour to complete, and you will receive less than $20 on Prolific. Your compensation and time commitment are specified in the study description. There are no anticipated risks associated with participating in this study. The effects of participating should be comparable to those you would ordinarily experience from viewing a computer monitor and using a mouse or keyboard for a similar amount of time. At the end of the study, we will provide an explanation of the questions that motivate this line of research and will describe the potential implications. </p><p> Your participation in this study is completely voluntary and you may refuse to participate or you may choose to withdraw at any time without penalty or loss of benefits to you which are otherwise entitled. Your participation in this study will remain confidential. No personally identifiable information will be associated with your data. Also, all analyses of the data will be averaged across all the participants, so your individual responses will never be specifically analyzed. </p><p> If you have questions or concerns about your participation or payment, or want to request a summary of research findings, please contact Dr. Jonathan Phillips at Jonathan.S.Phillips@dartmouth.edu. </p><p> Please save a copy of this form for your records. </p><p><b>Agreement: </b>The nature and purpose of this research have been sufficiently explained and I agree to participate in this study. I understand that I am free to withdraw at any time without incurring any penalty. Please consent by clicking the button below to continue. Otherwise, please exit the study at any time. </p>","0","","","","","","","","","","","","","","","","","","","","","","","",""
"","","","","","instructions","3","117933","0.0-3.0-0.0","63e688adbc8788de6d596c93","665500ab8938657b03fbdba8","6657753cec2b45982c0ccdb8","62539","","","[{""page_index"":0,""viewing_time"":2033},{""page_index"":1,""viewing_time"":3348},{""page_index"":2,""viewing_time"":2134},{""page_index"":3,""viewing_time"":6089},{""page_index"":4,""viewing_time"":3404},{""page_index"":5,""viewing_time"":4110},{""page_index"":6,""viewing_time"":4682},{""page_index"":7,""viewing_time"":3688},{""page_index"":8,""viewing_time"":3278},{""page_index"":9,""viewing_time"":2732},{""page_index"":10,""viewing_time"":11408},{""page_index"":11,""viewing_time"":9548},{""page_index"":12,""viewing_time"":4516},{""page_index"":13,""viewing_time"":1568}]","intro","","","","","","","","","","","","","","","","","","","","","",""
"","","","","","image-keyboard-response","4","121756","0.0-3.0-1.0","63e688adbc8788de6d596c93","665500ab8938657b03fbdba8","6657753cec2b45982c0ccdb8","3792","stimuli/1001110.jpg","0","","prediction_practice","1","{""filepath"":""stimuli/1001110.jpg"",""ball_pos"":1,""ego_ball_visible"":false,""ego_can_infer"":false,""alter_ball_visible"":true,""alter_can_infer"":true,""collective_ball_visible"":false,""collective_can_infer"":false,""search_locations"":[1],""alter_occluders"":""001"",""ego_occluders"":""110""}","false","","","","","","","","","","","","","","","","","","",""
"","","","","","image-keyboard-response","5","123342","0.0-3.0-2.0","63e688adbc8788de6d596c93","665500ab8938657b03fbdba8","6657753cec2b45982c0ccdb8","1578","stimuli/10011101.jpg"," ","","practrice_feedback","1","","","","","","","","","","","","","","","","","","","","",""
"","","","","","image-keyboard-response","6","126816","0.0-3.0-3.0","63e688adbc8788de6d596c93","665500ab8938657b03fbdba8","6657753cec2b45982c0ccdb8","3472","stimuli/0110100.jpg","0","","prediction_practice","0","{""filepath"":""stimuli/0110100.jpg"",""ball_pos"":0,""ego_ball_visible"":false,""ego_can_infer"":true,""alter_ball_visible"":false,""alter_can_infer"":false,""collective_ball_visible"":false,""collective_can_infer"":false,""search_locations"":[1,0],""alter_occluders"":""110"",""ego_occluders"":""100""}","true","","","","","","","","","","","","","","","","","","",""
"","","","","","image-keyboard-response","7","128121","0.0-3.0-4.0","63e688adbc8788de6d596c93","665500ab8938657b03fbdba8","6657753cec2b45982c0ccdb8","1302","stimuli/01101000.jpg"," ","","practrice_feedback","1","","","","","","","","","","","","","","","","","","","","",""
"","","","","","image-keyboard-response","8","129855","0.0-3.0-5.0","63e688adbc8788de6d596c93","665500ab8938657b03fbdba8","6657753cec2b45982c0ccdb8","1732","stimuli/0011000.jpg","0","","prediction_practice","0","{""filepath"":""stimuli/0011000.jpg"",""ball_pos"":0,""ego_ball_visible"":true,""ego_can_infer"":true,""alter_ball_visible"":true,""alter_can_infer"":true,""collective_ball_visible"":true,""collective_can_infer"":true,""search_locations"":[0],""alter_occluders"":""011"",""ego_occluders"":""000""}","true","","","","","","","","","","","","","","","","","","",""
"","","","","","image-keyboard-response","9","131128","0.0-3.0-6.0","63e688adbc8788de6d596c93","665500ab8938657b03fbdba8","6657753cec2b45982c0ccdb8","1271","stimuli/00110000.jpg"," ","","practrice_feedback","0","","","","","","","","","","","","","","","","","","","","",""
"","","","","","image-keyboard-response","10","132859","0.0-3.0-7.0","63e688adbc8788de6d596c93","665500ab8938657b03fbdba8","6657753cec2b45982c0ccdb8","1728","stimuli/0111000.jpg","1","","prediction_practice","0","{""filepath"":""stimuli/0111000.jpg"",""ball_pos"":0,""ego_ball_visible"":true,""ego_can_infer"":true,""alter_ball_visible"":false,""alter_can_infer"":false,""collective_ball_visible"":false,""collective_can_infer"":false,""search_locations"":[1,0,2],""alter_occluders"":""111"",""ego_occluders"":""000""}","false","","","","","","","","","","","","","","","","","","",""
"","","","","","image-keyboard-response","11","134219","0.0-3.0-8.0","63e688adbc8788de6d596c93","665500ab8938657b03fbdba8","6657753cec2b45982c0ccdb8","1358","stimuli/01110000.jpg"," ","","practrice_feedback","1","","","","","","","","","","","","","","","","","","","","",""
"","","","","","image-keyboard-response","12","135789","0.0-3.0-9.0","63e688adbc8788de6d596c93","665500ab8938657b03fbdba8","6657753cec2b45982c0ccdb8","1568","stimuli/0111111.jpg","2","","prediction_practice","1","{""filepath"":""stimuli/0111111.jpg"",""ball_pos"":0,""ego_ball_visible"":false,""ego_can_infer"":false,""alter_ball_visible"":false,""alter_can_infer"":false,""collective_ball_visible"":false,""collective_can_infer"":false,""search_locations"":[1,0,2],""alter_occluders"":""111"",""ego_occluders"":""111""}","false","","","","","","","","","","","","","","","","","","",""
"","","","","","image-keyboard-response","13","136951","0.0-3.0-10.0","63e688adbc8788de6d596c93","665500ab8938657b03fbdba8","6657753cec2b45982c0ccdb8","1160","stimuli/01111111.jpg"," ","","practrice_feedback","1","","","","","","","","","","","","","","","","","","","","",""
"","","","","","image-keyboard-response","14","138585","0.0-3.0-11.0","63e688adbc8788de6d596c93","665500ab8938657b03fbdba8","6657753cec2b45982c0ccdb8","1632","stimuli/1010011.jpg","1","","prediction_practice","1","{""filepath"":""stimuli/1010011.jpg"",""ball_pos"":1,""ego_ball_visible"":false,""ego_can_infer"":false,""alter_ball_visible"":false,""alter_can_infer"":true,""collective_ball_visible"":false,""collective_can_infer"":false,""search_locations"":[1],""alter_occluders"":""010"",""ego_occluders"":""011""}","true","","","","","","","","","","","","","","","","","","",""
"","","","","","image-keyboard-response","15","140033","0.0-3.0-12.0","63e688adbc8788de6d596c93","665500ab8938657b03fbdba8","6657753cec2b45982c0ccdb8","1447","stimuli/10100111.jpg"," ","","practrice_feedback","1","","","","","","","","","","","","","","","","","","","","",""
"","","","","","image-keyboard-response","16","143948","0.0-3.0-13.0","63e688adbc8788de6d596c93","665500ab8938657b03fbdba8","6657753cec2b45982c0ccdb8","3914","stimuli/1010001.jpg","1","","prediction_practice","1","{""filepath"":""stimuli/1010001.jpg"",""ball_pos"":1,""ego_ball_visible"":true,""ego_can_infer"":true,""alter_ball_visible"":false,""alter_can_infer"":true,""collective_ball_visible"":false,""collective_can_infer"":true,""search_locations"":[1],""alter_occluders"":""010"",""ego_occluders"":""001""}","true","","","","","","","","","","","","","","","","","","",""
"","","","","","image-keyboard-response","17","145444","0.0-3.0-14.0","63e688adbc8788de6d596c93","665500ab8938657b03fbdba8","6657753cec2b45982c0ccdb8","1493","stimuli/10100011.jpg"," ","","practrice_feedback","1","","","","","","","","","","","","","","","","","","","","",""
"","","","","","image-keyboard-response","18","146817","0.0-3.0-15.0","63e688adbc8788de6d596c93","665500ab8938657b03fbdba8","6657753cec2b45982c0ccdb8","1372","stimuli/0010010.jpg","0","","prediction_practice","0","{""filepath"":""stimuli/0010010.jpg"",""ball_pos"":0,""ego_ball_visible"":true,""ego_can_infer"":true,""alter_ball_visible"":true,""alter_can_infer"":true,""collective_ball_visible"":true,""collective_can_infer"":true,""search_locations"":[0],""alter_occluders"":""010"",""ego_occluders"":""010""}","true","","","","","","","","","","","","","","","","","","",""
"","","","","","image-keyboard-response","19","148190","0.0-3.0-16.0","63e688adbc8788de6d596c93","665500ab8938657b03fbdba8","6657753cec2b45982c0ccdb8","1371","stimuli/00100100.jpg"," ","","practrice_feedback","0","","","","","","","","","","","","","","","","","","","","",""
"","","","","","image-keyboard-response","20","149816","0.0-3.0-17.0","63e688adbc8788de6d596c93","665500ab8938657b03fbdba8","6657753cec2b45982c0ccdb8","1625","stimuli/1100100.jpg","1","","prediction_practice","1","{""filepath"":""stimuli/1100100.jpg"",""ball_pos"":1,""ego_ball_visible"":true,""ego_can_infer"":true,""alter_ball_visible"":true,""alter_can_infer"":true,""collective_ball_visible"":true,""collective_can_infer"":true,""search_locations"":[1],""alter_occluders"":""100"",""ego_occluders"":""100""}","true","","","","","","","","","","","","","","","","","","",""
"","","","","","image-keyboard-response","21","151526","0.0-3.0-18.0","63e688adbc8788de6d596c93","665500ab8938657b03fbdba8","6657753cec2b45982c0ccdb8","1709","stimuli/11001001.jpg"," ","","practrice_feedback","1","","","","","","","","","","","","","","","","","","","","",""
"","","","","","image-keyboard-response","22","152844","0.0-3.0-19.0","63e688adbc8788de6d596c93","665500ab8938657b03fbdba8","6657753cec2b45982c0ccdb8","1300","stimuli/1101100.jpg","1","","prediction_practice","1","{""filepath"":""stimuli/1101100.jpg"",""ball_pos"":1,""ego_ball_visible"":true,""ego_can_infer"":true,""alter_ball_visible"":true,""alter_can_infer"":true,""collective_ball_visible"":true,""collective_can_infer"":true,""search_locations"":[1],""alter_occluders"":""101"",""ego_occluders"":""100""}","true","","","","","","","","","","","","","","","","","","",""
"","","","","","image-keyboard-response","23","154159","0.0-3.0-20.0","63e688adbc8788de6d596c93","665500ab8938657b03fbdba8","6657753cec2b45982c0ccdb8","1313","stimuli/11011001.jpg"," ","","practrice_feedback","1","","","","","","","","","","","","","","","","","","","","",""
"","","","","","html-button-response","24","163281","0.0-3.0-21.0","63e688adbc8788de6d596c93","665500ab8938657b03fbdba8","6657753cec2b45982c0ccdb8","9121","Now that you've had some practice, you'll be tested with a couple of easy trials. If you correctly predict Sam's choice, you'll move on to complete the experiment!","0","","","","","","","","","","","","","","","","","","","","","","","",""
"","","","","","image-keyboard-response","25","164365","0.0-3.0-22.0-0.0","63e688adbc8788de6d596c93","665500ab8938657b03fbdba8","6657753cec2b45982c0ccdb8","1083","stimuli/0000011.jpg","arrowleft","","comprehension_quiz","","","true","arrowleft","","","","","","","","","","","","","","","","","",""
"","","","","","image-keyboard-response","26","166553","0.0-3.0-22.0-1.0","63e688adbc8788de6d596c93","665500ab8938657b03fbdba8","6657753cec2b45982c0ccdb8","2187","stimuli/00000110.jpg"," ","","comprehension_quiz","","","true"," ","","","","","","","","","","","","","","","","","",""
"","","","","","image-keyboard-response","27","168314","0.0-3.0-22.0-2.0","63e688adbc8788de6d596c93","665500ab8938657b03fbdba8","6657753cec2b45982c0ccdb8","1759","stimuli/1010010.jpg","arrowdown","","comprehension_quiz","","","true","arrowdown","","","","","","","","","","","","","","","","","",""
"","","","","","image-keyboard-response","28","169041","0.0-3.0-22.0-3.0","63e688adbc8788de6d596c93","665500ab8938657b03fbdba8","6657753cec2b45982c0ccdb8","726","stimuli/10100101.jpg"," ","","comprehension_quiz","","","true"," ","","","","","","","","","","","","","","","","","",""
"","","","","","html-button-response","29","180236","0.0-4.0","63e688adbc8788de6d596c93","665500ab8938657b03fbdba8","6657753cec2b45982c0ccdb8","11192","The experiment will now begin.","0","","","","","","","","","","","","","","","","","","","","","","","",""
"","","","","","image-keyboard-response","30","183337","0.0-5.0","63e688adbc8788de6d596c93","665500ab8938657b03fbdba8","6657753cec2b45982c0ccdb8","3100","stimuli/1010001.jpg","1","","prediction_trial","1","","true","","1","true","true","false","true","false","true","[1]","010","001","1","","","","","","",""
"","","","","","image-keyboard-response","31","186953","0.0-6.0","63e688adbc8788de6d596c93","665500ab8938657b03fbdba8","6657753cec2b45982c0ccdb8","3614","stimuli/10100011.jpg"," ","","feedback_trial","1","","","","","","","","","","","","","","","","","","","","",""
"","","","","","image-keyboard-response","32","189476","0.0-7.0","63e688adbc8788de6d596c93","665500ab8938657b03fbdba8","6657753cec2b45982c0ccdb8","2520","stimuli/2011011.jpg","1","","prediction_trial","1","","true","","2","false","false","false","false","false","false","[2,1]","011","011","1","","","","","","",""
"","","","","","image-keyboard-response","33","190651","0.0-8.0","63e688adbc8788de6d596c93","665500ab8938657b03fbdba8","6657753cec2b45982c0ccdb8","1173","stimuli/20110111.jpg"," ","","feedback_trial","2","","","","","","","","","","","","","","","","","","","","",""
"","","","","","image-keyboard-response","34","194982","0.0-9.0","63e688adbc8788de6d596c93","665500ab8938657b03fbdba8","6657753cec2b45982c0ccdb8","4330","stimuli/2101110.jpg","2","","prediction_trial","0","","false","","2","true","true","false","false","false","false","[0,2]","101","110","0","","","","","","",""
"","","","","","image-keyboard-response","35","195777","0.0-10.0","63e688adbc8788de6d596c93","665500ab8938657b03fbdba8","6657753cec2b45982c0ccdb8","778","stimuli/21011100.jpg"," ","","feedback_trial","0","","","","","","","","","","","","","","","","","","","","",""
"","","","","","image-keyboard-response","36","198300","0.0-11.0","63e688adbc8788de6d596c93","665500ab8938657b03fbdba8","6657753cec2b45982c0ccdb8","2521","stimuli/0110011.jpg","0","","prediction_trial","0","","true","","0","true","true","false","false","false","false","[1,0]","110","011","1","","","","","","",""
"","","","","","image-keyboard-response","37","199076","0.0-12.0","63e688adbc8788de6d596c93","665500ab8938657b03fbdba8","6657753cec2b45982c0ccdb8","775","stimuli/01100110.jpg"," ","","feedback_trial","1","","","","","","","","","","","","","","","","","","","","",""
"","","","","","image-keyboard-response","38","201058","0.0-13.0","63e688adbc8788de6d596c93","665500ab8938657b03fbdba8","6657753cec2b45982c0ccdb8","1980","stimuli/1110110.jpg","1","","prediction_trial","0","","false","","1","false","false","false","false","false","false","[0,1]","110","110","0","","","","","","",""
"","","","","","image-keyboard-response","39","201771","0.0-14.0","63e688adbc8788de6d596c93","665500ab8938657b03fbdba8","6657753cec2b45982c0ccdb8","712","stimuli/11101100.jpg"," ","","feedback_trial","0","","","","","","","","","","","","","","","","","","","","",""
"","","","","","image-keyboard-response","40","207153","0.0-15.0","63e688adbc8788de6d596c93","665500ab8938657b03fbdba8","6657753cec2b45982c0ccdb8","5381","stimuli/2001101.jpg","0","","prediction_trial","2","","false","","2","false","false","false","true","false","false","[2]","001","101","0","","","","","","",""
"","","","","","image-keyboard-response","41","207881","0.0-16.0","63e688adbc8788de6d596c93","665500ab8938657b03fbdba8","6657753cec2b45982c0ccdb8","726","stimuli/20011012.jpg"," ","","feedback_trial","2","","","","","","","","","","","","","","","","","","","","",""
"","","","","","image-keyboard-response","42","211058","0.0-17.0","63e688adbc8788de6d596c93","665500ab8938657b03fbdba8","6657753cec2b45982c0ccdb8","3176","stimuli/0110111.jpg","2","","prediction_trial","1","","false","","0","false","false","false","false","false","false","[0,1]","110","111","0","","","","","","",""
"","","","","","image-keyboard-response","43","211790","0.0-18.0","63e688adbc8788de6d596c93","665500ab8938657b03fbdba8","6657753cec2b45982c0ccdb8","731","stimuli/01101111.jpg"," ","","feedback_trial","0","","","","","","","","","","","","","","","","","","","","",""
"","","","","","image-keyboard-response","44","213975","0.0-19.0","63e688adbc8788de6d596c93","665500ab8938657b03fbdba8","6657753cec2b45982c0ccdb8","2184","stimuli/1010010.jpg","1","","prediction_trial","1","","true","","1","false","true","false","true","false","true","[1]","010","010","1","","","","","","",""
"","","","","","image-keyboard-response","45","214765","0.0-20.0","63e688adbc8788de6d596c93","665500ab8938657b03fbdba8","6657753cec2b45982c0ccdb8","788","stimuli/10100101.jpg"," ","","feedback_trial","1","","","","","","","","","","","","","","","","","","","","",""
"","","","","","image-keyboard-response","46","216533","0.0-21.0","63e688adbc8788de6d596c93","665500ab8938657b03fbdba8","6657753cec2b45982c0ccdb8","1749","stimuli/1011000.jpg","1","","prediction_trial","1","","true","","1","true","true","false","false","false","false","[1,2]","011","000","1","","","","","","",""
"","","","","","image-keyboard-response","47","217322","0.0-22.0","63e688adbc8788de6d596c93","665500ab8938657b03fbdba8","6657753cec2b45982c0ccdb8","787","stimuli/10110001.jpg"," ","","feedback_trial","1","","","","","","","","","","","","","","","","","","","","",""
"","","","","","image-keyboard-response","48","220321","0.0-23.0","63e688adbc8788de6d596c93","665500ab8938657b03fbdba8","6657753cec2b45982c0ccdb8","2998","stimuli/2111111.jpg","0","","prediction_trial","2","","false","","2","false","false","false","false","false","false","[0,1,2]","111","111","0","","","","","","",""
"","","","","","image-keyboard-response","49","221034","0.0-24.0","63e688adbc8788de6d596c93","665500ab8938657b03fbdba8","6657753cec2b45982c0ccdb8","712","stimuli/21111112.jpg"," ","","feedback_trial","0","","","","","","","","","","","","","","","","","","","","",""
"","","","","","image-keyboard-response","50","225006","0.0-25.0","63e688adbc8788de6d596c93","665500ab8938657b03fbdba8","6657753cec2b45982c0ccdb8","3971","stimuli/2010011.jpg","2","","prediction_trial","2","","true","","2","false","false","true","true","false","false","[2]","010","011","1","","","","","","",""
"","","","","","image-keyboard-response","51","225848","0.0-26.0","63e688adbc8788de6d596c93","665500ab8938657b03fbdba8","6657753cec2b45982c0ccdb8","841","stimuli/20100112.jpg"," ","","feedback_trial","2","","","","","","","","","","","","","","","","","","","","",""
"","","","","","image-keyboard-response","52","226976","0.0-27.0","63e688adbc8788de6d596c93","665500ab8938657b03fbdba8","6657753cec2b45982c0ccdb8","1127","stimuli/1100000.jpg","1","","prediction_trial","1","","true","","1","true","true","true","true","true","true","[1]","100","000","1","","","","","","",""
"","","","","","image-keyboard-response","53","227908","0.0-28.0","63e688adbc8788de6d596c93","665500ab8938657b03fbdba8","6657753cec2b45982c0ccdb8","932","stimuli/11000001.jpg"," ","","feedback_trial","1","","","","","","","","","","","","","","","","","","","","",""
"","","","","","image-keyboard-response","54","230079","0.0-29.0","63e688adbc8788de6d596c93","665500ab8938657b03fbdba8","6657753cec2b45982c0ccdb8","2169","stimuli/2111000.jpg","2","","prediction_trial","2","","true","","2","true","true","false","false","false","false","[2,0,1]","111","000","1","","","","","","",""
"","","","","","image-keyboard-response","55","231560","0.0-30.0","63e688adbc8788de6d596c93","665500ab8938657b03fbdba8","6657753cec2b45982c0ccdb8","1480","stimuli/21110002.jpg"," ","","feedback_trial","2","","","","","","","","","","","","","","","","","","","","",""
"","","","","","image-keyboard-response","56","232763","0.0-31.0","63e688adbc8788de6d596c93","665500ab8938657b03fbdba8","6657753cec2b45982c0ccdb8","1201","stimuli/1101001.jpg","1","","prediction_trial","1","","true","","1","true","true","true","true","true","true","[1]","101","001","1","","","","","","",""
"","","","","","image-keyboard-response","57","234107","0.0-32.0","63e688adbc8788de6d596c93","665500ab8938657b03fbdba8","6657753cec2b45982c0ccdb8","1328","stimuli/11010011.jpg"," ","","feedback_trial","1","","","","","","","","","","","","","","","","","","","","",""
"","","","","","image-keyboard-response","58","236440","0.0-33.0","63e688adbc8788de6d596c93","665500ab8938657b03fbdba8","6657753cec2b45982c0ccdb8","2331","stimuli/0111111.jpg","0","","prediction_trial","0","","true","","0","false","false","false","false","false","false","[1,0,2]","111","111","1","","","","","","",""
"","","","","","image-keyboard-response","59","237380","0.0-34.0","63e688adbc8788de6d596c93","665500ab8938657b03fbdba8","6657753cec2b45982c0ccdb8","939","stimuli/01111110.jpg"," ","","feedback_trial","1","","","","","","","","","","","","","","","","","","","","",""
"","","","","","image-keyboard-response","60","239349","0.0-35.0","63e688adbc8788de6d596c93","665500ab8938657b03fbdba8","6657753cec2b45982c0ccdb8","1968","stimuli/2101011.jpg","1","","prediction_trial","2","","false","","2","false","false","false","false","false","false","[2,0]","101","011","0","","","","","","",""
"","","","","","image-keyboard-response","61","240108","0.0-36.0","63e688adbc8788de6d596c93","665500ab8938657b03fbdba8","6657753cec2b45982c0ccdb8","758","stimuli/21010112.jpg"," ","","feedback_trial","2","","","","","","","","","","","","","","","","","","","","",""
"","","","","","image-keyboard-response","62","241243","0.0-37.0","63e688adbc8788de6d596c93","665500ab8938657b03fbdba8","6657753cec2b45982c0ccdb8","1134","stimuli/2100110.jpg","2","","prediction_trial","2","","true","","2","true","true","true","true","true","true","[2]","100","110","1","","","","","","",""
"","","","","","image-keyboard-response","63","241744","0.0-38.0","63e688adbc8788de6d596c93","665500ab8938657b03fbdba8","6657753cec2b45982c0ccdb8","499","stimuli/21001102.jpg"," ","","feedback_trial","2","","","","","","","","","","","","","","","","","","","","",""
"","","","","","image-keyboard-response","64","244129","0.0-39.0","63e688adbc8788de6d596c93","665500ab8938657b03fbdba8","6657753cec2b45982c0ccdb8","2384","stimuli/1110100.jpg","1","","prediction_trial","1","","true","","1","true","true","false","false","false","false","[1,0]","110","100","1","","","","","","",""
"","","","","","image-keyboard-response","65","244791","0.0-40.0","63e688adbc8788de6d596c93","665500ab8938657b03fbdba8","6657753cec2b45982c0ccdb8","658","stimuli/11101001.jpg"," ","","feedback_trial","1","","","","","","","","","","","","","","","","","","","","",""
"","","","","","image-keyboard-response","66","246875","0.0-41.0","63e688adbc8788de6d596c93","665500ab8938657b03fbdba8","6657753cec2b45982c0ccdb8","2081","stimuli/0001101.jpg","0","","prediction_trial","0","","true","","0","false","false","true","true","false","false","[0]","001","101","1","","","","","","",""
"","","","","","image-keyboard-response","67","247743","0.0-42.0","63e688adbc8788de6d596c93","665500ab8938657b03fbdba8","6657753cec2b45982c0ccdb8","867","stimuli/00011010.jpg"," ","","feedback_trial","0","","","","","","","","","","","","","","","","","","","","",""
"","","","","","image-keyboard-response","68","249075","0.0-43.0","63e688adbc8788de6d596c93","665500ab8938657b03fbdba8","6657753cec2b45982c0ccdb8","1311","stimuli/0000011.jpg","0","","prediction_trial","0","","true","","0","true","true","true","true","true","true","[0]","000","011","1","","","","","","",""
"","","","","","image-keyboard-response","69","250318","0.0-44.0","63e688adbc8788de6d596c93","665500ab8938657b03fbdba8","6657753cec2b45982c0ccdb8","1243","stimuli/00000110.jpg"," ","","feedback_trial","0","","","","","","","","","","","","","","","","","","","","",""
"","","","","","image-keyboard-response","70","251814","0.0-45.0","63e688adbc8788de6d596c93","665500ab8938657b03fbdba8","6657753cec2b45982c0ccdb8","1494","stimuli/0011110.jpg","0","","prediction_trial","0","","true","","0","false","false","true","true","false","false","[0]","011","110","1","","","","","","",""
"","","","","","image-keyboard-response","71","252705","0.0-46.0","63e688adbc8788de6d596c93","665500ab8938657b03fbdba8","6657753cec2b45982c0ccdb8","889","stimuli/00111100.jpg"," ","","feedback_trial","0","","","","","","","","","","","","","","","","","","","","",""
"","","","","","image-keyboard-response","72","253519","0.0-47.0","63e688adbc8788de6d596c93","665500ab8938657b03fbdba8","6657753cec2b45982c0ccdb8","812","stimuli/1111100.jpg","1","","prediction_trial","0","","false","","1","true","true","false","false","false","false","[2,0,1]","111","100","0","","","","","","",""
"","","","","","image-keyboard-response","73","254166","0.0-48.0","63e688adbc8788de6d596c93","665500ab8938657b03fbdba8","6657753cec2b45982c0ccdb8","646","stimuli/11111000.jpg"," ","","feedback_trial","2","","","","","","","","","","","","","","","","","","","","",""
"","","","","","image-keyboard-response","74","255711","0.0-49.0","63e688adbc8788de6d596c93","665500ab8938657b03fbdba8","6657753cec2b45982c0ccdb8","1543","stimuli/2111010.jpg","2","","prediction_trial","2","","true","","2","true","true","false","false","false","false","[1,0,2]","111","010","1","","","","","","",""
"","","","","","image-keyboard-response","75","256398","0.0-50.0","63e688adbc8788de6d596c93","665500ab8938657b03fbdba8","6657753cec2b45982c0ccdb8","686","stimuli/21110102.jpg"," ","","feedback_trial","1","","","","","","","","","","","","","","","","","","","","",""
"","","","","","image-keyboard-response","76","258767","0.0-51.0","63e688adbc8788de6d596c93","665500ab8938657b03fbdba8","6657753cec2b45982c0ccdb8","2367","stimuli/2011111.jpg","0","","prediction_trial","2","","false","","2","false","false","false","false","false","false","[2,1]","011","111","0","","","","","","",""
"","","","","","image-keyboard-response","77","259688","0.0-52.0","63e688adbc8788de6d596c93","665500ab8938657b03fbdba8","6657753cec2b45982c0ccdb8","920","stimuli/20111112.jpg"," ","","feedback_trial","2","","","","","","","","","","","","","","","","","","","","",""
"","","","","","image-keyboard-response","78","260960","0.0-53.0","63e688adbc8788de6d596c93","665500ab8938657b03fbdba8","6657753cec2b45982c0ccdb8","1269","stimuli/0011011.jpg","0","","prediction_trial","0","","true","","0","true","true","true","true","true","true","[0]","011","011","1","","","","","","",""
"","","","","","image-keyboard-response","79","261683","0.0-54.0","63e688adbc8788de6d596c93","665500ab8938657b03fbdba8","6657753cec2b45982c0ccdb8","721","stimuli/00110110.jpg"," ","","feedback_trial","0","","","","","","","","","","","","","","","","","","","","",""
"","","","","","image-keyboard-response","80","262468","0.0-55.0","63e688adbc8788de6d596c93","665500ab8938657b03fbdba8","6657753cec2b45982c0ccdb8","784","stimuli/1000000.jpg","1","","prediction_trial","1","","true","","1","true","true","true","true","true","true","[1]","000","000","1","","","","","","",""
"","","","","","image-keyboard-response","81","263162","0.0-56.0","63e688adbc8788de6d596c93","665500ab8938657b03fbdba8","6657753cec2b45982c0ccdb8","692","stimuli/10000001.jpg"," ","","feedback_trial","1","","","","","","","","","","","","","","","","","","","","",""
"","","","","","image-keyboard-response","82","266974","0.0-57.0","63e688adbc8788de6d596c93","665500ab8938657b03fbdba8","6657753cec2b45982c0ccdb8","3811","stimuli/2011001.jpg","1","","prediction_trial","1","","true","","2","false","true","false","false","false","false","[2,1]","011","001","1","","","","","","",""
"","","","","","image-keyboard-response","83","267635","0.0-58.0","63e688adbc8788de6d596c93","665500ab8938657b03fbdba8","6657753cec2b45982c0ccdb8","659","stimuli/20110011.jpg"," ","","feedback_trial","2","","","","","","","","","","","","","","","","","","","","",""
"","","","","","image-keyboard-response","84","268779","0.0-59.0","63e688adbc8788de6d596c93","665500ab8938657b03fbdba8","6657753cec2b45982c0ccdb8","1141","stimuli/2111110.jpg","2","","prediction_trial","2","","true","","2","true","true","false","false","false","false","[2,0,1]","111","110","1","","","","","","",""
"","","","","","image-keyboard-response","85","269451","0.0-60.0","63e688adbc8788de6d596c93","665500ab8938657b03fbdba8","6657753cec2b45982c0ccdb8","670","stimuli/21111102.jpg"," ","","feedback_trial","2","","","","","","","","","","","","","","","","","","","","",""
"","","","","","image-keyboard-response","86","271296","0.0-61.0","63e688adbc8788de6d596c93","665500ab8938657b03fbdba8","6657753cec2b45982c0ccdb8","1843","stimuli/0011101.jpg","0","","prediction_trial","0","","true","","0","false","false","true","true","false","false","[0]","011","101","1","","","","","","",""
"","","","","","image-keyboard-response","87","271980","0.0-62.0","63e688adbc8788de6d596c93","665500ab8938657b03fbdba8","6657753cec2b45982c0ccdb8","683","stimuli/00111010.jpg"," ","","feedback_trial","0","","","","","","","","","","","","","","","","","","","","",""
"","","","","","image-keyboard-response","88","272797","0.0-63.0","63e688adbc8788de6d596c93","665500ab8938657b03fbdba8","6657753cec2b45982c0ccdb8","816","stimuli/2110000.jpg","2","","prediction_trial","2","","true","","2","true","true","true","true","true","true","[2]","110","000","1","","","","","","",""
"","","","","","image-keyboard-response","89","273337","0.0-64.0","63e688adbc8788de6d596c93","665500ab8938657b03fbdba8","6657753cec2b45982c0ccdb8","539","stimuli/21100002.jpg"," ","","feedback_trial","2","","","","","","","","","","","","","","","","","","","","",""
"","","","","","image-keyboard-response","90","275778","0.0-65.0","63e688adbc8788de6d596c93","665500ab8938657b03fbdba8","6657753cec2b45982c0ccdb8","2424","stimuli/2001011.jpg","1","","prediction_trial","2","","false","","2","false","false","false","true","false","false","[2]","001","011","0","","","","","","",""
"","","","","","image-keyboard-response","91","276424","0.0-66.0","63e688adbc8788de6d596c93","665500ab8938657b03fbdba8","6657753cec2b45982c0ccdb8","644","stimuli/20010112.jpg"," ","","feedback_trial","2","","","","","","","","","","","","","","","","","","","","",""
"","","","","","image-keyboard-response","92","279596","0.0-67.0","63e688adbc8788de6d596c93","665500ab8938657b03fbdba8","6657753cec2b45982c0ccdb8","3171","stimuli/1000110.jpg","0","","prediction_trial","1","","false","","1","false","false","true","true","false","false","[1]","000","110","0","","","","","","",""
"","","","","","image-keyboard-response","93","280268","0.0-68.0","63e688adbc8788de6d596c93","665500ab8938657b03fbdba8","6657753cec2b45982c0ccdb8","671","stimuli/10001101.jpg"," ","","feedback_trial","1","","","","","","","","","","","","","","","","","","","","",""
"","","","","","image-keyboard-response","94","282379","0.0-69.0","63e688adbc8788de6d596c93","665500ab8938657b03fbdba8","6657753cec2b45982c0ccdb8","2108","stimuli/1011110.jpg","1","","prediction_trial","2","","false","","1","false","false","false","false","false","false","[2,1]","011","110","0","","","","","","",""
"","","","","","image-keyboard-response","95","282932","0.0-70.0","63e688adbc8788de6d596c93","665500ab8938657b03fbdba8","6657753cec2b45982c0ccdb8","550","stimuli/10111102.jpg"," ","","feedback_trial","2","","","","","","","","","","","","","","","","","","","","",""
"","","","","","image-keyboard-response","96","285977","0.0-71.0","63e688adbc8788de6d596c93","665500ab8938657b03fbdba8","6657753cec2b45982c0ccdb8","3041","stimuli/0000100.jpg","0","","prediction_trial","0","","true","","0","false","true","true","true","false","true","[0]","000","100","1","","","","","","",""
"","","","","","image-keyboard-response","97","286641","0.0-72.0","63e688adbc8788de6d596c93","665500ab8938657b03fbdba8","6657753cec2b45982c0ccdb8","664","stimuli/00001000.jpg"," ","","feedback_trial","0","","","","","","","","","","","","","","","","","","","","",""
"","","","","","image-keyboard-response","98","288866","0.0-73.0","63e688adbc8788de6d596c93","665500ab8938657b03fbdba8","6657753cec2b45982c0ccdb8","2223","stimuli/2011101.jpg","0","","prediction_trial","1","","false","","2","false","false","false","false","false","false","[2,1]","011","101","0","","","","","","",""
"","","","","","image-keyboard-response","99","289393","0.0-74.0","63e688adbc8788de6d596c93","665500ab8938657b03fbdba8","6657753cec2b45982c0ccdb8","519","stimuli/20111011.jpg"," ","","feedback_trial","2","","","","","","","","","","","","","","","","","","","","",""
"","","","","","image-keyboard-response","100","290522","0.0-75.0","63e688adbc8788de6d596c93","665500ab8938657b03fbdba8","6657753cec2b45982c0ccdb8","1127","stimuli/0000111.jpg","2","","prediction_trial","0","","false","","0","false","false","true","true","false","false","[0]","000","111","0","","","","","","",""
"","","","","","image-keyboard-response","101","291078","0.0-76.0","63e688adbc8788de6d596c93","665500ab8938657b03fbdba8","6657753cec2b45982c0ccdb8","555","stimuli/00001110.jpg"," ","","feedback_trial","0","","","","","","","","","","","","","","","","","","","","",""
"","","","","","image-keyboard-response","102","292981","0.0-77.0","63e688adbc8788de6d596c93","665500ab8938657b03fbdba8","6657753cec2b45982c0ccdb8","1900","stimuli/1010101.jpg","1","","prediction_trial","1","","true","","1","true","true","false","true","false","true","[1]","010","101","1","","","","","","",""
"","","","","","image-keyboard-response","103","293509","0.0-78.0","63e688adbc8788de6d596c93","665500ab8938657b03fbdba8","6657753cec2b45982c0ccdb8","527","stimuli/10101011.jpg"," ","","feedback_trial","1","","","","","","","","","","","","","","","","","","","","",""
"","","","","","image-keyboard-response","104","295332","0.0-79.0","63e688adbc8788de6d596c93","665500ab8938657b03fbdba8","6657753cec2b45982c0ccdb8","1822","stimuli/1101010.jpg","1","","prediction_trial","1","","true","","1","false","true","true","true","false","true","[1]","101","010","1","","","","","","",""
"","","","","","image-keyboard-response","105","296156","0.0-80.0","63e688adbc8788de6d596c93","665500ab8938657b03fbdba8","6657753cec2b45982c0ccdb8","821","stimuli/11010101.jpg"," ","","feedback_trial","1","","","","","","","","","","","","","","","","","","","","",""
"","","","","","image-keyboard-response","106","297093","0.0-81.0","63e688adbc8788de6d596c93","665500ab8938657b03fbdba8","6657753cec2b45982c0ccdb8","936","stimuli/0000000.jpg","0","","prediction_trial","0","","true","","0","true","true","true","true","true","true","[0]","000","000","1","","","","","","",""
"","","","","","image-keyboard-response","107","297439","0.0-82.0","63e688adbc8788de6d596c93","665500ab8938657b03fbdba8","6657753cec2b45982c0ccdb8","345","stimuli/00000000.jpg"," ","","feedback_trial","0","","","","","","","","","","","","","","","","","","","","",""
"","","","","","image-keyboard-response","108","298732","0.0-83.0","63e688adbc8788de6d596c93","665500ab8938657b03fbdba8","6657753cec2b45982c0ccdb8","1292","stimuli/1100110.jpg","1","","prediction_trial","1","","true","","1","false","false","true","true","false","false","[1]","100","110","1","","","","","","",""
"","","","","","image-keyboard-response","109","299344","0.0-84.0","63e688adbc8788de6d596c93","665500ab8938657b03fbdba8","6657753cec2b45982c0ccdb8","611","stimuli/11001101.jpg"," ","","feedback_trial","1","","","","","","","","","","","","","","","","","","","","",""
"","","","","","image-keyboard-response","110","302528","0.0-85.0","63e688adbc8788de6d596c93","665500ab8938657b03fbdba8","6657753cec2b45982c0ccdb8","3181","stimuli/2101100.jpg","2","","prediction_trial","2","","true","","2","true","true","false","false","false","false","[2,0]","101","100","1","","","","","","",""
"","","","","","image-keyboard-response","111","303140","0.0-86.0","63e688adbc8788de6d596c93","665500ab8938657b03fbdba8","6657753cec2b45982c0ccdb8","611","stimuli/21011002.jpg"," ","","feedback_trial","2","","","","","","","","","","","","","","","","","","","","",""
"","","","","","image-keyboard-response","112","304945","0.0-87.0","63e688adbc8788de6d596c93","665500ab8938657b03fbdba8","6657753cec2b45982c0ccdb8","1784","stimuli/0111001.jpg","0","","prediction_trial","2","","false","","0","true","true","false","false","false","false","[2,1,0]","111","001","0","","","","","","",""
"","","","","","image-keyboard-response","113","305527","0.0-88.0","63e688adbc8788de6d596c93","665500ab8938657b03fbdba8","6657753cec2b45982c0ccdb8","580","stimuli/01110012.jpg"," ","","feedback_trial","2","","","","","","","","","","","","","","","","","","","","",""
"","","","","","image-keyboard-response","114","308145","0.0-89.0","63e688adbc8788de6d596c93","665500ab8938657b03fbdba8","6657753cec2b45982c0ccdb8","2617","stimuli/0110100.jpg","0","","prediction_trial","1","","false","","0","false","true","false","false","false","false","[1,0]","110","100","0","","","","","","",""
"","","","","","image-keyboard-response","115","308750","0.0-90.0","63e688adbc8788de6d596c93","665500ab8938657b03fbdba8","6657753cec2b45982c0ccdb8","604","stimuli/01101001.jpg"," ","","feedback_trial","1","","","","","","","","","","","","","","","","","","","","",""
"","","","","","image-keyboard-response","116","309661","0.0-91.0","63e688adbc8788de6d596c93","665500ab8938657b03fbdba8","6657753cec2b45982c0ccdb8","910","stimuli/2000000.jpg","2","","prediction_trial","2","","true","","2","true","true","true","true","true","true","[2]","000","000","1","","","","","","",""
"","","","","","image-keyboard-response","117","310140","0.0-92.0","63e688adbc8788de6d596c93","665500ab8938657b03fbdba8","6657753cec2b45982c0ccdb8","477","stimuli/20000002.jpg"," ","","feedback_trial","2","","","","","","","","","","","","","","","","","","","","",""
"","","","","","image-keyboard-response","118","311163","0.0-93.0","63e688adbc8788de6d596c93","665500ab8938657b03fbdba8","6657753cec2b45982c0ccdb8","1022","stimuli/2110001.jpg","2","","prediction_trial","2","","true","","2","false","true","true","true","false","true","[2]","110","001","1","","","","","","",""
"","","","","","image-keyboard-response","119","311583","0.0-94.0","63e688adbc8788de6d596c93","665500ab8938657b03fbdba8","6657753cec2b45982c0ccdb8","418","stimuli/21100012.jpg"," ","","feedback_trial","2","","","","","","","","","","","","","","","","","","","","",""
"","","","","","image-keyboard-response","120","312989","0.0-95.0","63e688adbc8788de6d596c93","665500ab8938657b03fbdba8","6657753cec2b45982c0ccdb8","1404","stimuli/0010101.jpg","0","","prediction_trial","0","","true","","0","false","false","true","true","false","false","[0]","010","101","1","","","","","","",""
"","","","","","image-keyboard-response","121","313520","0.0-96.0","63e688adbc8788de6d596c93","665500ab8938657b03fbdba8","6657753cec2b45982c0ccdb8","530","stimuli/00101010.jpg"," ","","feedback_trial","0","","","","","","","","","","","","","","","","","","","","",""
"","","","","","image-keyboard-response","122","315366","0.0-97.0","63e688adbc8788de6d596c93","665500ab8938657b03fbdba8","6657753cec2b45982c0ccdb8","1845","stimuli/2001001.jpg","1","","prediction_trial","2","","false","","2","false","true","false","true","false","true","[2]","001","001","0","","","","","","",""
"","","","","","image-keyboard-response","123","316483","0.0-98.0","63e688adbc8788de6d596c93","665500ab8938657b03fbdba8","6657753cec2b45982c0ccdb8","1097","stimuli/20010012.jpg"," ","","feedback_trial","2","","","","","","","","","","","","","","","","","","","","",""
"","","","","","image-keyboard-response","124","317387","0.0-99.0","63e688adbc8788de6d596c93","665500ab8938657b03fbdba8","6657753cec2b45982c0ccdb8","903","stimuli/0100000.jpg","0","","prediction_trial","0","","true","","0","true","true","false","true","false","true","[0]","100","000","1","","","","","","",""
"","","","","","image-keyboard-response","125","317914","0.0-100.0","63e688adbc8788de6d596c93","665500ab8938657b03fbdba8","6657753cec2b45982c0ccdb8","526","stimuli/01000000.jpg"," ","","feedback_trial","0","","","","","","","","","","","","","","","","","","","","",""
"","","","","","image-keyboard-response","126","319882","0.0-101.0","63e688adbc8788de6d596c93","665500ab8938657b03fbdba8","6657753cec2b45982c0ccdb8","1967","stimuli/0000110.jpg","1","","prediction_trial","0","","false","","0","false","false","true","true","false","false","[0]","000","110","0","","","","","","",""
"","","","","","image-keyboard-response","127","320447","0.0-102.0","63e688adbc8788de6d596c93","665500ab8938657b03fbdba8","6657753cec2b45982c0ccdb8","562","stimuli/00001100.jpg"," ","","feedback_trial","0","","","","","","","","","","","","","","","","","","","","",""
"","","","","","image-keyboard-response","128","322220","0.0-103.0","63e688adbc8788de6d596c93","665500ab8938657b03fbdba8","6657753cec2b45982c0ccdb8","1769","stimuli/1110000.jpg","1","","prediction_trial","1","","true","","1","true","true","false","false","false","false","[1,0]","110","000","1","","","","","","",""
"","","","","","image-keyboard-response","129","322901","0.0-104.0","63e688adbc8788de6d596c93","665500ab8938657b03fbdba8","6657753cec2b45982c0ccdb8","680","stimuli/11100001.jpg"," ","","feedback_trial","1","","","","","","","","","","","","","","","","","","","","",""
"","","","","","image-keyboard-response","130","324086","0.0-105.0","63e688adbc8788de6d596c93","665500ab8938657b03fbdba8","6657753cec2b45982c0ccdb8","1182","stimuli/1010110.jpg","0","","prediction_trial","1","","false","","1","false","false","false","true","false","false","[1]","010","110","0","","","","","","",""
"","","","","","image-keyboard-response","131","324595","0.0-106.0","63e688adbc8788de6d596c93","665500ab8938657b03fbdba8","6657753cec2b45982c0ccdb8","507","stimuli/10101101.jpg"," ","","feedback_trial","1","","","","","","","","","","","","","","","","","","","","",""
"","","","","","image-keyboard-response","132","326201","0.0-107.0","63e688adbc8788de6d596c93","665500ab8938657b03fbdba8","6657753cec2b45982c0ccdb8","1601","stimuli/0100111.jpg","1","","prediction_trial","0","","false","","0","false","false","false","true","false","false","[0]","100","111","0","","","","","","",""
"","","","","","image-keyboard-response","133","326696","0.0-108.0","63e688adbc8788de6d596c93","665500ab8938657b03fbdba8","6657753cec2b45982c0ccdb8","493","stimuli/01001110.jpg"," ","","feedback_trial","0","","","","","","","","","","","","","","","","","","","","",""
"","","","","","image-keyboard-response","134","328053","0.0-109.0","63e688adbc8788de6d596c93","665500ab8938657b03fbdba8","6657753cec2b45982c0ccdb8","1327","stimuli/1001110.jpg","1","","prediction_trial","1","","true","","1","false","false","true","true","false","false","[1]","001","110","1","","","","","","",""
"","","","","","image-keyboard-response","135","328569","0.0-110.0","63e688adbc8788de6d596c93","665500ab8938657b03fbdba8","6657753cec2b45982c0ccdb8","514","stimuli/10011101.jpg"," ","","feedback_trial","1","","","","","","","","","","","","","","","","","","","","",""
"","","","","","image-keyboard-response","136","330266","0.0-111.0","63e688adbc8788de6d596c93","665500ab8938657b03fbdba8","6657753cec2b45982c0ccdb8","1691","stimuli/2001111.jpg","0","","prediction_trial","2","","false","","2","false","false","false","true","false","false","[2]","001","111","0","","","","","","",""
"","","","","","image-keyboard-response","137","330880","0.0-112.0","63e688adbc8788de6d596c93","665500ab8938657b03fbdba8","6657753cec2b45982c0ccdb8","612","stimuli/20011112.jpg"," ","","feedback_trial","2","","","","","","","","","","","","","","","","","","","","",""
"","","","","","image-keyboard-response","138","331933","0.0-113.0","63e688adbc8788de6d596c93","665500ab8938657b03fbdba8","6657753cec2b45982c0ccdb8","1050","stimuli/1101101.jpg","1","","prediction_trial","1","","true","","1","true","true","true","true","true","true","[1]","101","101","1","","","","","","",""
"","","","","","image-keyboard-response","139","332367","0.0-114.0","63e688adbc8788de6d596c93","665500ab8938657b03fbdba8","6657753cec2b45982c0ccdb8","432","stimuli/11011011.jpg"," ","","feedback_trial","1","","","","","","","","","","","","","","","","","","","","",""
"","","","","","image-keyboard-response","140","334242","0.0-115.0","63e688adbc8788de6d596c93","665500ab8938657b03fbdba8","6657753cec2b45982c0ccdb8","1871","stimuli/0101011.jpg","0","","prediction_trial","2","","false","","0","true","true","false","false","false","false","[0,2]","101","011","0","","","","","","",""
"","","","","","image-keyboard-response","141","334702","0.0-116.0","63e688adbc8788de6d596c93","665500ab8938657b03fbdba8","6657753cec2b45982c0ccdb8","458","stimuli/01010112.jpg"," ","","feedback_trial","0","","","","","","","","","","","","","","","","","","","","",""
"","","","","","image-keyboard-response","142","336255","0.0-117.0","63e688adbc8788de6d596c93","665500ab8938657b03fbdba8","6657753cec2b45982c0ccdb8","1550","stimuli/0111110.jpg","1","","prediction_trial","2","","false","","0","false","false","false","false","false","false","[0,1,2]","111","110","0","","","","","","",""
"","","","","","image-keyboard-response","143","336788","0.0-118.0","63e688adbc8788de6d596c93","665500ab8938657b03fbdba8","6657753cec2b45982c0ccdb8","531","stimuli/01111102.jpg"," ","","feedback_trial","0","","","","","","","","","","","","","","","","","","","","",""
"","","","","","image-keyboard-response","144","338904","0.0-119.0","63e688adbc8788de6d596c93","665500ab8938657b03fbdba8","6657753cec2b45982c0ccdb8","2112","stimuli/1010100.jpg","1","","prediction_trial","1","","true","","1","true","true","false","true","false","true","[1]","010","100","1","","","","","","",""
"","","","","","image-keyboard-response","145","339353","0.0-120.0","63e688adbc8788de6d596c93","665500ab8938657b03fbdba8","6657753cec2b45982c0ccdb8","447","stimuli/10101001.jpg"," ","","feedback_trial","1","","","","","","","","","","","","","","","","","","","","",""
"","","","","","image-keyboard-response","146","340203","0.0-121.0","63e688adbc8788de6d596c93","665500ab8938657b03fbdba8","6657753cec2b45982c0ccdb8","848","stimuli/2100100.jpg","2","","prediction_trial","2","","true","","2","true","true","true","true","true","true","[2]","100","100","1","","","","","","",""
"","","","","","image-keyboard-response","147","340505","0.0-122.0","63e688adbc8788de6d596c93","665500ab8938657b03fbdba8","6657753cec2b45982c0ccdb8","301","stimuli/21001002.jpg"," ","","feedback_trial","2","","","","","","","","","","","","","","","","","","","","",""
"","","","","","image-keyboard-response","148","341334","0.0-123.0","63e688adbc8788de6d596c93","665500ab8938657b03fbdba8","6657753cec2b45982c0ccdb8","828","stimuli/2010000.jpg","2","","prediction_trial","2","","true","","2","true","true","true","true","true","true","[2]","010","000","1","","","","","","",""
"","","","","","image-keyboard-response","149","341624","0.0-124.0","63e688adbc8788de6d596c93","665500ab8938657b03fbdba8","6657753cec2b45982c0ccdb8","288","stimuli/20100002.jpg"," ","","feedback_trial","2","","","","","","","","","","","","","","","","","","","","",""
"","","","","","image-keyboard-response","150","344081","0.0-125.0","63e688adbc8788de6d596c93","665500ab8938657b03fbdba8","6657753cec2b45982c0ccdb8","2454","stimuli/0111011.jpg","2","","prediction_trial","0","","false","","0","true","true","false","false","false","false","[2,0,1]","111","011","0","","","","","","",""
"","","","","","image-keyboard-response","151","344569","0.0-126.0","63e688adbc8788de6d596c93","665500ab8938657b03fbdba8","6657753cec2b45982c0ccdb8","487","stimuli/01110110.jpg"," ","","feedback_trial","2","","","","","","","","","","","","","","","","","","","","",""
"","","","","","image-keyboard-response","152","346432","0.0-127.0","63e688adbc8788de6d596c93","665500ab8938657b03fbdba8","6657753cec2b45982c0ccdb8","1859","stimuli/0010100.jpg","0","","prediction_trial","0","","true","","0","false","true","true","true","false","true","[0]","010","100","1","","","","","","",""
"","","","","","image-keyboard-response","153","346810","0.0-128.0","63e688adbc8788de6d596c93","665500ab8938657b03fbdba8","6657753cec2b45982c0ccdb8","377","stimuli/00101000.jpg"," ","","feedback_trial","0","","","","","","","","","","","","","","","","","","","","",""
"","","","","","image-keyboard-response","154","347610","0.0-129.0","63e688adbc8788de6d596c93","665500ab8938657b03fbdba8","6657753cec2b45982c0ccdb8","799","stimuli/0000001.jpg","0","","prediction_trial","0","","true","","0","true","true","true","true","true","true","[0]","000","001","1","","","","","","",""
"","","","","","image-keyboard-response","155","347993","0.0-130.0","63e688adbc8788de6d596c93","665500ab8938657b03fbdba8","6657753cec2b45982c0ccdb8","382","stimuli/00000010.jpg"," ","","feedback_trial","0","","","","","","","","","","","","","","","","","","","","",""
"","","","","","image-keyboard-response","156","348719","0.0-131.0","63e688adbc8788de6d596c93","665500ab8938657b03fbdba8","6657753cec2b45982c0ccdb8","725","stimuli/1100101.jpg","1","","prediction_trial","1","","true","","1","true","true","true","true","true","true","[1]","100","101","1","","","","","","",""
"","","","","","image-keyboard-response","157","350139","0.0-132.0","63e688adbc8788de6d596c93","665500ab8938657b03fbdba8","6657753cec2b45982c0ccdb8","1417","stimuli/11001011.jpg"," ","","feedback_trial","1","","","","","","","","","","","","","","","","","","","","",""
"","","","","","image-keyboard-response","158","351230","0.0-133.0","63e688adbc8788de6d596c93","665500ab8938657b03fbdba8","6657753cec2b45982c0ccdb8","1090","stimuli/2010001.jpg","2","","prediction_trial","2","","true","","2","false","true","true","true","false","true","[2]","010","001","1","","","","","","",""
"","","","","","image-keyboard-response","159","351708","0.0-134.0","63e688adbc8788de6d596c93","665500ab8938657b03fbdba8","6657753cec2b45982c0ccdb8","478","stimuli/20100012.jpg"," ","","feedback_trial","2","","","","","","","","","","","","","","","","","","","","",""
"","","","","","image-keyboard-response","160","353255","0.0-135.0","63e688adbc8788de6d596c93","665500ab8938657b03fbdba8","6657753cec2b45982c0ccdb8","1545","stimuli/0111100.jpg","0","","prediction_trial","1","","false","","0","false","true","false","false","false","false","[2,1,0]","111","100","0","","","","","","",""
"","","","","","image-keyboard-response","161","353923","0.0-136.0","63e688adbc8788de6d596c93","665500ab8938657b03fbdba8","6657753cec2b45982c0ccdb8","667","stimuli/01111001.jpg"," ","","feedback_trial","2","","","","","","","","","","","","","","","","","","","","",""
"","","","","","image-keyboard-response","162","355420","0.0-137.0","63e688adbc8788de6d596c93","665500ab8938657b03fbdba8","6657753cec2b45982c0ccdb8","1495","stimuli/0101010.jpg","0","","prediction_trial","0","","true","","0","true","true","false","false","false","false","[0,2]","101","010","1","","","","","","",""
"","","","","","image-keyboard-response","163","356022","0.0-138.0","63e688adbc8788de6d596c93","665500ab8938657b03fbdba8","6657753cec2b45982c0ccdb8","601","stimuli/01010100.jpg"," ","","feedback_trial","0","","","","","","","","","","","","","","","","","","","","",""
"","","","","","image-keyboard-response","164","357492","0.0-139.0","63e688adbc8788de6d596c93","665500ab8938657b03fbdba8","6657753cec2b45982c0ccdb8","1470","stimuli/1010011.jpg","2","","prediction_trial","1","","false","","1","false","false","false","true","false","false","[1]","010","011","0","","","","","","",""
"","","","","","image-keyboard-response","165","358176","0.0-140.0","63e688adbc8788de6d596c93","665500ab8938657b03fbdba8","6657753cec2b45982c0ccdb8","683","stimuli/10100111.jpg"," ","","feedback_trial","1","","","","","","","","","","","","","","","","","","","","",""
"","","","","","image-keyboard-response","166","360046","0.0-141.0","63e688adbc8788de6d596c93","665500ab8938657b03fbdba8","6657753cec2b45982c0ccdb8","1868","stimuli/2101001.jpg","2","","prediction_trial","0","","false","","2","false","true","false","false","false","false","[0,2]","101","001","0","","","","","","",""
"","","","","","image-keyboard-response","167","362776","0.0-142.0","63e688adbc8788de6d596c93","665500ab8938657b03fbdba8","6657753cec2b45982c0ccdb8","2729","stimuli/21010010.jpg"," ","","feedback_trial","0","","","","","","","","","","","","","","","","","","","","",""
"","","","","","image-keyboard-response","168","363815","0.0-143.0","63e688adbc8788de6d596c93","665500ab8938657b03fbdba8","6657753cec2b45982c0ccdb8","1038","stimuli/2111100.jpg","2","","prediction_trial","1","","false","","2","true","true","false","false","false","false","[2,0,1]","111","100","0","","","","","","",""
"","","","","","image-keyboard-response","169","364861","0.0-144.0","63e688adbc8788de6d596c93","665500ab8938657b03fbdba8","6657753cec2b45982c0ccdb8","1045","stimuli/21111001.jpg"," ","","feedback_trial","2","","","","","","","","","","","","","","","","","","","","",""
"","","","","","image-keyboard-response","170","366553","0.0-145.0","63e688adbc8788de6d596c93","665500ab8938657b03fbdba8","6657753cec2b45982c0ccdb8","1691","stimuli/1011101.jpg","1","","prediction_trial","1","","true","","1","true","true","false","false","false","false","[2,1]","011","101","1","","","","","","",""
"","","","","","image-keyboard-response","171","367026","0.0-146.0","63e688adbc8788de6d596c93","665500ab8938657b03fbdba8","6657753cec2b45982c0ccdb8","472","stimuli/10111011.jpg"," ","","feedback_trial","2","","","","","","","","","","","","","","","","","","","","",""
"","","","","","image-keyboard-response","172","367974","0.0-147.0","63e688adbc8788de6d596c93","665500ab8938657b03fbdba8","6657753cec2b45982c0ccdb8","947","stimuli/0001011.jpg","0","","prediction_trial","0","","true","","0","true","true","true","true","true","true","[0]","001","011","1","","","","","","",""
"","","","","","image-keyboard-response","173","368455","0.0-148.0","63e688adbc8788de6d596c93","665500ab8938657b03fbdba8","6657753cec2b45982c0ccdb8","481","stimuli/00010110.jpg"," ","","feedback_trial","0","","","","","","","","","","","","","","","","","","","","",""
"","","","","","image-keyboard-response","174","369379","0.0-149.0","63e688adbc8788de6d596c93","665500ab8938657b03fbdba8","6657753cec2b45982c0ccdb8","924","stimuli/1001000.jpg","1","","prediction_trial","1","","true","","1","true","true","true","true","true","true","[1]","001","000","1","","","","","","",""
"","","","","","image-keyboard-response","175","369817","0.0-150.0","63e688adbc8788de6d596c93","665500ab8938657b03fbdba8","6657753cec2b45982c0ccdb8","437","stimuli/10010001.jpg"," ","","feedback_trial","1","","","","","","","","","","","","","","","","","","","","",""
"","","","","","image-keyboard-response","176","371754","0.0-151.0","63e688adbc8788de6d596c93","665500ab8938657b03fbdba8","6657753cec2b45982c0ccdb8","1936","stimuli/1100011.jpg","1","","prediction_trial","1","","true","","1","false","false","true","true","false","false","[1]","100","011","1","","","","","","",""
"","","","","","image-keyboard-response","177","372329","0.0-152.0","63e688adbc8788de6d596c93","665500ab8938657b03fbdba8","6657753cec2b45982c0ccdb8","574","stimuli/11000111.jpg"," ","","feedback_trial","1","","","","","","","","","","","","","","","","","","","","",""
"","","","","","image-keyboard-response","178","373256","0.0-153.0","63e688adbc8788de6d596c93","665500ab8938657b03fbdba8","6657753cec2b45982c0ccdb8","927","stimuli/1001100.jpg","1","","prediction_trial","1","","true","","1","true","true","true","true","true","true","[1]","001","100","1","","","","","","",""
"","","","","","image-keyboard-response","179","373702","0.0-154.0","63e688adbc8788de6d596c93","665500ab8938657b03fbdba8","6657753cec2b45982c0ccdb8","445","stimuli/10011001.jpg"," ","","feedback_trial","1","","","","","","","","","","","","","","","","","","","","",""
"","","","","","image-keyboard-response","180","374603","0.0-155.0","63e688adbc8788de6d596c93","665500ab8938657b03fbdba8","6657753cec2b45982c0ccdb8","900","stimuli/1011111.jpg","0","","prediction_trial","2","","false","","1","false","false","false","false","false","false","[2,1]","011","111","0","","","","","","",""
"","","","","","image-keyboard-response","181","375094","0.0-156.0","63e688adbc8788de6d596c93","665500ab8938657b03fbdba8","6657753cec2b45982c0ccdb8","490","stimuli/10111112.jpg"," ","","feedback_trial","2","","","","","","","","","","","","","","","","","","","","",""
"","","","","","image-keyboard-response","182","377463","0.0-157.0","63e688adbc8788de6d596c93","665500ab8938657b03fbdba8","6657753cec2b45982c0ccdb8","2368","stimuli/1001011.jpg","2","","prediction_trial","1","","false","","1","false","false","true","true","false","false","[1]","001","011","0","","","","","","",""
"","","","","","image-keyboard-response","183","378303","0.0-158.0","63e688adbc8788de6d596c93","665500ab8938657b03fbdba8","6657753cec2b45982c0ccdb8","839","stimuli/10010111.jpg"," ","","feedback_trial","1","","","","","","","","","","","","","","","","","","","","",""
"","","","","","image-keyboard-response","184","381653","0.0-159.0","63e688adbc8788de6d596c93","665500ab8938657b03fbdba8","6657753cec2b45982c0ccdb8","3349","stimuli/2000011.jpg","1","","prediction_trial","2","","false","","2","false","false","true","true","false","false","[2]","000","011","0","","","","","","",""
"","","","","","image-keyboard-response","185","382379","0.0-160.0","63e688adbc8788de6d596c93","665500ab8938657b03fbdba8","6657753cec2b45982c0ccdb8","725","stimuli/20000112.jpg"," ","","feedback_trial","2","","","","","","","","","","","","","","","","","","","","",""
"","","","","","image-keyboard-response","186","383725","0.0-161.0","63e688adbc8788de6d596c93","665500ab8938657b03fbdba8","6657753cec2b45982c0ccdb8","1346","stimuli/2000101.jpg","2","","prediction_trial","2","","true","","2","false","false","true","true","false","false","[2]","000","101","1","","","","","","",""
"","","","","","image-keyboard-response","187","384333","0.0-162.0","63e688adbc8788de6d596c93","665500ab8938657b03fbdba8","6657753cec2b45982c0ccdb8","607","stimuli/20001012.jpg"," ","","feedback_trial","2","","","","","","","","","","","","","","","","","","","","",""
"","","","","","image-keyboard-response","188","385204","0.0-163.0","63e688adbc8788de6d596c93","665500ab8938657b03fbdba8","6657753cec2b45982c0ccdb8","871","stimuli/2000010.jpg","2","","prediction_trial","2","","true","","2","true","true","true","true","true","true","[2]","000","010","1","","","","","","",""
"","","","","","image-keyboard-response","189","385652","0.0-164.0","63e688adbc8788de6d596c93","665500ab8938657b03fbdba8","6657753cec2b45982c0ccdb8","447","stimuli/20000102.jpg"," ","","feedback_trial","2","","","","","","","","","","","","","","","","","","","","",""
"","","","","","image-keyboard-response","190","387336","0.0-165.0","63e688adbc8788de6d596c93","665500ab8938657b03fbdba8","6657753cec2b45982c0ccdb8","1683","stimuli/2000001.jpg","2","","prediction_trial","2","","true","","2","false","true","true","true","false","true","[2]","000","001","1","","","","","","",""
"","","","","","image-keyboard-response","191","388179","0.0-166.0","63e688adbc8788de6d596c93","665500ab8938657b03fbdba8","6657753cec2b45982c0ccdb8","843","stimuli/20000012.jpg"," ","","feedback_trial","2","","","","","","","","","","","","","","","","","","","","",""
"","","","","","image-keyboard-response","192","389642","0.0-167.0","63e688adbc8788de6d596c93","665500ab8938657b03fbdba8","6657753cec2b45982c0ccdb8","1462","stimuli/1000001.jpg","1","","prediction_trial","1","","true","","1","true","true","true","true","true","true","[1]","000","001","1","","","","","","",""
"","","","","","image-keyboard-response","193","390142","0.0-168.0","63e688adbc8788de6d596c93","665500ab8938657b03fbdba8","6657753cec2b45982c0ccdb8","499","stimuli/10000011.jpg"," ","","feedback_trial","1","","","","","","","","","","","","","","","","","","","","",""
"","","","","","image-keyboard-response","194","390860","0.0-169.0","63e688adbc8788de6d596c93","665500ab8938657b03fbdba8","6657753cec2b45982c0ccdb8","717","stimuli/2000110.jpg","2","","prediction_trial","2","","true","","2","true","true","true","true","true","true","[2]","000","110","1","","","","","","",""
"","","","","","image-keyboard-response","195","391300","0.0-170.0","63e688adbc8788de6d596c93","665500ab8938657b03fbdba8","6657753cec2b45982c0ccdb8","439","stimuli/20001102.jpg"," ","","feedback_trial","2","","","","","","","","","","","","","","","","","","","","",""
"","","","","","image-keyboard-response","196","393539","0.0-171.0","63e688adbc8788de6d596c93","665500ab8938657b03fbdba8","6657753cec2b45982c0ccdb8","2238","stimuli/2011010.jpg","2","","prediction_trial","2","","true","","2","true","true","false","false","false","false","[1,2]","011","010","1","","","","","","",""
"","","","","","image-keyboard-response","197","394347","0.0-172.0","63e688adbc8788de6d596c93","665500ab8938657b03fbdba8","6657753cec2b45982c0ccdb8","808","stimuli/20110102.jpg"," ","","feedback_trial","1","","","","","","","","","","","","","","","","","","","","",""
"","","","","","image-keyboard-response","198","395431","0.0-173.0","63e688adbc8788de6d596c93","665500ab8938657b03fbdba8","6657753cec2b45982c0ccdb8","1083","stimuli/1100111.jpg","1","","prediction_trial","1","","true","","1","false","false","true","true","false","false","[1]","100","111","1","","","","","","",""
"","","","","","image-keyboard-response","199","396144","0.0-174.0","63e688adbc8788de6d596c93","665500ab8938657b03fbdba8","6657753cec2b45982c0ccdb8","713","stimuli/11001111.jpg"," ","","feedback_trial","1","","","","","","","","","","","","","","","","","","","","",""
"","","","","","image-keyboard-response","200","397162","0.0-175.0","63e688adbc8788de6d596c93","665500ab8938657b03fbdba8","6657753cec2b45982c0ccdb8","1017","stimuli/1110011.jpg","2","","prediction_trial","1","","false","","1","false","false","false","false","false","false","[1,0]","110","011","0","","","","","","",""
"","","","","","image-keyboard-response","201","399399","0.0-176.0","63e688adbc8788de6d596c93","665500ab8938657b03fbdba8","6657753cec2b45982c0ccdb8","2236","stimuli/11100111.jpg"," ","","feedback_trial","1","","","","","","","","","","","","","","","","","","","","",""
"","","","","","image-keyboard-response","202","400664","0.0-177.0","63e688adbc8788de6d596c93","665500ab8938657b03fbdba8","6657753cec2b45982c0ccdb8","1264","stimuli/0011111.jpg","0","","prediction_trial","0","","true","","0","false","false","true","true","false","false","[0]","011","111","1","","","","","","",""
"","","","","","image-keyboard-response","203","401220","0.0-178.0","63e688adbc8788de6d596c93","665500ab8938657b03fbdba8","6657753cec2b45982c0ccdb8","556","stimuli/00111110.jpg"," ","","feedback_trial","0","","","","","","","","","","","","","","","","","","","","",""
"","","","","","image-keyboard-response","204","402119","0.0-179.0","63e688adbc8788de6d596c93","665500ab8938657b03fbdba8","6657753cec2b45982c0ccdb8","898","stimuli/1110111.jpg","2","","prediction_trial","1","","false","","1","false","false","false","false","false","false","[0,1]","110","111","0","","","","","","",""
"","","","","","image-keyboard-response","205","402898","0.0-180.0","63e688adbc8788de6d596c93","665500ab8938657b03fbdba8","6657753cec2b45982c0ccdb8","779","stimuli/11101111.jpg"," ","","feedback_trial","0","","","","","","","","","","","","","","","","","","","","",""
"","","","","","image-keyboard-response","206","404362","0.0-181.0","63e688adbc8788de6d596c93","665500ab8938657b03fbdba8","6657753cec2b45982c0ccdb8","1463","stimuli/1110010.jpg","1","","prediction_trial","1","","true","","1","false","true","false","false","false","false","[1,0]","110","010","1","","","","","","",""
"","","","","","image-keyboard-response","207","405062","0.0-182.0","63e688adbc8788de6d596c93","665500ab8938657b03fbdba8","6657753cec2b45982c0ccdb8","699","stimuli/11100101.jpg"," ","","feedback_trial","1","","","","","","","","","","","","","","","","","","","","",""
"","","","","","image-keyboard-response","208","406135","0.0-183.0","63e688adbc8788de6d596c93","665500ab8938657b03fbdba8","6657753cec2b45982c0ccdb8","1072","stimuli/2011100.jpg","2","","prediction_trial","2","","true","","2","true","true","false","false","false","false","[1,2]","011","100","1","","","","","","",""
"","","","","","image-keyboard-response","209","406906","0.0-184.0","63e688adbc8788de6d596c93","665500ab8938657b03fbdba8","6657753cec2b45982c0ccdb8","768","stimuli/20111002.jpg"," ","","feedback_trial","1","","","","","","","","","","","","","","","","","","","","",""
"","","","","","image-keyboard-response","210","408450","0.0-185.0","63e688adbc8788de6d596c93","665500ab8938657b03fbdba8","6657753cec2b45982c0ccdb8","1525","stimuli/2010101.jpg","0","","prediction_trial","2","","false","","2","false","false","true","true","false","false","[2]","010","101","0","","","","","","",""
"","","","","","image-keyboard-response","211","409138","0.0-186.0","63e688adbc8788de6d596c93","665500ab8938657b03fbdba8","6657753cec2b45982c0ccdb8","687","stimuli/20101012.jpg"," ","","feedback_trial","2","","","","","","","","","","","","","","","","","","","","",""
"","","","","","image-keyboard-response","212","410023","0.0-187.0","63e688adbc8788de6d596c93","665500ab8938657b03fbdba8","6657753cec2b45982c0ccdb8","884","stimuli/0000010.jpg","0","","prediction_trial","0","","true","","0","true","true","true","true","true","true","[0]","000","010","1","","","","","","",""
"","","","","","image-keyboard-response","213","410606","0.0-188.0","63e688adbc8788de6d596c93","665500ab8938657b03fbdba8","6657753cec2b45982c0ccdb8","582","stimuli/00000100.jpg"," ","","feedback_trial","0","","","","","","","","","","","","","","","","","","","","",""
"","","","","","image-keyboard-response","214","412910","0.0-189.0","63e688adbc8788de6d596c93","665500ab8938657b03fbdba8","6657753cec2b45982c0ccdb8","2303","stimuli/2101010.jpg","2","","prediction_trial","2","","true","","2","true","true","false","false","false","false","[2,0]","101","010","1","","","","","","",""
"","","","","","image-keyboard-response","215","413657","0.0-190.0","63e688adbc8788de6d596c93","665500ab8938657b03fbdba8","6657753cec2b45982c0ccdb8","746","stimuli/21010102.jpg"," ","","feedback_trial","2","","","","","","","","","","","","","","","","","","","","",""
"","","","","","image-keyboard-response","216","415157","0.0-191.0","63e688adbc8788de6d596c93","665500ab8938657b03fbdba8","6657753cec2b45982c0ccdb8","1500","stimuli/0101100.jpg","0","","prediction_trial","2","","false","","0","false","true","false","false","false","false","[0,2]","101","100","0","","","","","","",""
"","","","","","image-keyboard-response","217","416155","0.0-192.0","63e688adbc8788de6d596c93","665500ab8938657b03fbdba8","6657753cec2b45982c0ccdb8","997","stimuli/01011002.jpg"," ","","feedback_trial","0","","","","","","","","","","","","","","","","","","","","",""
"","","","","","image-keyboard-response","218","417885","0.0-193.0","63e688adbc8788de6d596c93","665500ab8938657b03fbdba8","6657753cec2b45982c0ccdb8","1730","stimuli/0001111.jpg","1","","prediction_trial","0","","false","","0","false","false","true","true","false","false","[0]","001","111","0","","","","","","",""
"","","","","","image-keyboard-response","219","418553","0.0-194.0","63e688adbc8788de6d596c93","665500ab8938657b03fbdba8","6657753cec2b45982c0ccdb8","667","stimuli/00011110.jpg"," ","","feedback_trial","0","","","","","","","","","","","","","","","","","","","","",""
"","","","","","image-keyboard-response","220","422348","0.0-195.0","63e688adbc8788de6d596c93","665500ab8938657b03fbdba8","6657753cec2b45982c0ccdb8","3794","stimuli/1110101.jpg","1","","prediction_trial","0","","false","","1","true","true","false","false","false","false","[1,0]","110","101","0","","","","","","",""
"","","","","","image-keyboard-response","221","422805","0.0-196.0","63e688adbc8788de6d596c93","665500ab8938657b03fbdba8","6657753cec2b45982c0ccdb8","456","stimuli/11101010.jpg"," ","","feedback_trial","1","","","","","","","","","","","","","","","","","","","","",""
"","","","","","image-keyboard-response","222","423615","0.0-197.0","63e688adbc8788de6d596c93","665500ab8938657b03fbdba8","6657753cec2b45982c0ccdb8","810","stimuli/2100000.jpg","2","","prediction_trial","2","","true","","2","true","true","true","true","true","true","[2]","100","000","1","","","","","","",""
"","","","","","image-keyboard-response","223","423926","0.0-198.0","63e688adbc8788de6d596c93","665500ab8938657b03fbdba8","6657753cec2b45982c0ccdb8","310","stimuli/21000002.jpg"," ","","feedback_trial","2","","","","","","","","","","","","","","","","","","","","",""
"","","","","","image-keyboard-response","224","425719","0.0-199.0","63e688adbc8788de6d596c93","665500ab8938657b03fbdba8","6657753cec2b45982c0ccdb8","1792","stimuli/1000111.jpg","0","","prediction_trial","1","","false","","1","false","false","true","true","false","false","[1]","000","111","0","","","","","","",""
"","","","","","image-keyboard-response","225","426290","0.0-200.0","63e688adbc8788de6d596c93","665500ab8938657b03fbdba8","6657753cec2b45982c0ccdb8","570","stimuli/10001111.jpg"," ","","feedback_trial","1","","","","","","","","","","","","","","","","","","","","",""
"","","","","","image-keyboard-response","226","427131","0.0-201.0","63e688adbc8788de6d596c93","665500ab8938657b03fbdba8","6657753cec2b45982c0ccdb8","840","stimuli/0110101.jpg","2","","prediction_trial","1","","false","","0","false","false","false","false","false","false","[0,1]","110","101","0","","","","","","",""
"","","","","","image-keyboard-response","227","427607","0.0-202.0","63e688adbc8788de6d596c93","665500ab8938657b03fbdba8","6657753cec2b45982c0ccdb8","475","stimuli/01101011.jpg"," ","","feedback_trial","0","","","","","","","","","","","","","","","","","","","","",""
"","","","","","image-keyboard-response","228","428732","0.0-203.0","63e688adbc8788de6d596c93","665500ab8938657b03fbdba8","6657753cec2b45982c0ccdb8","1125","stimuli/0001110.jpg","0","","prediction_trial","0","","true","","0","false","false","true","true","false","false","[0]","001","110","1","","","","","","",""
"","","","","","image-keyboard-response","229","429182","0.0-204.0","63e688adbc8788de6d596c93","665500ab8938657b03fbdba8","6657753cec2b45982c0ccdb8","449","stimuli/00011100.jpg"," ","","feedback_trial","0","","","","","","","","","","","","","","","","","","","","",""
"","","","","","image-keyboard-response","230","431118","0.0-205.0","63e688adbc8788de6d596c93","665500ab8938657b03fbdba8","6657753cec2b45982c0ccdb8","1935","stimuli/1011010.jpg","1","","prediction_trial","2","","false","","1","false","true","false","false","false","false","[2,1]","011","010","0","","","","","","",""
"","","","","","image-keyboard-response","231","431554","0.0-206.0","63e688adbc8788de6d596c93","665500ab8938657b03fbdba8","6657753cec2b45982c0ccdb8","435","stimuli/10110102.jpg"," ","","feedback_trial","2","","","","","","","","","","","","","","","","","","","","",""
"","","","","","image-keyboard-response","232","432479","0.0-207.0","63e688adbc8788de6d596c93","665500ab8938657b03fbdba8","6657753cec2b45982c0ccdb8","924","stimuli/2110010.jpg","2","","prediction_trial","2","","true","","2","true","true","true","true","true","true","[2]","110","010","1","","","","","","",""
"","","","","","image-keyboard-response","233","432822","0.0-208.0","63e688adbc8788de6d596c93","665500ab8938657b03fbdba8","6657753cec2b45982c0ccdb8","341","stimuli/21100102.jpg"," ","","feedback_trial","2","","","","","","","","","","","","","","","","","","","","",""
"","","","","","image-keyboard-response","234","434162","0.0-209.0","63e688adbc8788de6d596c93","665500ab8938657b03fbdba8","6657753cec2b45982c0ccdb8","1339","stimuli/0111010.jpg","0","","prediction_trial","1","","false","","0","true","true","false","false","false","false","[0,2,1]","111","010","0","","","","","","",""
"","","","","","image-keyboard-response","235","434555","0.0-210.0","63e688adbc8788de6d596c93","665500ab8938657b03fbdba8","6657753cec2b45982c0ccdb8","392","stimuli/01110101.jpg"," ","","feedback_trial","0","","","","","","","","","","","","","","","","","","","","",""
"","","","","","image-keyboard-response","236","435759","0.0-211.0","63e688adbc8788de6d596c93","665500ab8938657b03fbdba8","6657753cec2b45982c0ccdb8","1203","stimuli/2101111.jpg","1","","prediction_trial","0","","false","","2","false","false","false","false","false","false","[2,0]","101","111","0","","","","","","",""
"","","","","","image-keyboard-response","237","436147","0.0-212.0","63e688adbc8788de6d596c93","665500ab8938657b03fbdba8","6657753cec2b45982c0ccdb8","387","stimuli/21011110.jpg"," ","","feedback_trial","2","","","","","","","","","","","","","","","","","","","","",""
"","","","","","image-keyboard-response","238","436961","0.0-213.0","63e688adbc8788de6d596c93","665500ab8938657b03fbdba8","6657753cec2b45982c0ccdb8","814","stimuli/0010010.jpg","0","","prediction_trial","0","","true","","0","true","true","true","true","true","true","[0]","010","010","1","","","","","","",""
"","","","","","image-keyboard-response","239","437323","0.0-214.0","63e688adbc8788de6d596c93","665500ab8938657b03fbdba8","6657753cec2b45982c0ccdb8","362","stimuli/00100100.jpg"," ","","feedback_trial","0","","","","","","","","","","","","","","","","","","","","",""
"","","","","","image-keyboard-response","240","438024","0.0-215.0","63e688adbc8788de6d596c93","665500ab8938657b03fbdba8","6657753cec2b45982c0ccdb8","700","stimuli/0011001.jpg","0","","prediction_trial","0","","true","","0","true","true","true","true","true","true","[0]","011","001","1","","","","","","",""
"","","","","","image-keyboard-response","241","438426","0.0-216.0","63e688adbc8788de6d596c93","665500ab8938657b03fbdba8","6657753cec2b45982c0ccdb8","402","stimuli/00110010.jpg"," ","","feedback_trial","0","","","","","","","","","","","","","","","","","","","","",""
"","","","","","image-keyboard-response","242","441634","0.0-217.0","63e688adbc8788de6d596c93","665500ab8938657b03fbdba8","6657753cec2b45982c0ccdb8","3207","stimuli/0110010.jpg","1","","prediction_trial","0","","false","","0","true","true","false","false","false","false","[0,1]","110","010","0","","","","","","",""
"","","","","","image-keyboard-response","243","442089","0.0-218.0","63e688adbc8788de6d596c93","665500ab8938657b03fbdba8","6657753cec2b45982c0ccdb8","454","stimuli/01100100.jpg"," ","","feedback_trial","0","","","","","","","","","","","","","","","","","","","","",""
"","","","","","image-keyboard-response","244","443251","0.0-219.0","63e688adbc8788de6d596c93","665500ab8938657b03fbdba8","6657753cec2b45982c0ccdb8","1162","stimuli/2100111.jpg","1","","prediction_trial","2","","false","","2","false","false","true","true","false","false","[2]","100","111","0","","","","","","",""
"","","","","","image-keyboard-response","245","443755","0.0-220.0","63e688adbc8788de6d596c93","665500ab8938657b03fbdba8","6657753cec2b45982c0ccdb8","503","stimuli/21001112.jpg"," ","","feedback_trial","2","","","","","","","","","","","","","","","","","","","","",""
"","","","","","image-keyboard-response","246","445718","0.0-221.0","63e688adbc8788de6d596c93","665500ab8938657b03fbdba8","6657753cec2b45982c0ccdb8","1963","stimuli/0001100.jpg","0","","prediction_trial","0","","true","","0","false","true","true","true","false","true","[0]","001","100","1","","","","","","",""
"","","","","","image-keyboard-response","247","446201","0.0-222.0","63e688adbc8788de6d596c93","665500ab8938657b03fbdba8","6657753cec2b45982c0ccdb8","481","stimuli/00011000.jpg"," ","","feedback_trial","0","","","","","","","","","","","","","","","","","","","","",""
"","","","","","image-keyboard-response","248","447130","0.0-223.0","63e688adbc8788de6d596c93","665500ab8938657b03fbdba8","6657753cec2b45982c0ccdb8","928","stimuli/1100100.jpg","1","","prediction_trial","1","","true","","1","true","true","true","true","true","true","[1]","100","100","1","","","","","","",""
"","","","","","image-keyboard-response","249","447900","0.0-224.0","63e688adbc8788de6d596c93","665500ab8938657b03fbdba8","6657753cec2b45982c0ccdb8","770","stimuli/11001001.jpg"," ","","feedback_trial","1","","","","","","","","","","","","","","","","","","","","",""
"","","","","","image-keyboard-response","250","449439","0.0-225.0","63e688adbc8788de6d596c93","665500ab8938657b03fbdba8","6657753cec2b45982c0ccdb8","1538","stimuli/1000011.jpg","2","","prediction_trial","1","","false","","1","false","false","true","true","false","false","[1]","000","011","0","","","","","","",""
"","","","","","image-keyboard-response","251","449962","0.0-226.0","63e688adbc8788de6d596c93","665500ab8938657b03fbdba8","6657753cec2b45982c0ccdb8","523","stimuli/10000111.jpg"," ","","feedback_trial","1","","","","","","","","","","","","","","","","","","","","",""
"","","","","","image-keyboard-response","252","450873","0.0-227.0","63e688adbc8788de6d596c93","665500ab8938657b03fbdba8","6657753cec2b45982c0ccdb8","910","stimuli/1111111.jpg","1","","prediction_trial","2","","false","","1","false","false","false","false","false","false","[1,2,0]","111","111","0","","","","","","",""
"","","","","","image-keyboard-response","253","451415","0.0-228.0","63e688adbc8788de6d596c93","665500ab8938657b03fbdba8","6657753cec2b45982c0ccdb8","541","stimuli/11111112.jpg"," ","","feedback_trial","1","","","","","","","","","","","","","","","","","","","","",""
"","","","","","image-keyboard-response","254","452200","0.0-229.0","63e688adbc8788de6d596c93","665500ab8938657b03fbdba8","6657753cec2b45982c0ccdb8","784","stimuli/0011010.jpg","0","","prediction_trial","0","","true","","0","true","true","true","true","true","true","[0]","011","010","1","","","","","","",""
"","","","","","image-keyboard-response","255","452747","0.0-230.0","63e688adbc8788de6d596c93","665500ab8938657b03fbdba8","6657753cec2b45982c0ccdb8","547","stimuli/00110100.jpg"," ","","feedback_trial","0","","","","","","","","","","","","","","","","","","","","",""
"","","","","","image-keyboard-response","256","453781","0.0-231.0","63e688adbc8788de6d596c93","665500ab8938657b03fbdba8","6657753cec2b45982c0ccdb8","1033","stimuli/1011100.jpg","1","","prediction_trial","2","","false","","1","true","true","false","false","false","false","[2,1]","011","100","0","","","","","","",""
"","","","","","image-keyboard-response","257","454430","0.0-232.0","63e688adbc8788de6d596c93","665500ab8938657b03fbdba8","6657753cec2b45982c0ccdb8","649","stimuli/10111002.jpg"," ","","feedback_trial","2","","","","","","","","","","","","","","","","","","","","",""
"","","","","","image-keyboard-response","258","455772","0.0-233.0","63e688adbc8788de6d596c93","665500ab8938657b03fbdba8","6657753cec2b45982c0ccdb8","1341","stimuli/0100110.jpg","1","","prediction_trial","0","","false","","0","false","false","false","true","false","false","[0]","100","110","0","","","","","","",""
"","","","","","image-keyboard-response","259","456336","0.0-234.0","63e688adbc8788de6d596c93","665500ab8938657b03fbdba8","6657753cec2b45982c0ccdb8","563","stimuli/01001100.jpg"," ","","feedback_trial","0","","","","","","","","","","","","","","","","","","","","",""
"","","","","","image-keyboard-response","260","457786","0.0-235.0","63e688adbc8788de6d596c93","665500ab8938657b03fbdba8","6657753cec2b45982c0ccdb8","1449","stimuli/1111001.jpg","1","","prediction_trial","1","","true","","1","true","true","false","false","false","false","[1,0,2]","111","001","1","","","","","","",""
"","","","","","image-keyboard-response","261","458242","0.0-236.0","63e688adbc8788de6d596c93","665500ab8938657b03fbdba8","6657753cec2b45982c0ccdb8","455","stimuli/11110011.jpg"," ","","feedback_trial","1","","","","","","","","","","","","","","","","","","","","",""
"","","","","","image-keyboard-response","262","459084","0.0-237.0","63e688adbc8788de6d596c93","665500ab8938657b03fbdba8","6657753cec2b45982c0ccdb8","841","stimuli/0001000.jpg","0","","prediction_trial","0","","true","","0","true","true","true","true","true","true","[0]","001","000","1","","","","","","",""
"","","","","","image-keyboard-response","263","459456","0.0-238.0","63e688adbc8788de6d596c93","665500ab8938657b03fbdba8","6657753cec2b45982c0ccdb8","371","stimuli/00010000.jpg"," ","","feedback_trial","0","","","","","","","","","","","","","","","","","","","","",""
"","","","","","image-keyboard-response","264","460628","0.0-239.0","63e688adbc8788de6d596c93","665500ab8938657b03fbdba8","6657753cec2b45982c0ccdb8","1171","stimuli/0000101.jpg","2","","prediction_trial","0","","false","","0","false","false","true","true","false","false","[0]","000","101","0","","","","","","",""
"","","","","","image-keyboard-response","265","461093","0.0-240.0","63e688adbc8788de6d596c93","665500ab8938657b03fbdba8","6657753cec2b45982c0ccdb8","465","stimuli/00001010.jpg"," ","","feedback_trial","0","","","","","","","","","","","","","","","","","","","","",""
"","","","","","image-keyboard-response","266","462590","0.0-241.0","63e688adbc8788de6d596c93","665500ab8938657b03fbdba8","6657753cec2b45982c0ccdb8","1497","stimuli/2101101.jpg","0","","prediction_trial","2","","false","","2","false","false","false","false","false","false","[0,2]","101","101","0","","","","","","",""
"","","","","","image-keyboard-response","267","463237","0.0-242.0","63e688adbc8788de6d596c93","665500ab8938657b03fbdba8","6657753cec2b45982c0ccdb8","646","stimuli/21011012.jpg"," ","","feedback_trial","0","","","","","","","","","","","","","","","","","","","","",""
"","","","","","image-keyboard-response","268","464352","0.0-243.0","63e688adbc8788de6d596c93","665500ab8938657b03fbdba8","6657753cec2b45982c0ccdb8","1114","stimuli/0011100.jpg","0","","prediction_trial","0","","true","","0","false","true","true","true","false","true","[0]","011","100","1","","","","","","",""
"","","","","","image-keyboard-response","269","464864","0.0-244.0","63e688adbc8788de6d596c93","665500ab8938657b03fbdba8","6657753cec2b45982c0ccdb8","511","stimuli/00111000.jpg"," ","","feedback_trial","0","","","","","","","","","","","","","","","","","","","","",""
"","","","","","image-keyboard-response","270","465928","0.0-245.0","63e688adbc8788de6d596c93","665500ab8938657b03fbdba8","6657753cec2b45982c0ccdb8","1063","stimuli/2011000.jpg","2","","prediction_trial","1","","false","","2","true","true","false","false","false","false","[2,1]","011","000","0","","","","","","",""
"","","","","","image-keyboard-response","271","466668","0.0-246.0","63e688adbc8788de6d596c93","665500ab8938657b03fbdba8","6657753cec2b45982c0ccdb8","739","stimuli/20110001.jpg"," ","","feedback_trial","2","","","","","","","","","","","","","","","","","","","","",""
"","","","","","image-keyboard-response","272","467530","0.0-247.0","63e688adbc8788de6d596c93","665500ab8938657b03fbdba8","6657753cec2b45982c0ccdb8","860","stimuli/2110100.jpg","2","","prediction_trial","2","","true","","2","true","true","true","true","true","true","[2]","110","100","1","","","","","","",""
"","","","","","image-keyboard-response","273","467992","0.0-248.0","63e688adbc8788de6d596c93","665500ab8938657b03fbdba8","6657753cec2b45982c0ccdb8","460","stimuli/21101002.jpg"," ","","feedback_trial","2","","","","","","","","","","","","","","","","","","","","",""
"","","","","","image-keyboard-response","274","468742","0.0-249.0","63e688adbc8788de6d596c93","665500ab8938657b03fbdba8","6657753cec2b45982c0ccdb8","750","stimuli/1000101.jpg","1","","prediction_trial","1","","true","","1","true","true","true","true","true","true","[1]","000","101","1","","","","","","",""
"","","","","","image-keyboard-response","275","469169","0.0-250.0","63e688adbc8788de6d596c93","665500ab8938657b03fbdba8","6657753cec2b45982c0ccdb8","426","stimuli/10001011.jpg"," ","","feedback_trial","1","","","","","","","","","","","","","","","","","","","","",""
"","","","","","image-keyboard-response","276","470257","0.0-251.0","63e688adbc8788de6d596c93","665500ab8938657b03fbdba8","6657753cec2b45982c0ccdb8","1088","stimuli/2001010.jpg","0","","prediction_trial","2","","false","","2","true","true","false","true","false","true","[2]","001","010","0","","","","","","",""
"","","","","","image-keyboard-response","277","470793","0.0-252.0","63e688adbc8788de6d596c93","665500ab8938657b03fbdba8","6657753cec2b45982c0ccdb8","535","stimuli/20010102.jpg"," ","","feedback_trial","2","","","","","","","","","","","","","","","","","","","","",""
"","","","","","image-keyboard-response","278","472166","0.0-253.0","63e688adbc8788de6d596c93","665500ab8938657b03fbdba8","6657753cec2b45982c0ccdb8","1372","stimuli/0001010.jpg","0","","prediction_trial","0","","true","","0","true","true","true","true","true","true","[0]","001","010","1","","","","","","",""
"","","","","","image-keyboard-response","279","472657","0.0-254.0","63e688adbc8788de6d596c93","665500ab8938657b03fbdba8","6657753cec2b45982c0ccdb8","490","stimuli/00010100.jpg"," ","","feedback_trial","0","","","","","","","","","","","","","","","","","","","","",""
"","","","","","image-keyboard-response","280","473729","0.0-255.0","63e688adbc8788de6d596c93","665500ab8938657b03fbdba8","6657753cec2b45982c0ccdb8","1071","stimuli/0001001.jpg","0","","prediction_trial","0","","true","","0","true","true","true","true","true","true","[0]","001","001","1","","","","","","",""
"","","","","","image-keyboard-response","281","474270","0.0-256.0","63e688adbc8788de6d596c93","665500ab8938657b03fbdba8","6657753cec2b45982c0ccdb8","540","stimuli/00010010.jpg"," ","","feedback_trial","0","","","","","","","","","","","","","","","","","","","","",""
"","","","","","image-keyboard-response","282","475613","0.0-257.0","63e688adbc8788de6d596c93","665500ab8938657b03fbdba8","6657753cec2b45982c0ccdb8","1342","stimuli/1011001.jpg","1","","prediction_trial","2","","false","","1","true","true","false","false","false","false","[2,1]","011","001","0","","","","","","",""
"","","","","","image-keyboard-response","283","476070","0.0-258.0","63e688adbc8788de6d596c93","665500ab8938657b03fbdba8","6657753cec2b45982c0ccdb8","456","stimuli/10110012.jpg"," ","","feedback_trial","2","","","","","","","","","","","","","","","","","","","","",""
"","","","","","image-keyboard-response","284","477115","0.0-259.0","63e688adbc8788de6d596c93","665500ab8938657b03fbdba8","6657753cec2b45982c0ccdb8","1044","stimuli/2000100.jpg","2","","prediction_trial","2","","true","","2","true","true","true","true","true","true","[2]","000","100","1","","","","","","",""
"","","","","","image-keyboard-response","285","477467","0.0-260.0","63e688adbc8788de6d596c93","665500ab8938657b03fbdba8","6657753cec2b45982c0ccdb8","351","stimuli/20001002.jpg"," ","","feedback_trial","2","","","","","","","","","","","","","","","","","","","","",""
"","","","","","image-keyboard-response","286","478230","0.0-261.0","63e688adbc8788de6d596c93","665500ab8938657b03fbdba8","6657753cec2b45982c0ccdb8","762","stimuli/1000100.jpg","1","","prediction_trial","1","","true","","1","true","true","true","true","true","true","[1]","000","100","1","","","","","","",""
"","","","","","image-keyboard-response","287","478562","0.0-262.0","63e688adbc8788de6d596c93","665500ab8938657b03fbdba8","6657753cec2b45982c0ccdb8","331","stimuli/10001001.jpg"," ","","feedback_trial","1","","","","","","","","","","","","","","","","","","","","",""
"","","","","","image-keyboard-response","288","479755","0.0-263.0","63e688adbc8788de6d596c93","665500ab8938657b03fbdba8","6657753cec2b45982c0ccdb8","1193","stimuli/1111011.jpg","1","","prediction_trial","1","","true","","1","false","false","false","false","false","false","[1,2,0]","111","011","1","","","","","","",""
"","","","","","image-keyboard-response","289","480164","0.0-264.0","63e688adbc8788de6d596c93","665500ab8938657b03fbdba8","6657753cec2b45982c0ccdb8","408","stimuli/11110111.jpg"," ","","feedback_trial","1","","","","","","","","","","","","","","","","","","","","",""
"","","","","","image-keyboard-response","290","481814","0.0-265.0","63e688adbc8788de6d596c93","665500ab8938657b03fbdba8","6657753cec2b45982c0ccdb8","1649","stimuli/2111011.jpg","2","","prediction_trial","1","","false","","2","false","false","false","false","false","false","[0,2,1]","111","011","0","","","","","","",""
"","","","","","image-keyboard-response","291","482275","0.0-266.0","63e688adbc8788de6d596c93","665500ab8938657b03fbdba8","6657753cec2b45982c0ccdb8","461","stimuli/21110111.jpg"," ","","feedback_trial","0","","","","","","","","","","","","","","","","","","","","",""
"","","","","","image-keyboard-response","292","484129","0.0-267.0","63e688adbc8788de6d596c93","665500ab8938657b03fbdba8","6657753cec2b45982c0ccdb8","1853","stimuli/1101000.jpg","1","","prediction_trial","1","","true","","1","true","true","true","true","true","true","[1]","101","000","1","","","","","","",""
"","","","","","image-keyboard-response","293","484700","0.0-268.0","63e688adbc8788de6d596c93","665500ab8938657b03fbdba8","6657753cec2b45982c0ccdb8","571","stimuli/11010001.jpg"," ","","feedback_trial","1","","","","","","","","","","","","","","","","","","","","",""
"","","","","","image-keyboard-response","294","485511","0.0-269.0","63e688adbc8788de6d596c93","665500ab8938657b03fbdba8","6657753cec2b45982c0ccdb8","810","stimuli/2010100.jpg","2","","prediction_trial","2","","true","","2","true","true","true","true","true","true","[2]","010","100","1","","","","","","",""
"","","","","","image-keyboard-response","295","485882","0.0-270.0","63e688adbc8788de6d596c93","665500ab8938657b03fbdba8","6657753cec2b45982c0ccdb8","370","stimuli/20101002.jpg"," ","","feedback_trial","2","","","","","","","","","","","","","","","","","","","","",""
"","","","","","image-keyboard-response","296","488824","0.0-271.0","63e688adbc8788de6d596c93","665500ab8938657b03fbdba8","6657753cec2b45982c0ccdb8","2942","stimuli/2111001.jpg","2","","prediction_trial","1","","false","","2","false","true","false","false","false","false","[1,2,0]","111","001","0","","","","","","",""
"","","","","","image-keyboard-response","297","489265","0.0-272.0","63e688adbc8788de6d596c93","665500ab8938657b03fbdba8","6657753cec2b45982c0ccdb8","435","stimuli/21110011.jpg"," ","","feedback_trial","1","","","","","","","","","","","","","","","","","","","","",""
"","","","","","image-keyboard-response","298","490062","0.0-273.0","63e688adbc8788de6d596c93","665500ab8938657b03fbdba8","6657753cec2b45982c0ccdb8","797","stimuli/1001001.jpg","1","","prediction_trial","1","","true","","1","true","true","true","true","true","true","[1]","001","001","1","","","","","","",""
"","","","","","image-keyboard-response","299","490326","0.0-274.0","63e688adbc8788de6d596c93","665500ab8938657b03fbdba8","6657753cec2b45982c0ccdb8","263","stimuli/10010011.jpg"," ","","feedback_trial","1","","","","","","","","","","","","","","","","","","","","",""
"","","","","","image-keyboard-response","300","491617","0.0-275.0","63e688adbc8788de6d596c93","665500ab8938657b03fbdba8","6657753cec2b45982c0ccdb8","1290","stimuli/1100010.jpg","1","","prediction_trial","1","","true","","1","false","true","true","true","false","true","[1]","100","010","1","","","","","","",""
"","","","","","image-keyboard-response","301","492049","0.0-276.0","63e688adbc8788de6d596c93","665500ab8938657b03fbdba8","6657753cec2b45982c0ccdb8","431","stimuli/11000101.jpg"," ","","feedback_trial","1","","","","","","","","","","","","","","","","","","","","",""
"","","","","","image-keyboard-response","302","493459","0.0-277.0","63e688adbc8788de6d596c93","665500ab8938657b03fbdba8","6657753cec2b45982c0ccdb8","1409","stimuli/2100001.jpg","2","","prediction_trial","2","","true","","2","false","true","true","true","false","true","[2]","100","001","1","","","","","","",""
"","","","","","image-keyboard-response","303","493886","0.0-278.0","63e688adbc8788de6d596c93","665500ab8938657b03fbdba8","6657753cec2b45982c0ccdb8","427","stimuli/21000012.jpg"," ","","feedback_trial","2","","","","","","","","","","","","","","","","","","","","",""
"","","","","","image-keyboard-response","304","495834","0.0-279.0","63e688adbc8788de6d596c93","665500ab8938657b03fbdba8","6657753cec2b45982c0ccdb8","1947","stimuli/0101101.jpg","0","","prediction_trial","0","","true","","0","false","false","false","false","false","false","[0,2]","101","101","1","","","","","","",""
"","","","","","image-keyboard-response","305","496286","0.0-280.0","63e688adbc8788de6d596c93","665500ab8938657b03fbdba8","6657753cec2b45982c0ccdb8","451","stimuli/01011010.jpg"," ","","feedback_trial","0","","","","","","","","","","","","","","","","","","","","",""
"","","","","","image-keyboard-response","306","497820","0.0-281.0","63e688adbc8788de6d596c93","665500ab8938657b03fbdba8","6657753cec2b45982c0ccdb8","1533","stimuli/0101110.jpg","1","","prediction_trial","2","","false","","0","false","false","false","false","false","false","[0,2]","101","110","0","","","","","","",""
"","","","","","image-keyboard-response","307","498290","0.0-282.0","63e688adbc8788de6d596c93","665500ab8938657b03fbdba8","6657753cec2b45982c0ccdb8","470","stimuli/01011102.jpg"," ","","feedback_trial","0","","","","","","","","","","","","","","","","","","","","",""
"","","","","","image-keyboard-response","308","500341","0.0-283.0","63e688adbc8788de6d596c93","665500ab8938657b03fbdba8","6657753cec2b45982c0ccdb8","2050","stimuli/2110011.jpg","2","","prediction_trial","2","","true","","2","false","false","true","true","false","false","[2]","110","011","1","","","","","","",""
"","","","","","image-keyboard-response","309","500799","0.0-284.0","63e688adbc8788de6d596c93","665500ab8938657b03fbdba8","6657753cec2b45982c0ccdb8","457","stimuli/21100112.jpg"," ","","feedback_trial","2","","","","","","","","","","","","","","","","","","","","",""
"","","","","","image-keyboard-response","310","502203","0.0-285.0","63e688adbc8788de6d596c93","665500ab8938657b03fbdba8","6657753cec2b45982c0ccdb8","1403","stimuli/0110110.jpg","1","","prediction_trial","0","","false","","0","false","false","false","false","false","false","[1,0]","110","110","0","","","","","","",""
"","","","","","image-keyboard-response","311","502651","0.0-286.0","63e688adbc8788de6d596c93","665500ab8938657b03fbdba8","6657753cec2b45982c0ccdb8","447","stimuli/01101100.jpg"," ","","feedback_trial","1","","","","","","","","","","","","","","","","","","","","",""
"","","","","","image-keyboard-response","312","503860","0.0-287.0","63e688adbc8788de6d596c93","665500ab8938657b03fbdba8","6657753cec2b45982c0ccdb8","1209","stimuli/0111101.jpg","0","","prediction_trial","1","","false","","0","false","false","false","false","false","false","[0,1,2]","111","101","0","","","","","","",""
"","","","","","image-keyboard-response","313","504349","0.0-288.0","63e688adbc8788de6d596c93","665500ab8938657b03fbdba8","6657753cec2b45982c0ccdb8","488","stimuli/01111011.jpg"," ","","feedback_trial","0","","","","","","","","","","","","","","","","","","","","",""
"","","","","","image-keyboard-response","314","505321","0.0-289.0","63e688adbc8788de6d596c93","665500ab8938657b03fbdba8","6657753cec2b45982c0ccdb8","971","stimuli/1110001.jpg","1","","prediction_trial","0","","false","","1","true","true","false","false","false","false","[0,1]","110","001","0","","","","","","",""
"","","","","","image-keyboard-response","315","505766","0.0-290.0","63e688adbc8788de6d596c93","665500ab8938657b03fbdba8","6657753cec2b45982c0ccdb8","445","stimuli/11100010.jpg"," ","","feedback_trial","0","","","","","","","","","","","","","","","","","","","","",""
"","","","","","image-keyboard-response","316","508412","0.0-291.0","63e688adbc8788de6d596c93","665500ab8938657b03fbdba8","6657753cec2b45982c0ccdb8","2644","stimuli/0010110.jpg","0","","prediction_trial","0","","true","","0","false","false","true","true","false","false","[0]","010","110","1","","","","","","",""
"","","","","","image-keyboard-response","317","508872","0.0-292.0","63e688adbc8788de6d596c93","665500ab8938657b03fbdba8","6657753cec2b45982c0ccdb8","460","stimuli/00101100.jpg"," ","","feedback_trial","0","","","","","","","","","","","","","","","","","","","","",""
"","","","","","survey-html-form","318","545345","0.0-293.0","63e688adbc8788de6d596c93","665500ab8938657b03fbdba8","6657753cec2b45982c0ccdb8","36468","","{""feedback"":""Whether Sam could likely deduce where the ball was or if Sam could obviously see the ball."",""age"":""45"",""gender"":""Female"",""other_gender"":"""",""race"":""White"",""other_race"":"""",""ethnicity"":""Non-Hispanic""}","","exit_survey","","","","","","","","","","","","","","","","Whether Sam could likely deduce where the ball was or if Sam could obviously see the ball.","45","Non-Hispanic","Female","White","0.5972222222222222","0.5972222222222222"
