"success","timeout","failed_images","failed_audio","failed_video","trial_type","trial_index","time_elapsed","internal_node_id","prolific_id","prolific_study_id","prolific_session_id","rt","stimulus","response","view_history","trial","character_choice","stimulus_dict","accuracy","correct_response","ball_pos","ego_ball_visible","ego_can_infer","alter_ball_visible","alter_can_infer","collective_ball_visible","collective_can_infer","search_locations","alter_occluders","ego_occluders","accuracy_bool","feedback","age","ethnicity","gender","race","overall_accuracy","bonus"
"true","false","[]","[]","[]","preload","0","5728","0.0-0.0","5bac1d9dc1155b0001175e55","665500ab8938657b03fbdba8","6657932046bfec296554efe2","","","","","","","","","","","","","","","","","","","","","","","","","","",""
"true","","","","","fullscreen","1","8639","0.0-1.0","5bac1d9dc1155b0001175e55","665500ab8938657b03fbdba8","6657932046bfec296554efe2","","","","","","","","","","","","","","","","","","","","","","","","","","",""
"","","","","","html-button-response","2","33413","0.0-2.0","5bac1d9dc1155b0001175e55","665500ab8938657b03fbdba8","6657932046bfec296554efe2","24770","<p><b>Consent Form</b></p> <div style=""text-align:left;background-color:lightgrey; padding:20px; max-width:900px;""><p>Please consider this information carefully before deciding whether to participate in this research.</p> <p>The purpose of this research is to examine which factors influence social judgment and decision-making. You will be asked to make judgements about individuals and actions in social scenarios. We are simply interested in your judgement. The study will take less than 1 hour to complete, and you will receive less than $20 on Prolific. Your compensation and time commitment are specified in the study description. There are no anticipated risks associated with participating in this study. The effects of participating should be comparable to those you would ordinarily experience from viewing a computer monitor and using a mouse or keyboard for a similar amount of time. At the end of the study, we will provide an explanation of the questions that motivate this line of research and will describe the potential implications. </p><p> Your participation in this study is completely voluntary and you may refuse to participate or you may choose to withdraw at any time without penalty or loss of benefits to you which are otherwise entitled. Your participation in this study will remain confidential. No personally identifiable information will be associated with your data. Also, all analyses of the data will be averaged across all the participants, so your individual responses will never be specifically analyzed. </p><p> If you have questions or concerns about your participation or payment, or want to request a summary of research findings, please contact Dr. Jonathan Phillips at Jonathan.S.Phillips@dartmouth.edu. </p><p> Please save a copy of this form for your records. </p><p><b>Agreement: </b>The nature and purpose of this research have been sufficiently explained and I agree to participate in this study. I understand that I am free to withdraw at any time without incurring any penalty. Please consent by clicking the button below to continue. Otherwise, please exit the study at any time. </p>","0","","","","","","","","","","","","","","","","","","","","","","","",""
"","","","","","instructions","3","113546","0.0-3.0-0.0","5bac1d9dc1155b0001175e55","665500ab8938657b03fbdba8","6657932046bfec296554efe2","80126","","","[{""page_index"":0,""viewing_time"":1803},{""page_index"":1,""viewing_time"":3041},{""page_index"":2,""viewing_time"":2335},{""page_index"":3,""viewing_time"":7752},{""page_index"":4,""viewing_time"":4825},{""page_index"":5,""viewing_time"":2961},{""page_index"":6,""viewing_time"":4969},{""page_index"":7,""viewing_time"":3600},{""page_index"":8,""viewing_time"":3640},{""page_index"":9,""viewing_time"":2807},{""page_index"":10,""viewing_time"":18376},{""page_index"":11,""viewing_time"":16704},{""page_index"":12,""viewing_time"":5920},{""page_index"":13,""viewing_time"":1391}]","intro","","","","","","","","","","","","","","","","","","","","","",""
"","","","","","image-keyboard-response","4","117452","0.0-3.0-1.0","5bac1d9dc1155b0001175e55","665500ab8938657b03fbdba8","6657932046bfec296554efe2","3898","stimuli/0101101.jpg","0","","prediction_practice","2","{""filepath"":""stimuli/0101101.jpg"",""ball_pos"":0,""ego_ball_visible"":false,""ego_can_infer"":false,""alter_ball_visible"":false,""alter_can_infer"":false,""collective_ball_visible"":false,""collective_can_infer"":false,""search_locations"":[0,2],""alter_occluders"":""101"",""ego_occluders"":""101""}","false","","","","","","","","","","","","","","","","","","",""
"","","","","","image-keyboard-response","5","119520","0.0-3.0-2.0","5bac1d9dc1155b0001175e55","665500ab8938657b03fbdba8","6657932046bfec296554efe2","2066","stimuli/01011012.jpg"," ","","practrice_feedback","0","","","","","","","","","","","","","","","","","","","","",""
"","","","","","image-keyboard-response","6","122530","0.0-3.0-3.0","5bac1d9dc1155b0001175e55","665500ab8938657b03fbdba8","6657932046bfec296554efe2","3006","stimuli/1010111.jpg","0","","prediction_practice","1","{""filepath"":""stimuli/1010111.jpg"",""ball_pos"":1,""ego_ball_visible"":false,""ego_can_infer"":false,""alter_ball_visible"":false,""alter_can_infer"":true,""collective_ball_visible"":false,""collective_can_infer"":false,""search_locations"":[1],""alter_occluders"":""010"",""ego_occluders"":""111""}","false","","","","","","","","","","","","","","","","","","",""
"","","","","","image-keyboard-response","7","124331","0.0-3.0-4.0","5bac1d9dc1155b0001175e55","665500ab8938657b03fbdba8","6657932046bfec296554efe2","1799","stimuli/10101111.jpg"," ","","practrice_feedback","1","","","","","","","","","","","","","","","","","","","","",""
"","","","","","image-keyboard-response","8","126252","0.0-3.0-5.0","5bac1d9dc1155b0001175e55","665500ab8938657b03fbdba8","6657932046bfec296554efe2","1917","stimuli/1100101.jpg","1","","prediction_practice","1","{""filepath"":""stimuli/1100101.jpg"",""ball_pos"":1,""ego_ball_visible"":true,""ego_can_infer"":true,""alter_ball_visible"":true,""alter_can_infer"":true,""collective_ball_visible"":true,""collective_can_infer"":true,""search_locations"":[1],""alter_occluders"":""100"",""ego_occluders"":""101""}","true","","","","","","","","","","","","","","","","","","",""
"","","","","","image-keyboard-response","9","127699","0.0-3.0-6.0","5bac1d9dc1155b0001175e55","665500ab8938657b03fbdba8","6657932046bfec296554efe2","1444","stimuli/11001011.jpg"," ","","practrice_feedback","1","","","","","","","","","","","","","","","","","","","","",""
"","","","","","image-keyboard-response","10","129854","0.0-3.0-7.0","5bac1d9dc1155b0001175e55","665500ab8938657b03fbdba8","6657932046bfec296554efe2","2151","stimuli/2000101.jpg","0","","prediction_practice","2","{""filepath"":""stimuli/2000101.jpg"",""ball_pos"":2,""ego_ball_visible"":false,""ego_can_infer"":false,""alter_ball_visible"":true,""alter_can_infer"":true,""collective_ball_visible"":false,""collective_can_infer"":false,""search_locations"":[2],""alter_occluders"":""000"",""ego_occluders"":""101""}","false","","","","","","","","","","","","","","","","","","",""
"","","","","","image-keyboard-response","11","131688","0.0-3.0-8.0","5bac1d9dc1155b0001175e55","665500ab8938657b03fbdba8","6657932046bfec296554efe2","1831","stimuli/20001012.jpg"," ","","practrice_feedback","2","","","","","","","","","","","","","","","","","","","","",""
"","","","","","image-keyboard-response","12","136762","0.0-3.0-9.0","5bac1d9dc1155b0001175e55","665500ab8938657b03fbdba8","6657932046bfec296554efe2","5071","stimuli/2011111.jpg","1","","prediction_practice","1","{""filepath"":""stimuli/2011111.jpg"",""ball_pos"":2,""ego_ball_visible"":false,""ego_can_infer"":false,""alter_ball_visible"":false,""alter_can_infer"":false,""collective_ball_visible"":false,""collective_can_infer"":false,""search_locations"":[1,2],""alter_occluders"":""011"",""ego_occluders"":""111""}","true","","","","","","","","","","","","","","","","","","",""
"","","","","","image-keyboard-response","13","138637","0.0-3.0-10.0","5bac1d9dc1155b0001175e55","665500ab8938657b03fbdba8","6657932046bfec296554efe2","1873","stimuli/20111111.jpg"," ","","practrice_feedback","1","","","","","","","","","","","","","","","","","","","","",""
"","","","","","image-keyboard-response","14","142205","0.0-3.0-11.0","5bac1d9dc1155b0001175e55","665500ab8938657b03fbdba8","6657932046bfec296554efe2","3566","stimuli/0011101.jpg","0","","prediction_practice","0","{""filepath"":""stimuli/0011101.jpg"",""ball_pos"":0,""ego_ball_visible"":false,""ego_can_infer"":false,""alter_ball_visible"":true,""alter_can_infer"":true,""collective_ball_visible"":false,""collective_can_infer"":false,""search_locations"":[0],""alter_occluders"":""011"",""ego_occluders"":""101""}","true","","","","","","","","","","","","","","","","","","",""
"","","","","","image-keyboard-response","15","143998","0.0-3.0-12.0","5bac1d9dc1155b0001175e55","665500ab8938657b03fbdba8","6657932046bfec296554efe2","1791","stimuli/00111010.jpg"," ","","practrice_feedback","0","","","","","","","","","","","","","","","","","","","","",""
"","","","","","image-keyboard-response","16","146239","0.0-3.0-13.0","5bac1d9dc1155b0001175e55","665500ab8938657b03fbdba8","6657932046bfec296554efe2","2240","stimuli/2111101.jpg","2","","prediction_practice","2","{""filepath"":""stimuli/2111101.jpg"",""ball_pos"":2,""ego_ball_visible"":false,""ego_can_infer"":false,""alter_ball_visible"":false,""alter_can_infer"":false,""collective_ball_visible"":false,""collective_can_infer"":false,""search_locations"":[1,0,2],""alter_occluders"":""111"",""ego_occluders"":""101""}","true","","","","","","","","","","","","","","","","","","",""
"","","","","","image-keyboard-response","17","147521","0.0-3.0-14.0","5bac1d9dc1155b0001175e55","665500ab8938657b03fbdba8","6657932046bfec296554efe2","1279","stimuli/21111012.jpg"," ","","practrice_feedback","1","","","","","","","","","","","","","","","","","","","","",""
"","","","","","image-keyboard-response","18","150166","0.0-3.0-15.0","5bac1d9dc1155b0001175e55","665500ab8938657b03fbdba8","6657932046bfec296554efe2","2642","stimuli/2110111.jpg","2","","prediction_practice","2","{""filepath"":""stimuli/2110111.jpg"",""ball_pos"":2,""ego_ball_visible"":false,""ego_can_infer"":false,""alter_ball_visible"":true,""alter_can_infer"":true,""collective_ball_visible"":false,""collective_can_infer"":false,""search_locations"":[2],""alter_occluders"":""110"",""ego_occluders"":""111""}","true","","","","","","","","","","","","","","","","","","",""
"","","","","","image-keyboard-response","19","151386","0.0-3.0-16.0","5bac1d9dc1155b0001175e55","665500ab8938657b03fbdba8","6657932046bfec296554efe2","1216","stimuli/21101112.jpg"," ","","practrice_feedback","2","","","","","","","","","","","","","","","","","","","","",""
"","","","","","image-keyboard-response","20","153729","0.0-3.0-17.0","5bac1d9dc1155b0001175e55","665500ab8938657b03fbdba8","6657932046bfec296554efe2","2341","stimuli/2010101.jpg","0","","prediction_practice","2","{""filepath"":""stimuli/2010101.jpg"",""ball_pos"":2,""ego_ball_visible"":false,""ego_can_infer"":false,""alter_ball_visible"":true,""alter_can_infer"":true,""collective_ball_visible"":false,""collective_can_infer"":false,""search_locations"":[2],""alter_occluders"":""010"",""ego_occluders"":""101""}","false","","","","","","","","","","","","","","","","","","",""
"","","","","","image-keyboard-response","21","154939","0.0-3.0-18.0","5bac1d9dc1155b0001175e55","665500ab8938657b03fbdba8","6657932046bfec296554efe2","1207","stimuli/20101012.jpg"," ","","practrice_feedback","2","","","","","","","","","","","","","","","","","","","","",""
"","","","","","image-keyboard-response","22","162070","0.0-3.0-19.0","5bac1d9dc1155b0001175e55","665500ab8938657b03fbdba8","6657932046bfec296554efe2","7128","stimuli/2111010.jpg","1","","prediction_practice","2","{""filepath"":""stimuli/2111010.jpg"",""ball_pos"":2,""ego_ball_visible"":true,""ego_can_infer"":true,""alter_ball_visible"":false,""alter_can_infer"":false,""collective_ball_visible"":false,""collective_can_infer"":false,""search_locations"":[0,1,2],""alter_occluders"":""111"",""ego_occluders"":""010""}","false","","","","","","","","","","","","","","","","","","",""
"","","","","","image-keyboard-response","23","164096","0.0-3.0-20.0","5bac1d9dc1155b0001175e55","665500ab8938657b03fbdba8","6657932046bfec296554efe2","2023","stimuli/21110102.jpg"," ","","practrice_feedback","0","","","","","","","","","","","","","","","","","","","","",""
"","","","","","html-button-response","24","173341","0.0-3.0-21.0","5bac1d9dc1155b0001175e55","665500ab8938657b03fbdba8","6657932046bfec296554efe2","9240","Now that you've had some practice, you'll be tested with a couple of easy trials. If you correctly predict Sam's choice, you'll move on to complete the experiment!","0","","","","","","","","","","","","","","","","","","","","","","","",""
"","","","","","image-keyboard-response","25","176526","0.0-3.0-22.0-0.0","5bac1d9dc1155b0001175e55","665500ab8938657b03fbdba8","6657932046bfec296554efe2","3184","stimuli/0000011.jpg","arrowleft","","comprehension_quiz","","","true","arrowleft","","","","","","","","","","","","","","","","","",""
"","","","","","image-keyboard-response","26","177667","0.0-3.0-22.0-1.0","5bac1d9dc1155b0001175e55","665500ab8938657b03fbdba8","6657932046bfec296554efe2","1137","stimuli/00000110.jpg"," ","","comprehension_quiz","","","true"," ","","","","","","","","","","","","","","","","","",""
"","","","","","image-keyboard-response","27","180079","0.0-3.0-22.0-2.0","5bac1d9dc1155b0001175e55","665500ab8938657b03fbdba8","6657932046bfec296554efe2","2405","stimuli/1010010.jpg","arrowdown","","comprehension_quiz","","","true","arrowdown","","","","","","","","","","","","","","","","","",""
"","","","","","image-keyboard-response","28","181122","0.0-3.0-22.0-3.0","5bac1d9dc1155b0001175e55","665500ab8938657b03fbdba8","6657932046bfec296554efe2","1039","stimuli/10100101.jpg"," ","","comprehension_quiz","","","true"," ","","","","","","","","","","","","","","","","","",""
"","","","","","html-button-response","29","182632","0.0-4.0","5bac1d9dc1155b0001175e55","665500ab8938657b03fbdba8","6657932046bfec296554efe2","1505","The experiment will now begin.","0","","","","","","","","","","","","","","","","","","","","","","","",""
"","","","","","image-keyboard-response","30","184480","0.0-5.0","5bac1d9dc1155b0001175e55","665500ab8938657b03fbdba8","6657932046bfec296554efe2","1846","stimuli/0001011.jpg","0","","prediction_trial","0","","true","","0","true","true","true","true","true","true","[0]","001","011","1","","","","","","",""
"","","","","","image-keyboard-response","31","185510","0.0-6.0","5bac1d9dc1155b0001175e55","665500ab8938657b03fbdba8","6657932046bfec296554efe2","1026","stimuli/00010110.jpg"," ","","feedback_trial","0","","","","","","","","","","","","","","","","","","","","",""
"","","","","","image-keyboard-response","32","187792","0.0-7.0","5bac1d9dc1155b0001175e55","665500ab8938657b03fbdba8","6657932046bfec296554efe2","2280","stimuli/1110110.jpg","1","","prediction_trial","0","","false","","1","false","false","false","false","false","false","[0,1]","110","110","0","","","","","","",""
"","","","","","image-keyboard-response","33","189264","0.0-8.0","5bac1d9dc1155b0001175e55","665500ab8938657b03fbdba8","6657932046bfec296554efe2","1470","stimuli/11101100.jpg"," ","","feedback_trial","0","","","","","","","","","","","","","","","","","","","","",""
"","","","","","image-keyboard-response","34","193014","0.0-9.0","5bac1d9dc1155b0001175e55","665500ab8938657b03fbdba8","6657932046bfec296554efe2","3747","stimuli/0110001.jpg","0","","prediction_trial","1","","false","","0","true","true","false","false","false","false","[0,1]","110","001","0","","","","","","",""
"","","","","","image-keyboard-response","35","194533","0.0-10.0","5bac1d9dc1155b0001175e55","665500ab8938657b03fbdba8","6657932046bfec296554efe2","1518","stimuli/01100011.jpg"," ","","feedback_trial","0","","","","","","","","","","","","","","","","","","","","",""
"","","","","","image-keyboard-response","36","197438","0.0-11.0","5bac1d9dc1155b0001175e55","665500ab8938657b03fbdba8","6657932046bfec296554efe2","2902","stimuli/0101010.jpg","0","","prediction_trial","2","","false","","0","true","true","false","false","false","false","[0,2]","101","010","0","","","","","","",""
"","","","","","image-keyboard-response","37","198446","0.0-12.0","5bac1d9dc1155b0001175e55","665500ab8938657b03fbdba8","6657932046bfec296554efe2","1004","stimuli/01010102.jpg"," ","","feedback_trial","0","","","","","","","","","","","","","","","","","","","","",""
"","","","","","image-keyboard-response","38","200559","0.0-13.0","5bac1d9dc1155b0001175e55","665500ab8938657b03fbdba8","6657932046bfec296554efe2","2111","stimuli/2011011.jpg","1","","prediction_trial","2","","false","","2","false","false","false","false","false","false","[2,1]","011","011","0","","","","","","",""
"","","","","","image-keyboard-response","39","201597","0.0-14.0","5bac1d9dc1155b0001175e55","665500ab8938657b03fbdba8","6657932046bfec296554efe2","1035","stimuli/20110112.jpg"," ","","feedback_trial","2","","","","","","","","","","","","","","","","","","","","",""
"","","","","","image-keyboard-response","40","202860","0.0-15.0","5bac1d9dc1155b0001175e55","665500ab8938657b03fbdba8","6657932046bfec296554efe2","1261","stimuli/2000100.jpg","2","","prediction_trial","2","","true","","2","true","true","true","true","true","true","[2]","000","100","1","","","","","","",""
"","","","","","image-keyboard-response","41","203710","0.0-16.0","5bac1d9dc1155b0001175e55","665500ab8938657b03fbdba8","6657932046bfec296554efe2","847","stimuli/20001002.jpg"," ","","feedback_trial","2","","","","","","","","","","","","","","","","","","","","",""
"","","","","","image-keyboard-response","42","205775","0.0-17.0","5bac1d9dc1155b0001175e55","665500ab8938657b03fbdba8","6657932046bfec296554efe2","2064","stimuli/1110111.jpg","1","","prediction_trial","1","","true","","1","false","false","false","false","false","false","[1,0]","110","111","1","","","","","","",""
"","","","","","image-keyboard-response","43","206783","0.0-18.0","5bac1d9dc1155b0001175e55","665500ab8938657b03fbdba8","6657932046bfec296554efe2","1006","stimuli/11101111.jpg"," ","","feedback_trial","1","","","","","","","","","","","","","","","","","","","","",""
"","","","","","image-keyboard-response","44","208229","0.0-19.0","5bac1d9dc1155b0001175e55","665500ab8938657b03fbdba8","6657932046bfec296554efe2","1445","stimuli/1010010.jpg","1","","prediction_trial","1","","true","","1","false","true","false","true","false","true","[1]","010","010","1","","","","","","",""
"","","","","","image-keyboard-response","45","209004","0.0-20.0","5bac1d9dc1155b0001175e55","665500ab8938657b03fbdba8","6657932046bfec296554efe2","772","stimuli/10100101.jpg"," ","","feedback_trial","1","","","","","","","","","","","","","","","","","","","","",""
"","","","","","image-keyboard-response","46","210627","0.0-21.0","5bac1d9dc1155b0001175e55","665500ab8938657b03fbdba8","6657932046bfec296554efe2","1620","stimuli/0110111.jpg","1","","prediction_trial","1","","true","","0","false","false","false","false","false","false","[0,1]","110","111","1","","","","","","",""
"","","","","","image-keyboard-response","47","211522","0.0-22.0","5bac1d9dc1155b0001175e55","665500ab8938657b03fbdba8","6657932046bfec296554efe2","893","stimuli/01101111.jpg"," ","","feedback_trial","0","","","","","","","","","","","","","","","","","","","","",""
"","","","","","image-keyboard-response","48","214910","0.0-23.0","5bac1d9dc1155b0001175e55","665500ab8938657b03fbdba8","6657932046bfec296554efe2","3385","stimuli/1001110.jpg","0","","prediction_trial","1","","false","","1","false","false","true","true","false","false","[1]","001","110","0","","","","","","",""
"","","","","","image-keyboard-response","49","215820","0.0-24.0","5bac1d9dc1155b0001175e55","665500ab8938657b03fbdba8","6657932046bfec296554efe2","907","stimuli/10011101.jpg"," ","","feedback_trial","1","","","","","","","","","","","","","","","","","","","","",""
"","","","","","image-keyboard-response","50","218040","0.0-25.0","5bac1d9dc1155b0001175e55","665500ab8938657b03fbdba8","6657932046bfec296554efe2","2218","stimuli/2000111.jpg","0","","prediction_trial","2","","false","","2","false","false","true","true","false","false","[2]","000","111","0","","","","","","",""
"","","","","","image-keyboard-response","51","219753","0.0-26.0","5bac1d9dc1155b0001175e55","665500ab8938657b03fbdba8","6657932046bfec296554efe2","1711","stimuli/20001112.jpg"," ","","feedback_trial","2","","","","","","","","","","","","","","","","","","","","",""
"","","","","","image-keyboard-response","52","221172","0.0-27.0","5bac1d9dc1155b0001175e55","665500ab8938657b03fbdba8","6657932046bfec296554efe2","1416","stimuli/0011010.jpg","0","","prediction_trial","0","","true","","0","true","true","true","true","true","true","[0]","011","010","1","","","","","","",""
"","","","","","image-keyboard-response","53","221933","0.0-28.0","5bac1d9dc1155b0001175e55","665500ab8938657b03fbdba8","6657932046bfec296554efe2","760","stimuli/00110100.jpg"," ","","feedback_trial","0","","","","","","","","","","","","","","","","","","","","",""
"","","","","","image-keyboard-response","54","223531","0.0-29.0","5bac1d9dc1155b0001175e55","665500ab8938657b03fbdba8","6657932046bfec296554efe2","1594","stimuli/0111101.jpg","0","","prediction_trial","2","","false","","0","false","false","false","false","false","false","[2,0,1]","111","101","0","","","","","","",""
"","","","","","image-keyboard-response","55","224699","0.0-30.0","5bac1d9dc1155b0001175e55","665500ab8938657b03fbdba8","6657932046bfec296554efe2","1168","stimuli/01111012.jpg"," ","","feedback_trial","2","","","","","","","","","","","","","","","","","","","","",""
"","","","","","image-keyboard-response","56","227394","0.0-31.0","5bac1d9dc1155b0001175e55","665500ab8938657b03fbdba8","6657932046bfec296554efe2","2691","stimuli/0101000.jpg","2","","prediction_trial","0","","false","","0","true","true","false","false","false","false","[2,0]","101","000","0","","","","","","",""
"","","","","","image-keyboard-response","57","228326","0.0-32.0","5bac1d9dc1155b0001175e55","665500ab8938657b03fbdba8","6657932046bfec296554efe2","929","stimuli/01010000.jpg"," ","","feedback_trial","2","","","","","","","","","","","","","","","","","","","","",""
"","","","","","image-keyboard-response","58","231214","0.0-33.0","5bac1d9dc1155b0001175e55","665500ab8938657b03fbdba8","6657932046bfec296554efe2","2886","stimuli/0111010.jpg","1","","prediction_trial","0","","false","","0","true","true","false","false","false","false","[2,1,0]","111","010","0","","","","","","",""
"","","","","","image-keyboard-response","59","232339","0.0-34.0","5bac1d9dc1155b0001175e55","665500ab8938657b03fbdba8","6657932046bfec296554efe2","1123","stimuli/01110100.jpg"," ","","feedback_trial","2","","","","","","","","","","","","","","","","","","","","",""
"","","","","","image-keyboard-response","60","237524","0.0-35.0","5bac1d9dc1155b0001175e55","665500ab8938657b03fbdba8","6657932046bfec296554efe2","5182","stimuli/2001011.jpg","1","","prediction_trial","2","","false","","2","false","false","false","true","false","false","[2]","001","011","0","","","","","","",""
"","","","","","image-keyboard-response","61","238551","0.0-36.0","5bac1d9dc1155b0001175e55","665500ab8938657b03fbdba8","6657932046bfec296554efe2","1026","stimuli/20010112.jpg"," ","","feedback_trial","2","","","","","","","","","","","","","","","","","","","","",""
"","","","","","image-keyboard-response","62","241018","0.0-37.0","5bac1d9dc1155b0001175e55","665500ab8938657b03fbdba8","6657932046bfec296554efe2","2465","stimuli/0001100.jpg","0","","prediction_trial","0","","true","","0","false","true","true","true","false","true","[0]","001","100","1","","","","","","",""
"","","","","","image-keyboard-response","63","241708","0.0-38.0","5bac1d9dc1155b0001175e55","665500ab8938657b03fbdba8","6657932046bfec296554efe2","687","stimuli/00011000.jpg"," ","","feedback_trial","0","","","","","","","","","","","","","","","","","","","","",""
"","","","","","image-keyboard-response","64","244486","0.0-39.0","5bac1d9dc1155b0001175e55","665500ab8938657b03fbdba8","6657932046bfec296554efe2","2775","stimuli/1110011.jpg","1","","prediction_trial","1","","true","","1","false","false","false","false","false","false","[1,0]","110","011","1","","","","","","",""
"","","","","","image-keyboard-response","65","245298","0.0-40.0","5bac1d9dc1155b0001175e55","665500ab8938657b03fbdba8","6657932046bfec296554efe2","809","stimuli/11100111.jpg"," ","","feedback_trial","1","","","","","","","","","","","","","","","","","","","","",""
"","","","","","image-keyboard-response","66","246968","0.0-41.0","5bac1d9dc1155b0001175e55","665500ab8938657b03fbdba8","6657932046bfec296554efe2","1667","stimuli/2001000.jpg","2","","prediction_trial","2","","true","","2","true","true","false","true","false","true","[2]","001","000","1","","","","","","",""
"","","","","","image-keyboard-response","67","247803","0.0-42.0","5bac1d9dc1155b0001175e55","665500ab8938657b03fbdba8","6657932046bfec296554efe2","833","stimuli/20010002.jpg"," ","","feedback_trial","2","","","","","","","","","","","","","","","","","","","","",""
"","","","","","image-keyboard-response","68","250953","0.0-43.0","5bac1d9dc1155b0001175e55","665500ab8938657b03fbdba8","6657932046bfec296554efe2","3148","stimuli/0101100.jpg","0","","prediction_trial","0","","true","","0","false","true","false","false","false","false","[0,2]","101","100","1","","","","","","",""
"","","","","","image-keyboard-response","69","252032","0.0-44.0","5bac1d9dc1155b0001175e55","665500ab8938657b03fbdba8","6657932046bfec296554efe2","1076","stimuli/01011000.jpg"," ","","feedback_trial","0","","","","","","","","","","","","","","","","","","","","",""
"","","","","","image-keyboard-response","70","253603","0.0-45.0","5bac1d9dc1155b0001175e55","665500ab8938657b03fbdba8","6657932046bfec296554efe2","1569","stimuli/1101001.jpg","1","","prediction_trial","1","","true","","1","true","true","true","true","true","true","[1]","101","001","1","","","","","","",""
"","","","","","image-keyboard-response","71","254232","0.0-46.0","5bac1d9dc1155b0001175e55","665500ab8938657b03fbdba8","6657932046bfec296554efe2","627","stimuli/11010011.jpg"," ","","feedback_trial","1","","","","","","","","","","","","","","","","","","","","",""
"","","","","","image-keyboard-response","72","256108","0.0-47.0","5bac1d9dc1155b0001175e55","665500ab8938657b03fbdba8","6657932046bfec296554efe2","1873","stimuli/1110001.jpg","1","","prediction_trial","1","","true","","1","true","true","false","false","false","false","[1,0]","110","001","1","","","","","","",""
"","","","","","image-keyboard-response","73","256867","0.0-48.0","5bac1d9dc1155b0001175e55","665500ab8938657b03fbdba8","6657932046bfec296554efe2","756","stimuli/11100011.jpg"," ","","feedback_trial","1","","","","","","","","","","","","","","","","","","","","",""
"","","","","","image-keyboard-response","74","258377","0.0-49.0","5bac1d9dc1155b0001175e55","665500ab8938657b03fbdba8","6657932046bfec296554efe2","1507","stimuli/2000101.jpg","2","","prediction_trial","2","","true","","2","false","false","true","true","false","false","[2]","000","101","1","","","","","","",""
"","","","","","image-keyboard-response","75","259149","0.0-50.0","5bac1d9dc1155b0001175e55","665500ab8938657b03fbdba8","6657932046bfec296554efe2","771","stimuli/20001012.jpg"," ","","feedback_trial","2","","","","","","","","","","","","","","","","","","","","",""
"","","","","","image-keyboard-response","76","260736","0.0-51.0","5bac1d9dc1155b0001175e55","665500ab8938657b03fbdba8","6657932046bfec296554efe2","1585","stimuli/0100110.jpg","1","","prediction_trial","0","","false","","0","false","false","false","true","false","false","[0]","100","110","0","","","","","","",""
"","","","","","image-keyboard-response","77","261491","0.0-52.0","5bac1d9dc1155b0001175e55","665500ab8938657b03fbdba8","6657932046bfec296554efe2","752","stimuli/01001100.jpg"," ","","feedback_trial","0","","","","","","","","","","","","","","","","","","","","",""
"","","","","","image-keyboard-response","78","262587","0.0-53.0","5bac1d9dc1155b0001175e55","665500ab8938657b03fbdba8","6657932046bfec296554efe2","1094","stimuli/1000000.jpg","1","","prediction_trial","1","","true","","1","true","true","true","true","true","true","[1]","000","000","1","","","","","","",""
"","","","","","image-keyboard-response","79","263136","0.0-54.0","5bac1d9dc1155b0001175e55","665500ab8938657b03fbdba8","6657932046bfec296554efe2","546","stimuli/10000001.jpg"," ","","feedback_trial","1","","","","","","","","","","","","","","","","","","","","",""
"","","","","","image-keyboard-response","80","268540","0.0-55.0","5bac1d9dc1155b0001175e55","665500ab8938657b03fbdba8","6657932046bfec296554efe2","5401","stimuli/1100111.jpg","2","","prediction_trial","1","","false","","1","false","false","true","true","false","false","[1]","100","111","0","","","","","","",""
"","","","","","image-keyboard-response","81","269375","0.0-56.0","5bac1d9dc1155b0001175e55","665500ab8938657b03fbdba8","6657932046bfec296554efe2","832","stimuli/11001111.jpg"," ","","feedback_trial","1","","","","","","","","","","","","","","","","","","","","",""
"","","","","","image-keyboard-response","82","272243","0.0-57.0","5bac1d9dc1155b0001175e55","665500ab8938657b03fbdba8","6657932046bfec296554efe2","2866","stimuli/2101000.jpg","2","","prediction_trial","2","","true","","2","true","true","false","false","false","false","[0,2]","101","000","1","","","","","","",""
"","","","","","image-keyboard-response","83","273165","0.0-58.0","5bac1d9dc1155b0001175e55","665500ab8938657b03fbdba8","6657932046bfec296554efe2","919","stimuli/21010002.jpg"," ","","feedback_trial","0","","","","","","","","","","","","","","","","","","","","",""
"","","","","","image-keyboard-response","84","275200","0.0-59.0","5bac1d9dc1155b0001175e55","665500ab8938657b03fbdba8","6657932046bfec296554efe2","2032","stimuli/1010001.jpg","1","","prediction_trial","1","","true","","1","true","true","false","true","false","true","[1]","010","001","1","","","","","","",""
"","","","","","image-keyboard-response","85","276037","0.0-60.0","5bac1d9dc1155b0001175e55","665500ab8938657b03fbdba8","6657932046bfec296554efe2","834","stimuli/10100011.jpg"," ","","feedback_trial","1","","","","","","","","","","","","","","","","","","","","",""
"","","","","","image-keyboard-response","86","278382","0.0-61.0","5bac1d9dc1155b0001175e55","665500ab8938657b03fbdba8","6657932046bfec296554efe2","2343","stimuli/2101011.jpg","1","","prediction_trial","2","","false","","2","false","false","false","false","false","false","[2,0]","101","011","0","","","","","","",""
"","","","","","image-keyboard-response","87","279243","0.0-62.0","5bac1d9dc1155b0001175e55","665500ab8938657b03fbdba8","6657932046bfec296554efe2","857","stimuli/21010112.jpg"," ","","feedback_trial","2","","","","","","","","","","","","","","","","","","","","",""
"","","","","","image-keyboard-response","88","292467","0.0-63.0","5bac1d9dc1155b0001175e55","665500ab8938657b03fbdba8","6657932046bfec296554efe2","13221","stimuli/1011011.jpg","1","","prediction_trial","2","","false","","1","false","false","false","false","false","false","[2,1]","011","011","0","","","","","","",""
"","","","","","image-keyboard-response","89","294119","0.0-64.0","5bac1d9dc1155b0001175e55","665500ab8938657b03fbdba8","6657932046bfec296554efe2","1650","stimuli/10110112.jpg"," ","","feedback_trial","2","","","","","","","","","","","","","","","","","","","","",""
"","","","","","image-keyboard-response","90","295187","0.0-65.0","5bac1d9dc1155b0001175e55","665500ab8938657b03fbdba8","6657932046bfec296554efe2","1065","stimuli/1100000.jpg","1","","prediction_trial","1","","true","","1","true","true","true","true","true","true","[1]","100","000","1","","","","","","",""
"","","","","","image-keyboard-response","91","295852","0.0-66.0","5bac1d9dc1155b0001175e55","665500ab8938657b03fbdba8","6657932046bfec296554efe2","663","stimuli/11000001.jpg"," ","","feedback_trial","1","","","","","","","","","","","","","","","","","","","","",""
"","","","","","image-keyboard-response","92","309555","0.0-67.0","5bac1d9dc1155b0001175e55","665500ab8938657b03fbdba8","6657932046bfec296554efe2","13701","stimuli/0111011.jpg","1","","prediction_trial","2","","false","","0","true","true","false","false","false","false","[1,0,2]","111","011","0","","","","","","",""
"","","","","","image-keyboard-response","93","310830","0.0-68.0","5bac1d9dc1155b0001175e55","665500ab8938657b03fbdba8","6657932046bfec296554efe2","1273","stimuli/01110112.jpg"," ","","feedback_trial","1","","","","","","","","","","","","","","","","","","","","",""
"","","","","","image-keyboard-response","94","312119","0.0-69.0","5bac1d9dc1155b0001175e55","665500ab8938657b03fbdba8","6657932046bfec296554efe2","1285","stimuli/0100100.jpg","0","","prediction_trial","0","","true","","0","false","true","false","true","false","true","[0]","100","100","1","","","","","","",""
"","","","","","image-keyboard-response","95","312600","0.0-70.0","5bac1d9dc1155b0001175e55","665500ab8938657b03fbdba8","6657932046bfec296554efe2","478","stimuli/01001000.jpg"," ","","feedback_trial","0","","","","","","","","","","","","","","","","","","","","",""
"","","","","","image-keyboard-response","96","314317","0.0-71.0","5bac1d9dc1155b0001175e55","665500ab8938657b03fbdba8","6657932046bfec296554efe2","1715","stimuli/2001100.jpg","2","","prediction_trial","2","","true","","2","true","true","false","true","false","true","[2]","001","100","1","","","","","","",""
"","","","","","image-keyboard-response","97","315177","0.0-72.0","5bac1d9dc1155b0001175e55","665500ab8938657b03fbdba8","6657932046bfec296554efe2","857","stimuli/20011002.jpg"," ","","feedback_trial","2","","","","","","","","","","","","","","","","","","","","",""
"","","","","","image-keyboard-response","98","317847","0.0-73.0","5bac1d9dc1155b0001175e55","665500ab8938657b03fbdba8","6657932046bfec296554efe2","2668","stimuli/1100011.jpg","1","","prediction_trial","1","","true","","1","false","false","true","true","false","false","[1]","100","011","1","","","","","","",""
"","","","","","image-keyboard-response","99","318563","0.0-74.0","5bac1d9dc1155b0001175e55","665500ab8938657b03fbdba8","6657932046bfec296554efe2","713","stimuli/11000111.jpg"," ","","feedback_trial","1","","","","","","","","","","","","","","","","","","","","",""
"","","","","","image-keyboard-response","100","320605","0.0-75.0","5bac1d9dc1155b0001175e55","665500ab8938657b03fbdba8","6657932046bfec296554efe2","2039","stimuli/1110100.jpg","1","","prediction_trial","0","","false","","1","true","true","false","false","false","false","[0,1]","110","100","0","","","","","","",""
"","","","","","image-keyboard-response","101","321187","0.0-76.0","5bac1d9dc1155b0001175e55","665500ab8938657b03fbdba8","6657932046bfec296554efe2","580","stimuli/11101000.jpg"," ","","feedback_trial","0","","","","","","","","","","","","","","","","","","","","",""
"","","","","","image-keyboard-response","102","323251","0.0-77.0","5bac1d9dc1155b0001175e55","665500ab8938657b03fbdba8","6657932046bfec296554efe2","2063","stimuli/0010101.jpg","2","","prediction_trial","0","","false","","0","false","false","true","true","false","false","[0]","010","101","0","","","","","","",""
"","","","","","image-keyboard-response","103","324018","0.0-78.0","5bac1d9dc1155b0001175e55","665500ab8938657b03fbdba8","6657932046bfec296554efe2","764","stimuli/00101010.jpg"," ","","feedback_trial","0","","","","","","","","","","","","","","","","","","","","",""
"","","","","","image-keyboard-response","104","325691","0.0-79.0","5bac1d9dc1155b0001175e55","665500ab8938657b03fbdba8","6657932046bfec296554efe2","1671","stimuli/2110011.jpg","1","","prediction_trial","2","","false","","2","false","false","true","true","false","false","[2]","110","011","0","","","","","","",""
"","","","","","image-keyboard-response","105","326439","0.0-80.0","5bac1d9dc1155b0001175e55","665500ab8938657b03fbdba8","6657932046bfec296554efe2","745","stimuli/21100112.jpg"," ","","feedback_trial","2","","","","","","","","","","","","","","","","","","","","",""
"","","","","","image-keyboard-response","106","328256","0.0-81.0","5bac1d9dc1155b0001175e55","665500ab8938657b03fbdba8","6657932046bfec296554efe2","1815","stimuli/0101101.jpg","0","","prediction_trial","0","","true","","0","false","false","false","false","false","false","[0,2]","101","101","1","","","","","","",""
"","","","","","image-keyboard-response","107","328704","0.0-82.0","5bac1d9dc1155b0001175e55","665500ab8938657b03fbdba8","6657932046bfec296554efe2","445","stimuli/01011010.jpg"," ","","feedback_trial","0","","","","","","","","","","","","","","","","","","","","",""
"","","","","","image-keyboard-response","108","331717","0.0-83.0","5bac1d9dc1155b0001175e55","665500ab8938657b03fbdba8","6657932046bfec296554efe2","3011","stimuli/2001110.jpg","2","","prediction_trial","2","","true","","2","true","true","false","true","false","true","[2]","001","110","1","","","","","","",""
"","","","","","image-keyboard-response","109","332382","0.0-84.0","5bac1d9dc1155b0001175e55","665500ab8938657b03fbdba8","6657932046bfec296554efe2","662","stimuli/20011102.jpg"," ","","feedback_trial","2","","","","","","","","","","","","","","","","","","","","",""
"","","","","","image-keyboard-response","110","334513","0.0-85.0","5bac1d9dc1155b0001175e55","665500ab8938657b03fbdba8","6657932046bfec296554efe2","2129","stimuli/2111011.jpg","1","","prediction_trial","2","","false","","2","false","false","false","false","false","false","[1,0,2]","111","011","0","","","","","","",""
"","","","","","image-keyboard-response","111","335145","0.0-86.0","5bac1d9dc1155b0001175e55","665500ab8938657b03fbdba8","6657932046bfec296554efe2","629","stimuli/21110112.jpg"," ","","feedback_trial","1","","","","","","","","","","","","","","","","","","","","",""
"","","","","","image-keyboard-response","112","336985","0.0-87.0","5bac1d9dc1155b0001175e55","665500ab8938657b03fbdba8","6657932046bfec296554efe2","1837","stimuli/1011111.jpg","1","","prediction_trial","1","","true","","1","false","false","false","false","false","false","[2,1]","011","111","1","","","","","","",""
"","","","","","image-keyboard-response","113","337609","0.0-88.0","5bac1d9dc1155b0001175e55","665500ab8938657b03fbdba8","6657932046bfec296554efe2","621","stimuli/10111111.jpg"," ","","feedback_trial","2","","","","","","","","","","","","","","","","","","","","",""
"","","","","","image-keyboard-response","114","339380","0.0-89.0","5bac1d9dc1155b0001175e55","665500ab8938657b03fbdba8","6657932046bfec296554efe2","1769","stimuli/1010101.jpg","1","","prediction_trial","1","","true","","1","true","true","false","true","false","true","[1]","010","101","1","","","","","","",""
"","","","","","image-keyboard-response","115","340030","0.0-90.0","5bac1d9dc1155b0001175e55","665500ab8938657b03fbdba8","6657932046bfec296554efe2","647","stimuli/10101011.jpg"," ","","feedback_trial","1","","","","","","","","","","","","","","","","","","","","",""
"","","","","","image-keyboard-response","116","342280","0.0-91.0","5bac1d9dc1155b0001175e55","665500ab8938657b03fbdba8","6657932046bfec296554efe2","2248","stimuli/0110100.jpg","0","","prediction_trial","1","","false","","0","false","true","false","false","false","false","[0,1]","110","100","0","","","","","","",""
"","","","","","image-keyboard-response","117","342971","0.0-92.0","5bac1d9dc1155b0001175e55","665500ab8938657b03fbdba8","6657932046bfec296554efe2","688","stimuli/01101001.jpg"," ","","feedback_trial","0","","","","","","","","","","","","","","","","","","","","",""
"","","","","","image-keyboard-response","118","344123","0.0-93.0","5bac1d9dc1155b0001175e55","665500ab8938657b03fbdba8","6657932046bfec296554efe2","1150","stimuli/0111111.jpg","1","","prediction_trial","2","","false","","0","false","false","false","false","false","false","[2,1,0]","111","111","0","","","","","","",""
"","","","","","image-keyboard-response","119","344723","0.0-94.0","5bac1d9dc1155b0001175e55","665500ab8938657b03fbdba8","6657932046bfec296554efe2","598","stimuli/01111112.jpg"," ","","feedback_trial","2","","","","","","","","","","","","","","","","","","","","",""
"","","","","","image-keyboard-response","120","346136","0.0-95.0","5bac1d9dc1155b0001175e55","665500ab8938657b03fbdba8","6657932046bfec296554efe2","1411","stimuli/1111110.jpg","1","","prediction_trial","0","","false","","1","false","false","false","false","false","false","[0,2,1]","111","110","0","","","","","","",""
"","","","","","image-keyboard-response","121","346627","0.0-96.0","5bac1d9dc1155b0001175e55","665500ab8938657b03fbdba8","6657932046bfec296554efe2","488","stimuli/11111100.jpg"," ","","feedback_trial","0","","","","","","","","","","","","","","","","","","","","",""
"","","","","","image-keyboard-response","122","348717","0.0-97.0","5bac1d9dc1155b0001175e55","665500ab8938657b03fbdba8","6657932046bfec296554efe2","2087","stimuli/0000111.jpg","2","","prediction_trial","0","","false","","0","false","false","true","true","false","false","[0]","000","111","0","","","","","","",""
"","","","","","image-keyboard-response","123","349213","0.0-98.0","5bac1d9dc1155b0001175e55","665500ab8938657b03fbdba8","6657932046bfec296554efe2","492","stimuli/00001110.jpg"," ","","feedback_trial","0","","","","","","","","","","","","","","","","","","","","",""
"","","","","","image-keyboard-response","124","350955","0.0-99.0","5bac1d9dc1155b0001175e55","665500ab8938657b03fbdba8","6657932046bfec296554efe2","1739","stimuli/1111011.jpg","1","","prediction_trial","0","","false","","1","false","false","false","false","false","false","[0,1,2]","111","011","0","","","","","","",""
"","","","","","image-keyboard-response","125","351509","0.0-100.0","5bac1d9dc1155b0001175e55","665500ab8938657b03fbdba8","6657932046bfec296554efe2","552","stimuli/11110110.jpg"," ","","feedback_trial","0","","","","","","","","","","","","","","","","","","","","",""
"","","","","","image-keyboard-response","126","352822","0.0-101.0","5bac1d9dc1155b0001175e55","665500ab8938657b03fbdba8","6657932046bfec296554efe2","1311","stimuli/2010110.jpg","2","","prediction_trial","2","","true","","2","true","true","true","true","true","true","[2]","010","110","1","","","","","","",""
"","","","","","image-keyboard-response","127","353799","0.0-102.0","5bac1d9dc1155b0001175e55","665500ab8938657b03fbdba8","6657932046bfec296554efe2","975","stimuli/20101102.jpg"," ","","feedback_trial","2","","","","","","","","","","","","","","","","","","","","",""
"","","","","","image-keyboard-response","128","355574","0.0-103.0","5bac1d9dc1155b0001175e55","665500ab8938657b03fbdba8","6657932046bfec296554efe2","1773","stimuli/2111110.jpg","2","","prediction_trial","2","","true","","2","true","true","false","false","false","false","[2,1,0]","111","110","1","","","","","","",""
"","","","","","image-keyboard-response","129","356153","0.0-104.0","5bac1d9dc1155b0001175e55","665500ab8938657b03fbdba8","6657932046bfec296554efe2","577","stimuli/21111102.jpg"," ","","feedback_trial","2","","","","","","","","","","","","","","","","","","","","",""
"","","","","","image-keyboard-response","130","357467","0.0-105.0","5bac1d9dc1155b0001175e55","665500ab8938657b03fbdba8","6657932046bfec296554efe2","1310","stimuli/0011000.jpg","0","","prediction_trial","0","","true","","0","true","true","true","true","true","true","[0]","011","000","1","","","","","","",""
"","","","","","image-keyboard-response","131","357824","0.0-106.0","5bac1d9dc1155b0001175e55","665500ab8938657b03fbdba8","6657932046bfec296554efe2","354","stimuli/00110000.jpg"," ","","feedback_trial","0","","","","","","","","","","","","","","","","","","","","",""
"","","","","","image-keyboard-response","132","359461","0.0-107.0","5bac1d9dc1155b0001175e55","665500ab8938657b03fbdba8","6657932046bfec296554efe2","1636","stimuli/0100001.jpg","0","","prediction_trial","0","","true","","0","true","true","false","true","false","true","[0]","100","001","1","","","","","","",""
"","","","","","image-keyboard-response","133","359958","0.0-108.0","5bac1d9dc1155b0001175e55","665500ab8938657b03fbdba8","6657932046bfec296554efe2","494","stimuli/01000010.jpg"," ","","feedback_trial","0","","","","","","","","","","","","","","","","","","","","",""
"","","","","","image-keyboard-response","134","361259","0.0-109.0","5bac1d9dc1155b0001175e55","665500ab8938657b03fbdba8","6657932046bfec296554efe2","1298","stimuli/2100110.jpg","2","","prediction_trial","2","","true","","2","true","true","true","true","true","true","[2]","100","110","1","","","","","","",""
"","","","","","image-keyboard-response","135","361746","0.0-110.0","5bac1d9dc1155b0001175e55","665500ab8938657b03fbdba8","6657932046bfec296554efe2","484","stimuli/21001102.jpg"," ","","feedback_trial","2","","","","","","","","","","","","","","","","","","","","",""
"","","","","","image-keyboard-response","136","363416","0.0-111.0","5bac1d9dc1155b0001175e55","665500ab8938657b03fbdba8","6657932046bfec296554efe2","1668","stimuli/0111000.jpg","1","","prediction_trial","2","","false","","0","true","true","false","false","false","false","[2,0,1]","111","000","0","","","","","","",""
"","","","","","image-keyboard-response","137","364063","0.0-112.0","5bac1d9dc1155b0001175e55","665500ab8938657b03fbdba8","6657932046bfec296554efe2","644","stimuli/01110002.jpg"," ","","feedback_trial","2","","","","","","","","","","","","","","","","","","","","",""
"","","","","","image-keyboard-response","138","365103","0.0-113.0","5bac1d9dc1155b0001175e55","665500ab8938657b03fbdba8","6657932046bfec296554efe2","1038","stimuli/1000100.jpg","1","","prediction_trial","1","","true","","1","true","true","true","true","true","true","[1]","000","100","1","","","","","","",""
"","","","","","image-keyboard-response","139","365501","0.0-114.0","5bac1d9dc1155b0001175e55","665500ab8938657b03fbdba8","6657932046bfec296554efe2","395","stimuli/10001001.jpg"," ","","feedback_trial","1","","","","","","","","","","","","","","","","","","","","",""
"","","","","","image-keyboard-response","140","366994","0.0-115.0","5bac1d9dc1155b0001175e55","665500ab8938657b03fbdba8","6657932046bfec296554efe2","1491","stimuli/1001011.jpg","1","","prediction_trial","1","","true","","1","false","false","true","true","false","false","[1]","001","011","1","","","","","","",""
"","","","","","image-keyboard-response","141","367527","0.0-116.0","5bac1d9dc1155b0001175e55","665500ab8938657b03fbdba8","6657932046bfec296554efe2","531","stimuli/10010111.jpg"," ","","feedback_trial","1","","","","","","","","","","","","","","","","","","","","",""
"","","","","","image-keyboard-response","142","369292","0.0-117.0","5bac1d9dc1155b0001175e55","665500ab8938657b03fbdba8","6657932046bfec296554efe2","1762","stimuli/1111001.jpg","0","","prediction_trial","0","","true","","1","true","true","false","false","false","false","[2,1,0]","111","001","1","","","","","","",""
"","","","","","image-keyboard-response","143","369907","0.0-118.0","5bac1d9dc1155b0001175e55","665500ab8938657b03fbdba8","6657932046bfec296554efe2","613","stimuli/11110010.jpg"," ","","feedback_trial","2","","","","","","","","","","","","","","","","","","","","",""
"","","","","","image-keyboard-response","144","371247","0.0-119.0","5bac1d9dc1155b0001175e55","665500ab8938657b03fbdba8","6657932046bfec296554efe2","1337","stimuli/0000000.jpg","0","","prediction_trial","0","","true","","0","true","true","true","true","true","true","[0]","000","000","1","","","","","","",""
"","","","","","image-keyboard-response","145","371635","0.0-120.0","5bac1d9dc1155b0001175e55","665500ab8938657b03fbdba8","6657932046bfec296554efe2","385","stimuli/00000000.jpg"," ","","feedback_trial","0","","","","","","","","","","","","","","","","","","","","",""
"","","","","","image-keyboard-response","146","373702","0.0-121.0","5bac1d9dc1155b0001175e55","665500ab8938657b03fbdba8","6657932046bfec296554efe2","2064","stimuli/0011101.jpg","2","","prediction_trial","0","","false","","0","false","false","true","true","false","false","[0]","011","101","0","","","","","","",""
"","","","","","image-keyboard-response","147","374273","0.0-122.0","5bac1d9dc1155b0001175e55","665500ab8938657b03fbdba8","6657932046bfec296554efe2","568","stimuli/00111010.jpg"," ","","feedback_trial","0","","","","","","","","","","","","","","","","","","","","",""
"","","","","","image-keyboard-response","148","376077","0.0-123.0","5bac1d9dc1155b0001175e55","665500ab8938657b03fbdba8","6657932046bfec296554efe2","1802","stimuli/1000110.jpg","0","","prediction_trial","1","","false","","1","false","false","true","true","false","false","[1]","000","110","0","","","","","","",""
"","","","","","image-keyboard-response","149","376631","0.0-124.0","5bac1d9dc1155b0001175e55","665500ab8938657b03fbdba8","6657932046bfec296554efe2","551","stimuli/10001101.jpg"," ","","feedback_trial","1","","","","","","","","","","","","","","","","","","","","",""
"","","","","","image-keyboard-response","150","377858","0.0-125.0","5bac1d9dc1155b0001175e55","665500ab8938657b03fbdba8","6657932046bfec296554efe2","1224","stimuli/0000010.jpg","0","","prediction_trial","0","","true","","0","true","true","true","true","true","true","[0]","000","010","1","","","","","","",""
"","","","","","image-keyboard-response","151","378268","0.0-126.0","5bac1d9dc1155b0001175e55","665500ab8938657b03fbdba8","6657932046bfec296554efe2","408","stimuli/00000100.jpg"," ","","feedback_trial","0","","","","","","","","","","","","","","","","","","","","",""
"","","","","","image-keyboard-response","152","379753","0.0-127.0","5bac1d9dc1155b0001175e55","665500ab8938657b03fbdba8","6657932046bfec296554efe2","1482","stimuli/1101010.jpg","1","","prediction_trial","1","","true","","1","false","true","true","true","false","true","[1]","101","010","1","","","","","","",""
"","","","","","image-keyboard-response","153","380137","0.0-128.0","5bac1d9dc1155b0001175e55","665500ab8938657b03fbdba8","6657932046bfec296554efe2","381","stimuli/11010101.jpg"," ","","feedback_trial","1","","","","","","","","","","","","","","","","","","","","",""
"","","","","","image-keyboard-response","154","382491","0.0-129.0","5bac1d9dc1155b0001175e55","665500ab8938657b03fbdba8","6657932046bfec296554efe2","2351","stimuli/1010111.jpg","1","","prediction_trial","1","","true","","1","false","false","false","true","false","false","[1]","010","111","1","","","","","","",""
"","","","","","image-keyboard-response","155","383002","0.0-130.0","5bac1d9dc1155b0001175e55","665500ab8938657b03fbdba8","6657932046bfec296554efe2","508","stimuli/10101111.jpg"," ","","feedback_trial","1","","","","","","","","","","","","","","","","","","","","",""
"","","","","","image-keyboard-response","156","384330","0.0-131.0","5bac1d9dc1155b0001175e55","665500ab8938657b03fbdba8","6657932046bfec296554efe2","1326","stimuli/1111101.jpg","2","","prediction_trial","0","","false","","1","true","true","false","false","false","false","[2,1,0]","111","101","0","","","","","","",""
"","","","","","image-keyboard-response","157","384914","0.0-132.0","5bac1d9dc1155b0001175e55","665500ab8938657b03fbdba8","6657932046bfec296554efe2","581","stimuli/11111010.jpg"," ","","feedback_trial","2","","","","","","","","","","","","","","","","","","","","",""
"","","","","","image-keyboard-response","158","385928","0.0-133.0","5bac1d9dc1155b0001175e55","665500ab8938657b03fbdba8","6657932046bfec296554efe2","1011","stimuli/0010001.jpg","0","","prediction_trial","0","","true","","0","true","true","true","true","true","true","[0]","010","001","1","","","","","","",""
"","","","","","image-keyboard-response","159","386265","0.0-134.0","5bac1d9dc1155b0001175e55","665500ab8938657b03fbdba8","6657932046bfec296554efe2","334","stimuli/00100010.jpg"," ","","feedback_trial","0","","","","","","","","","","","","","","","","","","","","",""
"","","","","","image-keyboard-response","160","387440","0.0-135.0","5bac1d9dc1155b0001175e55","665500ab8938657b03fbdba8","6657932046bfec296554efe2","1172","stimuli/1000001.jpg","1","","prediction_trial","1","","true","","1","true","true","true","true","true","true","[1]","000","001","1","","","","","","",""
"","","","","","image-keyboard-response","161","387824","0.0-136.0","5bac1d9dc1155b0001175e55","665500ab8938657b03fbdba8","6657932046bfec296554efe2","381","stimuli/10000011.jpg"," ","","feedback_trial","1","","","","","","","","","","","","","","","","","","","","",""
"","","","","","image-keyboard-response","162","389976","0.0-137.0","5bac1d9dc1155b0001175e55","665500ab8938657b03fbdba8","6657932046bfec296554efe2","2150","stimuli/2100101.jpg","0","","prediction_trial","2","","false","","2","false","false","true","true","false","false","[2]","100","101","0","","","","","","",""
"","","","","","image-keyboard-response","163","390473","0.0-138.0","5bac1d9dc1155b0001175e55","665500ab8938657b03fbdba8","6657932046bfec296554efe2","495","stimuli/21001012.jpg"," ","","feedback_trial","2","","","","","","","","","","","","","","","","","","","","",""
"","","","","","image-keyboard-response","164","392001","0.0-139.0","5bac1d9dc1155b0001175e55","665500ab8938657b03fbdba8","6657932046bfec296554efe2","1525","stimuli/1011000.jpg","1","","prediction_trial","2","","false","","1","true","true","false","false","false","false","[2,1]","011","000","0","","","","","","",""
"","","","","","image-keyboard-response","165","392515","0.0-140.0","5bac1d9dc1155b0001175e55","665500ab8938657b03fbdba8","6657932046bfec296554efe2","512","stimuli/10110002.jpg"," ","","feedback_trial","2","","","","","","","","","","","","","","","","","","","","",""
"","","","","","image-keyboard-response","166","393609","0.0-141.0","5bac1d9dc1155b0001175e55","665500ab8938657b03fbdba8","6657932046bfec296554efe2","1092","stimuli/1101100.jpg","1","","prediction_trial","1","","true","","1","true","true","true","true","true","true","[1]","101","100","1","","","","","","",""
"","","","","","image-keyboard-response","167","393956","0.0-142.0","5bac1d9dc1155b0001175e55","665500ab8938657b03fbdba8","6657932046bfec296554efe2","345","stimuli/11011001.jpg"," ","","feedback_trial","1","","","","","","","","","","","","","","","","","","","","",""
"","","","","","image-keyboard-response","168","394959","0.0-143.0","5bac1d9dc1155b0001175e55","665500ab8938657b03fbdba8","6657932046bfec296554efe2","1000","stimuli/2000001.jpg","2","","prediction_trial","2","","true","","2","false","true","true","true","false","true","[2]","000","001","1","","","","","","",""
"","","","","","image-keyboard-response","169","395427","0.0-144.0","5bac1d9dc1155b0001175e55","665500ab8938657b03fbdba8","6657932046bfec296554efe2","466","stimuli/20000012.jpg"," ","","feedback_trial","2","","","","","","","","","","","","","","","","","","","","",""
"","","","","","image-keyboard-response","170","396934","0.0-145.0","5bac1d9dc1155b0001175e55","665500ab8938657b03fbdba8","6657932046bfec296554efe2","1505","stimuli/0101110.jpg","1","","prediction_trial","0","","false","","0","false","false","false","false","false","false","[0,2]","101","110","0","","","","","","",""
"","","","","","image-keyboard-response","171","397439","0.0-146.0","5bac1d9dc1155b0001175e55","665500ab8938657b03fbdba8","6657932046bfec296554efe2","502","stimuli/01011100.jpg"," ","","feedback_trial","0","","","","","","","","","","","","","","","","","","","","",""
"","","","","","image-keyboard-response","172","398809","0.0-147.0","5bac1d9dc1155b0001175e55","665500ab8938657b03fbdba8","6657932046bfec296554efe2","1367","stimuli/1110101.jpg","1","","prediction_trial","1","","true","","1","true","true","false","false","false","false","[1,0]","110","101","1","","","","","","",""
"","","","","","image-keyboard-response","173","399250","0.0-148.0","5bac1d9dc1155b0001175e55","665500ab8938657b03fbdba8","6657932046bfec296554efe2","439","stimuli/11101011.jpg"," ","","feedback_trial","1","","","","","","","","","","","","","","","","","","","","",""
"","","","","","image-keyboard-response","174","400278","0.0-149.0","5bac1d9dc1155b0001175e55","665500ab8938657b03fbdba8","6657932046bfec296554efe2","1025","stimuli/1100100.jpg","1","","prediction_trial","1","","true","","1","true","true","true","true","true","true","[1]","100","100","1","","","","","","",""
"","","","","","image-keyboard-response","175","400674","0.0-150.0","5bac1d9dc1155b0001175e55","665500ab8938657b03fbdba8","6657932046bfec296554efe2","393","stimuli/11001001.jpg"," ","","feedback_trial","1","","","","","","","","","","","","","","","","","","","","",""
"","","","","","image-keyboard-response","176","402127","0.0-151.0","5bac1d9dc1155b0001175e55","665500ab8938657b03fbdba8","6657932046bfec296554efe2","1451","stimuli/2001001.jpg","2","","prediction_trial","2","","true","","2","false","true","false","true","false","true","[2]","001","001","1","","","","","","",""
"","","","","","image-keyboard-response","177","402611","0.0-152.0","5bac1d9dc1155b0001175e55","665500ab8938657b03fbdba8","6657932046bfec296554efe2","481","stimuli/20010012.jpg"," ","","feedback_trial","2","","","","","","","","","","","","","","","","","","","","",""
"","","","","","image-keyboard-response","178","404783","0.0-153.0","5bac1d9dc1155b0001175e55","665500ab8938657b03fbdba8","6657932046bfec296554efe2","2169","stimuli/0100101.jpg","2","","prediction_trial","0","","false","","0","false","false","false","true","false","false","[0]","100","101","0","","","","","","",""
"","","","","","image-keyboard-response","179","405280","0.0-154.0","5bac1d9dc1155b0001175e55","665500ab8938657b03fbdba8","6657932046bfec296554efe2","495","stimuli/01001010.jpg"," ","","feedback_trial","0","","","","","","","","","","","","","","","","","","","","",""
"","","","","","image-keyboard-response","180","406691","0.0-155.0","5bac1d9dc1155b0001175e55","665500ab8938657b03fbdba8","6657932046bfec296554efe2","1408","stimuli/0100011.jpg","0","","prediction_trial","0","","true","","0","true","true","false","true","false","true","[0]","100","011","1","","","","","","",""
"","","","","","image-keyboard-response","181","407126","0.0-156.0","5bac1d9dc1155b0001175e55","665500ab8938657b03fbdba8","6657932046bfec296554efe2","433","stimuli/01000110.jpg"," ","","feedback_trial","0","","","","","","","","","","","","","","","","","","","","",""
"","","","","","image-keyboard-response","182","408292","0.0-157.0","5bac1d9dc1155b0001175e55","665500ab8938657b03fbdba8","6657932046bfec296554efe2","1163","stimuli/1111111.jpg","1","","prediction_trial","2","","false","","1","false","false","false","false","false","false","[2,0,1]","111","111","0","","","","","","",""
"","","","","","image-keyboard-response","183","408794","0.0-158.0","5bac1d9dc1155b0001175e55","665500ab8938657b03fbdba8","6657932046bfec296554efe2","499","stimuli/11111112.jpg"," ","","feedback_trial","2","","","","","","","","","","","","","","","","","","","","",""
"","","","","","image-keyboard-response","184","410096","0.0-159.0","5bac1d9dc1155b0001175e55","665500ab8938657b03fbdba8","6657932046bfec296554efe2","1301","stimuli/1110010.jpg","1","","prediction_trial","0","","false","","1","false","true","false","false","false","false","[0,1]","110","010","0","","","","","","",""
"","","","","","image-keyboard-response","185","410795","0.0-160.0","5bac1d9dc1155b0001175e55","665500ab8938657b03fbdba8","6657932046bfec296554efe2","696","stimuli/11100100.jpg"," ","","feedback_trial","0","","","","","","","","","","","","","","","","","","","","",""
"","","","","","image-keyboard-response","186","412182","0.0-161.0","5bac1d9dc1155b0001175e55","665500ab8938657b03fbdba8","6657932046bfec296554efe2","1386","stimuli/2011001.jpg","2","","prediction_trial","2","","true","","2","false","true","false","false","false","false","[2,1]","011","001","1","","","","","","",""
"","","","","","image-keyboard-response","187","412924","0.0-162.0","5bac1d9dc1155b0001175e55","665500ab8938657b03fbdba8","6657932046bfec296554efe2","739","stimuli/20110012.jpg"," ","","feedback_trial","2","","","","","","","","","","","","","","","","","","","","",""
"","","","","","image-keyboard-response","188","414643","0.0-163.0","5bac1d9dc1155b0001175e55","665500ab8938657b03fbdba8","6657932046bfec296554efe2","1717","stimuli/0001110.jpg","1","","prediction_trial","0","","false","","0","false","false","true","true","false","false","[0]","001","110","0","","","","","","",""
"","","","","","image-keyboard-response","189","415193","0.0-164.0","5bac1d9dc1155b0001175e55","665500ab8938657b03fbdba8","6657932046bfec296554efe2","548","stimuli/00011100.jpg"," ","","feedback_trial","0","","","","","","","","","","","","","","","","","","","","",""
"","","","","","image-keyboard-response","190","418185","0.0-165.0","5bac1d9dc1155b0001175e55","665500ab8938657b03fbdba8","6657932046bfec296554efe2","2989","stimuli/1111010.jpg","1","","prediction_trial","0","","false","","1","false","true","false","false","false","false","[2,1,0]","111","010","0","","","","","","",""
"","","","","","image-keyboard-response","191","418736","0.0-166.0","5bac1d9dc1155b0001175e55","665500ab8938657b03fbdba8","6657932046bfec296554efe2","550","stimuli/11110100.jpg"," ","","feedback_trial","2","","","","","","","","","","","","","","","","","","","","",""
"","","","","","image-keyboard-response","192","419832","0.0-167.0","5bac1d9dc1155b0001175e55","665500ab8938657b03fbdba8","6657932046bfec296554efe2","1094","stimuli/0100010.jpg","0","","prediction_trial","0","","true","","0","true","true","false","true","false","true","[0]","100","010","1","","","","","","",""
"","","","","","image-keyboard-response","193","420232","0.0-168.0","5bac1d9dc1155b0001175e55","665500ab8938657b03fbdba8","6657932046bfec296554efe2","397","stimuli/01000100.jpg"," ","","feedback_trial","0","","","","","","","","","","","","","","","","","","","","",""
"","","","","","image-keyboard-response","194","421714","0.0-169.0","5bac1d9dc1155b0001175e55","665500ab8938657b03fbdba8","6657932046bfec296554efe2","1479","stimuli/2010001.jpg","2","","prediction_trial","2","","true","","2","false","true","true","true","false","true","[2]","010","001","1","","","","","","",""
"","","","","","image-keyboard-response","195","422284","0.0-170.0","5bac1d9dc1155b0001175e55","665500ab8938657b03fbdba8","6657932046bfec296554efe2","567","stimuli/20100012.jpg"," ","","feedback_trial","2","","","","","","","","","","","","","","","","","","","","",""
"","","","","","image-keyboard-response","196","423537","0.0-171.0","5bac1d9dc1155b0001175e55","665500ab8938657b03fbdba8","6657932046bfec296554efe2","1251","stimuli/0110010.jpg","0","","prediction_trial","0","","true","","0","true","true","false","false","false","false","[0,1]","110","010","1","","","","","","",""
"","","","","","image-keyboard-response","197","423993","0.0-172.0","5bac1d9dc1155b0001175e55","665500ab8938657b03fbdba8","6657932046bfec296554efe2","452","stimuli/01100100.jpg"," ","","feedback_trial","0","","","","","","","","","","","","","","","","","","","","",""
"","","","","","image-keyboard-response","198","425763","0.0-173.0","5bac1d9dc1155b0001175e55","665500ab8938657b03fbdba8","6657932046bfec296554efe2","1768","stimuli/0110011.jpg","1","","prediction_trial","0","","false","","0","true","true","false","false","false","false","[1,0]","110","011","0","","","","","","",""
"","","","","","image-keyboard-response","199","426282","0.0-174.0","5bac1d9dc1155b0001175e55","665500ab8938657b03fbdba8","6657932046bfec296554efe2","516","stimuli/01100110.jpg"," ","","feedback_trial","1","","","","","","","","","","","","","","","","","","","","",""
"","","","","","image-keyboard-response","200","427424","0.0-175.0","5bac1d9dc1155b0001175e55","665500ab8938657b03fbdba8","6657932046bfec296554efe2","1140","stimuli/0011100.jpg","0","","prediction_trial","0","","true","","0","false","true","true","true","false","true","[0]","011","100","1","","","","","","",""
"","","","","","image-keyboard-response","201","427805","0.0-176.0","5bac1d9dc1155b0001175e55","665500ab8938657b03fbdba8","6657932046bfec296554efe2","379","stimuli/00111000.jpg"," ","","feedback_trial","0","","","","","","","","","","","","","","","","","","","","",""
"","","","","","image-keyboard-response","202","428828","0.0-177.0","5bac1d9dc1155b0001175e55","665500ab8938657b03fbdba8","6657932046bfec296554efe2","1021","stimuli/2110001.jpg","2","","prediction_trial","2","","true","","2","false","true","true","true","false","true","[2]","110","001","1","","","","","","",""
"","","","","","image-keyboard-response","203","429210","0.0-178.0","5bac1d9dc1155b0001175e55","665500ab8938657b03fbdba8","6657932046bfec296554efe2","379","stimuli/21100012.jpg"," ","","feedback_trial","2","","","","","","","","","","","","","","","","","","","","",""
"","","","","","image-keyboard-response","204","431666","0.0-179.0","5bac1d9dc1155b0001175e55","665500ab8938657b03fbdba8","6657932046bfec296554efe2","2454","stimuli/1000011.jpg","1","","prediction_trial","1","","true","","1","false","false","true","true","false","false","[1]","000","011","1","","","","","","",""
"","","","","","image-keyboard-response","205","432199","0.0-180.0","5bac1d9dc1155b0001175e55","665500ab8938657b03fbdba8","6657932046bfec296554efe2","532","stimuli/10000111.jpg"," ","","feedback_trial","1","","","","","","","","","","","","","","","","","","","","",""
"","","","","","image-keyboard-response","206","433433","0.0-181.0","5bac1d9dc1155b0001175e55","665500ab8938657b03fbdba8","6657932046bfec296554efe2","1232","stimuli/1010000.jpg","1","","prediction_trial","1","","true","","1","true","true","false","true","false","true","[1]","010","000","1","","","","","","",""
"","","","","","image-keyboard-response","207","433754","0.0-182.0","5bac1d9dc1155b0001175e55","665500ab8938657b03fbdba8","6657932046bfec296554efe2","318","stimuli/10100001.jpg"," ","","feedback_trial","1","","","","","","","","","","","","","","","","","","","","",""
"","","","","","image-keyboard-response","208","434550","0.0-183.0","5bac1d9dc1155b0001175e55","665500ab8938657b03fbdba8","6657932046bfec296554efe2","793","stimuli/1101000.jpg","1","","prediction_trial","1","","true","","1","true","true","true","true","true","true","[1]","101","000","1","","","","","","",""
"","","","","","image-keyboard-response","209","434988","0.0-184.0","5bac1d9dc1155b0001175e55","665500ab8938657b03fbdba8","6657932046bfec296554efe2","434","stimuli/11010001.jpg"," ","","feedback_trial","1","","","","","","","","","","","","","","","","","","","","",""
"","","","","","image-keyboard-response","210","436827","0.0-185.0","5bac1d9dc1155b0001175e55","665500ab8938657b03fbdba8","6657932046bfec296554efe2","1836","stimuli/1010011.jpg","1","","prediction_trial","1","","true","","1","false","false","false","true","false","false","[1]","010","011","1","","","","","","",""
"","","","","","image-keyboard-response","211","437355","0.0-186.0","5bac1d9dc1155b0001175e55","665500ab8938657b03fbdba8","6657932046bfec296554efe2","526","stimuli/10100111.jpg"," ","","feedback_trial","1","","","","","","","","","","","","","","","","","","","","",""
"","","","","","image-keyboard-response","212","438297","0.0-187.0","5bac1d9dc1155b0001175e55","665500ab8938657b03fbdba8","6657932046bfec296554efe2","939","stimuli/2110010.jpg","2","","prediction_trial","2","","true","","2","true","true","true","true","true","true","[2]","110","010","1","","","","","","",""
"","","","","","image-keyboard-response","213","438665","0.0-188.0","5bac1d9dc1155b0001175e55","665500ab8938657b03fbdba8","6657932046bfec296554efe2","365","stimuli/21100102.jpg"," ","","feedback_trial","2","","","","","","","","","","","","","","","","","","","","",""
"","","","","","image-keyboard-response","214","439535","0.0-189.0","5bac1d9dc1155b0001175e55","665500ab8938657b03fbdba8","6657932046bfec296554efe2","868","stimuli/2010010.jpg","2","","prediction_trial","2","","true","","2","true","true","true","true","true","true","[2]","010","010","1","","","","","","",""
"","","","","","image-keyboard-response","215","439928","0.0-190.0","5bac1d9dc1155b0001175e55","665500ab8938657b03fbdba8","6657932046bfec296554efe2","389","stimuli/20100102.jpg"," ","","feedback_trial","2","","","","","","","","","","","","","","","","","","","","",""
"","","","","","image-keyboard-response","216","440878","0.0-191.0","5bac1d9dc1155b0001175e55","665500ab8938657b03fbdba8","6657932046bfec296554efe2","948","stimuli/1001100.jpg","1","","prediction_trial","1","","true","","1","true","true","true","true","true","true","[1]","001","100","1","","","","","","",""
"","","","","","image-keyboard-response","217","441235","0.0-192.0","5bac1d9dc1155b0001175e55","665500ab8938657b03fbdba8","6657932046bfec296554efe2","354","stimuli/10011001.jpg"," ","","feedback_trial","1","","","","","","","","","","","","","","","","","","","","",""
"","","","","","image-keyboard-response","218","443625","0.0-193.0","5bac1d9dc1155b0001175e55","665500ab8938657b03fbdba8","6657932046bfec296554efe2","2388","stimuli/1011100.jpg","1","","prediction_trial","2","","false","","1","true","true","false","false","false","false","[1,2]","011","100","0","","","","","","",""
"","","","","","image-keyboard-response","219","444196","0.0-194.0","5bac1d9dc1155b0001175e55","665500ab8938657b03fbdba8","6657932046bfec296554efe2","569","stimuli/10111002.jpg"," ","","feedback_trial","1","","","","","","","","","","","","","","","","","","","","",""
"","","","","","image-keyboard-response","220","445358","0.0-195.0","5bac1d9dc1155b0001175e55","665500ab8938657b03fbdba8","6657932046bfec296554efe2","1158","stimuli/1000010.jpg","1","","prediction_trial","1","","true","","1","false","true","true","true","false","true","[1]","000","010","1","","","","","","",""
"","","","","","image-keyboard-response","221","445726","0.0-196.0","5bac1d9dc1155b0001175e55","665500ab8938657b03fbdba8","6657932046bfec296554efe2","367","stimuli/10000101.jpg"," ","","feedback_trial","1","","","","","","","","","","","","","","","","","","","","",""
"","","","","","image-keyboard-response","222","446467","0.0-197.0","5bac1d9dc1155b0001175e55","665500ab8938657b03fbdba8","6657932046bfec296554efe2","739","stimuli/1101110.jpg","1","","prediction_trial","1","","true","","1","false","false","true","true","false","false","[1]","101","110","1","","","","","","",""
"","","","","","image-keyboard-response","223","447008","0.0-198.0","5bac1d9dc1155b0001175e55","665500ab8938657b03fbdba8","6657932046bfec296554efe2","538","stimuli/11011101.jpg"," ","","feedback_trial","1","","","","","","","","","","","","","","","","","","","","",""
"","","","","","image-keyboard-response","224","448343","0.0-199.0","5bac1d9dc1155b0001175e55","665500ab8938657b03fbdba8","6657932046bfec296554efe2","1333","stimuli/0010111.jpg","2","","prediction_trial","0","","false","","0","false","false","true","true","false","false","[0]","010","111","0","","","","","","",""
"","","","","","image-keyboard-response","225","448868","0.0-200.0","5bac1d9dc1155b0001175e55","665500ab8938657b03fbdba8","6657932046bfec296554efe2","522","stimuli/00101110.jpg"," ","","feedback_trial","0","","","","","","","","","","","","","","","","","","","","",""
"","","","","","image-keyboard-response","226","449865","0.0-201.0","5bac1d9dc1155b0001175e55","665500ab8938657b03fbdba8","6657932046bfec296554efe2","993","stimuli/2110000.jpg","2","","prediction_trial","2","","true","","2","true","true","true","true","true","true","[2]","110","000","1","","","","","","",""
"","","","","","image-keyboard-response","227","450238","0.0-202.0","5bac1d9dc1155b0001175e55","665500ab8938657b03fbdba8","6657932046bfec296554efe2","370","stimuli/21100002.jpg"," ","","feedback_trial","2","","","","","","","","","","","","","","","","","","","","",""
"","","","","","image-keyboard-response","228","451346","0.0-203.0","5bac1d9dc1155b0001175e55","665500ab8938657b03fbdba8","6657932046bfec296554efe2","1105","stimuli/1010110.jpg","1","","prediction_trial","1","","true","","1","false","false","false","true","false","false","[1]","010","110","1","","","","","","",""
"","","","","","image-keyboard-response","229","451841","0.0-204.0","5bac1d9dc1155b0001175e55","665500ab8938657b03fbdba8","6657932046bfec296554efe2","492","stimuli/10101101.jpg"," ","","feedback_trial","1","","","","","","","","","","","","","","","","","","","","",""
"","","","","","image-keyboard-response","230","452782","0.0-205.0","5bac1d9dc1155b0001175e55","665500ab8938657b03fbdba8","6657932046bfec296554efe2","939","stimuli/2110100.jpg","2","","prediction_trial","2","","true","","2","true","true","true","true","true","true","[2]","110","100","1","","","","","","",""
"","","","","","image-keyboard-response","231","453150","0.0-206.0","5bac1d9dc1155b0001175e55","665500ab8938657b03fbdba8","6657932046bfec296554efe2","366","stimuli/21101002.jpg"," ","","feedback_trial","2","","","","","","","","","","","","","","","","","","","","",""
"","","","","","image-keyboard-response","232","454028","0.0-207.0","5bac1d9dc1155b0001175e55","665500ab8938657b03fbdba8","6657932046bfec296554efe2","875","stimuli/1100001.jpg","1","","prediction_trial","1","","true","","1","true","true","true","true","true","true","[1]","100","001","1","","","","","","",""
"","","","","","image-keyboard-response","233","454367","0.0-208.0","5bac1d9dc1155b0001175e55","665500ab8938657b03fbdba8","6657932046bfec296554efe2","336","stimuli/11000011.jpg"," ","","feedback_trial","1","","","","","","","","","","","","","","","","","","","","",""
"","","","","","image-keyboard-response","234","459522","0.0-209.0","5bac1d9dc1155b0001175e55","665500ab8938657b03fbdba8","6657932046bfec296554efe2","5153","stimuli/2001111.jpg","2","","prediction_trial","2","","true","","2","false","false","false","true","false","false","[2]","001","111","1","","","","","","",""
"","","","","","image-keyboard-response","235","460114","0.0-210.0","5bac1d9dc1155b0001175e55","665500ab8938657b03fbdba8","6657932046bfec296554efe2","589","stimuli/20011112.jpg"," ","","feedback_trial","2","","","","","","","","","","","","","","","","","","","","",""
"","","","","","image-keyboard-response","236","461047","0.0-211.0","5bac1d9dc1155b0001175e55","665500ab8938657b03fbdba8","6657932046bfec296554efe2","931","stimuli/2010000.jpg","2","","prediction_trial","2","","true","","2","true","true","true","true","true","true","[2]","010","000","1","","","","","","",""
"","","","","","image-keyboard-response","237","461387","0.0-212.0","5bac1d9dc1155b0001175e55","665500ab8938657b03fbdba8","6657932046bfec296554efe2","337","stimuli/20100002.jpg"," ","","feedback_trial","2","","","","","","","","","","","","","","","","","","","","",""
"","","","","","image-keyboard-response","238","463979","0.0-213.0","5bac1d9dc1155b0001175e55","665500ab8938657b03fbdba8","6657932046bfec296554efe2","2589","stimuli/2011101.jpg","0","","prediction_trial","1","","false","","2","false","false","false","false","false","false","[2,1]","011","101","0","","","","","","",""
"","","","","","image-keyboard-response","239","464469","0.0-214.0","5bac1d9dc1155b0001175e55","665500ab8938657b03fbdba8","6657932046bfec296554efe2","488","stimuli/20111011.jpg"," ","","feedback_trial","2","","","","","","","","","","","","","","","","","","","","",""
"","","","","","image-keyboard-response","240","465572","0.0-215.0","5bac1d9dc1155b0001175e55","665500ab8938657b03fbdba8","6657932046bfec296554efe2","1097","stimuli/2011100.jpg","2","","prediction_trial","2","","true","","2","true","true","false","false","false","false","[2,1]","011","100","1","","","","","","",""
"","","","","","image-keyboard-response","241","466815","0.0-216.0","5bac1d9dc1155b0001175e55","665500ab8938657b03fbdba8","6657932046bfec296554efe2","1240","stimuli/20111002.jpg"," ","","feedback_trial","2","","","","","","","","","","","","","","","","","","","","",""
"","","","","","image-keyboard-response","242","468430","0.0-217.0","5bac1d9dc1155b0001175e55","665500ab8938657b03fbdba8","6657932046bfec296554efe2","1612","stimuli/0100000.jpg","0","","prediction_trial","0","","true","","0","true","true","false","true","false","true","[0]","100","000","1","","","","","","",""
"","","","","","image-keyboard-response","243","468761","0.0-218.0","5bac1d9dc1155b0001175e55","665500ab8938657b03fbdba8","6657932046bfec296554efe2","329","stimuli/01000000.jpg"," ","","feedback_trial","0","","","","","","","","","","","","","","","","","","","","",""
"","","","","","image-keyboard-response","244","469648","0.0-219.0","5bac1d9dc1155b0001175e55","665500ab8938657b03fbdba8","6657932046bfec296554efe2","885","stimuli/2010100.jpg","2","","prediction_trial","2","","true","","2","true","true","true","true","true","true","[2]","010","100","1","","","","","","",""
"","","","","","image-keyboard-response","245","470103","0.0-220.0","5bac1d9dc1155b0001175e55","665500ab8938657b03fbdba8","6657932046bfec296554efe2","452","stimuli/20101002.jpg"," ","","feedback_trial","2","","","","","","","","","","","","","","","","","","","","",""
"","","","","","image-keyboard-response","246","471122","0.0-221.0","5bac1d9dc1155b0001175e55","665500ab8938657b03fbdba8","6657932046bfec296554efe2","1016","stimuli/1101101.jpg","1","","prediction_trial","1","","true","","1","true","true","true","true","true","true","[1]","101","101","1","","","","","","",""
"","","","","","image-keyboard-response","247","471441","0.0-222.0","5bac1d9dc1155b0001175e55","665500ab8938657b03fbdba8","6657932046bfec296554efe2","316","stimuli/11011011.jpg"," ","","feedback_trial","1","","","","","","","","","","","","","","","","","","","","",""
"","","","","","image-keyboard-response","248","472707","0.0-223.0","5bac1d9dc1155b0001175e55","665500ab8938657b03fbdba8","6657932046bfec296554efe2","1263","stimuli/0000011.jpg","0","","prediction_trial","0","","true","","0","true","true","true","true","true","true","[0]","000","011","1","","","","","","",""
"","","","","","image-keyboard-response","249","473061","0.0-224.0","5bac1d9dc1155b0001175e55","665500ab8938657b03fbdba8","6657932046bfec296554efe2","351","stimuli/00000110.jpg"," ","","feedback_trial","0","","","","","","","","","","","","","","","","","","","","",""
"","","","","","image-keyboard-response","250","473933","0.0-225.0","5bac1d9dc1155b0001175e55","665500ab8938657b03fbdba8","6657932046bfec296554efe2","870","stimuli/1100101.jpg","1","","prediction_trial","1","","true","","1","true","true","true","true","true","true","[1]","100","101","1","","","","","","",""
"","","","","","image-keyboard-response","251","474320","0.0-226.0","5bac1d9dc1155b0001175e55","665500ab8938657b03fbdba8","6657932046bfec296554efe2","382","stimuli/11001011.jpg"," ","","feedback_trial","1","","","","","","","","","","","","","","","","","","","","",""
"","","","","","image-keyboard-response","252","475650","0.0-227.0","5bac1d9dc1155b0001175e55","665500ab8938657b03fbdba8","6657932046bfec296554efe2","1327","stimuli/0001010.jpg","0","","prediction_trial","0","","true","","0","true","true","true","true","true","true","[0]","001","010","1","","","","","","",""
"","","","","","image-keyboard-response","253","476026","0.0-228.0","5bac1d9dc1155b0001175e55","665500ab8938657b03fbdba8","6657932046bfec296554efe2","372","stimuli/00010100.jpg"," ","","feedback_trial","0","","","","","","","","","","","","","","","","","","","","",""
"","","","","","image-keyboard-response","254","478019","0.0-229.0","5bac1d9dc1155b0001175e55","665500ab8938657b03fbdba8","6657932046bfec296554efe2","1990","stimuli/0001111.jpg","0","","prediction_trial","0","","true","","0","false","false","true","true","false","false","[0]","001","111","1","","","","","","",""
"","","","","","image-keyboard-response","255","478520","0.0-230.0","5bac1d9dc1155b0001175e55","665500ab8938657b03fbdba8","6657932046bfec296554efe2","494","stimuli/00011110.jpg"," ","","feedback_trial","0","","","","","","","","","","","","","","","","","","","","",""
"","","","","","image-keyboard-response","256","480598","0.0-231.0","5bac1d9dc1155b0001175e55","665500ab8938657b03fbdba8","6657932046bfec296554efe2","2074","stimuli/2010011.jpg","2","","prediction_trial","2","","true","","2","false","false","true","true","false","false","[2]","010","011","1","","","","","","",""
"","","","","","image-keyboard-response","257","481061","0.0-232.0","5bac1d9dc1155b0001175e55","665500ab8938657b03fbdba8","6657932046bfec296554efe2","461","stimuli/20100112.jpg"," ","","feedback_trial","2","","","","","","","","","","","","","","","","","","","","",""
"","","","","","image-keyboard-response","258","482146","0.0-233.0","5bac1d9dc1155b0001175e55","665500ab8938657b03fbdba8","6657932046bfec296554efe2","1082","stimuli/2010111.jpg","1","","prediction_trial","2","","false","","2","false","false","true","true","false","false","[2]","010","111","0","","","","","","",""
"","","","","","image-keyboard-response","259","482742","0.0-234.0","5bac1d9dc1155b0001175e55","665500ab8938657b03fbdba8","6657932046bfec296554efe2","594","stimuli/20101112.jpg"," ","","feedback_trial","2","","","","","","","","","","","","","","","","","","","","",""
"","","","","","image-keyboard-response","260","484002","0.0-235.0","5bac1d9dc1155b0001175e55","665500ab8938657b03fbdba8","6657932046bfec296554efe2","1257","stimuli/0011011.jpg","0","","prediction_trial","0","","true","","0","true","true","true","true","true","true","[0]","011","011","1","","","","","","",""
"","","","","","image-keyboard-response","261","484314","0.0-236.0","5bac1d9dc1155b0001175e55","665500ab8938657b03fbdba8","6657932046bfec296554efe2","311","stimuli/00110110.jpg"," ","","feedback_trial","0","","","","","","","","","","","","","","","","","","","","",""
"","","","","","image-keyboard-response","262","485480","0.0-237.0","5bac1d9dc1155b0001175e55","665500ab8938657b03fbdba8","6657932046bfec296554efe2","1163","stimuli/0101001.jpg","0","","prediction_trial","2","","false","","0","true","true","false","false","false","false","[2,0]","101","001","0","","","","","","",""
"","","","","","image-keyboard-response","263","486342","0.0-238.0","5bac1d9dc1155b0001175e55","665500ab8938657b03fbdba8","6657932046bfec296554efe2","860","stimuli/01010012.jpg"," ","","feedback_trial","2","","","","","","","","","","","","","","","","","","","","",""
"","","","","","image-keyboard-response","264","488040","0.0-239.0","5bac1d9dc1155b0001175e55","665500ab8938657b03fbdba8","6657932046bfec296554efe2","1696","stimuli/0000101.jpg","0","","prediction_trial","0","","true","","0","false","false","true","true","false","false","[0]","000","101","1","","","","","","",""
"","","","","","image-keyboard-response","265","488505","0.0-240.0","5bac1d9dc1155b0001175e55","665500ab8938657b03fbdba8","6657932046bfec296554efe2","463","stimuli/00001010.jpg"," ","","feedback_trial","0","","","","","","","","","","","","","","","","","","","","",""
"","","","","","image-keyboard-response","266","489572","0.0-241.0","5bac1d9dc1155b0001175e55","665500ab8938657b03fbdba8","6657932046bfec296554efe2","1064","stimuli/1000101.jpg","1","","prediction_trial","1","","true","","1","true","true","true","true","true","true","[1]","000","101","1","","","","","","",""
"","","","","","image-keyboard-response","267","489900","0.0-242.0","5bac1d9dc1155b0001175e55","665500ab8938657b03fbdba8","6657932046bfec296554efe2","324","stimuli/10001011.jpg"," ","","feedback_trial","1","","","","","","","","","","","","","","","","","","","","",""
"","","","","","image-keyboard-response","268","490778","0.0-243.0","5bac1d9dc1155b0001175e55","665500ab8938657b03fbdba8","6657932046bfec296554efe2","875","stimuli/2000010.jpg","2","","prediction_trial","2","","true","","2","true","true","true","true","true","true","[2]","000","010","1","","","","","","",""
"","","","","","image-keyboard-response","269","491145","0.0-244.0","5bac1d9dc1155b0001175e55","665500ab8938657b03fbdba8","6657932046bfec296554efe2","365","stimuli/20000102.jpg"," ","","feedback_trial","2","","","","","","","","","","","","","","","","","","","","",""
"","","","","","image-keyboard-response","270","492176","0.0-245.0","5bac1d9dc1155b0001175e55","665500ab8938657b03fbdba8","6657932046bfec296554efe2","1028","stimuli/1001001.jpg","1","","prediction_trial","1","","true","","1","true","true","true","true","true","true","[1]","001","001","1","","","","","","",""
"","","","","","image-keyboard-response","271","492551","0.0-246.0","5bac1d9dc1155b0001175e55","665500ab8938657b03fbdba8","6657932046bfec296554efe2","373","stimuli/10010011.jpg"," ","","feedback_trial","1","","","","","","","","","","","","","","","","","","","","",""
"","","","","","image-keyboard-response","272","493527","0.0-247.0","5bac1d9dc1155b0001175e55","665500ab8938657b03fbdba8","6657932046bfec296554efe2","973","stimuli/0010011.jpg","0","","prediction_trial","0","","true","","0","true","true","true","true","true","true","[0]","010","011","1","","","","","","",""
"","","","","","image-keyboard-response","273","493841","0.0-248.0","5bac1d9dc1155b0001175e55","665500ab8938657b03fbdba8","6657932046bfec296554efe2","311","stimuli/00100110.jpg"," ","","feedback_trial","0","","","","","","","","","","","","","","","","","","","","",""
"","","","","","image-keyboard-response","274","495164","0.0-249.0","5bac1d9dc1155b0001175e55","665500ab8938657b03fbdba8","6657932046bfec296554efe2","1320","stimuli/2110101.jpg","2","","prediction_trial","2","","true","","2","false","false","true","true","false","false","[2]","110","101","1","","","","","","",""
"","","","","","image-keyboard-response","275","495882","0.0-250.0","5bac1d9dc1155b0001175e55","665500ab8938657b03fbdba8","6657932046bfec296554efe2","716","stimuli/21101012.jpg"," ","","feedback_trial","2","","","","","","","","","","","","","","","","","","","","",""
"","","","","","image-keyboard-response","276","497781","0.0-251.0","5bac1d9dc1155b0001175e55","665500ab8938657b03fbdba8","6657932046bfec296554efe2","1896","stimuli/2111001.jpg","2","","prediction_trial","1","","false","","2","false","true","false","false","false","false","[2,1,0]","111","001","0","","","","","","",""
"","","","","","image-keyboard-response","277","498861","0.0-252.0","5bac1d9dc1155b0001175e55","665500ab8938657b03fbdba8","6657932046bfec296554efe2","1077","stimuli/21110011.jpg"," ","","feedback_trial","2","","","","","","","","","","","","","","","","","","","","",""
"","","","","","image-keyboard-response","278","499871","0.0-253.0","5bac1d9dc1155b0001175e55","665500ab8938657b03fbdba8","6657932046bfec296554efe2","1008","stimuli/2100010.jpg","2","","prediction_trial","2","","true","","2","true","true","true","true","true","true","[2]","100","010","1","","","","","","",""
"","","","","","image-keyboard-response","279","500338","0.0-254.0","5bac1d9dc1155b0001175e55","665500ab8938657b03fbdba8","6657932046bfec296554efe2","462","stimuli/21000102.jpg"," ","","feedback_trial","2","","","","","","","","","","","","","","","","","","","","",""
"","","","","","image-keyboard-response","280","502587","0.0-255.0","5bac1d9dc1155b0001175e55","665500ab8938657b03fbdba8","6657932046bfec296554efe2","2246","stimuli/0100111.jpg","1","","prediction_trial","0","","false","","0","false","false","false","true","false","false","[0]","100","111","0","","","","","","",""
"","","","","","image-keyboard-response","281","503066","0.0-256.0","5bac1d9dc1155b0001175e55","665500ab8938657b03fbdba8","6657932046bfec296554efe2","475","stimuli/01001110.jpg"," ","","feedback_trial","0","","","","","","","","","","","","","","","","","","","","",""
"","","","","","image-keyboard-response","282","504142","0.0-257.0","5bac1d9dc1155b0001175e55","665500ab8938657b03fbdba8","6657932046bfec296554efe2","1074","stimuli/0001000.jpg","0","","prediction_trial","0","","true","","0","true","true","true","true","true","true","[0]","001","000","1","","","","","","",""
"","","","","","image-keyboard-response","283","504457","0.0-258.0","5bac1d9dc1155b0001175e55","665500ab8938657b03fbdba8","6657932046bfec296554efe2","312","stimuli/00010000.jpg"," ","","feedback_trial","0","","","","","","","","","","","","","","","","","","","","",""
"","","","","","image-keyboard-response","284","505726","0.0-259.0","5bac1d9dc1155b0001175e55","665500ab8938657b03fbdba8","6657932046bfec296554efe2","1267","stimuli/0010110.jpg","1","","prediction_trial","0","","false","","0","false","false","true","true","false","false","[0]","010","110","0","","","","","","",""
"","","","","","image-keyboard-response","285","506253","0.0-260.0","5bac1d9dc1155b0001175e55","665500ab8938657b03fbdba8","6657932046bfec296554efe2","525","stimuli/00101100.jpg"," ","","feedback_trial","0","","","","","","","","","","","","","","","","","","","","",""
"","","","","","image-keyboard-response","286","508077","0.0-261.0","5bac1d9dc1155b0001175e55","665500ab8938657b03fbdba8","6657932046bfec296554efe2","1820","stimuli/1111100.jpg","1","","prediction_trial","1","","true","","1","true","true","false","false","false","false","[2,1,0]","111","100","1","","","","","","",""
"","","","","","image-keyboard-response","287","508495","0.0-262.0","5bac1d9dc1155b0001175e55","665500ab8938657b03fbdba8","6657932046bfec296554efe2","416","stimuli/11111001.jpg"," ","","feedback_trial","2","","","","","","","","","","","","","","","","","","","","",""
"","","","","","image-keyboard-response","288","509417","0.0-263.0","5bac1d9dc1155b0001175e55","665500ab8938657b03fbdba8","6657932046bfec296554efe2","919","stimuli/2100100.jpg","2","","prediction_trial","2","","true","","2","true","true","true","true","true","true","[2]","100","100","1","","","","","","",""
"","","","","","image-keyboard-response","289","509805","0.0-264.0","5bac1d9dc1155b0001175e55","665500ab8938657b03fbdba8","6657932046bfec296554efe2","387","stimuli/21001002.jpg"," ","","feedback_trial","2","","","","","","","","","","","","","","","","","","","","",""
"","","","","","image-keyboard-response","290","511298","0.0-265.0","5bac1d9dc1155b0001175e55","665500ab8938657b03fbdba8","6657932046bfec296554efe2","1490","stimuli/2101111.jpg","1","","prediction_trial","2","","false","","2","false","false","false","false","false","false","[0,2]","101","111","0","","","","","","",""
"","","","","","image-keyboard-response","291","511806","0.0-266.0","5bac1d9dc1155b0001175e55","665500ab8938657b03fbdba8","6657932046bfec296554efe2","505","stimuli/21011112.jpg"," ","","feedback_trial","0","","","","","","","","","","","","","","","","","","","","",""
"","","","","","image-keyboard-response","292","513008","0.0-267.0","5bac1d9dc1155b0001175e55","665500ab8938657b03fbdba8","6657932046bfec296554efe2","1199","stimuli/1001010.jpg","1","","prediction_trial","1","","true","","1","false","true","true","true","false","true","[1]","001","010","1","","","","","","",""
"","","","","","image-keyboard-response","293","513340","0.0-268.0","5bac1d9dc1155b0001175e55","665500ab8938657b03fbdba8","6657932046bfec296554efe2","329","stimuli/10010101.jpg"," ","","feedback_trial","1","","","","","","","","","","","","","","","","","","","","",""
"","","","","","image-keyboard-response","294","514964","0.0-269.0","5bac1d9dc1155b0001175e55","665500ab8938657b03fbdba8","6657932046bfec296554efe2","1621","stimuli/0011110.jpg","0","","prediction_trial","0","","true","","0","false","false","true","true","false","false","[0]","011","110","1","","","","","","",""
"","","","","","image-keyboard-response","295","515397","0.0-270.0","5bac1d9dc1155b0001175e55","665500ab8938657b03fbdba8","6657932046bfec296554efe2","431","stimuli/00111100.jpg"," ","","feedback_trial","0","","","","","","","","","","","","","","","","","","","","",""
"","","","","","image-keyboard-response","296","517116","0.0-271.0","5bac1d9dc1155b0001175e55","665500ab8938657b03fbdba8","6657932046bfec296554efe2","1716","stimuli/2101001.jpg","2","","prediction_trial","0","","false","","2","false","true","false","false","false","false","[0,2]","101","001","0","","","","","","",""
"","","","","","image-keyboard-response","297","518285","0.0-272.0","5bac1d9dc1155b0001175e55","665500ab8938657b03fbdba8","6657932046bfec296554efe2","1166","stimuli/21010010.jpg"," ","","feedback_trial","0","","","","","","","","","","","","","","","","","","","","",""
"","","","","","image-keyboard-response","298","520390","0.0-273.0","5bac1d9dc1155b0001175e55","665500ab8938657b03fbdba8","6657932046bfec296554efe2","2102","stimuli/1101111.jpg","1","","prediction_trial","1","","true","","1","false","false","true","true","false","false","[1]","101","111","1","","","","","","",""
"","","","","","image-keyboard-response","299","520881","0.0-274.0","5bac1d9dc1155b0001175e55","665500ab8938657b03fbdba8","6657932046bfec296554efe2","489","stimuli/11011111.jpg"," ","","feedback_trial","1","","","","","","","","","","","","","","","","","","","","",""
"","","","","","image-keyboard-response","300","522124","0.0-275.0","5bac1d9dc1155b0001175e55","665500ab8938657b03fbdba8","6657932046bfec296554efe2","1240","stimuli/1100110.jpg","1","","prediction_trial","1","","true","","1","false","false","true","true","false","false","[1]","100","110","1","","","","","","",""
"","","","","","image-keyboard-response","301","523434","0.0-276.0","5bac1d9dc1155b0001175e55","665500ab8938657b03fbdba8","6657932046bfec296554efe2","1307","stimuli/11001101.jpg"," ","","feedback_trial","1","","","","","","","","","","","","","","","","","","","","",""
"","","","","","image-keyboard-response","302","526003","0.0-277.0","5bac1d9dc1155b0001175e55","665500ab8938657b03fbdba8","6657932046bfec296554efe2","2567","stimuli/0001101.jpg","0","","prediction_trial","0","","true","","0","false","false","true","true","false","false","[0]","001","101","1","","","","","","",""
"","","","","","image-keyboard-response","303","526560","0.0-278.0","5bac1d9dc1155b0001175e55","665500ab8938657b03fbdba8","6657932046bfec296554efe2","554","stimuli/00011010.jpg"," ","","feedback_trial","0","","","","","","","","","","","","","","","","","","","","",""
"","","","","","image-keyboard-response","304","529540","0.0-279.0","5bac1d9dc1155b0001175e55","665500ab8938657b03fbdba8","6657932046bfec296554efe2","2977","stimuli/2101010.jpg","0","","prediction_trial","2","","false","","2","true","true","false","false","false","false","[2,0]","101","010","0","","","","","","",""
"","","","","","image-keyboard-response","305","530123","0.0-280.0","5bac1d9dc1155b0001175e55","665500ab8938657b03fbdba8","6657932046bfec296554efe2","580","stimuli/21010102.jpg"," ","","feedback_trial","2","","","","","","","","","","","","","","","","","","","","",""
"","","","","","image-keyboard-response","306","532485","0.0-281.0","5bac1d9dc1155b0001175e55","665500ab8938657b03fbdba8","6657932046bfec296554efe2","2360","stimuli/2100001.jpg","2","","prediction_trial","2","","true","","2","false","true","true","true","false","true","[2]","100","001","1","","","","","","",""
"","","","","","image-keyboard-response","307","533432","0.0-282.0","5bac1d9dc1155b0001175e55","665500ab8938657b03fbdba8","6657932046bfec296554efe2","942","stimuli/21000012.jpg"," ","","feedback_trial","2","","","","","","","","","","","","","","","","","","","","",""
"","","","","","image-keyboard-response","308","535202","0.0-283.0","5bac1d9dc1155b0001175e55","665500ab8938657b03fbdba8","6657932046bfec296554efe2","1768","stimuli/1010100.jpg","1","","prediction_trial","1","","true","","1","true","true","false","true","false","true","[1]","010","100","1","","","","","","",""
"","","","","","image-keyboard-response","309","535539","0.0-284.0","5bac1d9dc1155b0001175e55","665500ab8938657b03fbdba8","6657932046bfec296554efe2","334","stimuli/10101001.jpg"," ","","feedback_trial","1","","","","","","","","","","","","","","","","","","","","",""
"","","","","","image-keyboard-response","310","537728","0.0-285.0","5bac1d9dc1155b0001175e55","665500ab8938657b03fbdba8","6657932046bfec296554efe2","2186","stimuli/2101100.jpg","0","","prediction_trial","0","","true","","2","true","true","false","false","false","false","[2,0]","101","100","1","","","","","","",""
"","","","","","image-keyboard-response","311","538184","0.0-286.0","5bac1d9dc1155b0001175e55","665500ab8938657b03fbdba8","6657932046bfec296554efe2","454","stimuli/21011000.jpg"," ","","feedback_trial","2","","","","","","","","","","","","","","","","","","","","",""
"","","","","","image-keyboard-response","312","539675","0.0-287.0","5bac1d9dc1155b0001175e55","665500ab8938657b03fbdba8","6657932046bfec296554efe2","1493","stimuli/2100111.jpg","1","","prediction_trial","2","","false","","2","false","false","true","true","false","false","[2]","100","111","0","","","","","","",""
"","","","","","image-keyboard-response","313","540298","0.0-288.0","5bac1d9dc1155b0001175e55","665500ab8938657b03fbdba8","6657932046bfec296554efe2","621","stimuli/21001112.jpg"," ","","feedback_trial","2","","","","","","","","","","","","","","","","","","","","",""
"","","","","","image-keyboard-response","314","541571","0.0-289.0","5bac1d9dc1155b0001175e55","665500ab8938657b03fbdba8","6657932046bfec296554efe2","1269","stimuli/0000100.jpg","0","","prediction_trial","0","","true","","0","false","true","true","true","false","true","[0]","000","100","1","","","","","","",""
"","","","","","image-keyboard-response","315","541973","0.0-290.0","5bac1d9dc1155b0001175e55","665500ab8938657b03fbdba8","6657932046bfec296554efe2","401","stimuli/00001000.jpg"," ","","feedback_trial","0","","","","","","","","","","","","","","","","","","","","",""
"","","","","","image-keyboard-response","316","543114","0.0-291.0","5bac1d9dc1155b0001175e55","665500ab8938657b03fbdba8","6657932046bfec296554efe2","1139","stimuli/0000001.jpg","0","","prediction_trial","0","","true","","0","true","true","true","true","true","true","[0]","000","001","1","","","","","","",""
"","","","","","image-keyboard-response","317","543536","0.0-292.0","5bac1d9dc1155b0001175e55","665500ab8938657b03fbdba8","6657932046bfec296554efe2","417","stimuli/00000010.jpg"," ","","feedback_trial","0","","","","","","","","","","","","","","","","","","","","",""
"","","","","","survey-html-form","318","578158","0.0-293.0","5bac1d9dc1155b0001175e55","665500ab8938657b03fbdba8","6657932046bfec296554efe2","34616","","{""feedback"":""Sometimes, it was easy to see where the ball was an other times it was inferred."",""age"":""48"",""gender"":""Female"",""other_gender"":"""",""race"":""Black/African American"",""other_race"":"""",""ethnicity"":""Non-Hispanic""}","","exit_survey","","","","","","","","","","","","","","","","Sometimes, it was easy to see where the ball was an other times it was inferred.","48","Non-Hispanic","Female","Black/African American","0.6597222222222222","0.6597222222222222"
