"success","timeout","failed_images","failed_audio","failed_video","trial_type","trial_index","time_elapsed","internal_node_id","prolific_id","prolific_study_id","prolific_session_id","rt","stimulus","response","view_history","trial","character_choice","stimulus_dict","accuracy","correct_response","ball_pos","ego_ball_visible","ego_can_infer","alter_ball_visible","alter_can_infer","collective_ball_visible","collective_can_infer","search_locations","alter_occluders","ego_occluders","accuracy_bool","feedback","age","ethnicity","gender","race","overall_accuracy","bonus"
"true","false","[]","[]","[]","preload","0","2166","0.0-0.0","615880a66bc32302998866d9","665500ab8938657b03fbdba8","66577f80c55278d166c08833","","","","","","","","","","","","","","","","","","","","","","","","","","",""
"true","","","","","fullscreen","1","4131","0.0-1.0","615880a66bc32302998866d9","665500ab8938657b03fbdba8","66577f80c55278d166c08833","","","","","","","","","","","","","","","","","","","","","","","","","","",""
"","","","","","html-button-response","2","13414","0.0-2.0","615880a66bc32302998866d9","665500ab8938657b03fbdba8","66577f80c55278d166c08833","9283","<p><b>Consent Form</b></p> <div style=""text-align:left;background-color:lightgrey; padding:20px; max-width:900px;""><p>Please consider this information carefully before deciding whether to participate in this research.</p> <p>The purpose of this research is to examine which factors influence social judgment and decision-making. You will be asked to make judgements about individuals and actions in social scenarios. We are simply interested in your judgement. The study will take less than 1 hour to complete, and you will receive less than $20 on Prolific. Your compensation and time commitment are specified in the study description. There are no anticipated risks associated with participating in this study. The effects of participating should be comparable to those you would ordinarily experience from viewing a computer monitor and using a mouse or keyboard for a similar amount of time. At the end of the study, we will provide an explanation of the questions that motivate this line of research and will describe the potential implications. </p><p> Your participation in this study is completely voluntary and you may refuse to participate or you may choose to withdraw at any time without penalty or loss of benefits to you which are otherwise entitled. Your participation in this study will remain confidential. No personally identifiable information will be associated with your data. Also, all analyses of the data will be averaged across all the participants, so your individual responses will never be specifically analyzed. </p><p> If you have questions or concerns about your participation or payment, or want to request a summary of research findings, please contact Dr. Jonathan Phillips at Jonathan.S.Phillips@dartmouth.edu. </p><p> Please save a copy of this form for your records. </p><p><b>Agreement: </b>The nature and purpose of this research have been sufficiently explained and I agree to participate in this study. I understand that I am free to withdraw at any time without incurring any penalty. Please consent by clicking the button below to continue. Otherwise, please exit the study at any time. </p>","0","","","","","","","","","","","","","","","","","","","","","","","",""
"","","","","","instructions","3","69578","0.0-3.0-0.0","615880a66bc32302998866d9","665500ab8938657b03fbdba8","66577f80c55278d166c08833","56165","","","[{""page_index"":0,""viewing_time"":1283},{""page_index"":1,""viewing_time"":3118},{""page_index"":2,""viewing_time"":1384},{""page_index"":3,""viewing_time"":3685},{""page_index"":4,""viewing_time"":3334},{""page_index"":5,""viewing_time"":3068},{""page_index"":6,""viewing_time"":3234},{""page_index"":7,""viewing_time"":2384},{""page_index"":8,""viewing_time"":2518},{""page_index"":9,""viewing_time"":2217},{""page_index"":10,""viewing_time"":15538},{""page_index"":11,""viewing_time"":8686},{""page_index"":12,""viewing_time"":3318},{""page_index"":13,""viewing_time"":2400}]","intro","","","","","","","","","","","","","","","","","","","","","",""
"","","","","","image-keyboard-response","4","73515","0.0-3.0-1.0","615880a66bc32302998866d9","665500ab8938657b03fbdba8","66577f80c55278d166c08833","3934","stimuli/1100100.jpg","1","","prediction_practice","1","{""filepath"":""stimuli/1100100.jpg"",""ball_pos"":1,""ego_ball_visible"":true,""ego_can_infer"":true,""alter_ball_visible"":true,""alter_can_infer"":true,""collective_ball_visible"":true,""collective_can_infer"":true,""search_locations"":[1],""alter_occluders"":""100"",""ego_occluders"":""100""}","true","","","","","","","","","","","","","","","","","","",""
"","","","","","image-keyboard-response","5","75145","0.0-3.0-2.0","615880a66bc32302998866d9","665500ab8938657b03fbdba8","66577f80c55278d166c08833","1629","stimuli/11001001.jpg"," ","","practrice_feedback","1","","","","","","","","","","","","","","","","","","","","",""
"","","","","","image-keyboard-response","6","76709","0.0-3.0-3.0","615880a66bc32302998866d9","665500ab8938657b03fbdba8","66577f80c55278d166c08833","1563","stimuli/0000000.jpg","0","","prediction_practice","0","{""filepath"":""stimuli/0000000.jpg"",""ball_pos"":0,""ego_ball_visible"":true,""ego_can_infer"":true,""alter_ball_visible"":true,""alter_can_infer"":true,""collective_ball_visible"":true,""collective_can_infer"":true,""search_locations"":[0],""alter_occluders"":""000"",""ego_occluders"":""000""}","true","","","","","","","","","","","","","","","","","","",""
"","","","","","image-keyboard-response","7","77811","0.0-3.0-4.0","615880a66bc32302998866d9","665500ab8938657b03fbdba8","66577f80c55278d166c08833","1102","stimuli/00000000.jpg"," ","","practrice_feedback","0","","","","","","","","","","","","","","","","","","","","",""
"","","","","","image-keyboard-response","8","80432","0.0-3.0-5.0","615880a66bc32302998866d9","665500ab8938657b03fbdba8","66577f80c55278d166c08833","2620","stimuli/2011000.jpg","1","","prediction_practice","1","{""filepath"":""stimuli/2011000.jpg"",""ball_pos"":2,""ego_ball_visible"":true,""ego_can_infer"":true,""alter_ball_visible"":false,""alter_can_infer"":false,""collective_ball_visible"":false,""collective_can_infer"":false,""search_locations"":[1,2],""alter_occluders"":""011"",""ego_occluders"":""000""}","true","","","","","","","","","","","","","","","","","","",""
"","","","","","image-keyboard-response","9","82434","0.0-3.0-6.0","615880a66bc32302998866d9","665500ab8938657b03fbdba8","66577f80c55278d166c08833","2002","stimuli/20110001.jpg"," ","","practrice_feedback","1","","","","","","","","","","","","","","","","","","","","",""
"","","","","","image-keyboard-response","10","85832","0.0-3.0-7.0","615880a66bc32302998866d9","665500ab8938657b03fbdba8","66577f80c55278d166c08833","3397","stimuli/0010101.jpg","0","","prediction_practice","0","{""filepath"":""stimuli/0010101.jpg"",""ball_pos"":0,""ego_ball_visible"":false,""ego_can_infer"":false,""alter_ball_visible"":true,""alter_can_infer"":true,""collective_ball_visible"":false,""collective_can_infer"":false,""search_locations"":[0],""alter_occluders"":""010"",""ego_occluders"":""101""}","true","","","","","","","","","","","","","","","","","","",""
"","","","","","image-keyboard-response","11","87137","0.0-3.0-8.0","615880a66bc32302998866d9","665500ab8938657b03fbdba8","66577f80c55278d166c08833","1304","stimuli/00101010.jpg"," ","","practrice_feedback","0","","","","","","","","","","","","","","","","","","","","",""
"","","","","","image-keyboard-response","12","88509","0.0-3.0-9.0","615880a66bc32302998866d9","665500ab8938657b03fbdba8","66577f80c55278d166c08833","1372","stimuli/0011010.jpg","0","","prediction_practice","0","{""filepath"":""stimuli/0011010.jpg"",""ball_pos"":0,""ego_ball_visible"":true,""ego_can_infer"":true,""alter_ball_visible"":true,""alter_can_infer"":true,""collective_ball_visible"":true,""collective_can_infer"":true,""search_locations"":[0],""alter_occluders"":""011"",""ego_occluders"":""010""}","true","","","","","","","","","","","","","","","","","","",""
"","","","","","image-keyboard-response","13","89409","0.0-3.0-10.0","615880a66bc32302998866d9","665500ab8938657b03fbdba8","66577f80c55278d166c08833","899","stimuli/00110100.jpg"," ","","practrice_feedback","0","","","","","","","","","","","","","","","","","","","","",""
"","","","","","image-keyboard-response","14","95844","0.0-3.0-11.0","615880a66bc32302998866d9","665500ab8938657b03fbdba8","66577f80c55278d166c08833","6435","stimuli/0101010.jpg","0","","prediction_practice","0","{""filepath"":""stimuli/0101010.jpg"",""ball_pos"":0,""ego_ball_visible"":true,""ego_can_infer"":true,""alter_ball_visible"":false,""alter_can_infer"":false,""collective_ball_visible"":false,""collective_can_infer"":false,""search_locations"":[2,0],""alter_occluders"":""101"",""ego_occluders"":""010""}","true","","","","","","","","","","","","","","","","","","",""
"","","","","","image-keyboard-response","15","96924","0.0-3.0-12.0","615880a66bc32302998866d9","665500ab8938657b03fbdba8","66577f80c55278d166c08833","1079","stimuli/01010100.jpg"," ","","practrice_feedback","2","","","","","","","","","","","","","","","","","","","","",""
"","","","","","image-keyboard-response","16","100501","0.0-3.0-13.0","615880a66bc32302998866d9","665500ab8938657b03fbdba8","66577f80c55278d166c08833","3577","stimuli/0010100.jpg","0","","prediction_practice","0","{""filepath"":""stimuli/0010100.jpg"",""ball_pos"":0,""ego_ball_visible"":false,""ego_can_infer"":true,""alter_ball_visible"":true,""alter_can_infer"":true,""collective_ball_visible"":false,""collective_can_infer"":true,""search_locations"":[0],""alter_occluders"":""010"",""ego_occluders"":""100""}","true","","","","","","","","","","","","","","","","","","",""
"","","","","","image-keyboard-response","17","101918","0.0-3.0-14.0","615880a66bc32302998866d9","665500ab8938657b03fbdba8","66577f80c55278d166c08833","1417","stimuli/00101000.jpg"," ","","practrice_feedback","0","","","","","","","","","","","","","","","","","","","","",""
"","","","","","image-keyboard-response","18","104123","0.0-3.0-15.0","615880a66bc32302998866d9","665500ab8938657b03fbdba8","66577f80c55278d166c08833","2204","stimuli/2010111.jpg","1","","prediction_practice","2","{""filepath"":""stimuli/2010111.jpg"",""ball_pos"":2,""ego_ball_visible"":false,""ego_can_infer"":false,""alter_ball_visible"":true,""alter_can_infer"":true,""collective_ball_visible"":false,""collective_can_infer"":false,""search_locations"":[2],""alter_occluders"":""010"",""ego_occluders"":""111""}","false","","","","","","","","","","","","","","","","","","",""
"","","","","","image-keyboard-response","19","106440","0.0-3.0-16.0","615880a66bc32302998866d9","665500ab8938657b03fbdba8","66577f80c55278d166c08833","2316","stimuli/20101112.jpg"," ","","practrice_feedback","2","","","","","","","","","","","","","","","","","","","","",""
"","","","","","image-keyboard-response","20","109376","0.0-3.0-17.0","615880a66bc32302998866d9","665500ab8938657b03fbdba8","66577f80c55278d166c08833","2935","stimuli/0110101.jpg","1","","prediction_practice","1","{""filepath"":""stimuli/0110101.jpg"",""ball_pos"":0,""ego_ball_visible"":false,""ego_can_infer"":false,""alter_ball_visible"":false,""alter_can_infer"":false,""collective_ball_visible"":false,""collective_can_infer"":false,""search_locations"":[0,1],""alter_occluders"":""110"",""ego_occluders"":""101""}","true","","","","","","","","","","","","","","","","","","",""
"","","","","","image-keyboard-response","21","110388","0.0-3.0-18.0","615880a66bc32302998866d9","665500ab8938657b03fbdba8","66577f80c55278d166c08833","1011","stimuli/01101011.jpg"," ","","practrice_feedback","0","","","","","","","","","","","","","","","","","","","","",""
"","","","","","image-keyboard-response","22","113122","0.0-3.0-19.0","615880a66bc32302998866d9","665500ab8938657b03fbdba8","66577f80c55278d166c08833","2734","stimuli/1011001.jpg","1","","prediction_practice","2","{""filepath"":""stimuli/1011001.jpg"",""ball_pos"":1,""ego_ball_visible"":true,""ego_can_infer"":true,""alter_ball_visible"":false,""alter_can_infer"":false,""collective_ball_visible"":false,""collective_can_infer"":false,""search_locations"":[2,1],""alter_occluders"":""011"",""ego_occluders"":""001""}","false","","","","","","","","","","","","","","","","","","",""
"","","","","","image-keyboard-response","23","117262","0.0-3.0-20.0","615880a66bc32302998866d9","665500ab8938657b03fbdba8","66577f80c55278d166c08833","4140","stimuli/10110012.jpg"," ","","practrice_feedback","2","","","","","","","","","","","","","","","","","","","","",""
"","","","","","html-button-response","24","119822","0.0-3.0-21.0","615880a66bc32302998866d9","665500ab8938657b03fbdba8","66577f80c55278d166c08833","2560","Now that you've had some practice, you'll be tested with a couple of easy trials. If you correctly predict Sam's choice, you'll move on to complete the experiment!","0","","","","","","","","","","","","","","","","","","","","","","","",""
"","","","","","image-keyboard-response","25","121627","0.0-3.0-22.0-0.0","615880a66bc32302998866d9","665500ab8938657b03fbdba8","66577f80c55278d166c08833","1804","stimuli/0000011.jpg","arrowleft","","comprehension_quiz","","","true","arrowleft","","","","","","","","","","","","","","","","","",""
"","","","","","image-keyboard-response","26","122504","0.0-3.0-22.0-1.0","615880a66bc32302998866d9","665500ab8938657b03fbdba8","66577f80c55278d166c08833","876","stimuli/00000110.jpg"," ","","comprehension_quiz","","","true"," ","","","","","","","","","","","","","","","","","",""
"","","","","","image-keyboard-response","27","124023","0.0-3.0-22.0-2.0","615880a66bc32302998866d9","665500ab8938657b03fbdba8","66577f80c55278d166c08833","1518","stimuli/1010010.jpg","arrowdown","","comprehension_quiz","","","true","arrowdown","","","","","","","","","","","","","","","","","",""
"","","","","","image-keyboard-response","28","126138","0.0-3.0-22.0-3.0","615880a66bc32302998866d9","665500ab8938657b03fbdba8","66577f80c55278d166c08833","2114","stimuli/10100101.jpg"," ","","comprehension_quiz","","","true"," ","","","","","","","","","","","","","","","","","",""
"","","","","","html-button-response","29","128691","0.0-4.0","615880a66bc32302998866d9","665500ab8938657b03fbdba8","66577f80c55278d166c08833","2552","The experiment will now begin.","0","","","","","","","","","","","","","","","","","","","","","","","",""
"","","","","","image-keyboard-response","30","131178","0.0-5.0","615880a66bc32302998866d9","665500ab8938657b03fbdba8","66577f80c55278d166c08833","2486","stimuli/2110001.jpg","2","","prediction_trial","2","","true","","2","false","true","true","true","false","true","[2]","110","001","1","","","","","","",""
"","","","","","image-keyboard-response","31","132820","0.0-6.0","615880a66bc32302998866d9","665500ab8938657b03fbdba8","66577f80c55278d166c08833","1642","stimuli/21100012.jpg"," ","","feedback_trial","2","","","","","","","","","","","","","","","","","","","","",""
"","","","","","image-keyboard-response","32","133911","0.0-7.0","615880a66bc32302998866d9","665500ab8938657b03fbdba8","66577f80c55278d166c08833","1091","stimuli/2010110.jpg","2","","prediction_trial","2","","true","","2","true","true","true","true","true","true","[2]","010","110","1","","","","","","",""
"","","","","","image-keyboard-response","33","134698","0.0-8.0","615880a66bc32302998866d9","665500ab8938657b03fbdba8","66577f80c55278d166c08833","786","stimuli/20101102.jpg"," ","","feedback_trial","2","","","","","","","","","","","","","","","","","","","","",""
"","","","","","image-keyboard-response","34","135441","0.0-9.0","615880a66bc32302998866d9","665500ab8938657b03fbdba8","66577f80c55278d166c08833","742","stimuli/0001000.jpg","0","","prediction_trial","0","","true","","0","true","true","true","true","true","true","[0]","001","000","1","","","","","","",""
"","","","","","image-keyboard-response","35","135947","0.0-10.0","615880a66bc32302998866d9","665500ab8938657b03fbdba8","66577f80c55278d166c08833","506","stimuli/00010000.jpg"," ","","feedback_trial","0","","","","","","","","","","","","","","","","","","","","",""
"","","","","","image-keyboard-response","36","138917","0.0-11.0","615880a66bc32302998866d9","665500ab8938657b03fbdba8","66577f80c55278d166c08833","2970","stimuli/2101100.jpg","2","","prediction_trial","2","","true","","2","true","true","false","false","false","false","[2,0]","101","100","1","","","","","","",""
"","","","","","image-keyboard-response","37","139794","0.0-12.0","615880a66bc32302998866d9","665500ab8938657b03fbdba8","66577f80c55278d166c08833","876","stimuli/21011002.jpg"," ","","feedback_trial","2","","","","","","","","","","","","","","","","","","","","",""
"","","","","","image-keyboard-response","38","143810","0.0-13.0","615880a66bc32302998866d9","665500ab8938657b03fbdba8","66577f80c55278d166c08833","4016","stimuli/0000101.jpg","0","","prediction_trial","0","","true","","0","false","false","true","true","false","false","[0]","000","101","1","","","","","","",""
"","","","","","image-keyboard-response","39","144755","0.0-14.0","615880a66bc32302998866d9","665500ab8938657b03fbdba8","66577f80c55278d166c08833","944","stimuli/00001010.jpg"," ","","feedback_trial","0","","","","","","","","","","","","","","","","","","","","",""
"","","","","","image-keyboard-response","40","147230","0.0-15.0","615880a66bc32302998866d9","665500ab8938657b03fbdba8","66577f80c55278d166c08833","2475","stimuli/2110111.jpg","1","","prediction_trial","2","","false","","2","false","false","true","true","false","false","[2]","110","111","0","","","","","","",""
"","","","","","image-keyboard-response","41","153069","0.0-16.0","615880a66bc32302998866d9","665500ab8938657b03fbdba8","66577f80c55278d166c08833","5838","stimuli/21101112.jpg"," ","","feedback_trial","2","","","","","","","","","","","","","","","","","","","","",""
"","","","","","image-keyboard-response","42","155397","0.0-17.0","615880a66bc32302998866d9","665500ab8938657b03fbdba8","66577f80c55278d166c08833","2328","stimuli/2111101.jpg","1","","prediction_trial","0","","false","","2","false","false","false","false","false","false","[1,2,0]","111","101","0","","","","","","",""
"","","","","","image-keyboard-response","43","161944","0.0-18.0","615880a66bc32302998866d9","665500ab8938657b03fbdba8","66577f80c55278d166c08833","6547","stimuli/21111010.jpg"," ","","feedback_trial","1","","","","","","","","","","","","","","","","","","","","",""
"","","","","","image-keyboard-response","44","163339","0.0-19.0","615880a66bc32302998866d9","665500ab8938657b03fbdba8","66577f80c55278d166c08833","1395","stimuli/2100100.jpg","2","","prediction_trial","2","","true","","2","true","true","true","true","true","true","[2]","100","100","1","","","","","","",""
"","","","","","image-keyboard-response","45","164216","0.0-20.0","615880a66bc32302998866d9","665500ab8938657b03fbdba8","66577f80c55278d166c08833","876","stimuli/21001002.jpg"," ","","feedback_trial","2","","","","","","","","","","","","","","","","","","","","",""
"","","","","","image-keyboard-response","46","172137","0.0-21.0","615880a66bc32302998866d9","665500ab8938657b03fbdba8","66577f80c55278d166c08833","7920","stimuli/0110101.jpg","1","","prediction_trial","0","","false","","0","false","false","false","false","false","false","[0,1]","110","101","0","","","","","","",""
"","","","","","image-keyboard-response","47","173688","0.0-22.0","615880a66bc32302998866d9","665500ab8938657b03fbdba8","66577f80c55278d166c08833","1551","stimuli/01101010.jpg"," ","","feedback_trial","0","","","","","","","","","","","","","","","","","","","","",""
"","","","","","image-keyboard-response","48","176130","0.0-23.0","615880a66bc32302998866d9","665500ab8938657b03fbdba8","66577f80c55278d166c08833","2442","stimuli/2011111.jpg","1","","prediction_trial","2","","false","","2","false","false","false","false","false","false","[1,2]","011","111","0","","","","","","",""
"","","","","","image-keyboard-response","49","178998","0.0-24.0","615880a66bc32302998866d9","665500ab8938657b03fbdba8","66577f80c55278d166c08833","2868","stimuli/20111112.jpg"," ","","feedback_trial","1","","","","","","","","","","","","","","","","","","","","",""
"","","","","","image-keyboard-response","50","182441","0.0-25.0","615880a66bc32302998866d9","665500ab8938657b03fbdba8","66577f80c55278d166c08833","3442","stimuli/1100011.jpg","1","","prediction_trial","1","","true","","1","false","false","true","true","false","false","[1]","100","011","1","","","","","","",""
"","","","","","image-keyboard-response","51","183261","0.0-26.0","615880a66bc32302998866d9","665500ab8938657b03fbdba8","66577f80c55278d166c08833","820","stimuli/11000111.jpg"," ","","feedback_trial","1","","","","","","","","","","","","","","","","","","","","",""
"","","","","","image-keyboard-response","52","184769","0.0-27.0","615880a66bc32302998866d9","665500ab8938657b03fbdba8","66577f80c55278d166c08833","1507","stimuli/1000010.jpg","1","","prediction_trial","1","","true","","1","false","true","true","true","false","true","[1]","000","010","1","","","","","","",""
"","","","","","image-keyboard-response","53","185297","0.0-28.0","615880a66bc32302998866d9","665500ab8938657b03fbdba8","66577f80c55278d166c08833","527","stimuli/10000101.jpg"," ","","feedback_trial","1","","","","","","","","","","","","","","","","","","","","",""
"","","","","","image-keyboard-response","54","186411","0.0-29.0","615880a66bc32302998866d9","665500ab8938657b03fbdba8","66577f80c55278d166c08833","1114","stimuli/0001001.jpg","0","","prediction_trial","0","","true","","0","true","true","true","true","true","true","[0]","001","001","1","","","","","","",""
"","","","","","image-keyboard-response","55","186951","0.0-30.0","615880a66bc32302998866d9","665500ab8938657b03fbdba8","66577f80c55278d166c08833","540","stimuli/00010010.jpg"," ","","feedback_trial","0","","","","","","","","","","","","","","","","","","","","",""
"","","","","","image-keyboard-response","56","191181","0.0-31.0","615880a66bc32302998866d9","665500ab8938657b03fbdba8","66577f80c55278d166c08833","4230","stimuli/1111110.jpg","1","","prediction_trial","1","","true","","1","false","false","false","false","false","false","[0,2,1]","111","110","1","","","","","","",""
"","","","","","image-keyboard-response","57","191946","0.0-32.0","615880a66bc32302998866d9","665500ab8938657b03fbdba8","66577f80c55278d166c08833","764","stimuli/11111101.jpg"," ","","feedback_trial","0","","","","","","","","","","","","","","","","","","","","",""
"","","","","","image-keyboard-response","58","194691","0.0-33.0","615880a66bc32302998866d9","665500ab8938657b03fbdba8","66577f80c55278d166c08833","2745","stimuli/1110101.jpg","1","","prediction_trial","0","","false","","1","true","true","false","false","false","false","[0,1]","110","101","0","","","","","","",""
"","","","","","image-keyboard-response","59","195748","0.0-34.0","615880a66bc32302998866d9","665500ab8938657b03fbdba8","66577f80c55278d166c08833","1056","stimuli/11101010.jpg"," ","","feedback_trial","0","","","","","","","","","","","","","","","","","","","","",""
"","","","","","image-keyboard-response","60","197728","0.0-35.0","615880a66bc32302998866d9","665500ab8938657b03fbdba8","66577f80c55278d166c08833","1980","stimuli/1010101.jpg","1","","prediction_trial","1","","true","","1","true","true","false","true","false","true","[1]","010","101","1","","","","","","",""
"","","","","","image-keyboard-response","61","198212","0.0-36.0","615880a66bc32302998866d9","665500ab8938657b03fbdba8","66577f80c55278d166c08833","483","stimuli/10101011.jpg"," ","","feedback_trial","1","","","","","","","","","","","","","","","","","","","","",""
"","","","","","image-keyboard-response","62","200203","0.0-37.0","615880a66bc32302998866d9","665500ab8938657b03fbdba8","66577f80c55278d166c08833","1990","stimuli/0000110.jpg","0","","prediction_trial","0","","true","","0","false","false","true","true","false","false","[0]","000","110","1","","","","","","",""
"","","","","","image-keyboard-response","63","200732","0.0-38.0","615880a66bc32302998866d9","665500ab8938657b03fbdba8","66577f80c55278d166c08833","528","stimuli/00001100.jpg"," ","","feedback_trial","0","","","","","","","","","","","","","","","","","","","","",""
"","","","","","image-keyboard-response","64","201958","0.0-39.0","615880a66bc32302998866d9","665500ab8938657b03fbdba8","66577f80c55278d166c08833","1226","stimuli/0000000.jpg","0","","prediction_trial","0","","true","","0","true","true","true","true","true","true","[0]","000","000","1","","","","","","",""
"","","","","","image-keyboard-response","65","202768","0.0-40.0","615880a66bc32302998866d9","665500ab8938657b03fbdba8","66577f80c55278d166c08833","809","stimuli/00000000.jpg"," ","","feedback_trial","0","","","","","","","","","","","","","","","","","","","","",""
"","","","","","image-keyboard-response","66","203735","0.0-41.0","615880a66bc32302998866d9","665500ab8938657b03fbdba8","66577f80c55278d166c08833","967","stimuli/0011001.jpg","0","","prediction_trial","0","","true","","0","true","true","true","true","true","true","[0]","011","001","1","","","","","","",""
"","","","","","image-keyboard-response","67","204084","0.0-42.0","615880a66bc32302998866d9","665500ab8938657b03fbdba8","66577f80c55278d166c08833","348","stimuli/00110010.jpg"," ","","feedback_trial","0","","","","","","","","","","","","","","","","","","","","",""
"","","","","","image-keyboard-response","68","206008","0.0-43.0","615880a66bc32302998866d9","665500ab8938657b03fbdba8","66577f80c55278d166c08833","1924","stimuli/0100010.jpg","0","","prediction_trial","0","","true","","0","true","true","false","true","false","true","[0]","100","010","1","","","","","","",""
"","","","","","image-keyboard-response","69","206390","0.0-44.0","615880a66bc32302998866d9","665500ab8938657b03fbdba8","66577f80c55278d166c08833","381","stimuli/01000100.jpg"," ","","feedback_trial","0","","","","","","","","","","","","","","","","","","","","",""
"","","","","","image-keyboard-response","70","207785","0.0-45.0","615880a66bc32302998866d9","665500ab8938657b03fbdba8","66577f80c55278d166c08833","1395","stimuli/1111111.jpg","1","","prediction_trial","0","","false","","1","false","false","false","false","false","false","[2,1,0]","111","111","0","","","","","","",""
"","","","","","image-keyboard-response","71","208865","0.0-46.0","615880a66bc32302998866d9","665500ab8938657b03fbdba8","66577f80c55278d166c08833","1079","stimuli/11111110.jpg"," ","","feedback_trial","2","","","","","","","","","","","","","","","","","","","","",""
"","","","","","image-keyboard-response","72","209810","0.0-47.0","615880a66bc32302998866d9","665500ab8938657b03fbdba8","66577f80c55278d166c08833","945","stimuli/2110100.jpg","2","","prediction_trial","2","","true","","2","true","true","true","true","true","true","[2]","110","100","1","","","","","","",""
"","","","","","image-keyboard-response","73","210417","0.0-48.0","615880a66bc32302998866d9","665500ab8938657b03fbdba8","66577f80c55278d166c08833","606","stimuli/21101002.jpg"," ","","feedback_trial","2","","","","","","","","","","","","","","","","","","","","",""
"","","","","","image-keyboard-response","74","213061","0.0-49.0","615880a66bc32302998866d9","665500ab8938657b03fbdba8","66577f80c55278d166c08833","2643","stimuli/1011110.jpg","1","","prediction_trial","2","","false","","1","false","false","false","false","false","false","[1,2]","011","110","0","","","","","","",""
"","","","","","image-keyboard-response","75","214298","0.0-50.0","615880a66bc32302998866d9","665500ab8938657b03fbdba8","66577f80c55278d166c08833","1237","stimuli/10111102.jpg"," ","","feedback_trial","1","","","","","","","","","","","","","","","","","","","","",""
"","","","","","image-keyboard-response","76","215401","0.0-51.0","615880a66bc32302998866d9","665500ab8938657b03fbdba8","66577f80c55278d166c08833","1102","stimuli/0011010.jpg","0","","prediction_trial","0","","true","","0","true","true","true","true","true","true","[0]","011","010","1","","","","","","",""
"","","","","","image-keyboard-response","77","216053","0.0-52.0","615880a66bc32302998866d9","665500ab8938657b03fbdba8","66577f80c55278d166c08833","652","stimuli/00110100.jpg"," ","","feedback_trial","0","","","","","","","","","","","","","","","","","","","","",""
"","","","","","image-keyboard-response","78","216784","0.0-53.0","615880a66bc32302998866d9","665500ab8938657b03fbdba8","66577f80c55278d166c08833","731","stimuli/2100010.jpg","2","","prediction_trial","2","","true","","2","true","true","true","true","true","true","[2]","100","010","1","","","","","","",""
"","","","","","image-keyboard-response","79","217268","0.0-54.0","615880a66bc32302998866d9","665500ab8938657b03fbdba8","66577f80c55278d166c08833","483","stimuli/21000102.jpg"," ","","feedback_trial","2","","","","","","","","","","","","","","","","","","","","",""
"","","","","","image-keyboard-response","80","217921","0.0-55.0","615880a66bc32302998866d9","665500ab8938657b03fbdba8","66577f80c55278d166c08833","652","stimuli/0000001.jpg","0","","prediction_trial","0","","true","","0","true","true","true","true","true","true","[0]","000","001","1","","","","","","",""
"","","","","","image-keyboard-response","81","218370","0.0-56.0","615880a66bc32302998866d9","665500ab8938657b03fbdba8","66577f80c55278d166c08833","448","stimuli/00000010.jpg"," ","","feedback_trial","0","","","","","","","","","","","","","","","","","","","","",""
"","","","","","image-keyboard-response","82","221959","0.0-57.0","615880a66bc32302998866d9","665500ab8938657b03fbdba8","66577f80c55278d166c08833","3589","stimuli/1101011.jpg","2","","prediction_trial","1","","false","","1","false","false","true","true","false","false","[1]","101","011","0","","","","","","",""
"","","","","","image-keyboard-response","83","223061","0.0-58.0","615880a66bc32302998866d9","665500ab8938657b03fbdba8","66577f80c55278d166c08833","1101","stimuli/11010111.jpg"," ","","feedback_trial","1","","","","","","","","","","","","","","","","","","","","",""
"","","","","","image-keyboard-response","84","223837","0.0-59.0","615880a66bc32302998866d9","665500ab8938657b03fbdba8","66577f80c55278d166c08833","776","stimuli/1000000.jpg","1","","prediction_trial","1","","true","","1","true","true","true","true","true","true","[1]","000","000","1","","","","","","",""
"","","","","","image-keyboard-response","85","224265","0.0-60.0","615880a66bc32302998866d9","665500ab8938657b03fbdba8","66577f80c55278d166c08833","426","stimuli/10000001.jpg"," ","","feedback_trial","1","","","","","","","","","","","","","","","","","","","","",""
"","","","","","image-keyboard-response","86","225615","0.0-61.0","615880a66bc32302998866d9","665500ab8938657b03fbdba8","66577f80c55278d166c08833","1349","stimuli/0111010.jpg","0","","prediction_trial","2","","false","","0","true","true","false","false","false","false","[2,1,0]","111","010","0","","","","","","",""
"","","","","","image-keyboard-response","87","227246","0.0-62.0","615880a66bc32302998866d9","665500ab8938657b03fbdba8","66577f80c55278d166c08833","1631","stimuli/01110102.jpg"," ","","feedback_trial","2","","","","","","","","","","","","","","","","","","","","",""
"","","","","","image-keyboard-response","88","233580","0.0-63.0","615880a66bc32302998866d9","665500ab8938657b03fbdba8","66577f80c55278d166c08833","6333","stimuli/2111010.jpg","1","","prediction_trial","2","","false","","2","true","true","false","false","false","false","[2,0,1]","111","010","0","","","","","","",""
"","","","","","image-keyboard-response","89","234838","0.0-64.0","615880a66bc32302998866d9","665500ab8938657b03fbdba8","66577f80c55278d166c08833","1258","stimuli/21110102.jpg"," ","","feedback_trial","2","","","","","","","","","","","","","","","","","","","","",""
"","","","","","image-keyboard-response","90","235717","0.0-65.0","615880a66bc32302998866d9","665500ab8938657b03fbdba8","66577f80c55278d166c08833","878","stimuli/0010011.jpg","0","","prediction_trial","0","","true","","0","true","true","true","true","true","true","[0]","010","011","1","","","","","","",""
"","","","","","image-keyboard-response","91","236166","0.0-66.0","615880a66bc32302998866d9","665500ab8938657b03fbdba8","66577f80c55278d166c08833","449","stimuli/00100110.jpg"," ","","feedback_trial","0","","","","","","","","","","","","","","","","","","","","",""
"","","","","","image-keyboard-response","92","236786","0.0-67.0","615880a66bc32302998866d9","665500ab8938657b03fbdba8","66577f80c55278d166c08833","619","stimuli/0010001.jpg","0","","prediction_trial","0","","true","","0","true","true","true","true","true","true","[0]","010","001","1","","","","","","",""
"","","","","","image-keyboard-response","93","237224","0.0-68.0","615880a66bc32302998866d9","665500ab8938657b03fbdba8","66577f80c55278d166c08833","438","stimuli/00100010.jpg"," ","","feedback_trial","0","","","","","","","","","","","","","","","","","","","","",""
"","","","","","image-keyboard-response","94","239069","0.0-69.0","615880a66bc32302998866d9","665500ab8938657b03fbdba8","66577f80c55278d166c08833","1845","stimuli/2011001.jpg","2","","prediction_trial","1","","false","","2","false","true","false","false","false","false","[2,1]","011","001","0","","","","","","",""
"","","","","","image-keyboard-response","95","240239","0.0-70.0","615880a66bc32302998866d9","665500ab8938657b03fbdba8","66577f80c55278d166c08833","1169","stimuli/20110011.jpg"," ","","feedback_trial","2","","","","","","","","","","","","","","","","","","","","",""
"","","","","","image-keyboard-response","96","241161","0.0-71.0","615880a66bc32302998866d9","665500ab8938657b03fbdba8","66577f80c55278d166c08833","922","stimuli/1100001.jpg","1","","prediction_trial","1","","true","","1","true","true","true","true","true","true","[1]","100","001","1","","","","","","",""
"","","","","","image-keyboard-response","97","241757","0.0-72.0","615880a66bc32302998866d9","665500ab8938657b03fbdba8","66577f80c55278d166c08833","596","stimuli/11000011.jpg"," ","","feedback_trial","1","","","","","","","","","","","","","","","","","","","","",""
"","","","","","image-keyboard-response","98","245143","0.0-73.0","615880a66bc32302998866d9","665500ab8938657b03fbdba8","66577f80c55278d166c08833","3386","stimuli/0101101.jpg","0","","prediction_trial","0","","true","","0","false","false","false","false","false","false","[2,0]","101","101","1","","","","","","",""
"","","","","","image-keyboard-response","99","246111","0.0-74.0","615880a66bc32302998866d9","665500ab8938657b03fbdba8","66577f80c55278d166c08833","967","stimuli/01011010.jpg"," ","","feedback_trial","2","","","","","","","","","","","","","","","","","","","","",""
"","","","","","image-keyboard-response","100","250521","0.0-75.0","615880a66bc32302998866d9","665500ab8938657b03fbdba8","66577f80c55278d166c08833","4410","stimuli/0100111.jpg","1","","prediction_trial","0","","false","","0","false","false","false","true","false","false","[0]","100","111","0","","","","","","",""
"","","","","","image-keyboard-response","101","251420","0.0-76.0","615880a66bc32302998866d9","665500ab8938657b03fbdba8","66577f80c55278d166c08833","899","stimuli/01001110.jpg"," ","","feedback_trial","0","","","","","","","","","","","","","","","","","","","","",""
"","","","","","image-keyboard-response","102","252118","0.0-77.0","615880a66bc32302998866d9","665500ab8938657b03fbdba8","66577f80c55278d166c08833","697","stimuli/2111100.jpg","2","","prediction_trial","1","","false","","2","true","true","false","false","false","false","[0,2,1]","111","100","0","","","","","","",""
"","","","","","image-keyboard-response","103","253344","0.0-78.0","615880a66bc32302998866d9","665500ab8938657b03fbdba8","66577f80c55278d166c08833","1226","stimuli/21111001.jpg"," ","","feedback_trial","0","","","","","","","","","","","","","","","","","","","","",""
"","","","","","image-keyboard-response","104","257518","0.0-79.0","615880a66bc32302998866d9","665500ab8938657b03fbdba8","66577f80c55278d166c08833","4173","stimuli/0010101.jpg","1","","prediction_trial","0","","false","","0","false","false","true","true","false","false","[0]","010","101","0","","","","","","",""
"","","","","","image-keyboard-response","105","258305","0.0-80.0","615880a66bc32302998866d9","665500ab8938657b03fbdba8","66577f80c55278d166c08833","787","stimuli/00101010.jpg"," ","","feedback_trial","0","","","","","","","","","","","","","","","","","","","","",""
"","","","","","image-keyboard-response","106","260622","0.0-81.0","615880a66bc32302998866d9","665500ab8938657b03fbdba8","66577f80c55278d166c08833","2317","stimuli/0101111.jpg","1","","prediction_trial","2","","false","","0","false","false","false","false","false","false","[2,0]","101","111","0","","","","","","",""
"","","","","","image-keyboard-response","107","261545","0.0-82.0","615880a66bc32302998866d9","665500ab8938657b03fbdba8","66577f80c55278d166c08833","922","stimuli/01011112.jpg"," ","","feedback_trial","2","","","","","","","","","","","","","","","","","","","","",""
"","","","","","image-keyboard-response","108","263187","0.0-83.0","615880a66bc32302998866d9","665500ab8938657b03fbdba8","66577f80c55278d166c08833","1642","stimuli/1011111.jpg","1","","prediction_trial","2","","false","","1","false","false","false","false","false","false","[1,2]","011","111","0","","","","","","",""
"","","","","","image-keyboard-response","109","264065","0.0-84.0","615880a66bc32302998866d9","665500ab8938657b03fbdba8","66577f80c55278d166c08833","877","stimuli/10111112.jpg"," ","","feedback_trial","1","","","","","","","","","","","","","","","","","","","","",""
"","","","","","image-keyboard-response","110","265167","0.0-85.0","615880a66bc32302998866d9","665500ab8938657b03fbdba8","66577f80c55278d166c08833","1102","stimuli/1110001.jpg","1","","prediction_trial","0","","false","","1","true","true","false","false","false","false","[1,0]","110","001","0","","","","","","",""
"","","","","","image-keyboard-response","111","266179","0.0-86.0","615880a66bc32302998866d9","665500ab8938657b03fbdba8","66577f80c55278d166c08833","1012","stimuli/11100010.jpg"," ","","feedback_trial","1","","","","","","","","","","","","","","","","","","","","",""
"","","","","","image-keyboard-response","112","268227","0.0-87.0","615880a66bc32302998866d9","665500ab8938657b03fbdba8","66577f80c55278d166c08833","2047","stimuli/0011101.jpg","2","","prediction_trial","0","","false","","0","false","false","true","true","false","false","[0]","011","101","0","","","","","","",""
"","","","","","image-keyboard-response","113","269262","0.0-88.0","615880a66bc32302998866d9","665500ab8938657b03fbdba8","66577f80c55278d166c08833","1035","stimuli/00111010.jpg"," ","","feedback_trial","0","","","","","","","","","","","","","","","","","","","","",""
"","","","","","image-keyboard-response","114","271085","0.0-89.0","615880a66bc32302998866d9","665500ab8938657b03fbdba8","66577f80c55278d166c08833","1823","stimuli/2001001.jpg","2","","prediction_trial","2","","true","","2","false","true","false","true","false","true","[2]","001","001","1","","","","","","",""
"","","","","","image-keyboard-response","115","272074","0.0-90.0","615880a66bc32302998866d9","665500ab8938657b03fbdba8","66577f80c55278d166c08833","989","stimuli/20010012.jpg"," ","","feedback_trial","2","","","","","","","","","","","","","","","","","","","","",""
"","","","","","image-keyboard-response","116","275067","0.0-91.0","615880a66bc32302998866d9","665500ab8938657b03fbdba8","66577f80c55278d166c08833","2992","stimuli/2001110.jpg","0","","prediction_trial","2","","false","","2","true","true","false","true","false","true","[2]","001","110","0","","","","","","",""
"","","","","","image-keyboard-response","117","275989","0.0-92.0","615880a66bc32302998866d9","665500ab8938657b03fbdba8","66577f80c55278d166c08833","922","stimuli/20011102.jpg"," ","","feedback_trial","2","","","","","","","","","","","","","","","","","","","","",""
"","","","","","image-keyboard-response","118","279274","0.0-93.0","615880a66bc32302998866d9","665500ab8938657b03fbdba8","66577f80c55278d166c08833","3285","stimuli/0010110.jpg","1","","prediction_trial","0","","false","","0","false","false","true","true","false","false","[0]","010","110","0","","","","","","",""
"","","","","","image-keyboard-response","119","280106","0.0-94.0","615880a66bc32302998866d9","665500ab8938657b03fbdba8","66577f80c55278d166c08833","832","stimuli/00101100.jpg"," ","","feedback_trial","0","","","","","","","","","","","","","","","","","","","","",""
"","","","","","image-keyboard-response","120","281299","0.0-95.0","615880a66bc32302998866d9","665500ab8938657b03fbdba8","66577f80c55278d166c08833","1192","stimuli/1111000.jpg","1","","prediction_trial","0","","false","","1","true","true","false","false","false","false","[1,2,0]","111","000","0","","","","","","",""
"","","","","","image-keyboard-response","121","282198","0.0-96.0","615880a66bc32302998866d9","665500ab8938657b03fbdba8","66577f80c55278d166c08833","899","stimuli/11110000.jpg"," ","","feedback_trial","1","","","","","","","","","","","","","","","","","","","","",""
"","","","","","image-keyboard-response","122","284088","0.0-97.0","615880a66bc32302998866d9","665500ab8938657b03fbdba8","66577f80c55278d166c08833","1890","stimuli/0101010.jpg","1","","prediction_trial","2","","false","","0","true","true","false","false","false","false","[2,0]","101","010","0","","","","","","",""
"","","","","","image-keyboard-response","123","284965","0.0-98.0","615880a66bc32302998866d9","665500ab8938657b03fbdba8","66577f80c55278d166c08833","876","stimuli/01010102.jpg"," ","","feedback_trial","2","","","","","","","","","","","","","","","","","","","","",""
"","","","","","image-keyboard-response","124","285731","0.0-99.0","615880a66bc32302998866d9","665500ab8938657b03fbdba8","66577f80c55278d166c08833","765","stimuli/2111000.jpg","2","","prediction_trial","0","","false","","2","true","true","false","false","false","false","[2,0,1]","111","000","0","","","","","","",""
"","","","","","image-keyboard-response","125","287463","0.0-100.0","615880a66bc32302998866d9","665500ab8938657b03fbdba8","66577f80c55278d166c08833","1732","stimuli/21110000.jpg"," ","","feedback_trial","2","","","","","","","","","","","","","","","","","","","","",""
"","","","","","image-keyboard-response","126","290725","0.0-101.0","615880a66bc32302998866d9","665500ab8938657b03fbdba8","66577f80c55278d166c08833","3262","stimuli/2010111.jpg","2","","prediction_trial","2","","true","","2","false","false","true","true","false","false","[2]","010","111","1","","","","","","",""
"","","","","","image-keyboard-response","127","291940","0.0-102.0","615880a66bc32302998866d9","665500ab8938657b03fbdba8","66577f80c55278d166c08833","1215","stimuli/20101112.jpg"," ","","feedback_trial","2","","","","","","","","","","","","","","","","","","","","",""
"","","","","","image-keyboard-response","128","293133","0.0-103.0","615880a66bc32302998866d9","665500ab8938657b03fbdba8","66577f80c55278d166c08833","1192","stimuli/1101100.jpg","1","","prediction_trial","1","","true","","1","true","true","true","true","true","true","[1]","101","100","1","","","","","","",""
"","","","","","image-keyboard-response","129","293819","0.0-104.0","615880a66bc32302998866d9","665500ab8938657b03fbdba8","66577f80c55278d166c08833","686","stimuli/11011001.jpg"," ","","feedback_trial","1","","","","","","","","","","","","","","","","","","","","",""
"","","","","","image-keyboard-response","130","295000","0.0-105.0","615880a66bc32302998866d9","665500ab8938657b03fbdba8","66577f80c55278d166c08833","1181","stimuli/1111010.jpg","0","","prediction_trial","1","","false","","1","false","true","false","false","false","false","[1,2,0]","111","010","0","","","","","","",""
"","","","","","image-keyboard-response","131","296024","0.0-106.0","615880a66bc32302998866d9","665500ab8938657b03fbdba8","66577f80c55278d166c08833","1023","stimuli/11110101.jpg"," ","","feedback_trial","1","","","","","","","","","","","","","","","","","","","","",""
"","","","","","image-keyboard-response","132","298589","0.0-107.0","615880a66bc32302998866d9","665500ab8938657b03fbdba8","66577f80c55278d166c08833","2565","stimuli/1010100.jpg","0","","prediction_trial","1","","false","","1","true","true","false","true","false","true","[1]","010","100","0","","","","","","",""
"","","","","","image-keyboard-response","133","299781","0.0-108.0","615880a66bc32302998866d9","665500ab8938657b03fbdba8","66577f80c55278d166c08833","1192","stimuli/10101001.jpg"," ","","feedback_trial","1","","","","","","","","","","","","","","","","","","","","",""
"","","","","","image-keyboard-response","134","301266","0.0-109.0","615880a66bc32302998866d9","665500ab8938657b03fbdba8","66577f80c55278d166c08833","1485","stimuli/2100001.jpg","2","","prediction_trial","2","","true","","2","false","true","true","true","false","true","[2]","100","001","1","","","","","","",""
"","","","","","image-keyboard-response","135","301873","0.0-110.0","615880a66bc32302998866d9","665500ab8938657b03fbdba8","66577f80c55278d166c08833","607","stimuli/21000012.jpg"," ","","feedback_trial","2","","","","","","","","","","","","","","","","","","","","",""
"","","","","","image-keyboard-response","136","302593","0.0-111.0","615880a66bc32302998866d9","665500ab8938657b03fbdba8","66577f80c55278d166c08833","720","stimuli/0001011.jpg","0","","prediction_trial","0","","true","","0","true","true","true","true","true","true","[0]","001","011","1","","","","","","",""
"","","","","","image-keyboard-response","137","303009","0.0-112.0","615880a66bc32302998866d9","665500ab8938657b03fbdba8","66577f80c55278d166c08833","416","stimuli/00010110.jpg"," ","","feedback_trial","0","","","","","","","","","","","","","","","","","","","","",""
"","","","","","image-keyboard-response","138","303763","0.0-113.0","615880a66bc32302998866d9","665500ab8938657b03fbdba8","66577f80c55278d166c08833","754","stimuli/0000011.jpg","0","","prediction_trial","0","","true","","0","true","true","true","true","true","true","[0]","000","011","1","","","","","","",""
"","","","","","image-keyboard-response","139","304112","0.0-114.0","615880a66bc32302998866d9","665500ab8938657b03fbdba8","66577f80c55278d166c08833","349","stimuli/00000110.jpg"," ","","feedback_trial","0","","","","","","","","","","","","","","","","","","","","",""
"","","","","","image-keyboard-response","140","305226","0.0-115.0","615880a66bc32302998866d9","665500ab8938657b03fbdba8","66577f80c55278d166c08833","1113","stimuli/2110000.jpg","2","","prediction_trial","2","","true","","2","true","true","true","true","true","true","[2]","110","000","1","","","","","","",""
"","","","","","image-keyboard-response","141","305743","0.0-116.0","615880a66bc32302998866d9","665500ab8938657b03fbdba8","66577f80c55278d166c08833","517","stimuli/21100002.jpg"," ","","feedback_trial","2","","","","","","","","","","","","","","","","","","","","",""
"","","","","","image-keyboard-response","142","306508","0.0-117.0","615880a66bc32302998866d9","665500ab8938657b03fbdba8","66577f80c55278d166c08833","765","stimuli/0011011.jpg","0","","prediction_trial","0","","true","","0","true","true","true","true","true","true","[0]","011","011","1","","","","","","",""
"","","","","","image-keyboard-response","143","306958","0.0-118.0","615880a66bc32302998866d9","665500ab8938657b03fbdba8","66577f80c55278d166c08833","449","stimuli/00110110.jpg"," ","","feedback_trial","0","","","","","","","","","","","","","","","","","","","","",""
"","","","","","image-keyboard-response","144","307678","0.0-119.0","615880a66bc32302998866d9","665500ab8938657b03fbdba8","66577f80c55278d166c08833","720","stimuli/2100110.jpg","2","","prediction_trial","2","","true","","2","true","true","true","true","true","true","[2]","100","110","1","","","","","","",""
"","","","","","image-keyboard-response","145","308150","0.0-120.0","615880a66bc32302998866d9","665500ab8938657b03fbdba8","66577f80c55278d166c08833","472","stimuli/21001102.jpg"," ","","feedback_trial","2","","","","","","","","","","","","","","","","","","","","",""
"","","","","","image-keyboard-response","146","310130","0.0-121.0","615880a66bc32302998866d9","665500ab8938657b03fbdba8","66577f80c55278d166c08833","1980","stimuli/2101001.jpg","0","","prediction_trial","0","","true","","2","false","true","false","false","false","false","[0,2]","101","001","1","","","","","","",""
"","","","","","image-keyboard-response","147","310985","0.0-122.0","615880a66bc32302998866d9","665500ab8938657b03fbdba8","66577f80c55278d166c08833","854","stimuli/21010010.jpg"," ","","feedback_trial","0","","","","","","","","","","","","","","","","","","","","",""
"","","","","","image-keyboard-response","148","312537","0.0-123.0","615880a66bc32302998866d9","665500ab8938657b03fbdba8","66577f80c55278d166c08833","1552","stimuli/0001101.jpg","2","","prediction_trial","0","","false","","0","false","false","true","true","false","false","[0]","001","101","0","","","","","","",""
"","","","","","image-keyboard-response","149","313730","0.0-124.0","615880a66bc32302998866d9","665500ab8938657b03fbdba8","66577f80c55278d166c08833","1192","stimuli/00011010.jpg"," ","","feedback_trial","0","","","","","","","","","","","","","","","","","","","","",""
"","","","","","image-keyboard-response","150","315609","0.0-125.0","615880a66bc32302998866d9","665500ab8938657b03fbdba8","66577f80c55278d166c08833","1879","stimuli/2111011.jpg","2","","prediction_trial","0","","false","","2","false","false","false","false","false","false","[0,2,1]","111","011","0","","","","","","",""
"","","","","","image-keyboard-response","151","317341","0.0-126.0","615880a66bc32302998866d9","665500ab8938657b03fbdba8","66577f80c55278d166c08833","1732","stimuli/21110110.jpg"," ","","feedback_trial","0","","","","","","","","","","","","","","","","","","","","",""
"","","","","","image-keyboard-response","152","318421","0.0-127.0","615880a66bc32302998866d9","665500ab8938657b03fbdba8","66577f80c55278d166c08833","1080","stimuli/2010010.jpg","2","","prediction_trial","2","","true","","2","true","true","true","true","true","true","[2]","010","010","1","","","","","","",""
"","","","","","image-keyboard-response","153","318893","0.0-128.0","615880a66bc32302998866d9","665500ab8938657b03fbdba8","66577f80c55278d166c08833","472","stimuli/20100102.jpg"," ","","feedback_trial","2","","","","","","","","","","","","","","","","","","","","",""
"","","","","","image-keyboard-response","154","320153","0.0-129.0","615880a66bc32302998866d9","665500ab8938657b03fbdba8","66577f80c55278d166c08833","1260","stimuli/0011100.jpg","0","","prediction_trial","0","","true","","0","false","true","true","true","false","true","[0]","011","100","1","","","","","","",""
"","","","","","image-keyboard-response","155","320580","0.0-130.0","615880a66bc32302998866d9","665500ab8938657b03fbdba8","66577f80c55278d166c08833","427","stimuli/00111000.jpg"," ","","feedback_trial","0","","","","","","","","","","","","","","","","","","","","",""
"","","","","","image-keyboard-response","156","322223","0.0-131.0","615880a66bc32302998866d9","665500ab8938657b03fbdba8","66577f80c55278d166c08833","1642","stimuli/0110001.jpg","0","","prediction_trial","0","","true","","0","true","true","false","false","false","false","[0,1]","110","001","1","","","","","","",""
"","","","","","image-keyboard-response","157","322707","0.0-132.0","615880a66bc32302998866d9","665500ab8938657b03fbdba8","66577f80c55278d166c08833","483","stimuli/01100010.jpg"," ","","feedback_trial","0","","","","","","","","","","","","","","","","","","","","",""
"","","","","","image-keyboard-response","158","323776","0.0-133.0","615880a66bc32302998866d9","665500ab8938657b03fbdba8","66577f80c55278d166c08833","1068","stimuli/0011000.jpg","0","","prediction_trial","0","","true","","0","true","true","true","true","true","true","[0]","011","000","1","","","","","","",""
"","","","","","image-keyboard-response","159","324147","0.0-134.0","615880a66bc32302998866d9","665500ab8938657b03fbdba8","66577f80c55278d166c08833","371","stimuli/00110000.jpg"," ","","feedback_trial","0","","","","","","","","","","","","","","","","","","","","",""
"","","","","","image-keyboard-response","160","325710","0.0-135.0","615880a66bc32302998866d9","665500ab8938657b03fbdba8","66577f80c55278d166c08833","1563","stimuli/1101001.jpg","1","","prediction_trial","1","","true","","1","true","true","true","true","true","true","[1]","101","001","1","","","","","","",""
"","","","","","image-keyboard-response","161","326092","0.0-136.0","615880a66bc32302998866d9","665500ab8938657b03fbdba8","66577f80c55278d166c08833","382","stimuli/11010011.jpg"," ","","feedback_trial","1","","","","","","","","","","","","","","","","","","","","",""
"","","","","","image-keyboard-response","162","327510","0.0-137.0","615880a66bc32302998866d9","665500ab8938657b03fbdba8","66577f80c55278d166c08833","1418","stimuli/0000111.jpg","2","","prediction_trial","0","","false","","0","false","false","true","true","false","false","[0]","000","111","0","","","","","","",""
"","","","","","image-keyboard-response","163","328297","0.0-138.0","615880a66bc32302998866d9","665500ab8938657b03fbdba8","66577f80c55278d166c08833","786","stimuli/00001110.jpg"," ","","feedback_trial","0","","","","","","","","","","","","","","","","","","","","",""
"","","","","","image-keyboard-response","164","328995","0.0-139.0","615880a66bc32302998866d9","665500ab8938657b03fbdba8","66577f80c55278d166c08833","697","stimuli/1011001.jpg","1","","prediction_trial","1","","true","","1","true","true","false","false","false","false","[2,1]","011","001","1","","","","","","",""
"","","","","","image-keyboard-response","165","329557","0.0-140.0","615880a66bc32302998866d9","665500ab8938657b03fbdba8","66577f80c55278d166c08833","562","stimuli/10110011.jpg"," ","","feedback_trial","2","","","","","","","","","","","","","","","","","","","","",""
"","","","","","image-keyboard-response","166","331852","0.0-141.0","615880a66bc32302998866d9","665500ab8938657b03fbdba8","66577f80c55278d166c08833","2295","stimuli/1001011.jpg","2","","prediction_trial","1","","false","","1","false","false","true","true","false","false","[1]","001","011","0","","","","","","",""
"","","","","","image-keyboard-response","167","332662","0.0-142.0","615880a66bc32302998866d9","665500ab8938657b03fbdba8","66577f80c55278d166c08833","809","stimuli/10010111.jpg"," ","","feedback_trial","1","","","","","","","","","","","","","","","","","","","","",""
"","","","","","image-keyboard-response","168","333270","0.0-143.0","615880a66bc32302998866d9","665500ab8938657b03fbdba8","66577f80c55278d166c08833","608","stimuli/2011000.jpg","2","","prediction_trial","1","","false","","2","true","true","false","false","false","false","[1,2]","011","000","0","","","","","","",""
"","","","","","image-keyboard-response","169","334889","0.0-144.0","615880a66bc32302998866d9","665500ab8938657b03fbdba8","66577f80c55278d166c08833","1619","stimuli/20110001.jpg"," ","","feedback_trial","1","","","","","","","","","","","","","","","","","","","","",""
"","","","","","image-keyboard-response","170","337274","0.0-145.0","615880a66bc32302998866d9","665500ab8938657b03fbdba8","66577f80c55278d166c08833","2385","stimuli/2101101.jpg","0","","prediction_trial","2","","false","","2","false","false","false","false","false","false","[0,2]","101","101","0","","","","","","",""
"","","","","","image-keyboard-response","171","338332","0.0-146.0","615880a66bc32302998866d9","665500ab8938657b03fbdba8","66577f80c55278d166c08833","1058","stimuli/21011012.jpg"," ","","feedback_trial","0","","","","","","","","","","","","","","","","","","","","",""
"","","","","","image-keyboard-response","172","340199","0.0-147.0","615880a66bc32302998866d9","665500ab8938657b03fbdba8","66577f80c55278d166c08833","1867","stimuli/1000110.jpg","0","","prediction_trial","1","","false","","1","false","false","true","true","false","false","[1]","000","110","0","","","","","","",""
"","","","","","image-keyboard-response","173","340987","0.0-148.0","615880a66bc32302998866d9","665500ab8938657b03fbdba8","66577f80c55278d166c08833","787","stimuli/10001101.jpg"," ","","feedback_trial","1","","","","","","","","","","","","","","","","","","","","",""
"","","","","","image-keyboard-response","174","342078","0.0-149.0","615880a66bc32302998866d9","665500ab8938657b03fbdba8","66577f80c55278d166c08833","1091","stimuli/1001001.jpg","1","","prediction_trial","1","","true","","1","true","true","true","true","true","true","[1]","001","001","1","","","","","","",""
"","","","","","image-keyboard-response","175","342663","0.0-150.0","615880a66bc32302998866d9","665500ab8938657b03fbdba8","66577f80c55278d166c08833","585","stimuli/10010011.jpg"," ","","feedback_trial","1","","","","","","","","","","","","","","","","","","","","",""
"","","","","","image-keyboard-response","176","344001","0.0-151.0","615880a66bc32302998866d9","665500ab8938657b03fbdba8","66577f80c55278d166c08833","1338","stimuli/2000111.jpg","0","","prediction_trial","2","","false","","2","false","false","true","true","false","false","[2]","000","111","0","","","","","","",""
"","","","","","image-keyboard-response","177","344968","0.0-152.0","615880a66bc32302998866d9","665500ab8938657b03fbdba8","66577f80c55278d166c08833","967","stimuli/20001112.jpg"," ","","feedback_trial","2","","","","","","","","","","","","","","","","","","","","",""
"","","","","","image-keyboard-response","178","347894","0.0-153.0","615880a66bc32302998866d9","665500ab8938657b03fbdba8","66577f80c55278d166c08833","2925","stimuli/2100011.jpg","1","","prediction_trial","2","","false","","2","false","false","true","true","false","false","[2]","100","011","0","","","","","","",""
"","","","","","image-keyboard-response","179","348816","0.0-154.0","615880a66bc32302998866d9","665500ab8938657b03fbdba8","66577f80c55278d166c08833","922","stimuli/21000112.jpg"," ","","feedback_trial","2","","","","","","","","","","","","","","","","","","","","",""
"","","","","","image-keyboard-response","180","350414","0.0-155.0","615880a66bc32302998866d9","665500ab8938657b03fbdba8","66577f80c55278d166c08833","1597","stimuli/1100010.jpg","1","","prediction_trial","1","","true","","1","false","true","true","true","false","true","[1]","100","010","1","","","","","","",""
"","","","","","image-keyboard-response","181","350986","0.0-156.0","615880a66bc32302998866d9","665500ab8938657b03fbdba8","66577f80c55278d166c08833","572","stimuli/11000101.jpg"," ","","feedback_trial","1","","","","","","","","","","","","","","","","","","","","",""
"","","","","","image-keyboard-response","182","352146","0.0-157.0","615880a66bc32302998866d9","665500ab8938657b03fbdba8","66577f80c55278d166c08833","1159","stimuli/0100110.jpg","0","","prediction_trial","0","","true","","0","false","false","false","true","false","false","[0]","100","110","1","","","","","","",""
"","","","","","image-keyboard-response","183","353023","0.0-158.0","615880a66bc32302998866d9","665500ab8938657b03fbdba8","66577f80c55278d166c08833","877","stimuli/01001100.jpg"," ","","feedback_trial","0","","","","","","","","","","","","","","","","","","","","",""
"","","","","","image-keyboard-response","184","354261","0.0-159.0","615880a66bc32302998866d9","665500ab8938657b03fbdba8","66577f80c55278d166c08833","1237","stimuli/2101110.jpg","2","","prediction_trial","0","","false","","2","true","true","false","false","false","false","[2,0]","101","110","0","","","","","","",""
"","","","","","image-keyboard-response","185","355318","0.0-160.0","615880a66bc32302998866d9","665500ab8938657b03fbdba8","66577f80c55278d166c08833","1057","stimuli/21011100.jpg"," ","","feedback_trial","2","","","","","","","","","","","","","","","","","","","","",""
"","","","","","image-keyboard-response","186","356105","0.0-161.0","615880a66bc32302998866d9","665500ab8938657b03fbdba8","66577f80c55278d166c08833","787","stimuli/2001000.jpg","2","","prediction_trial","2","","true","","2","true","true","false","true","false","true","[2]","001","000","1","","","","","","",""
"","","","","","image-keyboard-response","187","357028","0.0-162.0","615880a66bc32302998866d9","665500ab8938657b03fbdba8","66577f80c55278d166c08833","923","stimuli/20010002.jpg"," ","","feedback_trial","2","","","","","","","","","","","","","","","","","","","","",""
"","","","","","image-keyboard-response","188","357860","0.0-163.0","615880a66bc32302998866d9","665500ab8938657b03fbdba8","66577f80c55278d166c08833","832","stimuli/2000000.jpg","2","","prediction_trial","2","","true","","2","true","true","true","true","true","true","[2]","000","000","1","","","","","","",""
"","","","","","image-keyboard-response","189","358356","0.0-164.0","615880a66bc32302998866d9","665500ab8938657b03fbdba8","66577f80c55278d166c08833","495","stimuli/20000002.jpg"," ","","feedback_trial","2","","","","","","","","","","","","","","","","","","","","",""
"","","","","","image-keyboard-response","190","361292","0.0-165.0","615880a66bc32302998866d9","665500ab8938657b03fbdba8","66577f80c55278d166c08833","2935","stimuli/0110010.jpg","0","","prediction_trial","0","","true","","0","true","true","false","false","false","false","[0,1]","110","010","1","","","","","","",""
"","","","","","image-keyboard-response","191","362135","0.0-166.0","615880a66bc32302998866d9","665500ab8938657b03fbdba8","66577f80c55278d166c08833","843","stimuli/01100100.jpg"," ","","feedback_trial","0","","","","","","","","","","","","","","","","","","","","",""
"","","","","","image-keyboard-response","192","362923","0.0-167.0","615880a66bc32302998866d9","665500ab8938657b03fbdba8","66577f80c55278d166c08833","787","stimuli/2100101.jpg","0","","prediction_trial","2","","false","","2","false","false","true","true","false","false","[2]","100","101","0","","","","","","",""
"","","","","","image-keyboard-response","193","364070","0.0-168.0","615880a66bc32302998866d9","665500ab8938657b03fbdba8","66577f80c55278d166c08833","1147","stimuli/21001012.jpg"," ","","feedback_trial","2","","","","","","","","","","","","","","","","","","","","",""
"","","","","","image-keyboard-response","194","365398","0.0-169.0","615880a66bc32302998866d9","665500ab8938657b03fbdba8","66577f80c55278d166c08833","1328","stimuli/1110011.jpg","1","","prediction_trial","1","","true","","1","false","false","false","false","false","false","[0,1]","110","011","1","","","","","","",""
"","","","","","image-keyboard-response","195","365937","0.0-170.0","615880a66bc32302998866d9","665500ab8938657b03fbdba8","66577f80c55278d166c08833","539","stimuli/11100111.jpg"," ","","feedback_trial","0","","","","","","","","","","","","","","","","","","","","",""
"","","","","","image-keyboard-response","196","367659","0.0-171.0","615880a66bc32302998866d9","665500ab8938657b03fbdba8","66577f80c55278d166c08833","1721","stimuli/0100011.jpg","2","","prediction_trial","0","","false","","0","true","true","false","true","false","true","[0]","100","011","0","","","","","","",""
"","","","","","image-keyboard-response","197","368491","0.0-172.0","615880a66bc32302998866d9","665500ab8938657b03fbdba8","66577f80c55278d166c08833","832","stimuli/01000110.jpg"," ","","feedback_trial","0","","","","","","","","","","","","","","","","","","","","",""
"","","","","","image-keyboard-response","198","370268","0.0-173.0","615880a66bc32302998866d9","665500ab8938657b03fbdba8","66577f80c55278d166c08833","1777","stimuli/2001011.jpg","2","","prediction_trial","2","","true","","2","false","false","false","true","false","false","[2]","001","011","1","","","","","","",""
"","","","","","image-keyboard-response","199","370808","0.0-174.0","615880a66bc32302998866d9","665500ab8938657b03fbdba8","66577f80c55278d166c08833","539","stimuli/20010112.jpg"," ","","feedback_trial","2","","","","","","","","","","","","","","","","","","","","",""
"","","","","","image-keyboard-response","200","372811","0.0-175.0","615880a66bc32302998866d9","665500ab8938657b03fbdba8","66577f80c55278d166c08833","2002","stimuli/0010100.jpg","0","","prediction_trial","0","","true","","0","false","true","true","true","false","true","[0]","010","100","1","","","","","","",""
"","","","","","image-keyboard-response","201","373340","0.0-176.0","615880a66bc32302998866d9","665500ab8938657b03fbdba8","66577f80c55278d166c08833","529","stimuli/00101000.jpg"," ","","feedback_trial","0","","","","","","","","","","","","","","","","","","","","",""
"","","","","","image-keyboard-response","202","376028","0.0-177.0","615880a66bc32302998866d9","665500ab8938657b03fbdba8","66577f80c55278d166c08833","2688","stimuli/1110000.jpg","0","","prediction_trial","0","","true","","1","true","true","false","false","false","false","[1,0]","110","000","1","","","","","","",""
"","","","","","image-keyboard-response","203","376399","0.0-178.0","615880a66bc32302998866d9","665500ab8938657b03fbdba8","66577f80c55278d166c08833","371","stimuli/11100000.jpg"," ","","feedback_trial","1","","","","","","","","","","","","","","","","","","","","",""
"","","","","","image-keyboard-response","204","377467","0.0-179.0","615880a66bc32302998866d9","665500ab8938657b03fbdba8","66577f80c55278d166c08833","1068","stimuli/2110011.jpg","1","","prediction_trial","2","","false","","2","false","false","true","true","false","false","[2]","110","011","0","","","","","","",""
"","","","","","image-keyboard-response","205","378547","0.0-180.0","615880a66bc32302998866d9","665500ab8938657b03fbdba8","66577f80c55278d166c08833","1079","stimuli/21100112.jpg"," ","","feedback_trial","2","","","","","","","","","","","","","","","","","","","","",""
"","","","","","image-keyboard-response","206","379605","0.0-181.0","615880a66bc32302998866d9","665500ab8938657b03fbdba8","66577f80c55278d166c08833","1058","stimuli/2000100.jpg","2","","prediction_trial","2","","true","","2","true","true","true","true","true","true","[2]","000","100","1","","","","","","",""
"","","","","","image-keyboard-response","207","380066","0.0-182.0","615880a66bc32302998866d9","665500ab8938657b03fbdba8","66577f80c55278d166c08833","461","stimuli/20001002.jpg"," ","","feedback_trial","2","","","","","","","","","","","","","","","","","","","","",""
"","","","","","image-keyboard-response","208","380595","0.0-183.0","615880a66bc32302998866d9","665500ab8938657b03fbdba8","66577f80c55278d166c08833","529","stimuli/0000010.jpg","0","","prediction_trial","0","","true","","0","true","true","true","true","true","true","[0]","000","010","1","","","","","","",""
"","","","","","image-keyboard-response","209","380988","0.0-184.0","615880a66bc32302998866d9","665500ab8938657b03fbdba8","66577f80c55278d166c08833","393","stimuli/00000100.jpg"," ","","feedback_trial","0","","","","","","","","","","","","","","","","","","","","",""
"","","","","","image-keyboard-response","210","383228","0.0-185.0","615880a66bc32302998866d9","665500ab8938657b03fbdba8","66577f80c55278d166c08833","2239","stimuli/1110100.jpg","0","","prediction_trial","1","","false","","1","true","true","false","false","false","false","[1,0]","110","100","0","","","","","","",""
"","","","","","image-keyboard-response","211","384127","0.0-186.0","615880a66bc32302998866d9","665500ab8938657b03fbdba8","66577f80c55278d166c08833","899","stimuli/11101001.jpg"," ","","feedback_trial","1","","","","","","","","","","","","","","","","","","","","",""
"","","","","","image-keyboard-response","212","384791","0.0-187.0","615880a66bc32302998866d9","665500ab8938657b03fbdba8","66577f80c55278d166c08833","664","stimuli/1001100.jpg","1","","prediction_trial","1","","true","","1","true","true","true","true","true","true","[1]","001","100","1","","","","","","",""
"","","","","","image-keyboard-response","213","385342","0.0-188.0","615880a66bc32302998866d9","665500ab8938657b03fbdba8","66577f80c55278d166c08833","550","stimuli/10011001.jpg"," ","","feedback_trial","1","","","","","","","","","","","","","","","","","","","","",""
"","","","","","image-keyboard-response","214","386085","0.0-189.0","615880a66bc32302998866d9","665500ab8938657b03fbdba8","66577f80c55278d166c08833","742","stimuli/1100000.jpg","1","","prediction_trial","1","","true","","1","true","true","true","true","true","true","[1]","100","000","1","","","","","","",""
"","","","","","image-keyboard-response","215","386343","0.0-190.0","615880a66bc32302998866d9","665500ab8938657b03fbdba8","66577f80c55278d166c08833","258","stimuli/11000001.jpg"," ","","feedback_trial","1","","","","","","","","","","","","","","","","","","","","",""
"","","","","","image-keyboard-response","216","387367","0.0-191.0","615880a66bc32302998866d9","665500ab8938657b03fbdba8","66577f80c55278d166c08833","1023","stimuli/0111001.jpg","0","","prediction_trial","2","","false","","0","true","true","false","false","false","false","[1,2,0]","111","001","0","","","","","","",""
"","","","","","image-keyboard-response","217","388425","0.0-192.0","615880a66bc32302998866d9","665500ab8938657b03fbdba8","66577f80c55278d166c08833","1057","stimuli/01110012.jpg"," ","","feedback_trial","1","","","","","","","","","","","","","","","","","","","","",""
"","","","","","image-keyboard-response","218","391056","0.0-193.0","615880a66bc32302998866d9","665500ab8938657b03fbdba8","66577f80c55278d166c08833","2632","stimuli/0110111.jpg","0","","prediction_trial","0","","true","","0","false","false","false","false","false","false","[0,1]","110","111","1","","","","","","",""
"","","","","","image-keyboard-response","219","391507","0.0-194.0","615880a66bc32302998866d9","665500ab8938657b03fbdba8","66577f80c55278d166c08833","450","stimuli/01101110.jpg"," ","","feedback_trial","0","","","","","","","","","","","","","","","","","","","","",""
"","","","","","image-keyboard-response","220","394612","0.0-195.0","615880a66bc32302998866d9","665500ab8938657b03fbdba8","66577f80c55278d166c08833","3105","stimuli/2101010.jpg","1","","prediction_trial","0","","false","","2","true","true","false","false","false","false","[0,2]","101","010","0","","","","","","",""
"","","","","","image-keyboard-response","221","395545","0.0-196.0","615880a66bc32302998866d9","665500ab8938657b03fbdba8","66577f80c55278d166c08833","933","stimuli/21010100.jpg"," ","","feedback_trial","0","","","","","","","","","","","","","","","","","","","","",""
"","","","","","image-keyboard-response","222","396333","0.0-197.0","615880a66bc32302998866d9","665500ab8938657b03fbdba8","66577f80c55278d166c08833","788","stimuli/1000011.jpg","1","","prediction_trial","1","","true","","1","false","false","true","true","false","false","[1]","000","011","1","","","","","","",""
"","","","","","image-keyboard-response","223","396963","0.0-198.0","615880a66bc32302998866d9","665500ab8938657b03fbdba8","66577f80c55278d166c08833","630","stimuli/10000111.jpg"," ","","feedback_trial","1","","","","","","","","","","","","","","","","","","","","",""
"","","","","","image-keyboard-response","224","398144","0.0-199.0","615880a66bc32302998866d9","665500ab8938657b03fbdba8","66577f80c55278d166c08833","1181","stimuli/0101001.jpg","2","","prediction_trial","2","","true","","0","true","true","false","false","false","false","[0,2]","101","001","1","","","","","","",""
"","","","","","image-keyboard-response","225","399089","0.0-200.0","615880a66bc32302998866d9","665500ab8938657b03fbdba8","66577f80c55278d166c08833","944","stimuli/01010012.jpg"," ","","feedback_trial","0","","","","","","","","","","","","","","","","","","","","",""
"","","","","","image-keyboard-response","226","400596","0.0-201.0","615880a66bc32302998866d9","665500ab8938657b03fbdba8","66577f80c55278d166c08833","1507","stimuli/1101110.jpg","0","","prediction_trial","1","","false","","1","false","false","true","true","false","false","[1]","101","110","0","","","","","","",""
"","","","","","image-keyboard-response","227","401721","0.0-202.0","615880a66bc32302998866d9","665500ab8938657b03fbdba8","66577f80c55278d166c08833","1124","stimuli/11011101.jpg"," ","","feedback_trial","1","","","","","","","","","","","","","","","","","","","","",""
"","","","","","image-keyboard-response","228","403599","0.0-203.0","615880a66bc32302998866d9","665500ab8938657b03fbdba8","66577f80c55278d166c08833","1878","stimuli/1111011.jpg","0","","prediction_trial","2","","false","","1","false","false","false","false","false","false","[2,0,1]","111","011","0","","","","","","",""
"","","","","","image-keyboard-response","229","404635","0.0-204.0","615880a66bc32302998866d9","665500ab8938657b03fbdba8","66577f80c55278d166c08833","1035","stimuli/11110112.jpg"," ","","feedback_trial","2","","","","","","","","","","","","","","","","","","","","",""
"","","","","","image-keyboard-response","230","405692","0.0-205.0","615880a66bc32302998866d9","665500ab8938657b03fbdba8","66577f80c55278d166c08833","1057","stimuli/2000001.jpg","2","","prediction_trial","2","","true","","2","false","true","true","true","false","true","[2]","000","001","1","","","","","","",""
"","","","","","image-keyboard-response","231","406412","0.0-206.0","615880a66bc32302998866d9","665500ab8938657b03fbdba8","66577f80c55278d166c08833","720","stimuli/20000012.jpg"," ","","feedback_trial","2","","","","","","","","","","","","","","","","","","","","",""
"","","","","","image-keyboard-response","232","410146","0.0-207.0","615880a66bc32302998866d9","665500ab8938657b03fbdba8","66577f80c55278d166c08833","3734","stimuli/2011110.jpg","0","","prediction_trial","1","","false","","2","true","true","false","false","false","false","[1,2]","011","110","0","","","","","","",""
"","","","","","image-keyboard-response","233","410956","0.0-208.0","615880a66bc32302998866d9","665500ab8938657b03fbdba8","66577f80c55278d166c08833","809","stimuli/20111101.jpg"," ","","feedback_trial","1","","","","","","","","","","","","","","","","","","","","",""
"","","","","","image-keyboard-response","234","412746","0.0-209.0","615880a66bc32302998866d9","665500ab8938657b03fbdba8","66577f80c55278d166c08833","1789","stimuli/2011011.jpg","1","","prediction_trial","2","","false","","2","false","false","false","false","false","false","[2,1]","011","011","0","","","","","","",""
"","","","","","image-keyboard-response","235","413589","0.0-210.0","615880a66bc32302998866d9","665500ab8938657b03fbdba8","66577f80c55278d166c08833","843","stimuli/20110112.jpg"," ","","feedback_trial","2","","","","","","","","","","","","","","","","","","","","",""
"","","","","","image-keyboard-response","236","414917","0.0-211.0","615880a66bc32302998866d9","665500ab8938657b03fbdba8","66577f80c55278d166c08833","1327","stimuli/2010101.jpg","0","","prediction_trial","2","","false","","2","false","false","true","true","false","false","[2]","010","101","0","","","","","","",""
"","","","","","image-keyboard-response","237","415749","0.0-212.0","615880a66bc32302998866d9","665500ab8938657b03fbdba8","66577f80c55278d166c08833","832","stimuli/20101012.jpg"," ","","feedback_trial","2","","","","","","","","","","","","","","","","","","","","",""
"","","","","","image-keyboard-response","238","417211","0.0-213.0","615880a66bc32302998866d9","665500ab8938657b03fbdba8","66577f80c55278d166c08833","1462","stimuli/1001010.jpg","1","","prediction_trial","1","","true","","1","false","true","true","true","false","true","[1]","001","010","1","","","","","","",""
"","","","","","image-keyboard-response","239","417808","0.0-214.0","615880a66bc32302998866d9","665500ab8938657b03fbdba8","66577f80c55278d166c08833","596","stimuli/10010101.jpg"," ","","feedback_trial","1","","","","","","","","","","","","","","","","","","","","",""
"","","","","","image-keyboard-response","240","419191","0.0-215.0","615880a66bc32302998866d9","665500ab8938657b03fbdba8","66577f80c55278d166c08833","1383","stimuli/1001000.jpg","1","","prediction_trial","1","","true","","1","true","true","true","true","true","true","[1]","001","000","1","","","","","","",""
"","","","","","image-keyboard-response","241","419708","0.0-216.0","615880a66bc32302998866d9","665500ab8938657b03fbdba8","66577f80c55278d166c08833","517","stimuli/10010001.jpg"," ","","feedback_trial","1","","","","","","","","","","","","","","","","","","","","",""
"","","","","","image-keyboard-response","242","421014","0.0-217.0","615880a66bc32302998866d9","665500ab8938657b03fbdba8","66577f80c55278d166c08833","1305","stimuli/2110010.jpg","2","","prediction_trial","2","","true","","2","true","true","true","true","true","true","[2]","110","010","1","","","","","","",""
"","","","","","image-keyboard-response","243","421588","0.0-218.0","615880a66bc32302998866d9","665500ab8938657b03fbdba8","66577f80c55278d166c08833","573","stimuli/21100102.jpg"," ","","feedback_trial","2","","","","","","","","","","","","","","","","","","","","",""
"","","","","","image-keyboard-response","244","422769","0.0-219.0","615880a66bc32302998866d9","665500ab8938657b03fbdba8","66577f80c55278d166c08833","1181","stimuli/1000101.jpg","1","","prediction_trial","1","","true","","1","true","true","true","true","true","true","[1]","000","101","1","","","","","","",""
"","","","","","image-keyboard-response","245","423061","0.0-220.0","615880a66bc32302998866d9","665500ab8938657b03fbdba8","66577f80c55278d166c08833","292","stimuli/10001011.jpg"," ","","feedback_trial","1","","","","","","","","","","","","","","","","","","","","",""
"","","","","","image-keyboard-response","246","423826","0.0-221.0","615880a66bc32302998866d9","665500ab8938657b03fbdba8","66577f80c55278d166c08833","765","stimuli/0111100.jpg","0","","prediction_trial","1","","false","","0","false","true","false","false","false","false","[0,2,1]","111","100","0","","","","","","",""
"","","","","","image-keyboard-response","247","424636","0.0-222.0","615880a66bc32302998866d9","665500ab8938657b03fbdba8","66577f80c55278d166c08833","809","stimuli/01111001.jpg"," ","","feedback_trial","0","","","","","","","","","","","","","","","","","","","","",""
"","","","","","image-keyboard-response","248","425333","0.0-223.0","615880a66bc32302998866d9","665500ab8938657b03fbdba8","66577f80c55278d166c08833","697","stimuli/2000101.jpg","0","","prediction_trial","2","","false","","2","false","false","true","true","false","false","[2]","000","101","0","","","","","","",""
"","","","","","image-keyboard-response","249","426526","0.0-224.0","615880a66bc32302998866d9","665500ab8938657b03fbdba8","66577f80c55278d166c08833","1192","stimuli/20001012.jpg"," ","","feedback_trial","2","","","","","","","","","","","","","","","","","","","","",""
"","","","","","image-keyboard-response","250","428461","0.0-225.0","615880a66bc32302998866d9","665500ab8938657b03fbdba8","66577f80c55278d166c08833","1935","stimuli/0001100.jpg","0","","prediction_trial","0","","true","","0","false","true","true","true","false","true","[0]","001","100","1","","","","","","",""
"","","","","","image-keyboard-response","251","429068","0.0-226.0","615880a66bc32302998866d9","665500ab8938657b03fbdba8","66577f80c55278d166c08833","607","stimuli/00011000.jpg"," ","","feedback_trial","0","","","","","","","","","","","","","","","","","","","","",""
"","","","","","image-keyboard-response","252","430508","0.0-227.0","615880a66bc32302998866d9","665500ab8938657b03fbdba8","66577f80c55278d166c08833","1440","stimuli/2000110.jpg","2","","prediction_trial","2","","true","","2","true","true","true","true","true","true","[2]","000","110","1","","","","","","",""
"","","","","","image-keyboard-response","253","430969","0.0-228.0","615880a66bc32302998866d9","665500ab8938657b03fbdba8","66577f80c55278d166c08833","461","stimuli/20001102.jpg"," ","","feedback_trial","2","","","","","","","","","","","","","","","","","","","","",""
"","","","","","image-keyboard-response","254","432758","0.0-229.0","615880a66bc32302998866d9","665500ab8938657b03fbdba8","66577f80c55278d166c08833","1789","stimuli/2011010.jpg","0","","prediction_trial","2","","false","","2","true","true","false","false","false","false","[1,2]","011","010","0","","","","","","",""
"","","","","","image-keyboard-response","255","434010","0.0-230.0","615880a66bc32302998866d9","665500ab8938657b03fbdba8","66577f80c55278d166c08833","1252","stimuli/20110102.jpg"," ","","feedback_trial","1","","","","","","","","","","","","","","","","","","","","",""
"","","","","","image-keyboard-response","256","434985","0.0-231.0","615880a66bc32302998866d9","665500ab8938657b03fbdba8","66577f80c55278d166c08833","975","stimuli/0111011.jpg","0","","prediction_trial","1","","false","","0","true","true","false","false","false","false","[0,1,2]","111","011","0","","","","","","",""
"","","","","","image-keyboard-response","257","435705","0.0-232.0","615880a66bc32302998866d9","665500ab8938657b03fbdba8","66577f80c55278d166c08833","720","stimuli/01110111.jpg"," ","","feedback_trial","0","","","","","","","","","","","","","","","","","","","","",""
"","","","","","image-keyboard-response","258","436470","0.0-233.0","615880a66bc32302998866d9","665500ab8938657b03fbdba8","66577f80c55278d166c08833","765","stimuli/0110011.jpg","0","","prediction_trial","0","","true","","0","true","true","false","false","false","false","[1,0]","110","011","1","","","","","","",""
"","","","","","image-keyboard-response","259","437133","0.0-234.0","615880a66bc32302998866d9","665500ab8938657b03fbdba8","66577f80c55278d166c08833","663","stimuli/01100110.jpg"," ","","feedback_trial","1","","","","","","","","","","","","","","","","","","","","",""
"","","","","","image-keyboard-response","260","438000","0.0-235.0","615880a66bc32302998866d9","665500ab8938657b03fbdba8","66577f80c55278d166c08833","866","stimuli/1011011.jpg","1","","prediction_trial","1","","true","","1","false","false","false","false","false","false","[1,2]","011","011","1","","","","","","",""
"","","","","","image-keyboard-response","261","438787","0.0-236.0","615880a66bc32302998866d9","665500ab8938657b03fbdba8","66577f80c55278d166c08833","787","stimuli/10110111.jpg"," ","","feedback_trial","1","","","","","","","","","","","","","","","","","","","","",""
"","","","","","image-keyboard-response","262","440385","0.0-237.0","615880a66bc32302998866d9","665500ab8938657b03fbdba8","66577f80c55278d166c08833","1597","stimuli/1010001.jpg","1","","prediction_trial","1","","true","","1","true","true","false","true","false","true","[1]","010","001","1","","","","","","",""
"","","","","","image-keyboard-response","263","441239","0.0-238.0","615880a66bc32302998866d9","665500ab8938657b03fbdba8","66577f80c55278d166c08833","854","stimuli/10100011.jpg"," ","","feedback_trial","1","","","","","","","","","","","","","","","","","","","","",""
"","","","","","image-keyboard-response","264","446068","0.0-239.0","615880a66bc32302998866d9","665500ab8938657b03fbdba8","66577f80c55278d166c08833","4829","stimuli/1111100.jpg","2","","prediction_trial","0","","false","","1","true","true","false","false","false","false","[1,0,2]","111","100","0","","","","","","",""
"","","","","","image-keyboard-response","265","446853","0.0-240.0","615880a66bc32302998866d9","665500ab8938657b03fbdba8","66577f80c55278d166c08833","784","stimuli/11111000.jpg"," ","","feedback_trial","1","","","","","","","","","","","","","","","","","","","","",""
"","","","","","image-keyboard-response","266","449621","0.0-241.0","615880a66bc32302998866d9","665500ab8938657b03fbdba8","66577f80c55278d166c08833","2768","stimuli/1011100.jpg","0","","prediction_trial","2","","false","","1","true","true","false","false","false","false","[2,1]","011","100","0","","","","","","",""
"","","","","","image-keyboard-response","267","450655","0.0-242.0","615880a66bc32302998866d9","665500ab8938657b03fbdba8","66577f80c55278d166c08833","1034","stimuli/10111002.jpg"," ","","feedback_trial","2","","","","","","","","","","","","","","","","","","","","",""
"","","","","","image-keyboard-response","268","451983","0.0-243.0","615880a66bc32302998866d9","665500ab8938657b03fbdba8","66577f80c55278d166c08833","1327","stimuli/1101101.jpg","1","","prediction_trial","1","","true","","1","true","true","true","true","true","true","[1]","101","101","1","","","","","","",""
"","","","","","image-keyboard-response","269","452252","0.0-244.0","615880a66bc32302998866d9","665500ab8938657b03fbdba8","66577f80c55278d166c08833","269","stimuli/11011011.jpg"," ","","feedback_trial","1","","","","","","","","","","","","","","","","","","","","",""
"","","","","","image-keyboard-response","270","455762","0.0-245.0","615880a66bc32302998866d9","665500ab8938657b03fbdba8","66577f80c55278d166c08833","3510","stimuli/1010011.jpg","2","","prediction_trial","1","","false","","1","false","false","false","true","false","false","[1]","010","011","0","","","","","","",""
"","","","","","image-keyboard-response","271","456359","0.0-246.0","615880a66bc32302998866d9","665500ab8938657b03fbdba8","66577f80c55278d166c08833","596","stimuli/10100111.jpg"," ","","feedback_trial","1","","","","","","","","","","","","","","","","","","","","",""
"","","","","","image-keyboard-response","272","457135","0.0-247.0","615880a66bc32302998866d9","665500ab8938657b03fbdba8","66577f80c55278d166c08833","776","stimuli/0010010.jpg","0","","prediction_trial","0","","true","","0","true","true","true","true","true","true","[0]","010","010","1","","","","","","",""
"","","","","","image-keyboard-response","273","457427","0.0-248.0","615880a66bc32302998866d9","665500ab8938657b03fbdba8","66577f80c55278d166c08833","292","stimuli/00100100.jpg"," ","","feedback_trial","0","","","","","","","","","","","","","","","","","","","","",""
"","","","","","image-keyboard-response","274","458890","0.0-249.0","615880a66bc32302998866d9","665500ab8938657b03fbdba8","66577f80c55278d166c08833","1462","stimuli/0100001.jpg","0","","prediction_trial","0","","true","","0","true","true","false","true","false","true","[0]","100","001","1","","","","","","",""
"","","","","","image-keyboard-response","275","459328","0.0-250.0","615880a66bc32302998866d9","665500ab8938657b03fbdba8","66577f80c55278d166c08833","438","stimuli/01000010.jpg"," ","","feedback_trial","0","","","","","","","","","","","","","","","","","","","","",""
"","","","","","image-keyboard-response","276","460757","0.0-251.0","615880a66bc32302998866d9","665500ab8938657b03fbdba8","66577f80c55278d166c08833","1429","stimuli/0010000.jpg","0","","prediction_trial","0","","true","","0","true","true","true","true","true","true","[0]","010","000","1","","","","","","",""
"","","","","","image-keyboard-response","277","461004","0.0-252.0","615880a66bc32302998866d9","665500ab8938657b03fbdba8","66577f80c55278d166c08833","246","stimuli/00100000.jpg"," ","","feedback_trial","0","","","","","","","","","","","","","","","","","","","","",""
"","","","","","image-keyboard-response","278","462220","0.0-253.0","615880a66bc32302998866d9","665500ab8938657b03fbdba8","66577f80c55278d166c08833","1216","stimuli/2101011.jpg","1","","prediction_trial","0","","false","","2","false","false","false","false","false","false","[0,2]","101","011","0","","","","","","",""
"","","","","","image-keyboard-response","279","463119","0.0-254.0","615880a66bc32302998866d9","665500ab8938657b03fbdba8","66577f80c55278d166c08833","899","stimuli/21010110.jpg"," ","","feedback_trial","0","","","","","","","","","","","","","","","","","","","","",""
"","","","","","image-keyboard-response","280","463760","0.0-255.0","615880a66bc32302998866d9","665500ab8938657b03fbdba8","66577f80c55278d166c08833","641","stimuli/1001111.jpg","1","","prediction_trial","1","","true","","1","false","false","true","true","false","false","[1]","001","111","1","","","","","","",""
"","","","","","image-keyboard-response","281","464447","0.0-256.0","615880a66bc32302998866d9","665500ab8938657b03fbdba8","66577f80c55278d166c08833","686","stimuli/10011111.jpg"," ","","feedback_trial","1","","","","","","","","","","","","","","","","","","","","",""
"","","","","","image-keyboard-response","282","465369","0.0-257.0","615880a66bc32302998866d9","665500ab8938657b03fbdba8","66577f80c55278d166c08833","922","stimuli/2110110.jpg","2","","prediction_trial","2","","true","","2","true","true","true","true","true","true","[2]","110","110","1","","","","","","",""
"","","","","","image-keyboard-response","283","465718","0.0-258.0","615880a66bc32302998866d9","665500ab8938657b03fbdba8","66577f80c55278d166c08833","348","stimuli/21101102.jpg"," ","","feedback_trial","2","","","","","","","","","","","","","","","","","","","","",""
"","","","","","image-keyboard-response","284","468271","0.0-259.0","615880a66bc32302998866d9","665500ab8938657b03fbdba8","66577f80c55278d166c08833","2553","stimuli/0011111.jpg","0","","prediction_trial","0","","true","","0","false","false","true","true","false","false","[0]","011","111","1","","","","","","",""
"","","","","","image-keyboard-response","285","469126","0.0-260.0","615880a66bc32302998866d9","665500ab8938657b03fbdba8","66577f80c55278d166c08833","855","stimuli/00111110.jpg"," ","","feedback_trial","0","","","","","","","","","","","","","","","","","","","","",""
"","","","","","image-keyboard-response","286","470218","0.0-261.0","615880a66bc32302998866d9","665500ab8938657b03fbdba8","66577f80c55278d166c08833","1091","stimuli/1100100.jpg","1","","prediction_trial","1","","true","","1","true","true","true","true","true","true","[1]","100","100","1","","","","","","",""
"","","","","","image-keyboard-response","287","470588","0.0-262.0","615880a66bc32302998866d9","665500ab8938657b03fbdba8","66577f80c55278d166c08833","369","stimuli/11001001.jpg"," ","","feedback_trial","1","","","","","","","","","","","","","","","","","","","","",""
"","","","","","image-keyboard-response","288","472659","0.0-263.0","615880a66bc32302998866d9","665500ab8938657b03fbdba8","66577f80c55278d166c08833","2071","stimuli/2001111.jpg","1","","prediction_trial","2","","false","","2","false","false","false","true","false","false","[2]","001","111","0","","","","","","",""
"","","","","","image-keyboard-response","289","473604","0.0-264.0","615880a66bc32302998866d9","665500ab8938657b03fbdba8","66577f80c55278d166c08833","945","stimuli/20011112.jpg"," ","","feedback_trial","2","","","","","","","","","","","","","","","","","","","","",""
"","","","","","image-keyboard-response","290","475988","0.0-265.0","615880a66bc32302998866d9","665500ab8938657b03fbdba8","66577f80c55278d166c08833","2384","stimuli/0010111.jpg","0","","prediction_trial","0","","true","","0","false","false","true","true","false","false","[0]","010","111","1","","","","","","",""
"","","","","","image-keyboard-response","291","476483","0.0-266.0","615880a66bc32302998866d9","665500ab8938657b03fbdba8","66577f80c55278d166c08833","495","stimuli/00101110.jpg"," ","","feedback_trial","0","","","","","","","","","","","","","","","","","","","","",""
"","","","","","image-keyboard-response","292","477789","0.0-267.0","615880a66bc32302998866d9","665500ab8938657b03fbdba8","66577f80c55278d166c08833","1305","stimuli/2111111.jpg","0","","prediction_trial","2","","false","","2","false","false","false","false","false","false","[1,0,2]","111","111","0","","","","","","",""
"","","","","","image-keyboard-response","293","478711","0.0-268.0","615880a66bc32302998866d9","665500ab8938657b03fbdba8","66577f80c55278d166c08833","922","stimuli/21111112.jpg"," ","","feedback_trial","1","","","","","","","","","","","","","","","","","","","","",""
"","","","","","image-keyboard-response","294","479543","0.0-269.0","615880a66bc32302998866d9","665500ab8938657b03fbdba8","66577f80c55278d166c08833","832","stimuli/0111110.jpg","1","","prediction_trial","2","","false","","0","false","false","false","false","false","false","[2,0,1]","111","110","0","","","","","","",""
"","","","","","image-keyboard-response","295","480646","0.0-270.0","615880a66bc32302998866d9","665500ab8938657b03fbdba8","66577f80c55278d166c08833","1102","stimuli/01111102.jpg"," ","","feedback_trial","2","","","","","","","","","","","","","","","","","","","","",""
"","","","","","image-keyboard-response","296","483661","0.0-271.0","615880a66bc32302998866d9","665500ab8938657b03fbdba8","66577f80c55278d166c08833","3015","stimuli/0101000.jpg","0","","prediction_trial","2","","false","","0","true","true","false","false","false","false","[2,0]","101","000","0","","","","","","",""
"","","","","","image-keyboard-response","297","484695","0.0-272.0","615880a66bc32302998866d9","665500ab8938657b03fbdba8","66577f80c55278d166c08833","1034","stimuli/01010002.jpg"," ","","feedback_trial","2","","","","","","","","","","","","","","","","","","","","",""
"","","","","","image-keyboard-response","298","485865","0.0-273.0","615880a66bc32302998866d9","665500ab8938657b03fbdba8","66577f80c55278d166c08833","1170","stimuli/1001101.jpg","1","","prediction_trial","1","","true","","1","true","true","true","true","true","true","[1]","001","101","1","","","","","","",""
"","","","","","image-keyboard-response","299","486135","0.0-274.0","615880a66bc32302998866d9","665500ab8938657b03fbdba8","66577f80c55278d166c08833","269","stimuli/10011011.jpg"," ","","feedback_trial","1","","","","","","","","","","","","","","","","","","","","",""
"","","","","","image-keyboard-response","300","487283","0.0-275.0","615880a66bc32302998866d9","665500ab8938657b03fbdba8","66577f80c55278d166c08833","1147","stimuli/0100100.jpg","0","","prediction_trial","0","","true","","0","false","true","false","true","false","true","[0]","100","100","1","","","","","","",""
"","","","","","image-keyboard-response","301","487744","0.0-276.0","615880a66bc32302998866d9","665500ab8938657b03fbdba8","66577f80c55278d166c08833","461","stimuli/01001000.jpg"," ","","feedback_trial","0","","","","","","","","","","","","","","","","","","","","",""
"","","","","","image-keyboard-response","302","489218","0.0-277.0","615880a66bc32302998866d9","665500ab8938657b03fbdba8","66577f80c55278d166c08833","1473","stimuli/1100110.jpg","0","","prediction_trial","1","","false","","1","false","false","true","true","false","false","[1]","100","110","0","","","","","","",""
"","","","","","image-keyboard-response","303","489971","0.0-278.0","615880a66bc32302998866d9","665500ab8938657b03fbdba8","66577f80c55278d166c08833","753","stimuli/11001101.jpg"," ","","feedback_trial","1","","","","","","","","","","","","","","","","","","","","",""
"","","","","","image-keyboard-response","304","491321","0.0-279.0","615880a66bc32302998866d9","665500ab8938657b03fbdba8","66577f80c55278d166c08833","1350","stimuli/2001100.jpg","2","","prediction_trial","2","","true","","2","true","true","false","true","false","true","[2]","001","100","1","","","","","","",""
"","","","","","image-keyboard-response","305","492041","0.0-280.0","615880a66bc32302998866d9","665500ab8938657b03fbdba8","66577f80c55278d166c08833","719","stimuli/20011002.jpg"," ","","feedback_trial","2","","","","","","","","","","","","","","","","","","","","",""
"","","","","","image-keyboard-response","306","492918","0.0-281.0","615880a66bc32302998866d9","665500ab8938657b03fbdba8","66577f80c55278d166c08833","877","stimuli/2100000.jpg","2","","prediction_trial","2","","true","","2","true","true","true","true","true","true","[2]","100","000","1","","","","","","",""
"","","","","","image-keyboard-response","307","493368","0.0-282.0","615880a66bc32302998866d9","665500ab8938657b03fbdba8","66577f80c55278d166c08833","450","stimuli/21000002.jpg"," ","","feedback_trial","2","","","","","","","","","","","","","","","","","","","","",""
"","","","","","image-keyboard-response","308","495056","0.0-283.0","615880a66bc32302998866d9","665500ab8938657b03fbdba8","66577f80c55278d166c08833","1687","stimuli/2111001.jpg","0","","prediction_trial","0","","true","","2","false","true","false","false","false","false","[1,0,2]","111","001","1","","","","","","",""
"","","","","","image-keyboard-response","309","495821","0.0-284.0","615880a66bc32302998866d9","665500ab8938657b03fbdba8","66577f80c55278d166c08833","764","stimuli/21110010.jpg"," ","","feedback_trial","1","","","","","","","","","","","","","","","","","","","","",""
"","","","","","image-keyboard-response","310","496878","0.0-285.0","615880a66bc32302998866d9","665500ab8938657b03fbdba8","66577f80c55278d166c08833","1057","stimuli/1101111.jpg","0","","prediction_trial","1","","false","","1","false","false","true","true","false","false","[1]","101","111","0","","","","","","",""
"","","","","","image-keyboard-response","311","497958","0.0-286.0","615880a66bc32302998866d9","665500ab8938657b03fbdba8","66577f80c55278d166c08833","1079","stimuli/11011111.jpg"," ","","feedback_trial","1","","","","","","","","","","","","","","","","","","","","",""
"","","","","","image-keyboard-response","312","501569","0.0-287.0","615880a66bc32302998866d9","665500ab8938657b03fbdba8","66577f80c55278d166c08833","3611","stimuli/1110111.jpg","1","","prediction_trial","0","","false","","1","false","false","false","false","false","false","[0,1]","110","111","0","","","","","","",""
"","","","","","image-keyboard-response","313","502480","0.0-288.0","615880a66bc32302998866d9","665500ab8938657b03fbdba8","66577f80c55278d166c08833","911","stimuli/11101110.jpg"," ","","feedback_trial","0","","","","","","","","","","","","","","","","","","","","",""
"","","","","","image-keyboard-response","314","503167","0.0-289.0","615880a66bc32302998866d9","665500ab8938657b03fbdba8","66577f80c55278d166c08833","686","stimuli/1101000.jpg","1","","prediction_trial","1","","true","","1","true","true","true","true","true","true","[1]","101","000","1","","","","","","",""
"","","","","","image-keyboard-response","315","503594","0.0-290.0","615880a66bc32302998866d9","665500ab8938657b03fbdba8","66577f80c55278d166c08833","426","stimuli/11010001.jpg"," ","","feedback_trial","1","","","","","","","","","","","","","","","","","","","","",""
"","","","","","image-keyboard-response","316","504123","0.0-291.0","615880a66bc32302998866d9","665500ab8938657b03fbdba8","66577f80c55278d166c08833","529","stimuli/1000001.jpg","1","","prediction_trial","1","","true","","1","true","true","true","true","true","true","[1]","000","001","1","","","","","","",""
"","","","","","image-keyboard-response","317","504337","0.0-292.0","615880a66bc32302998866d9","665500ab8938657b03fbdba8","66577f80c55278d166c08833","214","stimuli/10000011.jpg"," ","","feedback_trial","1","","","","","","","","","","","","","","","","","","","","",""
"","","","","","survey-html-form","318","521367","0.0-293.0","615880a66bc32302998866d9","665500ab8938657b03fbdba8","66577f80c55278d166c08833","17029","","{""feedback"":""I tried to follow the pattern "",""age"":""57"",""gender"":""Female"",""other_gender"":"""",""race"":""Asian"",""other_race"":"""",""ethnicity"":""Non-Hispanic""}","","exit_survey","","","","","","","","","","","","","","","","I tried to follow the pattern ","57","Non-Hispanic","Female","Asian","0.5763888888888888","0.5763888888888888"
