"success","timeout","failed_images","failed_audio","failed_video","trial_type","trial_index","time_elapsed","internal_node_id","prolific_id","prolific_study_id","prolific_session_id","rt","stimulus","response","view_history","trial","character_choice","stimulus_dict","accuracy","correct_response","ball_pos","ego_ball_visible","ego_can_infer","alter_ball_visible","alter_can_infer","collective_ball_visible","collective_can_infer","search_locations","alter_occluders","ego_occluders","accuracy_bool","feedback","age","ethnicity","gender","race","overall_accuracy","bonus"
"true","false","[]","[]","[]","preload","0","3529","0.0-0.0","5b774f493c1375000197ad11","665500ab8938657b03fbdba8","6657937176ac1e0591ba7662","","","","","","","","","","","","","","","","","","","","","","","","","","",""
"true","","","","","fullscreen","1","14578","0.0-1.0","5b774f493c1375000197ad11","665500ab8938657b03fbdba8","6657937176ac1e0591ba7662","","","","","","","","","","","","","","","","","","","","","","","","","","",""
"","","","","","html-button-response","2","16765","0.0-2.0","5b774f493c1375000197ad11","665500ab8938657b03fbdba8","6657937176ac1e0591ba7662","2184","<p><b>Consent Form</b></p> <div style=""text-align:left;background-color:lightgrey; padding:20px; max-width:900px;""><p>Please consider this information carefully before deciding whether to participate in this research.</p> <p>The purpose of this research is to examine which factors influence social judgment and decision-making. You will be asked to make judgements about individuals and actions in social scenarios. We are simply interested in your judgement. The study will take less than 1 hour to complete, and you will receive less than $20 on Prolific. Your compensation and time commitment are specified in the study description. There are no anticipated risks associated with participating in this study. The effects of participating should be comparable to those you would ordinarily experience from viewing a computer monitor and using a mouse or keyboard for a similar amount of time. At the end of the study, we will provide an explanation of the questions that motivate this line of research and will describe the potential implications. </p><p> Your participation in this study is completely voluntary and you may refuse to participate or you may choose to withdraw at any time without penalty or loss of benefits to you which are otherwise entitled. Your participation in this study will remain confidential. No personally identifiable information will be associated with your data. Also, all analyses of the data will be averaged across all the participants, so your individual responses will never be specifically analyzed. </p><p> If you have questions or concerns about your participation or payment, or want to request a summary of research findings, please contact Dr. Jonathan Phillips at Jonathan.S.Phillips@dartmouth.edu. </p><p> Please save a copy of this form for your records. </p><p><b>Agreement: </b>The nature and purpose of this research have been sufficiently explained and I agree to participate in this study. I understand that I am free to withdraw at any time without incurring any penalty. Please consent by clicking the button below to continue. Otherwise, please exit the study at any time. </p>","0","","","","","","","","","","","","","","","","","","","","","","","",""
"","","","","","instructions","3","49378","0.0-3.0-0.0","5b774f493c1375000197ad11","665500ab8938657b03fbdba8","6657937176ac1e0591ba7662","32612","","","[{""page_index"":0,""viewing_time"":967},{""page_index"":1,""viewing_time"":981},{""page_index"":2,""viewing_time"":1170},{""page_index"":3,""viewing_time"":2236},{""page_index"":4,""viewing_time"":2293},{""page_index"":5,""viewing_time"":1163},{""page_index"":6,""viewing_time"":1417},{""page_index"":7,""viewing_time"":1919},{""page_index"":8,""viewing_time"":2298},{""page_index"":9,""viewing_time"":1913},{""page_index"":10,""viewing_time"":9167},{""page_index"":11,""viewing_time"":3575},{""page_index"":12,""viewing_time"":2465},{""page_index"":13,""viewing_time"":1048}]","intro","","","","","","","","","","","","","","","","","","","","","",""
"","","","","","image-keyboard-response","4","50692","0.0-3.0-1.0","5b774f493c1375000197ad11","665500ab8938657b03fbdba8","6657937176ac1e0591ba7662","1308","stimuli/0011010.jpg","0","","prediction_practice","0","{""filepath"":""stimuli/0011010.jpg"",""ball_pos"":0,""ego_ball_visible"":true,""ego_can_infer"":true,""alter_ball_visible"":true,""alter_can_infer"":true,""collective_ball_visible"":true,""collective_can_infer"":true,""search_locations"":[0],""alter_occluders"":""011"",""ego_occluders"":""010""}","true","","","","","","","","","","","","","","","","","","",""
"","","","","","image-keyboard-response","5","52045","0.0-3.0-2.0","5b774f493c1375000197ad11","665500ab8938657b03fbdba8","6657937176ac1e0591ba7662","1350","stimuli/00110100.jpg"," ","","practrice_feedback","0","","","","","","","","","","","","","","","","","","","","",""
"","","","","","image-keyboard-response","6","53081","0.0-3.0-3.0","5b774f493c1375000197ad11","665500ab8938657b03fbdba8","6657937176ac1e0591ba7662","1034","stimuli/2100010.jpg","2","","prediction_practice","2","{""filepath"":""stimuli/2100010.jpg"",""ball_pos"":2,""ego_ball_visible"":true,""ego_can_infer"":true,""alter_ball_visible"":true,""alter_can_infer"":true,""collective_ball_visible"":true,""collective_can_infer"":true,""search_locations"":[2],""alter_occluders"":""100"",""ego_occluders"":""010""}","true","","","","","","","","","","","","","","","","","","",""
"","","","","","image-keyboard-response","7","53751","0.0-3.0-4.0","5b774f493c1375000197ad11","665500ab8938657b03fbdba8","6657937176ac1e0591ba7662","667","stimuli/21000102.jpg"," ","","practrice_feedback","2","","","","","","","","","","","","","","","","","","","","",""
"","","","","","image-keyboard-response","8","55227","0.0-3.0-5.0","5b774f493c1375000197ad11","665500ab8938657b03fbdba8","6657937176ac1e0591ba7662","1472","stimuli/1100001.jpg","1","","prediction_practice","1","{""filepath"":""stimuli/1100001.jpg"",""ball_pos"":1,""ego_ball_visible"":true,""ego_can_infer"":true,""alter_ball_visible"":true,""alter_can_infer"":true,""collective_ball_visible"":true,""collective_can_infer"":true,""search_locations"":[1],""alter_occluders"":""100"",""ego_occluders"":""001""}","true","","","","","","","","","","","","","","","","","","",""
"","","","","","image-keyboard-response","9","55593","0.0-3.0-6.0","5b774f493c1375000197ad11","665500ab8938657b03fbdba8","6657937176ac1e0591ba7662","362","stimuli/11000011.jpg"," ","","practrice_feedback","1","","","","","","","","","","","","","","","","","","","","",""
"","","","","","image-keyboard-response","10","57154","0.0-3.0-7.0","5b774f493c1375000197ad11","665500ab8938657b03fbdba8","6657937176ac1e0591ba7662","1560","stimuli/0100011.jpg","1","","prediction_practice","0","{""filepath"":""stimuli/0100011.jpg"",""ball_pos"":0,""ego_ball_visible"":true,""ego_can_infer"":true,""alter_ball_visible"":false,""alter_can_infer"":true,""collective_ball_visible"":false,""collective_can_infer"":true,""search_locations"":[0],""alter_occluders"":""100"",""ego_occluders"":""011""}","false","","","","","","","","","","","","","","","","","","",""
"","","","","","image-keyboard-response","11","58200","0.0-3.0-8.0","5b774f493c1375000197ad11","665500ab8938657b03fbdba8","6657937176ac1e0591ba7662","1044","stimuli/01000110.jpg"," ","","practrice_feedback","0","","","","","","","","","","","","","","","","","","","","",""
"","","","","","image-keyboard-response","12","59324","0.0-3.0-9.0","5b774f493c1375000197ad11","665500ab8938657b03fbdba8","6657937176ac1e0591ba7662","1121","stimuli/1111111.jpg","2","","prediction_practice","2","{""filepath"":""stimuli/1111111.jpg"",""ball_pos"":1,""ego_ball_visible"":false,""ego_can_infer"":false,""alter_ball_visible"":false,""alter_can_infer"":false,""collective_ball_visible"":false,""collective_can_infer"":false,""search_locations"":[1,0,2],""alter_occluders"":""111"",""ego_occluders"":""111""}","true","","","","","","","","","","","","","","","","","","",""
"","","","","","image-keyboard-response","13","60363","0.0-3.0-10.0","5b774f493c1375000197ad11","665500ab8938657b03fbdba8","6657937176ac1e0591ba7662","1037","stimuli/11111112.jpg"," ","","practrice_feedback","1","","","","","","","","","","","","","","","","","","","","",""
"","","","","","image-keyboard-response","14","61634","0.0-3.0-11.0","5b774f493c1375000197ad11","665500ab8938657b03fbdba8","6657937176ac1e0591ba7662","1269","stimuli/2101011.jpg","1","","prediction_practice","2","{""filepath"":""stimuli/2101011.jpg"",""ball_pos"":2,""ego_ball_visible"":false,""ego_can_infer"":false,""alter_ball_visible"":false,""alter_can_infer"":false,""collective_ball_visible"":false,""collective_can_infer"":false,""search_locations"":[2,0],""alter_occluders"":""101"",""ego_occluders"":""011""}","false","","","","","","","","","","","","","","","","","","",""
"","","","","","image-keyboard-response","15","62559","0.0-3.0-12.0","5b774f493c1375000197ad11","665500ab8938657b03fbdba8","6657937176ac1e0591ba7662","923","stimuli/21010112.jpg"," ","","practrice_feedback","2","","","","","","","","","","","","","","","","","","","","",""
"","","","","","image-keyboard-response","16","64323","0.0-3.0-13.0","5b774f493c1375000197ad11","665500ab8938657b03fbdba8","6657937176ac1e0591ba7662","1762","stimuli/0000110.jpg","0","","prediction_practice","0","{""filepath"":""stimuli/0000110.jpg"",""ball_pos"":0,""ego_ball_visible"":false,""ego_can_infer"":false,""alter_ball_visible"":true,""alter_can_infer"":true,""collective_ball_visible"":false,""collective_can_infer"":false,""search_locations"":[0],""alter_occluders"":""000"",""ego_occluders"":""110""}","true","","","","","","","","","","","","","","","","","","",""
"","","","","","image-keyboard-response","17","64962","0.0-3.0-14.0","5b774f493c1375000197ad11","665500ab8938657b03fbdba8","6657937176ac1e0591ba7662","637","stimuli/00001100.jpg"," ","","practrice_feedback","0","","","","","","","","","","","","","","","","","","","","",""
"","","","","","image-keyboard-response","18","65672","0.0-3.0-15.0","5b774f493c1375000197ad11","665500ab8938657b03fbdba8","6657937176ac1e0591ba7662","708","stimuli/1101100.jpg","0","","prediction_practice","1","{""filepath"":""stimuli/1101100.jpg"",""ball_pos"":1,""ego_ball_visible"":true,""ego_can_infer"":true,""alter_ball_visible"":true,""alter_can_infer"":true,""collective_ball_visible"":true,""collective_can_infer"":true,""search_locations"":[1],""alter_occluders"":""101"",""ego_occluders"":""100""}","false","","","","","","","","","","","","","","","","","","",""
"","","","","","image-keyboard-response","19","66700","0.0-3.0-16.0","5b774f493c1375000197ad11","665500ab8938657b03fbdba8","6657937176ac1e0591ba7662","1026","stimuli/11011001.jpg"," ","","practrice_feedback","1","","","","","","","","","","","","","","","","","","","","",""
"","","","","","image-keyboard-response","20","67307","0.0-3.0-17.0","5b774f493c1375000197ad11","665500ab8938657b03fbdba8","6657937176ac1e0591ba7662","605","stimuli/0011001.jpg","0","","prediction_practice","0","{""filepath"":""stimuli/0011001.jpg"",""ball_pos"":0,""ego_ball_visible"":true,""ego_can_infer"":true,""alter_ball_visible"":true,""alter_can_infer"":true,""collective_ball_visible"":true,""collective_can_infer"":true,""search_locations"":[0],""alter_occluders"":""011"",""ego_occluders"":""001""}","true","","","","","","","","","","","","","","","","","","",""
"","","","","","image-keyboard-response","21","67690","0.0-3.0-18.0","5b774f493c1375000197ad11","665500ab8938657b03fbdba8","6657937176ac1e0591ba7662","350","stimuli/00110010.jpg"," ","","practrice_feedback","0","","","","","","","","","","","","","","","","","","","","",""
"","","","","","image-keyboard-response","22","69129","0.0-3.0-19.0","5b774f493c1375000197ad11","665500ab8938657b03fbdba8","6657937176ac1e0591ba7662","1437","stimuli/2001101.jpg","2","","prediction_practice","2","{""filepath"":""stimuli/2001101.jpg"",""ball_pos"":2,""ego_ball_visible"":false,""ego_can_infer"":false,""alter_ball_visible"":false,""alter_can_infer"":true,""collective_ball_visible"":false,""collective_can_infer"":false,""search_locations"":[2],""alter_occluders"":""001"",""ego_occluders"":""101""}","true","","","","","","","","","","","","","","","","","","",""
"","","","","","image-keyboard-response","23","69754","0.0-3.0-20.0","5b774f493c1375000197ad11","665500ab8938657b03fbdba8","6657937176ac1e0591ba7662","623","stimuli/20011012.jpg"," ","","practrice_feedback","2","","","","","","","","","","","","","","","","","","","","",""
"","","","","","html-button-response","24","71161","0.0-3.0-21.0","5b774f493c1375000197ad11","665500ab8938657b03fbdba8","6657937176ac1e0591ba7662","1405","Now that you've had some practice, you'll be tested with a couple of easy trials. If you correctly predict Sam's choice, you'll move on to complete the experiment!","0","","","","","","","","","","","","","","","","","","","","","","","",""
"","","","","","image-keyboard-response","25","72182","0.0-3.0-22.0-0.0","5b774f493c1375000197ad11","665500ab8938657b03fbdba8","6657937176ac1e0591ba7662","1020","stimuli/0000011.jpg","arrowleft","","comprehension_quiz","","","true","arrowleft","","","","","","","","","","","","","","","","","",""
"","","","","","image-keyboard-response","26","72752","0.0-3.0-22.0-1.0","5b774f493c1375000197ad11","665500ab8938657b03fbdba8","6657937176ac1e0591ba7662","567","stimuli/00000110.jpg"," ","","comprehension_quiz","","","true"," ","","","","","","","","","","","","","","","","","",""
"","","","","","image-keyboard-response","27","73716","0.0-3.0-22.0-2.0","5b774f493c1375000197ad11","665500ab8938657b03fbdba8","6657937176ac1e0591ba7662","962","stimuli/1010010.jpg","arrowdown","","comprehension_quiz","","","true","arrowdown","","","","","","","","","","","","","","","","","",""
"","","","","","image-keyboard-response","28","74081","0.0-3.0-22.0-3.0","5b774f493c1375000197ad11","665500ab8938657b03fbdba8","6657937176ac1e0591ba7662","363","stimuli/10100101.jpg"," ","","comprehension_quiz","","","true"," ","","","","","","","","","","","","","","","","","",""
"","","","","","html-button-response","29","76063","0.0-4.0","5b774f493c1375000197ad11","665500ab8938657b03fbdba8","6657937176ac1e0591ba7662","1979","The experiment will now begin.","0","","","","","","","","","","","","","","","","","","","","","","","",""
"","","","","","image-keyboard-response","30","77553","0.0-5.0","5b774f493c1375000197ad11","665500ab8938657b03fbdba8","6657937176ac1e0591ba7662","1488","stimuli/0011110.jpg","1","","prediction_trial","0","","false","","0","false","false","true","true","false","false","[0]","011","110","0","","","","","","",""
"","","","","","image-keyboard-response","31","79947","0.0-6.0","5b774f493c1375000197ad11","665500ab8938657b03fbdba8","6657937176ac1e0591ba7662","2391","stimuli/00111100.jpg"," ","","feedback_trial","0","","","","","","","","","","","","","","","","","","","","",""
"","","","","","image-keyboard-response","32","80639","0.0-7.0","5b774f493c1375000197ad11","665500ab8938657b03fbdba8","6657937176ac1e0591ba7662","690","stimuli/2101100.jpg","2","","prediction_trial","0","","false","","2","true","true","false","false","false","false","[0,2]","101","100","0","","","","","","",""
"","","","","","image-keyboard-response","33","81265","0.0-8.0","5b774f493c1375000197ad11","665500ab8938657b03fbdba8","6657937176ac1e0591ba7662","624","stimuli/21011000.jpg"," ","","feedback_trial","0","","","","","","","","","","","","","","","","","","","","",""
"","","","","","image-keyboard-response","34","82604","0.0-9.0","5b774f493c1375000197ad11","665500ab8938657b03fbdba8","6657937176ac1e0591ba7662","1336","stimuli/2100011.jpg","1","","prediction_trial","2","","false","","2","false","false","true","true","false","false","[2]","100","011","0","","","","","","",""
"","","","","","image-keyboard-response","35","83082","0.0-10.0","5b774f493c1375000197ad11","665500ab8938657b03fbdba8","6657937176ac1e0591ba7662","476","stimuli/21000112.jpg"," ","","feedback_trial","2","","","","","","","","","","","","","","","","","","","","",""
"","","","","","image-keyboard-response","36","84146","0.0-11.0","5b774f493c1375000197ad11","665500ab8938657b03fbdba8","6657937176ac1e0591ba7662","1042","stimuli/1011101.jpg","1","","prediction_trial","1","","true","","1","true","true","false","false","false","false","[2,1]","011","101","1","","","","","","",""
"","","","","","image-keyboard-response","37","84918","0.0-12.0","5b774f493c1375000197ad11","665500ab8938657b03fbdba8","6657937176ac1e0591ba7662","770","stimuli/10111011.jpg"," ","","feedback_trial","2","","","","","","","","","","","","","","","","","","","","",""
"","","","","","image-keyboard-response","38","85681","0.0-13.0","5b774f493c1375000197ad11","665500ab8938657b03fbdba8","6657937176ac1e0591ba7662","761","stimuli/1001111.jpg","2","","prediction_trial","1","","false","","1","false","false","true","true","false","false","[1]","001","111","0","","","","","","",""
"","","","","","image-keyboard-response","39","86356","0.0-14.0","5b774f493c1375000197ad11","665500ab8938657b03fbdba8","6657937176ac1e0591ba7662","672","stimuli/10011111.jpg"," ","","feedback_trial","1","","","","","","","","","","","","","","","","","","","","",""
"","","","","","image-keyboard-response","40","87674","0.0-15.0","5b774f493c1375000197ad11","665500ab8938657b03fbdba8","6657937176ac1e0591ba7662","1317","stimuli/0100100.jpg","0","","prediction_trial","0","","true","","0","false","true","false","true","false","true","[0]","100","100","1","","","","","","",""
"","","","","","image-keyboard-response","41","88069","0.0-16.0","5b774f493c1375000197ad11","665500ab8938657b03fbdba8","6657937176ac1e0591ba7662","393","stimuli/01001000.jpg"," ","","feedback_trial","0","","","","","","","","","","","","","","","","","","","","",""
"","","","","","image-keyboard-response","42","88677","0.0-17.0","5b774f493c1375000197ad11","665500ab8938657b03fbdba8","6657937176ac1e0591ba7662","606","stimuli/1110000.jpg","1","","prediction_trial","1","","true","","1","true","true","false","false","false","false","[1,0]","110","000","1","","","","","","",""
"","","","","","image-keyboard-response","43","89015","0.0-18.0","5b774f493c1375000197ad11","665500ab8938657b03fbdba8","6657937176ac1e0591ba7662","336","stimuli/11100001.jpg"," ","","feedback_trial","1","","","","","","","","","","","","","","","","","","","","",""
"","","","","","image-keyboard-response","44","90309","0.0-19.0","5b774f493c1375000197ad11","665500ab8938657b03fbdba8","6657937176ac1e0591ba7662","1292","stimuli/0010101.jpg","2","","prediction_trial","0","","false","","0","false","false","true","true","false","false","[0]","010","101","0","","","","","","",""
"","","","","","image-keyboard-response","45","90856","0.0-20.0","5b774f493c1375000197ad11","665500ab8938657b03fbdba8","6657937176ac1e0591ba7662","546","stimuli/00101010.jpg"," ","","feedback_trial","0","","","","","","","","","","","","","","","","","","","","",""
"","","","","","image-keyboard-response","46","91771","0.0-21.0","5b774f493c1375000197ad11","665500ab8938657b03fbdba8","6657937176ac1e0591ba7662","912","stimuli/1000010.jpg","1","","prediction_trial","1","","true","","1","false","true","true","true","false","true","[1]","000","010","1","","","","","","",""
"","","","","","image-keyboard-response","47","92156","0.0-22.0","5b774f493c1375000197ad11","665500ab8938657b03fbdba8","6657937176ac1e0591ba7662","383","stimuli/10000101.jpg"," ","","feedback_trial","1","","","","","","","","","","","","","","","","","","","","",""
"","","","","","image-keyboard-response","48","92784","0.0-23.0","5b774f493c1375000197ad11","665500ab8938657b03fbdba8","6657937176ac1e0591ba7662","626","stimuli/2110001.jpg","2","","prediction_trial","2","","true","","2","false","true","true","true","false","true","[2]","110","001","1","","","","","","",""
"","","","","","image-keyboard-response","49","93114","0.0-24.0","5b774f493c1375000197ad11","665500ab8938657b03fbdba8","6657937176ac1e0591ba7662","327","stimuli/21100012.jpg"," ","","feedback_trial","2","","","","","","","","","","","","","","","","","","","","",""
"","","","","","image-keyboard-response","50","94033","0.0-25.0","5b774f493c1375000197ad11","665500ab8938657b03fbdba8","6657937176ac1e0591ba7662","917","stimuli/0010110.jpg","1","","prediction_trial","0","","false","","0","false","false","true","true","false","false","[0]","010","110","0","","","","","","",""
"","","","","","image-keyboard-response","51","94476","0.0-26.0","5b774f493c1375000197ad11","665500ab8938657b03fbdba8","6657937176ac1e0591ba7662","441","stimuli/00101100.jpg"," ","","feedback_trial","0","","","","","","","","","","","","","","","","","","","","",""
"","","","","","image-keyboard-response","52","95106","0.0-27.0","5b774f493c1375000197ad11","665500ab8938657b03fbdba8","6657937176ac1e0591ba7662","628","stimuli/2110010.jpg","2","","prediction_trial","2","","true","","2","true","true","true","true","true","true","[2]","110","010","1","","","","","","",""
"","","","","","image-keyboard-response","53","95432","0.0-28.0","5b774f493c1375000197ad11","665500ab8938657b03fbdba8","6657937176ac1e0591ba7662","324","stimuli/21100102.jpg"," ","","feedback_trial","2","","","","","","","","","","","","","","","","","","","","",""
"","","","","","image-keyboard-response","54","96767","0.0-29.0","5b774f493c1375000197ad11","665500ab8938657b03fbdba8","6657937176ac1e0591ba7662","1333","stimuli/0111100.jpg","0","","prediction_trial","2","","false","","0","false","true","false","false","false","false","[2,1,0]","111","100","0","","","","","","",""
"","","","","","image-keyboard-response","55","98673","0.0-30.0","5b774f493c1375000197ad11","665500ab8938657b03fbdba8","6657937176ac1e0591ba7662","1904","stimuli/01111002.jpg"," ","","feedback_trial","2","","","","","","","","","","","","","","","","","","","","",""
"","","","","","image-keyboard-response","56","99694","0.0-31.0","5b774f493c1375000197ad11","665500ab8938657b03fbdba8","6657937176ac1e0591ba7662","1019","stimuli/2101001.jpg","2","","prediction_trial","2","","true","","2","false","true","false","false","false","false","[2,0]","101","001","1","","","","","","",""
"","","","","","image-keyboard-response","57","100556","0.0-32.0","5b774f493c1375000197ad11","665500ab8938657b03fbdba8","6657937176ac1e0591ba7662","860","stimuli/21010012.jpg"," ","","feedback_trial","2","","","","","","","","","","","","","","","","","","","","",""
"","","","","","image-keyboard-response","58","102044","0.0-33.0","5b774f493c1375000197ad11","665500ab8938657b03fbdba8","6657937176ac1e0591ba7662","1486","stimuli/1110010.jpg","1","","prediction_trial","1","","true","","1","false","true","false","false","false","false","[0,1]","110","010","1","","","","","","",""
"","","","","","image-keyboard-response","59","102439","0.0-34.0","5b774f493c1375000197ad11","665500ab8938657b03fbdba8","6657937176ac1e0591ba7662","394","stimuli/11100101.jpg"," ","","feedback_trial","0","","","","","","","","","","","","","","","","","","","","",""
"","","","","","image-keyboard-response","60","103615","0.0-35.0","5b774f493c1375000197ad11","665500ab8938657b03fbdba8","6657937176ac1e0591ba7662","1173","stimuli/1001010.jpg","1","","prediction_trial","1","","true","","1","false","true","true","true","false","true","[1]","001","010","1","","","","","","",""
"","","","","","image-keyboard-response","61","103977","0.0-36.0","5b774f493c1375000197ad11","665500ab8938657b03fbdba8","6657937176ac1e0591ba7662","361","stimuli/10010101.jpg"," ","","feedback_trial","1","","","","","","","","","","","","","","","","","","","","",""
"","","","","","image-keyboard-response","62","105344","0.0-37.0","5b774f493c1375000197ad11","665500ab8938657b03fbdba8","6657937176ac1e0591ba7662","1331","stimuli/1011010.jpg","1","","prediction_trial","1","","true","","1","false","true","false","false","false","false","[1,2]","011","010","1","","","","","","",""
"","","","","","image-keyboard-response","63","105697","0.0-38.0","5b774f493c1375000197ad11","665500ab8938657b03fbdba8","6657937176ac1e0591ba7662","350","stimuli/10110101.jpg"," ","","feedback_trial","1","","","","","","","","","","","","","","","","","","","","",""
"","","","","","image-keyboard-response","64","106435","0.0-39.0","5b774f493c1375000197ad11","665500ab8938657b03fbdba8","6657937176ac1e0591ba7662","737","stimuli/2100100.jpg","2","","prediction_trial","2","","true","","2","true","true","true","true","true","true","[2]","100","100","1","","","","","","",""
"","","","","","image-keyboard-response","65","106751","0.0-40.0","5b774f493c1375000197ad11","665500ab8938657b03fbdba8","6657937176ac1e0591ba7662","313","stimuli/21001002.jpg"," ","","feedback_trial","2","","","","","","","","","","","","","","","","","","","","",""
"","","","","","image-keyboard-response","66","108222","0.0-41.0","5b774f493c1375000197ad11","665500ab8938657b03fbdba8","6657937176ac1e0591ba7662","1469","stimuli/2011101.jpg","0","","prediction_trial","2","","false","","2","false","false","false","false","false","false","[1,2]","011","101","0","","","","","","",""
"","","","","","image-keyboard-response","67","108848","0.0-42.0","5b774f493c1375000197ad11","665500ab8938657b03fbdba8","6657937176ac1e0591ba7662","624","stimuli/20111012.jpg"," ","","feedback_trial","1","","","","","","","","","","","","","","","","","","","","",""
"","","","","","image-keyboard-response","68","109432","0.0-43.0","5b774f493c1375000197ad11","665500ab8938657b03fbdba8","6657937176ac1e0591ba7662","583","stimuli/0101001.jpg","0","","prediction_trial","2","","false","","0","true","true","false","false","false","false","[0,2]","101","001","0","","","","","","",""
"","","","","","image-keyboard-response","69","109896","0.0-44.0","5b774f493c1375000197ad11","665500ab8938657b03fbdba8","6657937176ac1e0591ba7662","462","stimuli/01010012.jpg"," ","","feedback_trial","0","","","","","","","","","","","","","","","","","","","","",""
"","","","","","image-keyboard-response","70","110731","0.0-45.0","5b774f493c1375000197ad11","665500ab8938657b03fbdba8","6657937176ac1e0591ba7662","834","stimuli/2000111.jpg","2","","prediction_trial","2","","true","","2","false","false","true","true","false","false","[2]","000","111","1","","","","","","",""
"","","","","","image-keyboard-response","71","111123","0.0-46.0","5b774f493c1375000197ad11","665500ab8938657b03fbdba8","6657937176ac1e0591ba7662","391","stimuli/20001112.jpg"," ","","feedback_trial","2","","","","","","","","","","","","","","","","","","","","",""
"","","","","","image-keyboard-response","72","111696","0.0-47.0","5b774f493c1375000197ad11","665500ab8938657b03fbdba8","6657937176ac1e0591ba7662","571","stimuli/1100100.jpg","1","","prediction_trial","1","","true","","1","true","true","true","true","true","true","[1]","100","100","1","","","","","","",""
"","","","","","image-keyboard-response","73","112000","0.0-48.0","5b774f493c1375000197ad11","665500ab8938657b03fbdba8","6657937176ac1e0591ba7662","302","stimuli/11001001.jpg"," ","","feedback_trial","1","","","","","","","","","","","","","","","","","","","","",""
"","","","","","image-keyboard-response","74","112907","0.0-49.0","5b774f493c1375000197ad11","665500ab8938657b03fbdba8","6657937176ac1e0591ba7662","906","stimuli/2010100.jpg","2","","prediction_trial","2","","true","","2","true","true","true","true","true","true","[2]","010","100","1","","","","","","",""
"","","","","","image-keyboard-response","75","113161","0.0-50.0","5b774f493c1375000197ad11","665500ab8938657b03fbdba8","6657937176ac1e0591ba7662","251","stimuli/20101002.jpg"," ","","feedback_trial","2","","","","","","","","","","","","","","","","","","","","",""
"","","","","","image-keyboard-response","76","113729","0.0-51.0","5b774f493c1375000197ad11","665500ab8938657b03fbdba8","6657937176ac1e0591ba7662","565","stimuli/2100010.jpg","2","","prediction_trial","2","","true","","2","true","true","true","true","true","true","[2]","100","010","1","","","","","","",""
"","","","","","image-keyboard-response","77","113972","0.0-52.0","5b774f493c1375000197ad11","665500ab8938657b03fbdba8","6657937176ac1e0591ba7662","241","stimuli/21000102.jpg"," ","","feedback_trial","2","","","","","","","","","","","","","","","","","","","","",""
"","","","","","image-keyboard-response","78","114651","0.0-53.0","5b774f493c1375000197ad11","665500ab8938657b03fbdba8","6657937176ac1e0591ba7662","678","stimuli/1101110.jpg","0","","prediction_trial","1","","false","","1","false","false","true","true","false","false","[1]","101","110","0","","","","","","",""
"","","","","","image-keyboard-response","79","115062","0.0-54.0","5b774f493c1375000197ad11","665500ab8938657b03fbdba8","6657937176ac1e0591ba7662","409","stimuli/11011101.jpg"," ","","feedback_trial","1","","","","","","","","","","","","","","","","","","","","",""
"","","","","","image-keyboard-response","80","115531","0.0-55.0","5b774f493c1375000197ad11","665500ab8938657b03fbdba8","6657937176ac1e0591ba7662","466","stimuli/2011110.jpg","2","","prediction_trial","1","","false","","2","true","true","false","false","false","false","[2,1]","011","110","0","","","","","","",""
"","","","","","image-keyboard-response","81","115947","0.0-56.0","5b774f493c1375000197ad11","665500ab8938657b03fbdba8","6657937176ac1e0591ba7662","414","stimuli/20111101.jpg"," ","","feedback_trial","2","","","","","","","","","","","","","","","","","","","","",""
"","","","","","image-keyboard-response","82","116425","0.0-57.0","5b774f493c1375000197ad11","665500ab8938657b03fbdba8","6657937176ac1e0591ba7662","476","stimuli/1101100.jpg","1","","prediction_trial","1","","true","","1","true","true","true","true","true","true","[1]","101","100","1","","","","","","",""
"","","","","","image-keyboard-response","83","116668","0.0-58.0","5b774f493c1375000197ad11","665500ab8938657b03fbdba8","6657937176ac1e0591ba7662","241","stimuli/11011001.jpg"," ","","feedback_trial","1","","","","","","","","","","","","","","","","","","","","",""
"","","","","","image-keyboard-response","84","117302","0.0-59.0","5b774f493c1375000197ad11","665500ab8938657b03fbdba8","6657937176ac1e0591ba7662","633","stimuli/1011110.jpg","1","","prediction_trial","2","","false","","1","false","false","false","false","false","false","[1,2]","011","110","0","","","","","","",""
"","","","","","image-keyboard-response","85","117515","0.0-60.0","5b774f493c1375000197ad11","665500ab8938657b03fbdba8","6657937176ac1e0591ba7662","211","stimuli/10111102.jpg"," ","","feedback_trial","1","","","","","","","","","","","","","","","","","","","","",""
"","","","","","image-keyboard-response","86","118072","0.0-61.0","5b774f493c1375000197ad11","665500ab8938657b03fbdba8","6657937176ac1e0591ba7662","555","stimuli/1001001.jpg","1","","prediction_trial","1","","true","","1","true","true","true","true","true","true","[1]","001","001","1","","","","","","",""
"","","","","","image-keyboard-response","87","118306","0.0-62.0","5b774f493c1375000197ad11","665500ab8938657b03fbdba8","6657937176ac1e0591ba7662","232","stimuli/10010011.jpg"," ","","feedback_trial","1","","","","","","","","","","","","","","","","","","","","",""
"","","","","","image-keyboard-response","88","119063","0.0-63.0","5b774f493c1375000197ad11","665500ab8938657b03fbdba8","6657937176ac1e0591ba7662","726","stimuli/1010111.jpg","1","","prediction_trial","1","","true","","1","false","false","false","true","false","false","[1]","010","111","1","","","","","","",""
"","","","","","image-keyboard-response","89","119312","0.0-64.0","5b774f493c1375000197ad11","665500ab8938657b03fbdba8","6657937176ac1e0591ba7662","249","stimuli/10101111.jpg"," ","","feedback_trial","1","","","","","","","","","","","","","","","","","","","","",""
"","","","","","image-keyboard-response","90","120453","0.0-65.0","5b774f493c1375000197ad11","665500ab8938657b03fbdba8","6657937176ac1e0591ba7662","1139","stimuli/2001001.jpg","2","","prediction_trial","2","","true","","2","false","true","false","true","false","true","[2]","001","001","1","","","","","","",""
"","","","","","image-keyboard-response","91","120727","0.0-66.0","5b774f493c1375000197ad11","665500ab8938657b03fbdba8","6657937176ac1e0591ba7662","272","stimuli/20010012.jpg"," ","","feedback_trial","2","","","","","","","","","","","","","","","","","","","","",""
"","","","","","image-keyboard-response","92","121444","0.0-67.0","5b774f493c1375000197ad11","665500ab8938657b03fbdba8","6657937176ac1e0591ba7662","716","stimuli/0110010.jpg","0","","prediction_trial","0","","true","","0","true","true","false","false","false","false","[0,1]","110","010","1","","","","","","",""
"","","","","","image-keyboard-response","93","121612","0.0-68.0","5b774f493c1375000197ad11","665500ab8938657b03fbdba8","6657937176ac1e0591ba7662","167","stimuli/01100100.jpg"," ","","feedback_trial","0","","","","","","","","","","","","","","","","","","","","",""
"","","","","","image-keyboard-response","94","122480","0.0-69.0","5b774f493c1375000197ad11","665500ab8938657b03fbdba8","6657937176ac1e0591ba7662","866","stimuli/0001100.jpg","0","","prediction_trial","0","","true","","0","false","true","true","true","false","true","[0]","001","100","1","","","","","","",""
"","","","","","image-keyboard-response","95","122849","0.0-70.0","5b774f493c1375000197ad11","665500ab8938657b03fbdba8","6657937176ac1e0591ba7662","368","stimuli/00011000.jpg"," ","","feedback_trial","0","","","","","","","","","","","","","","","","","","","","",""
"","","","","","image-keyboard-response","96","123398","0.0-71.0","5b774f493c1375000197ad11","665500ab8938657b03fbdba8","6657937176ac1e0591ba7662","547","stimuli/2010110.jpg","2","","prediction_trial","2","","true","","2","true","true","true","true","true","true","[2]","010","110","1","","","","","","",""
"","","","","","image-keyboard-response","97","123620","0.0-72.0","5b774f493c1375000197ad11","665500ab8938657b03fbdba8","6657937176ac1e0591ba7662","220","stimuli/20101102.jpg"," ","","feedback_trial","2","","","","","","","","","","","","","","","","","","","","",""
"","","","","","image-keyboard-response","98","124510","0.0-73.0","5b774f493c1375000197ad11","665500ab8938657b03fbdba8","6657937176ac1e0591ba7662","888","stimuli/2111111.jpg","0","","prediction_trial","1","","false","","2","false","false","false","false","false","false","[2,1,0]","111","111","0","","","","","","",""
"","","","","","image-keyboard-response","99","124884","0.0-74.0","5b774f493c1375000197ad11","665500ab8938657b03fbdba8","6657937176ac1e0591ba7662","372","stimuli/21111111.jpg"," ","","feedback_trial","2","","","","","","","","","","","","","","","","","","","","",""
"","","","","","image-keyboard-response","100","125658","0.0-75.0","5b774f493c1375000197ad11","665500ab8938657b03fbdba8","6657937176ac1e0591ba7662","771","stimuli/1011100.jpg","1","","prediction_trial","2","","false","","1","true","true","false","false","false","false","[2,1]","011","100","0","","","","","","",""
"","","","","","image-keyboard-response","101","126613","0.0-76.0","5b774f493c1375000197ad11","665500ab8938657b03fbdba8","6657937176ac1e0591ba7662","923","stimuli/10111002.jpg"," ","","feedback_trial","2","","","","","","","","","","","","","","","","","","","","",""
"","","","","","image-keyboard-response","102","127554","0.0-77.0","5b774f493c1375000197ad11","665500ab8938657b03fbdba8","6657937176ac1e0591ba7662","939","stimuli/2100101.jpg","2","","prediction_trial","2","","true","","2","false","false","true","true","false","false","[2]","100","101","1","","","","","","",""
"","","","","","image-keyboard-response","103","127918","0.0-78.0","5b774f493c1375000197ad11","665500ab8938657b03fbdba8","6657937176ac1e0591ba7662","362","stimuli/21001012.jpg"," ","","feedback_trial","2","","","","","","","","","","","","","","","","","","","","",""
"","","","","","image-keyboard-response","104","129059","0.0-79.0","5b774f493c1375000197ad11","665500ab8938657b03fbdba8","6657937176ac1e0591ba7662","1139","stimuli/1001110.jpg","0","","prediction_trial","1","","false","","1","false","false","true","true","false","false","[1]","001","110","0","","","","","","",""
"","","","","","image-keyboard-response","105","129303","0.0-80.0","5b774f493c1375000197ad11","665500ab8938657b03fbdba8","6657937176ac1e0591ba7662","242","stimuli/10011101.jpg"," ","","feedback_trial","1","","","","","","","","","","","","","","","","","","","","",""
"","","","","","image-keyboard-response","106","129886","0.0-81.0","5b774f493c1375000197ad11","665500ab8938657b03fbdba8","6657937176ac1e0591ba7662","582","stimuli/1111111.jpg","0","","prediction_trial","1","","false","","1","false","false","false","false","false","false","[1,0,2]","111","111","0","","","","","","",""
"","","","","","image-keyboard-response","107","130219","0.0-82.0","5b774f493c1375000197ad11","665500ab8938657b03fbdba8","6657937176ac1e0591ba7662","331","stimuli/11111111.jpg"," ","","feedback_trial","1","","","","","","","","","","","","","","","","","","","","",""
"","","","","","image-keyboard-response","108","130800","0.0-83.0","5b774f493c1375000197ad11","665500ab8938657b03fbdba8","6657937176ac1e0591ba7662","579","stimuli/0010010.jpg","0","","prediction_trial","0","","true","","0","true","true","true","true","true","true","[0]","010","010","1","","","","","","",""
"","","","","","image-keyboard-response","109","131034","0.0-84.0","5b774f493c1375000197ad11","665500ab8938657b03fbdba8","6657937176ac1e0591ba7662","232","stimuli/00100100.jpg"," ","","feedback_trial","0","","","","","","","","","","","","","","","","","","","","",""
"","","","","","image-keyboard-response","110","131629","0.0-85.0","5b774f493c1375000197ad11","665500ab8938657b03fbdba8","6657937176ac1e0591ba7662","593","stimuli/1100011.jpg","2","","prediction_trial","1","","false","","1","false","false","true","true","false","false","[1]","100","011","0","","","","","","",""
"","","","","","image-keyboard-response","111","131854","0.0-86.0","5b774f493c1375000197ad11","665500ab8938657b03fbdba8","6657937176ac1e0591ba7662","222","stimuli/11000111.jpg"," ","","feedback_trial","1","","","","","","","","","","","","","","","","","","","","",""
"","","","","","image-keyboard-response","112","132399","0.0-87.0","5b774f493c1375000197ad11","665500ab8938657b03fbdba8","6657937176ac1e0591ba7662","544","stimuli/2110000.jpg","2","","prediction_trial","2","","true","","2","true","true","true","true","true","true","[2]","110","000","1","","","","","","",""
"","","","","","image-keyboard-response","113","132571","0.0-88.0","5b774f493c1375000197ad11","665500ab8938657b03fbdba8","6657937176ac1e0591ba7662","170","stimuli/21100002.jpg"," ","","feedback_trial","2","","","","","","","","","","","","","","","","","","","","",""
"","","","","","image-keyboard-response","114","133067","0.0-89.0","5b774f493c1375000197ad11","665500ab8938657b03fbdba8","6657937176ac1e0591ba7662","474","stimuli/2010000.jpg","2","","prediction_trial","2","","true","","2","true","true","true","true","true","true","[2]","010","000","1","","","","","","",""
"","","","","","image-keyboard-response","115","133198","0.0-90.0","5b774f493c1375000197ad11","665500ab8938657b03fbdba8","6657937176ac1e0591ba7662","128","stimuli/20100002.jpg"," ","","feedback_trial","2","","","","","","","","","","","","","","","","","","","","",""
"","","","","","image-keyboard-response","116","133622","0.0-91.0","5b774f493c1375000197ad11","665500ab8938657b03fbdba8","6657937176ac1e0591ba7662","422","stimuli/2011000.jpg","2","","prediction_trial","1","","false","","2","true","true","false","false","false","false","[2,1]","011","000","0","","","","","","",""
"","","","","","image-keyboard-response","117","133799","0.0-92.0","5b774f493c1375000197ad11","665500ab8938657b03fbdba8","6657937176ac1e0591ba7662","175","stimuli/20110001.jpg"," ","","feedback_trial","2","","","","","","","","","","","","","","","","","","","","",""
"","","","","","image-keyboard-response","118","135301","0.0-93.0","5b774f493c1375000197ad11","665500ab8938657b03fbdba8","6657937176ac1e0591ba7662","1500","stimuli/1010011.jpg","1","","prediction_trial","1","","true","","1","false","false","false","true","false","false","[1]","010","011","1","","","","","","",""
"","","","","","image-keyboard-response","119","135527","0.0-94.0","5b774f493c1375000197ad11","665500ab8938657b03fbdba8","6657937176ac1e0591ba7662","224","stimuli/10100111.jpg"," ","","feedback_trial","1","","","","","","","","","","","","","","","","","","","","",""
"","","","","","image-keyboard-response","120","137182","0.0-95.0","5b774f493c1375000197ad11","665500ab8938657b03fbdba8","6657937176ac1e0591ba7662","1653","stimuli/1010001.jpg","1","","prediction_trial","1","","true","","1","true","true","false","true","false","true","[1]","010","001","1","","","","","","",""
"","","","","","image-keyboard-response","121","137625","0.0-96.0","5b774f493c1375000197ad11","665500ab8938657b03fbdba8","6657937176ac1e0591ba7662","441","stimuli/10100011.jpg"," ","","feedback_trial","1","","","","","","","","","","","","","","","","","","","","",""
"","","","","","image-keyboard-response","122","138118","0.0-97.0","5b774f493c1375000197ad11","665500ab8938657b03fbdba8","6657937176ac1e0591ba7662","491","stimuli/1110100.jpg","1","","prediction_trial","1","","true","","1","true","true","false","false","false","false","[0,1]","110","100","1","","","","","","",""
"","","","","","image-keyboard-response","123","138398","0.0-98.0","5b774f493c1375000197ad11","665500ab8938657b03fbdba8","6657937176ac1e0591ba7662","277","stimuli/11101001.jpg"," ","","feedback_trial","0","","","","","","","","","","","","","","","","","","","","",""
"","","","","","image-keyboard-response","124","139160","0.0-99.0","5b774f493c1375000197ad11","665500ab8938657b03fbdba8","6657937176ac1e0591ba7662","761","stimuli/2110101.jpg","2","","prediction_trial","2","","true","","2","false","false","true","true","false","false","[2]","110","101","1","","","","","","",""
"","","","","","image-keyboard-response","125","139427","0.0-100.0","5b774f493c1375000197ad11","665500ab8938657b03fbdba8","6657937176ac1e0591ba7662","265","stimuli/21101012.jpg"," ","","feedback_trial","2","","","","","","","","","","","","","","","","","","","","",""
"","","","","","image-keyboard-response","126","140176","0.0-101.0","5b774f493c1375000197ad11","665500ab8938657b03fbdba8","6657937176ac1e0591ba7662","747","stimuli/2001111.jpg","2","","prediction_trial","2","","true","","2","false","false","false","true","false","false","[2]","001","111","1","","","","","","",""
"","","","","","image-keyboard-response","127","140581","0.0-102.0","5b774f493c1375000197ad11","665500ab8938657b03fbdba8","6657937176ac1e0591ba7662","367","stimuli/20011112.jpg"," ","","feedback_trial","2","","","","","","","","","","","","","","","","","","","","",""
"","","","","","image-keyboard-response","128","141104","0.0-103.0","5b774f493c1375000197ad11","665500ab8938657b03fbdba8","6657937176ac1e0591ba7662","522","stimuli/1010100.jpg","1","","prediction_trial","1","","true","","1","true","true","false","true","false","true","[1]","010","100","1","","","","","","",""
"","","","","","image-keyboard-response","129","141373","0.0-104.0","5b774f493c1375000197ad11","665500ab8938657b03fbdba8","6657937176ac1e0591ba7662","267","stimuli/10101001.jpg"," ","","feedback_trial","1","","","","","","","","","","","","","","","","","","","","",""
"","","","","","image-keyboard-response","130","141852","0.0-105.0","5b774f493c1375000197ad11","665500ab8938657b03fbdba8","6657937176ac1e0591ba7662","478","stimuli/1011000.jpg","1","","prediction_trial","1","","true","","1","true","true","false","false","false","false","[2,1]","011","000","1","","","","","","",""
"","","","","","image-keyboard-response","131","142085","0.0-106.0","5b774f493c1375000197ad11","665500ab8938657b03fbdba8","6657937176ac1e0591ba7662","231","stimuli/10110001.jpg"," ","","feedback_trial","2","","","","","","","","","","","","","","","","","","","","",""
"","","","","","image-keyboard-response","132","142512","0.0-107.0","5b774f493c1375000197ad11","665500ab8938657b03fbdba8","6657937176ac1e0591ba7662","425","stimuli/1110001.jpg","1","","prediction_trial","1","","true","","1","true","true","false","false","false","false","[0,1]","110","001","1","","","","","","",""
"","","","","","image-keyboard-response","133","142676","0.0-108.0","5b774f493c1375000197ad11","665500ab8938657b03fbdba8","6657937176ac1e0591ba7662","162","stimuli/11100011.jpg"," ","","feedback_trial","0","","","","","","","","","","","","","","","","","","","","",""
"","","","","","image-keyboard-response","134","143313","0.0-109.0","5b774f493c1375000197ad11","665500ab8938657b03fbdba8","6657937176ac1e0591ba7662","635","stimuli/0111010.jpg","0","","prediction_trial","1","","false","","0","true","true","false","false","false","false","[2,1,0]","111","010","0","","","","","","",""
"","","","","","image-keyboard-response","135","143586","0.0-110.0","5b774f493c1375000197ad11","665500ab8938657b03fbdba8","6657937176ac1e0591ba7662","271","stimuli/01110101.jpg"," ","","feedback_trial","2","","","","","","","","","","","","","","","","","","","","",""
"","","","","","image-keyboard-response","136","144400","0.0-111.0","5b774f493c1375000197ad11","665500ab8938657b03fbdba8","6657937176ac1e0591ba7662","812","stimuli/0010111.jpg","0","","prediction_trial","0","","true","","0","false","false","true","true","false","false","[0]","010","111","1","","","","","","",""
"","","","","","image-keyboard-response","137","144679","0.0-112.0","5b774f493c1375000197ad11","665500ab8938657b03fbdba8","6657937176ac1e0591ba7662","278","stimuli/00101110.jpg"," ","","feedback_trial","0","","","","","","","","","","","","","","","","","","","","",""
"","","","","","image-keyboard-response","138","145262","0.0-113.0","5b774f493c1375000197ad11","665500ab8938657b03fbdba8","6657937176ac1e0591ba7662","580","stimuli/0001001.jpg","0","","prediction_trial","0","","true","","0","true","true","true","true","true","true","[0]","001","001","1","","","","","","",""
"","","","","","image-keyboard-response","139","145470","0.0-114.0","5b774f493c1375000197ad11","665500ab8938657b03fbdba8","6657937176ac1e0591ba7662","206","stimuli/00010010.jpg"," ","","feedback_trial","0","","","","","","","","","","","","","","","","","","","","",""
"","","","","","image-keyboard-response","140","145938","0.0-115.0","5b774f493c1375000197ad11","665500ab8938657b03fbdba8","6657937176ac1e0591ba7662","427","stimuli/1111001.jpg","1","","prediction_trial","1","","true","","1","true","true","false","false","false","false","[0,2,1]","111","001","1","","","","","","",""
"","","","","","image-keyboard-response","141","146094","0.0-116.0","5b774f493c1375000197ad11","665500ab8938657b03fbdba8","6657937176ac1e0591ba7662","155","stimuli/11110011.jpg"," ","","feedback_trial","0","","","","","","","","","","","","","","","","","","","","",""
"","","","","","image-keyboard-response","142","146650","0.0-117.0","5b774f493c1375000197ad11","665500ab8938657b03fbdba8","6657937176ac1e0591ba7662","553","stimuli/2001101.jpg","0","","prediction_trial","2","","false","","2","false","false","false","true","false","false","[2]","001","101","0","","","","","","",""
"","","","","","image-keyboard-response","143","146782","0.0-118.0","5b774f493c1375000197ad11","665500ab8938657b03fbdba8","6657937176ac1e0591ba7662","131","stimuli/20011012.jpg"," ","","feedback_trial","2","","","","","","","","","","","","","","","","","","","","",""
"","","","","","image-keyboard-response","144","147365","0.0-119.0","5b774f493c1375000197ad11","665500ab8938657b03fbdba8","6657937176ac1e0591ba7662","581","stimuli/2111101.jpg","0","","prediction_trial","2","","false","","2","false","false","false","false","false","false","[2,0,1]","111","101","0","","","","","","",""
"","","","","","image-keyboard-response","145","147495","0.0-120.0","5b774f493c1375000197ad11","665500ab8938657b03fbdba8","6657937176ac1e0591ba7662","128","stimuli/21111012.jpg"," ","","feedback_trial","2","","","","","","","","","","","","","","","","","","","","",""
"","","","","","image-keyboard-response","146","148017","0.0-121.0","5b774f493c1375000197ad11","665500ab8938657b03fbdba8","6657937176ac1e0591ba7662","520","stimuli/2001110.jpg","2","","prediction_trial","2","","true","","2","true","true","false","true","false","true","[2]","001","110","1","","","","","","",""
"","","","","","image-keyboard-response","147","148220","0.0-122.0","5b774f493c1375000197ad11","665500ab8938657b03fbdba8","6657937176ac1e0591ba7662","201","stimuli/20011102.jpg"," ","","feedback_trial","2","","","","","","","","","","","","","","","","","","","","",""
"","","","","","image-keyboard-response","148","148826","0.0-123.0","5b774f493c1375000197ad11","665500ab8938657b03fbdba8","6657937176ac1e0591ba7662","604","stimuli/0011000.jpg","0","","prediction_trial","0","","true","","0","true","true","true","true","true","true","[0]","011","000","1","","","","","","",""
"","","","","","image-keyboard-response","149","149043","0.0-124.0","5b774f493c1375000197ad11","665500ab8938657b03fbdba8","6657937176ac1e0591ba7662","215","stimuli/00110000.jpg"," ","","feedback_trial","0","","","","","","","","","","","","","","","","","","","","",""
"","","","","","image-keyboard-response","150","149642","0.0-125.0","5b774f493c1375000197ad11","665500ab8938657b03fbdba8","6657937176ac1e0591ba7662","597","stimuli/0011101.jpg","2","","prediction_trial","0","","false","","0","false","false","true","true","false","false","[0]","011","101","0","","","","","","",""
"","","","","","image-keyboard-response","151","149758","0.0-126.0","5b774f493c1375000197ad11","665500ab8938657b03fbdba8","6657937176ac1e0591ba7662","114","stimuli/00111010.jpg"," ","","feedback_trial","0","","","","","","","","","","","","","","","","","","","","",""
"","","","","","image-keyboard-response","152","150526","0.0-127.0","5b774f493c1375000197ad11","665500ab8938657b03fbdba8","6657937176ac1e0591ba7662","767","stimuli/0100000.jpg","0","","prediction_trial","0","","true","","0","true","true","false","true","false","true","[0]","100","000","1","","","","","","",""
"","","","","","image-keyboard-response","153","150733","0.0-128.0","5b774f493c1375000197ad11","665500ab8938657b03fbdba8","6657937176ac1e0591ba7662","203","stimuli/01000000.jpg"," ","","feedback_trial","0","","","","","","","","","","","","","","","","","","","","",""
"","","","","","image-keyboard-response","154","151284","0.0-129.0","5b774f493c1375000197ad11","665500ab8938657b03fbdba8","6657937176ac1e0591ba7662","549","stimuli/0010000.jpg","0","","prediction_trial","0","","true","","0","true","true","true","true","true","true","[0]","010","000","1","","","","","","",""
"","","","","","image-keyboard-response","155","151462","0.0-130.0","5b774f493c1375000197ad11","665500ab8938657b03fbdba8","6657937176ac1e0591ba7662","177","stimuli/00100000.jpg"," ","","feedback_trial","0","","","","","","","","","","","","","","","","","","","","",""
"","","","","","image-keyboard-response","156","151934","0.0-131.0","5b774f493c1375000197ad11","665500ab8938657b03fbdba8","6657937176ac1e0591ba7662","470","stimuli/0000111.jpg","0","","prediction_trial","0","","true","","0","false","false","true","true","false","false","[0]","000","111","1","","","","","","",""
"","","","","","image-keyboard-response","157","152095","0.0-132.0","5b774f493c1375000197ad11","665500ab8938657b03fbdba8","6657937176ac1e0591ba7662","159","stimuli/00001110.jpg"," ","","feedback_trial","0","","","","","","","","","","","","","","","","","","","","",""
"","","","","","image-keyboard-response","158","152665","0.0-133.0","5b774f493c1375000197ad11","665500ab8938657b03fbdba8","6657937176ac1e0591ba7662","568","stimuli/2100111.jpg","0","","prediction_trial","2","","false","","2","false","false","true","true","false","false","[2]","100","111","0","","","","","","",""
"","","","","","image-keyboard-response","159","153274","0.0-134.0","5b774f493c1375000197ad11","665500ab8938657b03fbdba8","6657937176ac1e0591ba7662","607","stimuli/21001112.jpg"," ","","feedback_trial","2","","","","","","","","","","","","","","","","","","","","",""
"","","","","","image-keyboard-response","160","154023","0.0-135.0","5b774f493c1375000197ad11","665500ab8938657b03fbdba8","6657937176ac1e0591ba7662","747","stimuli/1100111.jpg","2","","prediction_trial","1","","false","","1","false","false","true","true","false","false","[1]","100","111","0","","","","","","",""
"","","","","","image-keyboard-response","161","154417","0.0-136.0","5b774f493c1375000197ad11","665500ab8938657b03fbdba8","6657937176ac1e0591ba7662","392","stimuli/11001111.jpg"," ","","feedback_trial","1","","","","","","","","","","","","","","","","","","","","",""
"","","","","","image-keyboard-response","162","154883","0.0-137.0","5b774f493c1375000197ad11","665500ab8938657b03fbdba8","6657937176ac1e0591ba7662","464","stimuli/2001000.jpg","2","","prediction_trial","2","","true","","2","true","true","false","true","false","true","[2]","001","000","1","","","","","","",""
"","","","","","image-keyboard-response","163","155088","0.0-138.0","5b774f493c1375000197ad11","665500ab8938657b03fbdba8","6657937176ac1e0591ba7662","203","stimuli/20010002.jpg"," ","","feedback_trial","2","","","","","","","","","","","","","","","","","","","","",""
"","","","","","image-keyboard-response","164","155966","0.0-139.0","5b774f493c1375000197ad11","665500ab8938657b03fbdba8","6657937176ac1e0591ba7662","875","stimuli/1101101.jpg","1","","prediction_trial","1","","true","","1","true","true","true","true","true","true","[1]","101","101","1","","","","","","",""
"","","","","","image-keyboard-response","165","156268","0.0-140.0","5b774f493c1375000197ad11","665500ab8938657b03fbdba8","6657937176ac1e0591ba7662","300","stimuli/11011011.jpg"," ","","feedback_trial","1","","","","","","","","","","","","","","","","","","","","",""
"","","","","","image-keyboard-response","166","156724","0.0-141.0","5b774f493c1375000197ad11","665500ab8938657b03fbdba8","6657937176ac1e0591ba7662","426","stimuli/1111100.jpg","1","","prediction_trial","0","","false","","1","true","true","false","false","false","false","[0,1,2]","111","100","0","","","","","","",""
"","","","","","image-keyboard-response","167","156871","0.0-142.0","5b774f493c1375000197ad11","665500ab8938657b03fbdba8","6657937176ac1e0591ba7662","145","stimuli/11111000.jpg"," ","","feedback_trial","0","","","","","","","","","","","","","","","","","","","","",""
"","","","","","image-keyboard-response","168","157345","0.0-143.0","5b774f493c1375000197ad11","665500ab8938657b03fbdba8","6657937176ac1e0591ba7662","473","stimuli/2000011.jpg","1","","prediction_trial","2","","false","","2","false","false","true","true","false","false","[2]","000","011","0","","","","","","",""
"","","","","","image-keyboard-response","169","157486","0.0-144.0","5b774f493c1375000197ad11","665500ab8938657b03fbdba8","6657937176ac1e0591ba7662","139","stimuli/20000112.jpg"," ","","feedback_trial","2","","","","","","","","","","","","","","","","","","","","",""
"","","","","","image-keyboard-response","170","158288","0.0-145.0","5b774f493c1375000197ad11","665500ab8938657b03fbdba8","6657937176ac1e0591ba7662","800","stimuli/1110011.jpg","1","","prediction_trial","0","","false","","1","false","false","false","false","false","false","[1,0]","110","011","0","","","","","","",""
"","","","","","image-keyboard-response","171","158750","0.0-146.0","5b774f493c1375000197ad11","665500ab8938657b03fbdba8","6657937176ac1e0591ba7662","460","stimuli/11100110.jpg"," ","","feedback_trial","1","","","","","","","","","","","","","","","","","","","","",""
"","","","","","image-keyboard-response","172","159520","0.0-147.0","5b774f493c1375000197ad11","665500ab8938657b03fbdba8","6657937176ac1e0591ba7662","768","stimuli/2000101.jpg","2","","prediction_trial","2","","true","","2","false","false","true","true","false","false","[2]","000","101","1","","","","","","",""
"","","","","","image-keyboard-response","173","159867","0.0-148.0","5b774f493c1375000197ad11","665500ab8938657b03fbdba8","6657937176ac1e0591ba7662","345","stimuli/20001012.jpg"," ","","feedback_trial","2","","","","","","","","","","","","","","","","","","","","",""
"","","","","","image-keyboard-response","174","160419","0.0-149.0","5b774f493c1375000197ad11","665500ab8938657b03fbdba8","6657937176ac1e0591ba7662","550","stimuli/1011111.jpg","2","","prediction_trial","1","","false","","1","false","false","false","false","false","false","[2,1]","011","111","0","","","","","","",""
"","","","","","image-keyboard-response","175","160864","0.0-150.0","5b774f493c1375000197ad11","665500ab8938657b03fbdba8","6657937176ac1e0591ba7662","444","stimuli/10111111.jpg"," ","","feedback_trial","2","","","","","","","","","","","","","","","","","","","","",""
"","","","","","image-keyboard-response","176","161488","0.0-151.0","5b774f493c1375000197ad11","665500ab8938657b03fbdba8","6657937176ac1e0591ba7662","623","stimuli/0110001.jpg","0","","prediction_trial","1","","false","","0","true","true","false","false","false","false","[1,0]","110","001","0","","","","","","",""
"","","","","","image-keyboard-response","177","161785","0.0-152.0","5b774f493c1375000197ad11","665500ab8938657b03fbdba8","6657937176ac1e0591ba7662","296","stimuli/01100011.jpg"," ","","feedback_trial","1","","","","","","","","","","","","","","","","","","","","",""
"","","","","","image-keyboard-response","178","162310","0.0-153.0","5b774f493c1375000197ad11","665500ab8938657b03fbdba8","6657937176ac1e0591ba7662","523","stimuli/0110111.jpg","0","","prediction_trial","1","","false","","0","false","false","false","false","false","false","[1,0]","110","111","0","","","","","","",""
"","","","","","image-keyboard-response","179","162564","0.0-154.0","5b774f493c1375000197ad11","665500ab8938657b03fbdba8","6657937176ac1e0591ba7662","214","stimuli/01101111.jpg"," ","","feedback_trial","1","","","","","","","","","","","","","","","","","","","","",""
"","","","","","image-keyboard-response","180","163337","0.0-155.0","5b774f493c1375000197ad11","665500ab8938657b03fbdba8","6657937176ac1e0591ba7662","772","stimuli/2000000.jpg","2","","prediction_trial","2","","true","","2","true","true","true","true","true","true","[2]","000","000","1","","","","","","",""
"","","","","","image-keyboard-response","181","163614","0.0-156.0","5b774f493c1375000197ad11","665500ab8938657b03fbdba8","6657937176ac1e0591ba7662","275","stimuli/20000002.jpg"," ","","feedback_trial","2","","","","","","","","","","","","","","","","","","","","",""
"","","","","","image-keyboard-response","182","164608","0.0-157.0","5b774f493c1375000197ad11","665500ab8938657b03fbdba8","6657937176ac1e0591ba7662","991","stimuli/1000000.jpg","1","","prediction_trial","1","","true","","1","true","true","true","true","true","true","[1]","000","000","1","","","","","","",""
"","","","","","image-keyboard-response","183","164758","0.0-158.0","5b774f493c1375000197ad11","665500ab8938657b03fbdba8","6657937176ac1e0591ba7662","148","stimuli/10000001.jpg"," ","","feedback_trial","1","","","","","","","","","","","","","","","","","","","","",""
"","","","","","image-keyboard-response","184","165249","0.0-159.0","5b774f493c1375000197ad11","665500ab8938657b03fbdba8","6657937176ac1e0591ba7662","489","stimuli/0100010.jpg","0","","prediction_trial","0","","true","","0","true","true","false","true","false","true","[0]","100","010","1","","","","","","",""
"","","","","","image-keyboard-response","185","165414","0.0-160.0","5b774f493c1375000197ad11","665500ab8938657b03fbdba8","6657937176ac1e0591ba7662","164","stimuli/01000100.jpg"," ","","feedback_trial","0","","","","","","","","","","","","","","","","","","","","",""
"","","","","","image-keyboard-response","186","166070","0.0-161.0","5b774f493c1375000197ad11","665500ab8938657b03fbdba8","6657937176ac1e0591ba7662","654","stimuli/0011011.jpg","0","","prediction_trial","0","","true","","0","true","true","true","true","true","true","[0]","011","011","1","","","","","","",""
"","","","","","image-keyboard-response","187","166577","0.0-162.0","5b774f493c1375000197ad11","665500ab8938657b03fbdba8","6657937176ac1e0591ba7662","505","stimuli/00110110.jpg"," ","","feedback_trial","0","","","","","","","","","","","","","","","","","","","","",""
"","","","","","image-keyboard-response","188","167323","0.0-163.0","5b774f493c1375000197ad11","665500ab8938657b03fbdba8","6657937176ac1e0591ba7662","744","stimuli/1010010.jpg","1","","prediction_trial","1","","true","","1","false","true","false","true","false","true","[1]","010","010","1","","","","","","",""
"","","","","","image-keyboard-response","189","167589","0.0-164.0","5b774f493c1375000197ad11","665500ab8938657b03fbdba8","6657937176ac1e0591ba7662","264","stimuli/10100101.jpg"," ","","feedback_trial","1","","","","","","","","","","","","","","","","","","","","",""
"","","","","","image-keyboard-response","190","168252","0.0-165.0","5b774f493c1375000197ad11","665500ab8938657b03fbdba8","6657937176ac1e0591ba7662","661","stimuli/2111011.jpg","1","","prediction_trial","2","","false","","2","false","false","false","false","false","false","[0,1,2]","111","011","0","","","","","","",""
"","","","","","image-keyboard-response","191","168731","0.0-166.0","5b774f493c1375000197ad11","665500ab8938657b03fbdba8","6657937176ac1e0591ba7662","476","stimuli/21110112.jpg"," ","","feedback_trial","0","","","","","","","","","","","","","","","","","","","","",""
"","","","","","image-keyboard-response","192","169293","0.0-167.0","5b774f493c1375000197ad11","665500ab8938657b03fbdba8","6657937176ac1e0591ba7662","535","stimuli/0111001.jpg","0","","prediction_trial","2","","false","","0","true","true","false","false","false","false","[2,1,0]","111","001","0","","","","","","",""
"","","","","","image-keyboard-response","193","169500","0.0-168.0","5b774f493c1375000197ad11","665500ab8938657b03fbdba8","6657937176ac1e0591ba7662","205","stimuli/01110012.jpg"," ","","feedback_trial","2","","","","","","","","","","","","","","","","","","","","",""
"","","","","","image-keyboard-response","194","170342","0.0-169.0","5b774f493c1375000197ad11","665500ab8938657b03fbdba8","6657937176ac1e0591ba7662","840","stimuli/2100110.jpg","2","","prediction_trial","2","","true","","2","true","true","true","true","true","true","[2]","100","110","1","","","","","","",""
"","","","","","image-keyboard-response","195","170554","0.0-170.0","5b774f493c1375000197ad11","665500ab8938657b03fbdba8","6657937176ac1e0591ba7662","210","stimuli/21001102.jpg"," ","","feedback_trial","2","","","","","","","","","","","","","","","","","","","","",""
"","","","","","image-keyboard-response","196","171176","0.0-171.0","5b774f493c1375000197ad11","665500ab8938657b03fbdba8","6657937176ac1e0591ba7662","621","stimuli/0010011.jpg","0","","prediction_trial","0","","true","","0","true","true","true","true","true","true","[0]","010","011","1","","","","","","",""
"","","","","","image-keyboard-response","197","171365","0.0-172.0","5b774f493c1375000197ad11","665500ab8938657b03fbdba8","6657937176ac1e0591ba7662","187","stimuli/00100110.jpg"," ","","feedback_trial","0","","","","","","","","","","","","","","","","","","","","",""
"","","","","","image-keyboard-response","198","171906","0.0-173.0","5b774f493c1375000197ad11","665500ab8938657b03fbdba8","6657937176ac1e0591ba7662","539","stimuli/0001011.jpg","0","","prediction_trial","0","","true","","0","true","true","true","true","true","true","[0]","001","011","1","","","","","","",""
"","","","","","image-keyboard-response","199","172036","0.0-174.0","5b774f493c1375000197ad11","665500ab8938657b03fbdba8","6657937176ac1e0591ba7662","129","stimuli/00010110.jpg"," ","","feedback_trial","0","","","","","","","","","","","","","","","","","","","","",""
"","","","","","image-keyboard-response","200","173043","0.0-175.0","5b774f493c1375000197ad11","665500ab8938657b03fbdba8","6657937176ac1e0591ba7662","1004","stimuli/1010101.jpg","1","","prediction_trial","1","","true","","1","true","true","false","true","false","true","[1]","010","101","1","","","","","","",""
"","","","","","image-keyboard-response","201","173178","0.0-176.0","5b774f493c1375000197ad11","665500ab8938657b03fbdba8","6657937176ac1e0591ba7662","133","stimuli/10101011.jpg"," ","","feedback_trial","1","","","","","","","","","","","","","","","","","","","","",""
"","","","","","image-keyboard-response","202","173662","0.0-177.0","5b774f493c1375000197ad11","665500ab8938657b03fbdba8","6657937176ac1e0591ba7662","483","stimuli/0011010.jpg","0","","prediction_trial","0","","true","","0","true","true","true","true","true","true","[0]","011","010","1","","","","","","",""
"","","","","","image-keyboard-response","203","173773","0.0-178.0","5b774f493c1375000197ad11","665500ab8938657b03fbdba8","6657937176ac1e0591ba7662","109","stimuli/00110100.jpg"," ","","feedback_trial","0","","","","","","","","","","","","","","","","","","","","",""
"","","","","","image-keyboard-response","204","174315","0.0-179.0","5b774f493c1375000197ad11","665500ab8938657b03fbdba8","6657937176ac1e0591ba7662","540","stimuli/0110000.jpg","0","","prediction_trial","0","","true","","0","true","true","false","false","false","false","[1,0]","110","000","1","","","","","","",""
"","","","","","image-keyboard-response","205","174391","0.0-180.0","5b774f493c1375000197ad11","665500ab8938657b03fbdba8","6657937176ac1e0591ba7662","35","stimuli/01100000.jpg"," ","","feedback_trial","1","","","","","","","","","","","","","","","","","","","","",""
"","","","","","image-keyboard-response","206","175158","0.0-181.0","5b774f493c1375000197ad11","665500ab8938657b03fbdba8","6657937176ac1e0591ba7662","765","stimuli/1111011.jpg","2","","prediction_trial","1","","false","","1","false","false","false","false","false","false","[0,1,2]","111","011","0","","","","","","",""
"","","","","","image-keyboard-response","207","175319","0.0-182.0","5b774f493c1375000197ad11","665500ab8938657b03fbdba8","6657937176ac1e0591ba7662","159","stimuli/11110111.jpg"," ","","feedback_trial","0","","","","","","","","","","","","","","","","","","","","",""
"","","","","","image-keyboard-response","208","176154","0.0-183.0","5b774f493c1375000197ad11","665500ab8938657b03fbdba8","6657937176ac1e0591ba7662","834","stimuli/0000011.jpg","0","","prediction_trial","0","","true","","0","true","true","true","true","true","true","[0]","000","011","1","","","","","","",""
"","","","","","image-keyboard-response","209","176325","0.0-184.0","5b774f493c1375000197ad11","665500ab8938657b03fbdba8","6657937176ac1e0591ba7662","169","stimuli/00000110.jpg"," ","","feedback_trial","0","","","","","","","","","","","","","","","","","","","","",""
"","","","","","image-keyboard-response","210","176874","0.0-185.0","5b774f493c1375000197ad11","665500ab8938657b03fbdba8","6657937176ac1e0591ba7662","546","stimuli/0010100.jpg","0","","prediction_trial","0","","true","","0","false","true","true","true","false","true","[0]","010","100","1","","","","","","",""
"","","","","","image-keyboard-response","211","176974","0.0-186.0","5b774f493c1375000197ad11","665500ab8938657b03fbdba8","6657937176ac1e0591ba7662","98","stimuli/00101000.jpg"," ","","feedback_trial","0","","","","","","","","","","","","","","","","","","","","",""
"","","","","","image-keyboard-response","212","177483","0.0-187.0","5b774f493c1375000197ad11","665500ab8938657b03fbdba8","6657937176ac1e0591ba7662","507","stimuli/2110100.jpg","2","","prediction_trial","2","","true","","2","true","true","true","true","true","true","[2]","110","100","1","","","","","","",""
"","","","","","image-keyboard-response","213","177607","0.0-188.0","5b774f493c1375000197ad11","665500ab8938657b03fbdba8","6657937176ac1e0591ba7662","122","stimuli/21101002.jpg"," ","","feedback_trial","2","","","","","","","","","","","","","","","","","","","","",""
"","","","","","image-keyboard-response","214","178255","0.0-189.0","5b774f493c1375000197ad11","665500ab8938657b03fbdba8","6657937176ac1e0591ba7662","647","stimuli/0110101.jpg","2","","prediction_trial","1","","false","","0","false","false","false","false","false","false","[1,0]","110","101","0","","","","","","",""
"","","","","","image-keyboard-response","215","178405","0.0-190.0","5b774f493c1375000197ad11","665500ab8938657b03fbdba8","6657937176ac1e0591ba7662","148","stimuli/01101011.jpg"," ","","feedback_trial","1","","","","","","","","","","","","","","","","","","","","",""
"","","","","","image-keyboard-response","216","179110","0.0-191.0","5b774f493c1375000197ad11","665500ab8938657b03fbdba8","6657937176ac1e0591ba7662","704","stimuli/1101000.jpg","1","","prediction_trial","1","","true","","1","true","true","true","true","true","true","[1]","101","000","1","","","","","","",""
"","","","","","image-keyboard-response","217","179286","0.0-192.0","5b774f493c1375000197ad11","665500ab8938657b03fbdba8","6657937176ac1e0591ba7662","175","stimuli/11010001.jpg"," ","","feedback_trial","1","","","","","","","","","","","","","","","","","","","","",""
"","","","","","image-keyboard-response","218","179813","0.0-193.0","5b774f493c1375000197ad11","665500ab8938657b03fbdba8","6657937176ac1e0591ba7662","509","stimuli/2110110.jpg","2","","prediction_trial","2","","true","","2","true","true","true","true","true","true","[2]","110","110","1","","","","","","",""
"","","","","","image-keyboard-response","219","179911","0.0-194.0","5b774f493c1375000197ad11","665500ab8938657b03fbdba8","6657937176ac1e0591ba7662","96","stimuli/21101102.jpg"," ","","feedback_trial","2","","","","","","","","","","","","","","","","","","","","",""
"","","","","","image-keyboard-response","220","180363","0.0-195.0","5b774f493c1375000197ad11","665500ab8938657b03fbdba8","6657937176ac1e0591ba7662","449","stimuli/2000010.jpg","2","","prediction_trial","2","","true","","2","true","true","true","true","true","true","[2]","000","010","1","","","","","","",""
"","","","","","image-keyboard-response","221","180445","0.0-196.0","5b774f493c1375000197ad11","665500ab8938657b03fbdba8","6657937176ac1e0591ba7662","81","stimuli/20000102.jpg"," ","","feedback_trial","2","","","","","","","","","","","","","","","","","","","","",""
"","","","","","image-keyboard-response","222","180989","0.0-197.0","5b774f493c1375000197ad11","665500ab8938657b03fbdba8","6657937176ac1e0591ba7662","542","stimuli/1101001.jpg","1","","prediction_trial","1","","true","","1","true","true","true","true","true","true","[1]","101","001","1","","","","","","",""
"","","","","","image-keyboard-response","223","181081","0.0-198.0","5b774f493c1375000197ad11","665500ab8938657b03fbdba8","6657937176ac1e0591ba7662","90","stimuli/11010011.jpg"," ","","feedback_trial","1","","","","","","","","","","","","","","","","","","","","",""
"","","","","","image-keyboard-response","224","181664","0.0-199.0","5b774f493c1375000197ad11","665500ab8938657b03fbdba8","6657937176ac1e0591ba7662","581","stimuli/0111101.jpg","0","","prediction_trial","1","","false","","0","false","false","false","false","false","false","[0,2,1]","111","101","0","","","","","","",""
"","","","","","image-keyboard-response","225","181748","0.0-200.0","5b774f493c1375000197ad11","665500ab8938657b03fbdba8","6657937176ac1e0591ba7662","82","stimuli/01111011.jpg"," ","","feedback_trial","0","","","","","","","","","","","","","","","","","","","","",""
"","","","","","image-keyboard-response","226","182276","0.0-201.0","5b774f493c1375000197ad11","665500ab8938657b03fbdba8","6657937176ac1e0591ba7662","526","stimuli/1000001.jpg","1","","prediction_trial","1","","true","","1","true","true","true","true","true","true","[1]","000","001","1","","","","","","",""
"","","","","","image-keyboard-response","227","182382","0.0-202.0","5b774f493c1375000197ad11","665500ab8938657b03fbdba8","6657937176ac1e0591ba7662","104","stimuli/10000011.jpg"," ","","feedback_trial","1","","","","","","","","","","","","","","","","","","","","",""
"","","","","","image-keyboard-response","228","182768","0.0-203.0","5b774f493c1375000197ad11","665500ab8938657b03fbdba8","6657937176ac1e0591ba7662","385","stimuli/1001100.jpg","1","","prediction_trial","1","","true","","1","true","true","true","true","true","true","[1]","001","100","1","","","","","","",""
"","","","","","image-keyboard-response","229","182857","0.0-204.0","5b774f493c1375000197ad11","665500ab8938657b03fbdba8","6657937176ac1e0591ba7662","87","stimuli/10011001.jpg"," ","","feedback_trial","1","","","","","","","","","","","","","","","","","","","","",""
"","","","","","image-keyboard-response","230","183320","0.0-205.0","5b774f493c1375000197ad11","665500ab8938657b03fbdba8","6657937176ac1e0591ba7662","461","stimuli/0111000.jpg","0","","prediction_trial","2","","false","","0","true","true","false","false","false","false","[0,2,1]","111","000","0","","","","","","",""
"","","","","","image-keyboard-response","231","183393","0.0-206.0","5b774f493c1375000197ad11","665500ab8938657b03fbdba8","6657937176ac1e0591ba7662","71","stimuli/01110002.jpg"," ","","feedback_trial","0","","","","","","","","","","","","","","","","","","","","",""
"","","","","","image-keyboard-response","232","183862","0.0-207.0","5b774f493c1375000197ad11","665500ab8938657b03fbdba8","6657937176ac1e0591ba7662","467","stimuli/0001010.jpg","0","","prediction_trial","0","","true","","0","true","true","true","true","true","true","[0]","001","010","1","","","","","","",""
"","","","","","image-keyboard-response","233","183999","0.0-208.0","5b774f493c1375000197ad11","665500ab8938657b03fbdba8","6657937176ac1e0591ba7662","135","stimuli/00010100.jpg"," ","","feedback_trial","0","","","","","","","","","","","","","","","","","","","","",""
"","","","","","image-keyboard-response","234","184498","0.0-209.0","5b774f493c1375000197ad11","665500ab8938657b03fbdba8","6657937176ac1e0591ba7662","498","stimuli/0100011.jpg","0","","prediction_trial","0","","true","","0","true","true","false","true","false","true","[0]","100","011","1","","","","","","",""
"","","","","","image-keyboard-response","235","184629","0.0-210.0","5b774f493c1375000197ad11","665500ab8938657b03fbdba8","6657937176ac1e0591ba7662","128","stimuli/01000110.jpg"," ","","feedback_trial","0","","","","","","","","","","","","","","","","","","","","",""
"","","","","","image-keyboard-response","236","185412","0.0-211.0","5b774f493c1375000197ad11","665500ab8938657b03fbdba8","6657937176ac1e0591ba7662","782","stimuli/1111000.jpg","1","","prediction_trial","0","","false","","1","true","true","false","false","false","false","[2,0,1]","111","000","0","","","","","","",""
"","","","","","image-keyboard-response","237","185529","0.0-212.0","5b774f493c1375000197ad11","665500ab8938657b03fbdba8","6657937176ac1e0591ba7662","115","stimuli/11110000.jpg"," ","","feedback_trial","2","","","","","","","","","","","","","","","","","","","","",""
"","","","","","image-keyboard-response","238","186092","0.0-213.0","5b774f493c1375000197ad11","665500ab8938657b03fbdba8","6657937176ac1e0591ba7662","561","stimuli/2111110.jpg","2","","prediction_trial","1","","false","","2","true","true","false","false","false","false","[0,1,2]","111","110","0","","","","","","",""
"","","","","","image-keyboard-response","239","186229","0.0-214.0","5b774f493c1375000197ad11","665500ab8938657b03fbdba8","6657937176ac1e0591ba7662","135","stimuli/21111101.jpg"," ","","feedback_trial","0","","","","","","","","","","","","","","","","","","","","",""
"","","","","","image-keyboard-response","240","186783","0.0-215.0","5b774f493c1375000197ad11","665500ab8938657b03fbdba8","6657937176ac1e0591ba7662","552","stimuli/1000011.jpg","2","","prediction_trial","1","","false","","1","false","false","true","true","false","false","[1]","000","011","0","","","","","","",""
"","","","","","image-keyboard-response","241","186882","0.0-216.0","5b774f493c1375000197ad11","665500ab8938657b03fbdba8","6657937176ac1e0591ba7662","96","stimuli/10000111.jpg"," ","","feedback_trial","1","","","","","","","","","","","","","","","","","","","","",""
"","","","","","image-keyboard-response","242","187442","0.0-217.0","5b774f493c1375000197ad11","665500ab8938657b03fbdba8","6657937176ac1e0591ba7662","558","stimuli/0101101.jpg","0","","prediction_trial","2","","false","","0","false","false","false","false","false","false","[0,2]","101","101","0","","","","","","",""
"","","","","","image-keyboard-response","243","187506","0.0-218.0","5b774f493c1375000197ad11","665500ab8938657b03fbdba8","6657937176ac1e0591ba7662","63","stimuli/01011012.jpg"," ","","feedback_trial","0","","","","","","","","","","","","","","","","","","","","",""
"","","","","","image-keyboard-response","244","187963","0.0-219.0","5b774f493c1375000197ad11","665500ab8938657b03fbdba8","6657937176ac1e0591ba7662","434","stimuli/0011111.jpg","0","","prediction_trial","0","","true","","0","false","false","true","true","false","false","[0]","011","111","1","","","","","","",""
"","","","","","image-keyboard-response","245","188058","0.0-220.0","5b774f493c1375000197ad11","665500ab8938657b03fbdba8","6657937176ac1e0591ba7662","94","stimuli/00111110.jpg"," ","","feedback_trial","0","","","","","","","","","","","","","","","","","","","","",""
"","","","","","image-keyboard-response","246","188681","0.0-221.0","5b774f493c1375000197ad11","665500ab8938657b03fbdba8","6657937176ac1e0591ba7662","622","stimuli/2111010.jpg","2","","prediction_trial","0","","false","","2","true","true","false","false","false","false","[0,1,2]","111","010","0","","","","","","",""
"","","","","","image-keyboard-response","247","188895","0.0-222.0","5b774f493c1375000197ad11","665500ab8938657b03fbdba8","6657937176ac1e0591ba7662","212","stimuli/21110100.jpg"," ","","feedback_trial","0","","","","","","","","","","","","","","","","","","","","",""
"","","","","","image-keyboard-response","248","189253","0.0-223.0","5b774f493c1375000197ad11","665500ab8938657b03fbdba8","6657937176ac1e0591ba7662","355","stimuli/2000100.jpg","2","","prediction_trial","2","","true","","2","true","true","true","true","true","true","[2]","000","100","1","","","","","","",""
"","","","","","image-keyboard-response","249","189359","0.0-224.0","5b774f493c1375000197ad11","665500ab8938657b03fbdba8","6657937176ac1e0591ba7662","104","stimuli/20001002.jpg"," ","","feedback_trial","2","","","","","","","","","","","","","","","","","","","","",""
"","","","","","image-keyboard-response","250","190017","0.0-225.0","5b774f493c1375000197ad11","665500ab8938657b03fbdba8","6657937176ac1e0591ba7662","656","stimuli/1111010.jpg","1","","prediction_trial","2","","false","","1","false","true","false","false","false","false","[0,2,1]","111","010","0","","","","","","",""
"","","","","","image-keyboard-response","251","190134","0.0-226.0","5b774f493c1375000197ad11","665500ab8938657b03fbdba8","6657937176ac1e0591ba7662","115","stimuli/11110102.jpg"," ","","feedback_trial","0","","","","","","","","","","","","","","","","","","","","",""
"","","","","","image-keyboard-response","252","190553","0.0-227.0","5b774f493c1375000197ad11","665500ab8938657b03fbdba8","6657937176ac1e0591ba7662","417","stimuli/0110110.jpg","1","","prediction_trial","1","","true","","0","false","false","false","false","false","false","[1,0]","110","110","1","","","","","","",""
"","","","","","image-keyboard-response","253","190644","0.0-228.0","5b774f493c1375000197ad11","665500ab8938657b03fbdba8","6657937176ac1e0591ba7662","90","stimuli/01101101.jpg"," ","","feedback_trial","1","","","","","","","","","","","","","","","","","","","","",""
"","","","","","image-keyboard-response","254","191420","0.0-229.0","5b774f493c1375000197ad11","665500ab8938657b03fbdba8","6657937176ac1e0591ba7662","774","stimuli/0101100.jpg","0","","prediction_trial","0","","true","","0","false","true","false","false","false","false","[2,0]","101","100","1","","","","","","",""
"","","","","","image-keyboard-response","255","191518","0.0-230.0","5b774f493c1375000197ad11","665500ab8938657b03fbdba8","6657937176ac1e0591ba7662","96","stimuli/01011000.jpg"," ","","feedback_trial","2","","","","","","","","","","","","","","","","","","","","",""
"","","","","","image-keyboard-response","256","192014","0.0-231.0","5b774f493c1375000197ad11","665500ab8938657b03fbdba8","6657937176ac1e0591ba7662","494","stimuli/0000010.jpg","0","","prediction_trial","0","","true","","0","true","true","true","true","true","true","[0]","000","010","1","","","","","","",""
"","","","","","image-keyboard-response","257","192112","0.0-232.0","5b774f493c1375000197ad11","665500ab8938657b03fbdba8","6657937176ac1e0591ba7662","71","stimuli/00000100.jpg"," ","","feedback_trial","0","","","","","","","","","","","","","","","","","","","","",""
"","","","","","image-keyboard-response","258","192544","0.0-233.0","5b774f493c1375000197ad11","665500ab8938657b03fbdba8","6657937176ac1e0591ba7662","429","stimuli/2110111.jpg","0","","prediction_trial","2","","false","","2","false","false","true","true","false","false","[2]","110","111","0","","","","","","",""
"","","","","","image-keyboard-response","259","192635","0.0-234.0","5b774f493c1375000197ad11","665500ab8938657b03fbdba8","6657937176ac1e0591ba7662","89","stimuli/21101112.jpg"," ","","feedback_trial","2","","","","","","","","","","","","","","","","","","","","",""
"","","","","","image-keyboard-response","260","193116","0.0-235.0","5b774f493c1375000197ad11","665500ab8938657b03fbdba8","6657937176ac1e0591ba7662","478","stimuli/1010110.jpg","0","","prediction_trial","1","","false","","1","false","false","false","true","false","false","[1]","010","110","0","","","","","","",""
"","","","","","image-keyboard-response","261","193199","0.0-236.0","5b774f493c1375000197ad11","665500ab8938657b03fbdba8","6657937176ac1e0591ba7662","81","stimuli/10101101.jpg"," ","","feedback_trial","1","","","","","","","","","","","","","","","","","","","","",""
"","","","","","image-keyboard-response","262","193647","0.0-237.0","5b774f493c1375000197ad11","665500ab8938657b03fbdba8","6657937176ac1e0591ba7662","446","stimuli/0101000.jpg","0","","prediction_trial","0","","true","","0","true","true","false","false","false","false","[0,2]","101","000","1","","","","","","",""
"","","","","","image-keyboard-response","263","193724","0.0-238.0","5b774f493c1375000197ad11","665500ab8938657b03fbdba8","6657937176ac1e0591ba7662","76","stimuli/01010000.jpg"," ","","feedback_trial","0","","","","","","","","","","","","","","","","","","","","",""
"","","","","","image-keyboard-response","264","194252","0.0-239.0","5b774f493c1375000197ad11","665500ab8938657b03fbdba8","6657937176ac1e0591ba7662","526","stimuli/2011111.jpg","0","","prediction_trial","2","","false","","2","false","false","false","false","false","false","[2,1]","011","111","0","","","","","","",""
"","","","","","image-keyboard-response","265","194331","0.0-240.0","5b774f493c1375000197ad11","665500ab8938657b03fbdba8","6657937176ac1e0591ba7662","77","stimuli/20111112.jpg"," ","","feedback_trial","2","","","","","","","","","","","","","","","","","","","","",""
"","","","","","image-keyboard-response","266","194736","0.0-241.0","5b774f493c1375000197ad11","665500ab8938657b03fbdba8","6657937176ac1e0591ba7662","403","stimuli/1111101.jpg","0","","prediction_trial","2","","false","","1","true","true","false","false","false","false","[0,1,2]","111","101","0","","","","","","",""
"","","","","","image-keyboard-response","267","194828","0.0-242.0","5b774f493c1375000197ad11","665500ab8938657b03fbdba8","6657937176ac1e0591ba7662","90","stimuli/11111012.jpg"," ","","feedback_trial","0","","","","","","","","","","","","","","","","","","","","",""
"","","","","","image-keyboard-response","268","195345","0.0-243.0","5b774f493c1375000197ad11","665500ab8938657b03fbdba8","6657937176ac1e0591ba7662","515","stimuli/0010001.jpg","0","","prediction_trial","0","","true","","0","true","true","true","true","true","true","[0]","010","001","1","","","","","","",""
"","","","","","image-keyboard-response","269","195480","0.0-244.0","5b774f493c1375000197ad11","665500ab8938657b03fbdba8","6657937176ac1e0591ba7662","133","stimuli/00100010.jpg"," ","","feedback_trial","0","","","","","","","","","","","","","","","","","","","","",""
"","","","","","image-keyboard-response","270","196051","0.0-245.0","5b774f493c1375000197ad11","665500ab8938657b03fbdba8","6657937176ac1e0591ba7662","545","stimuli/2111100.jpg","2","","prediction_trial","1","","false","","2","true","true","false","false","false","false","[0,1,2]","111","100","0","","","","","","",""
"","","","","","image-keyboard-response","271","196189","0.0-246.0","5b774f493c1375000197ad11","665500ab8938657b03fbdba8","6657937176ac1e0591ba7662","136","stimuli/21111001.jpg"," ","","feedback_trial","0","","","","","","","","","","","","","","","","","","","","",""
"","","","","","image-keyboard-response","272","196791","0.0-247.0","5b774f493c1375000197ad11","665500ab8938657b03fbdba8","6657937176ac1e0591ba7662","601","stimuli/0100110.jpg","2","","prediction_trial","0","","false","","0","false","false","false","true","false","false","[0]","100","110","0","","","","","","",""
"","","","","","image-keyboard-response","273","196948","0.0-248.0","5b774f493c1375000197ad11","665500ab8938657b03fbdba8","6657937176ac1e0591ba7662","154","stimuli/01001100.jpg"," ","","feedback_trial","0","","","","","","","","","","","","","","","","","","","","",""
"","","","","","image-keyboard-response","274","197401","0.0-249.0","5b774f493c1375000197ad11","665500ab8938657b03fbdba8","6657937176ac1e0591ba7662","452","stimuli/2111001.jpg","2","","prediction_trial","2","","true","","2","false","true","false","false","false","false","[2,0,1]","111","001","1","","","","","","",""
"","","","","","image-keyboard-response","275","197522","0.0-250.0","5b774f493c1375000197ad11","665500ab8938657b03fbdba8","6657937176ac1e0591ba7662","118","stimuli/21110012.jpg"," ","","feedback_trial","2","","","","","","","","","","","","","","","","","","","","",""
"","","","","","image-keyboard-response","276","198031","0.0-251.0","5b774f493c1375000197ad11","665500ab8938657b03fbdba8","6657937176ac1e0591ba7662","507","stimuli/0001101.jpg","2","","prediction_trial","0","","false","","0","false","false","true","true","false","false","[0]","001","101","0","","","","","","",""
"","","","","","image-keyboard-response","277","198307","0.0-252.0","5b774f493c1375000197ad11","665500ab8938657b03fbdba8","6657937176ac1e0591ba7662","274","stimuli/00011010.jpg"," ","","feedback_trial","0","","","","","","","","","","","","","","","","","","","","",""
"","","","","","image-keyboard-response","278","200211","0.0-253.0","5b774f493c1375000197ad11","665500ab8938657b03fbdba8","6657937176ac1e0591ba7662","1901","stimuli/1000110.jpg","1","","prediction_trial","1","","true","","1","false","false","true","true","false","false","[1]","000","110","1","","","","","","",""
"","","","","","image-keyboard-response","279","200418","0.0-254.0","5b774f493c1375000197ad11","665500ab8938657b03fbdba8","6657937176ac1e0591ba7662","205","stimuli/10001101.jpg"," ","","feedback_trial","1","","","","","","","","","","","","","","","","","","","","",""
"","","","","","image-keyboard-response","280","200942","0.0-255.0","5b774f493c1375000197ad11","665500ab8938657b03fbdba8","6657937176ac1e0591ba7662","522","stimuli/1101010.jpg","1","","prediction_trial","1","","true","","1","false","true","true","true","false","true","[1]","101","010","1","","","","","","",""
"","","","","","image-keyboard-response","281","201056","0.0-256.0","5b774f493c1375000197ad11","665500ab8938657b03fbdba8","6657937176ac1e0591ba7662","112","stimuli/11010101.jpg"," ","","feedback_trial","1","","","","","","","","","","","","","","","","","","","","",""
"","","","","","image-keyboard-response","282","201535","0.0-257.0","5b774f493c1375000197ad11","665500ab8938657b03fbdba8","6657937176ac1e0591ba7662","477","stimuli/1101011.jpg","1","","prediction_trial","1","","true","","1","false","false","true","true","false","false","[1]","101","011","1","","","","","","",""
"","","","","","image-keyboard-response","283","201688","0.0-258.0","5b774f493c1375000197ad11","665500ab8938657b03fbdba8","6657937176ac1e0591ba7662","152","stimuli/11010111.jpg"," ","","feedback_trial","1","","","","","","","","","","","","","","","","","","","","",""
"","","","","","image-keyboard-response","284","202142","0.0-259.0","5b774f493c1375000197ad11","665500ab8938657b03fbdba8","6657937176ac1e0591ba7662","451","stimuli/2000001.jpg","1","","prediction_trial","2","","false","","2","false","true","true","true","false","true","[2]","000","001","0","","","","","","",""
"","","","","","image-keyboard-response","285","202275","0.0-260.0","5b774f493c1375000197ad11","665500ab8938657b03fbdba8","6657937176ac1e0591ba7662","131","stimuli/20000012.jpg"," ","","feedback_trial","2","","","","","","","","","","","","","","","","","","","","",""
"","","","","","image-keyboard-response","286","202758","0.0-261.0","5b774f493c1375000197ad11","665500ab8938657b03fbdba8","6657937176ac1e0591ba7662","481","stimuli/2001010.jpg","2","","prediction_trial","2","","true","","2","true","true","false","true","false","true","[2]","001","010","1","","","","","","",""
"","","","","","image-keyboard-response","287","202866","0.0-262.0","5b774f493c1375000197ad11","665500ab8938657b03fbdba8","6657937176ac1e0591ba7662","106","stimuli/20010102.jpg"," ","","feedback_trial","2","","","","","","","","","","","","","","","","","","","","",""
"","","","","","image-keyboard-response","288","203294","0.0-263.0","5b774f493c1375000197ad11","665500ab8938657b03fbdba8","6657937176ac1e0591ba7662","427","stimuli/2011100.jpg","2","","prediction_trial","1","","false","","2","true","true","false","false","false","false","[2,1]","011","100","0","","","","","","",""
"","","","","","image-keyboard-response","289","203378","0.0-264.0","5b774f493c1375000197ad11","665500ab8938657b03fbdba8","6657937176ac1e0591ba7662","82","stimuli/20111001.jpg"," ","","feedback_trial","2","","","","","","","","","","","","","","","","","","","","",""
"","","","","","image-keyboard-response","290","204014","0.0-265.0","5b774f493c1375000197ad11","665500ab8938657b03fbdba8","6657937176ac1e0591ba7662","634","stimuli/0101011.jpg","0","","prediction_trial","2","","false","","0","true","true","false","false","false","false","[0,2]","101","011","0","","","","","","",""
"","","","","","image-keyboard-response","291","204156","0.0-266.0","5b774f493c1375000197ad11","665500ab8938657b03fbdba8","6657937176ac1e0591ba7662","140","stimuli/01010112.jpg"," ","","feedback_trial","0","","","","","","","","","","","","","","","","","","","","",""
"","","","","","image-keyboard-response","292","204845","0.0-267.0","5b774f493c1375000197ad11","665500ab8938657b03fbdba8","6657937176ac1e0591ba7662","688","stimuli/1101111.jpg","0","","prediction_trial","1","","false","","1","false","false","true","true","false","false","[1]","101","111","0","","","","","","",""
"","","","","","image-keyboard-response","293","205190","0.0-268.0","5b774f493c1375000197ad11","665500ab8938657b03fbdba8","6657937176ac1e0591ba7662","343","stimuli/11011111.jpg"," ","","feedback_trial","1","","","","","","","","","","","","","","","","","","","","",""
"","","","","","image-keyboard-response","294","206566","0.0-269.0","5b774f493c1375000197ad11","665500ab8938657b03fbdba8","6657937176ac1e0591ba7662","1374","stimuli/0011001.jpg","0","","prediction_trial","0","","true","","0","true","true","true","true","true","true","[0]","011","001","1","","","","","","",""
"","","","","","image-keyboard-response","295","208222","0.0-270.0","5b774f493c1375000197ad11","665500ab8938657b03fbdba8","6657937176ac1e0591ba7662","1654","stimuli/00110010.jpg"," ","","feedback_trial","0","","","","","","","","","","","","","","","","","","","","",""
"","","","","","image-keyboard-response","296","208991","0.0-271.0","5b774f493c1375000197ad11","665500ab8938657b03fbdba8","6657937176ac1e0591ba7662","731","stimuli/2101111.jpg","2","","prediction_trial","0","","false","","2","false","false","false","false","false","false","[2,0]","101","111","0","","","","","","",""
"","","","","","image-keyboard-response","297","209113","0.0-272.0","5b774f493c1375000197ad11","665500ab8938657b03fbdba8","6657937176ac1e0591ba7662","120","stimuli/21011110.jpg"," ","","feedback_trial","2","","","","","","","","","","","","","","","","","","","","",""
"","","","","","image-keyboard-response","298","209582","0.0-273.0","5b774f493c1375000197ad11","665500ab8938657b03fbdba8","6657937176ac1e0591ba7662","467","stimuli/2101101.jpg","2","","prediction_trial","0","","false","","2","false","false","false","false","false","false","[0,2]","101","101","0","","","","","","",""
"","","","","","image-keyboard-response","299","209693","0.0-274.0","5b774f493c1375000197ad11","665500ab8938657b03fbdba8","6657937176ac1e0591ba7662","110","stimuli/21011010.jpg"," ","","feedback_trial","0","","","","","","","","","","","","","","","","","","","","",""
"","","","","","image-keyboard-response","300","210115","0.0-275.0","5b774f493c1375000197ad11","665500ab8938657b03fbdba8","6657937176ac1e0591ba7662","420","stimuli/2101000.jpg","2","","prediction_trial","2","","true","","2","true","true","false","false","false","false","[2,0]","101","000","1","","","","","","",""
"","","","","","image-keyboard-response","301","210222","0.0-276.0","5b774f493c1375000197ad11","665500ab8938657b03fbdba8","6657937176ac1e0591ba7662","106","stimuli/21010002.jpg"," ","","feedback_trial","2","","","","","","","","","","","","","","","","","","","","",""
"","","","","","image-keyboard-response","302","210826","0.0-277.0","5b774f493c1375000197ad11","665500ab8938657b03fbdba8","6657937176ac1e0591ba7662","602","stimuli/1000101.jpg","1","","prediction_trial","1","","true","","1","true","true","true","true","true","true","[1]","000","101","1","","","","","","",""
"","","","","","image-keyboard-response","303","210930","0.0-278.0","5b774f493c1375000197ad11","665500ab8938657b03fbdba8","6657937176ac1e0591ba7662","102","stimuli/10001011.jpg"," ","","feedback_trial","1","","","","","","","","","","","","","","","","","","","","",""
"","","","","","image-keyboard-response","304","211794","0.0-279.0","5b774f493c1375000197ad11","665500ab8938657b03fbdba8","6657937176ac1e0591ba7662","862","stimuli/0101110.jpg","0","","prediction_trial","0","","true","","0","false","false","false","false","false","false","[0,2]","101","110","1","","","","","","",""
"","","","","","image-keyboard-response","305","211946","0.0-280.0","5b774f493c1375000197ad11","665500ab8938657b03fbdba8","6657937176ac1e0591ba7662","150","stimuli/01011100.jpg"," ","","feedback_trial","0","","","","","","","","","","","","","","","","","","","","",""
"","","","","","image-keyboard-response","306","212784","0.0-281.0","5b774f493c1375000197ad11","665500ab8938657b03fbdba8","6657937176ac1e0591ba7662","837","stimuli/0000110.jpg","0","","prediction_trial","0","","true","","0","false","false","true","true","false","false","[0]","000","110","1","","","","","","",""
"","","","","","image-keyboard-response","307","213110","0.0-282.0","5b774f493c1375000197ad11","665500ab8938657b03fbdba8","6657937176ac1e0591ba7662","324","stimuli/00001100.jpg"," ","","feedback_trial","0","","","","","","","","","","","","","","","","","","","","",""
"","","","","","image-keyboard-response","308","213682","0.0-283.0","5b774f493c1375000197ad11","665500ab8938657b03fbdba8","6657937176ac1e0591ba7662","570","stimuli/2010111.jpg","1","","prediction_trial","2","","false","","2","false","false","true","true","false","false","[2]","010","111","0","","","","","","",""
"","","","","","image-keyboard-response","309","213993","0.0-284.0","5b774f493c1375000197ad11","665500ab8938657b03fbdba8","6657937176ac1e0591ba7662","299","stimuli/20101112.jpg"," ","","feedback_trial","2","","","","","","","","","","","","","","","","","","","","",""
"","","","","","image-keyboard-response","310","214640","0.0-285.0","5b774f493c1375000197ad11","665500ab8938657b03fbdba8","6657937176ac1e0591ba7662","646","stimuli/1100110.jpg","1","","prediction_trial","1","","true","","1","false","false","true","true","false","false","[1]","100","110","1","","","","","","",""
"","","","","","image-keyboard-response","311","214847","0.0-286.0","5b774f493c1375000197ad11","665500ab8938657b03fbdba8","6657937176ac1e0591ba7662","206","stimuli/11001101.jpg"," ","","feedback_trial","1","","","","","","","","","","","","","","","","","","","","",""
"","","","","","image-keyboard-response","312","215280","0.0-287.0","5b774f493c1375000197ad11","665500ab8938657b03fbdba8","6657937176ac1e0591ba7662","431","stimuli/1100001.jpg","1","","prediction_trial","1","","true","","1","true","true","true","true","true","true","[1]","100","001","1","","","","","","",""
"","","","","","image-keyboard-response","313","215389","0.0-288.0","5b774f493c1375000197ad11","665500ab8938657b03fbdba8","6657937176ac1e0591ba7662","107","stimuli/11000011.jpg"," ","","feedback_trial","1","","","","","","","","","","","","","","","","","","","","",""
"","","","","","image-keyboard-response","314","215909","0.0-289.0","5b774f493c1375000197ad11","665500ab8938657b03fbdba8","6657937176ac1e0591ba7662","518","stimuli/2111000.jpg","2","","prediction_trial","1","","false","","2","true","true","false","false","false","false","[2,1,0]","111","000","0","","","","","","",""
"","","","","","image-keyboard-response","315","216036","0.0-290.0","5b774f493c1375000197ad11","665500ab8938657b03fbdba8","6657937176ac1e0591ba7662","125","stimuli/21110001.jpg"," ","","feedback_trial","2","","","","","","","","","","","","","","","","","","","","",""
"","","","","","image-keyboard-response","316","216426","0.0-291.0","5b774f493c1375000197ad11","665500ab8938657b03fbdba8","6657937176ac1e0591ba7662","388","stimuli/1111110.jpg","2","","prediction_trial","2","","true","","1","false","false","false","false","false","false","[0,1,2]","111","110","1","","","","","","",""
"","","","","","image-keyboard-response","317","216535","0.0-292.0","5b774f493c1375000197ad11","665500ab8938657b03fbdba8","6657937176ac1e0591ba7662","107","stimuli/11111102.jpg"," ","","feedback_trial","0","","","","","","","","","","","","","","","","","","","","",""
"","","","","","survey-html-form","318","227366","0.0-293.0","5b774f493c1375000197ad11","665500ab8938657b03fbdba8","6657937176ac1e0591ba7662","10827","","{""feedback"":""N/A"",""age"":""31"",""gender"":""Female"",""other_gender"":"""",""race"":""White"",""other_race"":"""",""ethnicity"":""Non-Hispanic""}","","exit_survey","","","","","","","","","","","","","","","","N/A","31","Non-Hispanic","Female","White","0.6041666666666666","0.6041666666666666"
