"success","timeout","failed_images","failed_audio","failed_video","trial_type","trial_index","time_elapsed","internal_node_id","prolific_id","prolific_study_id","prolific_session_id","rt","stimulus","response","view_history","trial","character_choice","stimulus_dict","accuracy","correct_response","ball_pos","ego_ball_visible","ego_can_infer","alter_ball_visible","alter_can_infer","collective_ball_visible","collective_can_infer","search_locations","alter_occluders","ego_occluders","accuracy_bool","feedback","age","ethnicity","gender","race","overall_accuracy","bonus"
"true","false","[]","[]","[]","preload","0","2942","0.0-0.0","5d8d12f6d88e3a00142c9751","665500ab8938657b03fbdba8","66579293baa0b047b63e26f4","","","","","","","","","","","","","","","","","","","","","","","","","","",""
"true","","","","","fullscreen","1","8808","0.0-1.0","5d8d12f6d88e3a00142c9751","665500ab8938657b03fbdba8","66579293baa0b047b63e26f4","","","","","","","","","","","","","","","","","","","","","","","","","","",""
"","","","","","html-button-response","2","13534","0.0-2.0","5d8d12f6d88e3a00142c9751","665500ab8938657b03fbdba8","66579293baa0b047b63e26f4","4725","<p><b>Consent Form</b></p> <div style=""text-align:left;background-color:lightgrey; padding:20px; max-width:900px;""><p>Please consider this information carefully before deciding whether to participate in this research.</p> <p>The purpose of this research is to examine which factors influence social judgment and decision-making. You will be asked to make judgements about individuals and actions in social scenarios. We are simply interested in your judgement. The study will take less than 1 hour to complete, and you will receive less than $20 on Prolific. Your compensation and time commitment are specified in the study description. There are no anticipated risks associated with participating in this study. The effects of participating should be comparable to those you would ordinarily experience from viewing a computer monitor and using a mouse or keyboard for a similar amount of time. At the end of the study, we will provide an explanation of the questions that motivate this line of research and will describe the potential implications. </p><p> Your participation in this study is completely voluntary and you may refuse to participate or you may choose to withdraw at any time without penalty or loss of benefits to you which are otherwise entitled. Your participation in this study will remain confidential. No personally identifiable information will be associated with your data. Also, all analyses of the data will be averaged across all the participants, so your individual responses will never be specifically analyzed. </p><p> If you have questions or concerns about your participation or payment, or want to request a summary of research findings, please contact Dr. Jonathan Phillips at Jonathan.S.Phillips@dartmouth.edu. </p><p> Please save a copy of this form for your records. </p><p><b>Agreement: </b>The nature and purpose of this research have been sufficiently explained and I agree to participate in this study. I understand that I am free to withdraw at any time without incurring any penalty. Please consent by clicking the button below to continue. Otherwise, please exit the study at any time. </p>","0","","","","","","","","","","","","","","","","","","","","","","","",""
"","","","","","instructions","3","67846","0.0-3.0-0.0","5d8d12f6d88e3a00142c9751","665500ab8938657b03fbdba8","66579293baa0b047b63e26f4","54311","","","[{""page_index"":0,""viewing_time"":1103},{""page_index"":1,""viewing_time"":1546},{""page_index"":2,""viewing_time"":2806},{""page_index"":3,""viewing_time"":5271},{""page_index"":4,""viewing_time"":6398},{""page_index"":5,""viewing_time"":2631},{""page_index"":6,""viewing_time"":4464},{""page_index"":7,""viewing_time"":3334},{""page_index"":8,""viewing_time"":3483},{""page_index"":9,""viewing_time"":2270},{""page_index"":10,""viewing_time"":9067},{""page_index"":11,""viewing_time"":5671},{""page_index"":12,""viewing_time"":5266},{""page_index"":13,""viewing_time"":1000}]","intro","","","","","","","","","","","","","","","","","","","","","",""
"","","","","","image-keyboard-response","4","69246","0.0-3.0-1.0","5d8d12f6d88e3a00142c9751","665500ab8938657b03fbdba8","66579293baa0b047b63e26f4","1399","stimuli/0101011.jpg","0","","prediction_practice","2","{""filepath"":""stimuli/0101011.jpg"",""ball_pos"":0,""ego_ball_visible"":true,""ego_can_infer"":true,""alter_ball_visible"":false,""alter_can_infer"":false,""collective_ball_visible"":false,""collective_can_infer"":false,""search_locations"":[0,2],""alter_occluders"":""101"",""ego_occluders"":""011""}","false","","","","","","","","","","","","","","","","","","",""
"","","","","","image-keyboard-response","5","74782","0.0-3.0-2.0","5d8d12f6d88e3a00142c9751","665500ab8938657b03fbdba8","66579293baa0b047b63e26f4","5535","stimuli/01010112.jpg"," ","","practrice_feedback","0","","","","","","","","","","","","","","","","","","","","",""
"","","","","","image-keyboard-response","6","77062","0.0-3.0-3.0","5d8d12f6d88e3a00142c9751","665500ab8938657b03fbdba8","66579293baa0b047b63e26f4","2280","stimuli/2011100.jpg","2","","prediction_practice","2","{""filepath"":""stimuli/2011100.jpg"",""ball_pos"":2,""ego_ball_visible"":true,""ego_can_infer"":true,""alter_ball_visible"":false,""alter_can_infer"":false,""collective_ball_visible"":false,""collective_can_infer"":false,""search_locations"":[2,1],""alter_occluders"":""011"",""ego_occluders"":""100""}","true","","","","","","","","","","","","","","","","","","",""
"","","","","","image-keyboard-response","7","79118","0.0-3.0-4.0","5d8d12f6d88e3a00142c9751","665500ab8938657b03fbdba8","66579293baa0b047b63e26f4","2055","stimuli/20111002.jpg"," ","","practrice_feedback","2","","","","","","","","","","","","","","","","","","","","",""
"","","","","","image-keyboard-response","8","80238","0.0-3.0-5.0","5d8d12f6d88e3a00142c9751","665500ab8938657b03fbdba8","66579293baa0b047b63e26f4","1120","stimuli/1001100.jpg","1","","prediction_practice","1","{""filepath"":""stimuli/1001100.jpg"",""ball_pos"":1,""ego_ball_visible"":true,""ego_can_infer"":true,""alter_ball_visible"":true,""alter_can_infer"":true,""collective_ball_visible"":true,""collective_can_infer"":true,""search_locations"":[1],""alter_occluders"":""001"",""ego_occluders"":""100""}","true","","","","","","","","","","","","","","","","","","",""
"","","","","","image-keyboard-response","9","82326","0.0-3.0-6.0","5d8d12f6d88e3a00142c9751","665500ab8938657b03fbdba8","66579293baa0b047b63e26f4","2087","stimuli/10011001.jpg"," ","","practrice_feedback","1","","","","","","","","","","","","","","","","","","","","",""
"","","","","","image-keyboard-response","10","83174","0.0-3.0-7.0","5d8d12f6d88e3a00142c9751","665500ab8938657b03fbdba8","66579293baa0b047b63e26f4","848","stimuli/0011011.jpg","0","","prediction_practice","0","{""filepath"":""stimuli/0011011.jpg"",""ball_pos"":0,""ego_ball_visible"":true,""ego_can_infer"":true,""alter_ball_visible"":true,""alter_can_infer"":true,""collective_ball_visible"":true,""collective_can_infer"":true,""search_locations"":[0],""alter_occluders"":""011"",""ego_occluders"":""011""}","true","","","","","","","","","","","","","","","","","","",""
"","","","","","image-keyboard-response","11","85014","0.0-3.0-8.0","5d8d12f6d88e3a00142c9751","665500ab8938657b03fbdba8","66579293baa0b047b63e26f4","1840","stimuli/00110110.jpg"," ","","practrice_feedback","0","","","","","","","","","","","","","","","","","","","","",""
"","","","","","image-keyboard-response","12","85614","0.0-3.0-9.0","5d8d12f6d88e3a00142c9751","665500ab8938657b03fbdba8","66579293baa0b047b63e26f4","599","stimuli/2001000.jpg","2","","prediction_practice","2","{""filepath"":""stimuli/2001000.jpg"",""ball_pos"":2,""ego_ball_visible"":true,""ego_can_infer"":true,""alter_ball_visible"":false,""alter_can_infer"":true,""collective_ball_visible"":false,""collective_can_infer"":true,""search_locations"":[2],""alter_occluders"":""001"",""ego_occluders"":""000""}","true","","","","","","","","","","","","","","","","","","",""
"","","","","","image-keyboard-response","13","88638","0.0-3.0-10.0","5d8d12f6d88e3a00142c9751","665500ab8938657b03fbdba8","66579293baa0b047b63e26f4","3023","stimuli/20010002.jpg"," ","","practrice_feedback","2","","","","","","","","","","","","","","","","","","","","",""
"","","","","","image-keyboard-response","14","89830","0.0-3.0-11.0","5d8d12f6d88e3a00142c9751","665500ab8938657b03fbdba8","66579293baa0b047b63e26f4","1192","stimuli/0101111.jpg","1","","prediction_practice","2","{""filepath"":""stimuli/0101111.jpg"",""ball_pos"":0,""ego_ball_visible"":false,""ego_can_infer"":false,""alter_ball_visible"":false,""alter_can_infer"":false,""collective_ball_visible"":false,""collective_can_infer"":false,""search_locations"":[0,2],""alter_occluders"":""101"",""ego_occluders"":""111""}","false","","","","","","","","","","","","","","","","","","",""
"","","","","","image-keyboard-response","15","91639","0.0-3.0-12.0","5d8d12f6d88e3a00142c9751","665500ab8938657b03fbdba8","66579293baa0b047b63e26f4","1808","stimuli/01011112.jpg"," ","","practrice_feedback","0","","","","","","","","","","","","","","","","","","","","",""
"","","","","","image-keyboard-response","16","93222","0.0-3.0-13.0","5d8d12f6d88e3a00142c9751","665500ab8938657b03fbdba8","66579293baa0b047b63e26f4","1583","stimuli/2010101.jpg","0","","prediction_practice","2","{""filepath"":""stimuli/2010101.jpg"",""ball_pos"":2,""ego_ball_visible"":false,""ego_can_infer"":false,""alter_ball_visible"":true,""alter_can_infer"":true,""collective_ball_visible"":false,""collective_can_infer"":false,""search_locations"":[2],""alter_occluders"":""010"",""ego_occluders"":""101""}","false","","","","","","","","","","","","","","","","","","",""
"","","","","","image-keyboard-response","17","94887","0.0-3.0-14.0","5d8d12f6d88e3a00142c9751","665500ab8938657b03fbdba8","66579293baa0b047b63e26f4","1664","stimuli/20101012.jpg"," ","","practrice_feedback","2","","","","","","","","","","","","","","","","","","","","",""
"","","","","","image-keyboard-response","18","97502","0.0-3.0-15.0","5d8d12f6d88e3a00142c9751","665500ab8938657b03fbdba8","66579293baa0b047b63e26f4","2615","stimuli/1100111.jpg","0","","prediction_practice","1","{""filepath"":""stimuli/1100111.jpg"",""ball_pos"":1,""ego_ball_visible"":false,""ego_can_infer"":false,""alter_ball_visible"":true,""alter_can_infer"":true,""collective_ball_visible"":false,""collective_can_infer"":false,""search_locations"":[1],""alter_occluders"":""100"",""ego_occluders"":""111""}","false","","","","","","","","","","","","","","","","","","",""
"","","","","","image-keyboard-response","19","98558","0.0-3.0-16.0","5d8d12f6d88e3a00142c9751","665500ab8938657b03fbdba8","66579293baa0b047b63e26f4","1056","stimuli/11001111.jpg"," ","","practrice_feedback","1","","","","","","","","","","","","","","","","","","","","",""
"","","","","","image-keyboard-response","20","99814","0.0-3.0-17.0","5d8d12f6d88e3a00142c9751","665500ab8938657b03fbdba8","66579293baa0b047b63e26f4","1255","stimuli/0111111.jpg","1","","prediction_practice","1","{""filepath"":""stimuli/0111111.jpg"",""ball_pos"":0,""ego_ball_visible"":false,""ego_can_infer"":false,""alter_ball_visible"":false,""alter_can_infer"":false,""collective_ball_visible"":false,""collective_can_infer"":false,""search_locations"":[0,2,1],""alter_occluders"":""111"",""ego_occluders"":""111""}","true","","","","","","","","","","","","","","","","","","",""
"","","","","","image-keyboard-response","21","101030","0.0-3.0-18.0","5d8d12f6d88e3a00142c9751","665500ab8938657b03fbdba8","66579293baa0b047b63e26f4","1216","stimuli/01111111.jpg"," ","","practrice_feedback","0","","","","","","","","","","","","","","","","","","","","",""
"","","","","","image-keyboard-response","22","102406","0.0-3.0-19.0","5d8d12f6d88e3a00142c9751","665500ab8938657b03fbdba8","66579293baa0b047b63e26f4","1375","stimuli/2110100.jpg","2","","prediction_practice","2","{""filepath"":""stimuli/2110100.jpg"",""ball_pos"":2,""ego_ball_visible"":true,""ego_can_infer"":true,""alter_ball_visible"":true,""alter_can_infer"":true,""collective_ball_visible"":true,""collective_can_infer"":true,""search_locations"":[2],""alter_occluders"":""110"",""ego_occluders"":""100""}","true","","","","","","","","","","","","","","","","","","",""
"","","","","","image-keyboard-response","23","103454","0.0-3.0-20.0","5d8d12f6d88e3a00142c9751","665500ab8938657b03fbdba8","66579293baa0b047b63e26f4","1047","stimuli/21101002.jpg"," ","","practrice_feedback","2","","","","","","","","","","","","","","","","","","","","",""
"","","","","","html-button-response","24","110522","0.0-3.0-21.0","5d8d12f6d88e3a00142c9751","665500ab8938657b03fbdba8","66579293baa0b047b63e26f4","7067","Now that you've had some practice, you'll be tested with a couple of easy trials. If you correctly predict Sam's choice, you'll move on to complete the experiment!","0","","","","","","","","","","","","","","","","","","","","","","","",""
"","","","","","image-keyboard-response","25","111742","0.0-3.0-22.0-0.0","5d8d12f6d88e3a00142c9751","665500ab8938657b03fbdba8","66579293baa0b047b63e26f4","1220","stimuli/0000011.jpg","arrowleft","","comprehension_quiz","","","true","arrowleft","","","","","","","","","","","","","","","","","",""
"","","","","","image-keyboard-response","26","112710","0.0-3.0-22.0-1.0","5d8d12f6d88e3a00142c9751","665500ab8938657b03fbdba8","66579293baa0b047b63e26f4","967","stimuli/00000110.jpg"," ","","comprehension_quiz","","","true"," ","","","","","","","","","","","","","","","","","",""
"","","","","","image-keyboard-response","27","114293","0.0-3.0-22.0-2.0","5d8d12f6d88e3a00142c9751","665500ab8938657b03fbdba8","66579293baa0b047b63e26f4","1583","stimuli/1010010.jpg","arrowdown","","comprehension_quiz","","","true","arrowdown","","","","","","","","","","","","","","","","","",""
"","","","","","image-keyboard-response","28","114894","0.0-3.0-22.0-3.0","5d8d12f6d88e3a00142c9751","665500ab8938657b03fbdba8","66579293baa0b047b63e26f4","600","stimuli/10100101.jpg"," ","","comprehension_quiz","","","true"," ","","","","","","","","","","","","","","","","","",""
"","","","","","html-button-response","29","116851","0.0-4.0","5d8d12f6d88e3a00142c9751","665500ab8938657b03fbdba8","66579293baa0b047b63e26f4","1956","The experiment will now begin.","0","","","","","","","","","","","","","","","","","","","","","","","",""
"","","","","","image-keyboard-response","30","118126","0.0-5.0","5d8d12f6d88e3a00142c9751","665500ab8938657b03fbdba8","66579293baa0b047b63e26f4","1274","stimuli/1000000.jpg","1","","prediction_trial","1","","true","","1","true","true","true","true","true","true","[1]","000","000","1","","","","","","",""
"","","","","","image-keyboard-response","31","118902","0.0-6.0","5d8d12f6d88e3a00142c9751","665500ab8938657b03fbdba8","66579293baa0b047b63e26f4","776","stimuli/10000001.jpg"," ","","feedback_trial","1","","","","","","","","","","","","","","","","","","","","",""
"","","","","","image-keyboard-response","32","121094","0.0-7.0","5d8d12f6d88e3a00142c9751","665500ab8938657b03fbdba8","66579293baa0b047b63e26f4","2191","stimuli/2010011.jpg","0","","prediction_trial","2","","false","","2","false","false","true","true","false","false","[2]","010","011","0","","","","","","",""
"","","","","","image-keyboard-response","33","122742","0.0-8.0","5d8d12f6d88e3a00142c9751","665500ab8938657b03fbdba8","66579293baa0b047b63e26f4","1647","stimuli/20100112.jpg"," ","","feedback_trial","2","","","","","","","","","","","","","","","","","","","","",""
"","","","","","image-keyboard-response","34","125814","0.0-9.0","5d8d12f6d88e3a00142c9751","665500ab8938657b03fbdba8","66579293baa0b047b63e26f4","3072","stimuli/0001101.jpg","2","","prediction_trial","0","","false","","0","false","false","true","true","false","false","[0]","001","101","0","","","","","","",""
"","","","","","image-keyboard-response","35","126918","0.0-10.0","5d8d12f6d88e3a00142c9751","665500ab8938657b03fbdba8","66579293baa0b047b63e26f4","1104","stimuli/00011010.jpg"," ","","feedback_trial","0","","","","","","","","","","","","","","","","","","","","",""
"","","","","","image-keyboard-response","36","127886","0.0-11.0","5d8d12f6d88e3a00142c9751","665500ab8938657b03fbdba8","66579293baa0b047b63e26f4","967","stimuli/0011010.jpg","0","","prediction_trial","0","","true","","0","true","true","true","true","true","true","[0]","011","010","1","","","","","","",""
"","","","","","image-keyboard-response","37","128526","0.0-12.0","5d8d12f6d88e3a00142c9751","665500ab8938657b03fbdba8","66579293baa0b047b63e26f4","640","stimuli/00110100.jpg"," ","","feedback_trial","0","","","","","","","","","","","","","","","","","","","","",""
"","","","","","image-keyboard-response","38","129343","0.0-13.0","5d8d12f6d88e3a00142c9751","665500ab8938657b03fbdba8","66579293baa0b047b63e26f4","816","stimuli/1000101.jpg","1","","prediction_trial","1","","true","","1","true","true","true","true","true","true","[1]","000","101","1","","","","","","",""
"","","","","","image-keyboard-response","39","129918","0.0-14.0","5d8d12f6d88e3a00142c9751","665500ab8938657b03fbdba8","66579293baa0b047b63e26f4","574","stimuli/10001011.jpg"," ","","feedback_trial","1","","","","","","","","","","","","","","","","","","","","",""
"","","","","","image-keyboard-response","40","132999","0.0-15.0","5d8d12f6d88e3a00142c9751","665500ab8938657b03fbdba8","66579293baa0b047b63e26f4","3081","stimuli/0100101.jpg","0","","prediction_trial","0","","true","","0","false","false","false","true","false","false","[0]","100","101","1","","","","","","",""
"","","","","","image-keyboard-response","41","133710","0.0-16.0","5d8d12f6d88e3a00142c9751","665500ab8938657b03fbdba8","66579293baa0b047b63e26f4","711","stimuli/01001010.jpg"," ","","feedback_trial","0","","","","","","","","","","","","","","","","","","","","",""
"","","","","","image-keyboard-response","42","135158","0.0-17.0","5d8d12f6d88e3a00142c9751","665500ab8938657b03fbdba8","66579293baa0b047b63e26f4","1447","stimuli/2011011.jpg","1","","prediction_trial","2","","false","","2","false","false","false","false","false","false","[1,2]","011","011","0","","","","","","",""
"","","","","","image-keyboard-response","43","135862","0.0-18.0","5d8d12f6d88e3a00142c9751","665500ab8938657b03fbdba8","66579293baa0b047b63e26f4","703","stimuli/20110112.jpg"," ","","feedback_trial","1","","","","","","","","","","","","","","","","","","","","",""
"","","","","","image-keyboard-response","44","137326","0.0-19.0","5d8d12f6d88e3a00142c9751","665500ab8938657b03fbdba8","66579293baa0b047b63e26f4","1464","stimuli/1010000.jpg","1","","prediction_trial","1","","true","","1","true","true","false","true","false","true","[1]","010","000","1","","","","","","",""
"","","","","","image-keyboard-response","45","137917","0.0-20.0","5d8d12f6d88e3a00142c9751","665500ab8938657b03fbdba8","66579293baa0b047b63e26f4","590","stimuli/10100001.jpg"," ","","feedback_trial","1","","","","","","","","","","","","","","","","","","","","",""
"","","","","","image-keyboard-response","46","138742","0.0-21.0","5d8d12f6d88e3a00142c9751","665500ab8938657b03fbdba8","66579293baa0b047b63e26f4","824","stimuli/1001101.jpg","1","","prediction_trial","1","","true","","1","true","true","true","true","true","true","[1]","001","101","1","","","","","","",""
"","","","","","image-keyboard-response","47","139326","0.0-22.0","5d8d12f6d88e3a00142c9751","665500ab8938657b03fbdba8","66579293baa0b047b63e26f4","584","stimuli/10011011.jpg"," ","","feedback_trial","1","","","","","","","","","","","","","","","","","","","","",""
"","","","","","image-keyboard-response","48","141615","0.0-23.0","5d8d12f6d88e3a00142c9751","665500ab8938657b03fbdba8","66579293baa0b047b63e26f4","2287","stimuli/2001011.jpg","2","","prediction_trial","2","","true","","2","false","false","false","true","false","false","[2]","001","011","1","","","","","","",""
"","","","","","image-keyboard-response","49","142198","0.0-24.0","5d8d12f6d88e3a00142c9751","665500ab8938657b03fbdba8","66579293baa0b047b63e26f4","583","stimuli/20010112.jpg"," ","","feedback_trial","2","","","","","","","","","","","","","","","","","","","","",""
"","","","","","image-keyboard-response","50","143262","0.0-25.0","5d8d12f6d88e3a00142c9751","665500ab8938657b03fbdba8","66579293baa0b047b63e26f4","1064","stimuli/0010011.jpg","0","","prediction_trial","0","","true","","0","true","true","true","true","true","true","[0]","010","011","1","","","","","","",""
"","","","","","image-keyboard-response","51","143790","0.0-26.0","5d8d12f6d88e3a00142c9751","665500ab8938657b03fbdba8","66579293baa0b047b63e26f4","527","stimuli/00100110.jpg"," ","","feedback_trial","0","","","","","","","","","","","","","","","","","","","","",""
"","","","","","image-keyboard-response","52","144822","0.0-27.0","5d8d12f6d88e3a00142c9751","665500ab8938657b03fbdba8","66579293baa0b047b63e26f4","1031","stimuli/0010101.jpg","2","","prediction_trial","0","","false","","0","false","false","true","true","false","false","[0]","010","101","0","","","","","","",""
"","","","","","image-keyboard-response","53","145550","0.0-28.0","5d8d12f6d88e3a00142c9751","665500ab8938657b03fbdba8","66579293baa0b047b63e26f4","728","stimuli/00101010.jpg"," ","","feedback_trial","0","","","","","","","","","","","","","","","","","","","","",""
"","","","","","image-keyboard-response","54","146558","0.0-29.0","5d8d12f6d88e3a00142c9751","665500ab8938657b03fbdba8","66579293baa0b047b63e26f4","1007","stimuli/2010001.jpg","2","","prediction_trial","2","","true","","2","false","true","true","true","false","true","[2]","010","001","1","","","","","","",""
"","","","","","image-keyboard-response","55","147078","0.0-30.0","5d8d12f6d88e3a00142c9751","665500ab8938657b03fbdba8","66579293baa0b047b63e26f4","520","stimuli/20100012.jpg"," ","","feedback_trial","2","","","","","","","","","","","","","","","","","","","","",""
"","","","","","image-keyboard-response","56","149247","0.0-31.0","5d8d12f6d88e3a00142c9751","665500ab8938657b03fbdba8","66579293baa0b047b63e26f4","2168","stimuli/1000011.jpg","1","","prediction_trial","1","","true","","1","false","false","true","true","false","false","[1]","000","011","1","","","","","","",""
"","","","","","image-keyboard-response","57","149742","0.0-32.0","5d8d12f6d88e3a00142c9751","665500ab8938657b03fbdba8","66579293baa0b047b63e26f4","495","stimuli/10000111.jpg"," ","","feedback_trial","1","","","","","","","","","","","","","","","","","","","","",""
"","","","","","image-keyboard-response","58","151966","0.0-33.0","5d8d12f6d88e3a00142c9751","665500ab8938657b03fbdba8","66579293baa0b047b63e26f4","2224","stimuli/1001010.jpg","1","","prediction_trial","1","","true","","1","false","true","true","true","false","true","[1]","001","010","1","","","","","","",""
"","","","","","image-keyboard-response","59","152486","0.0-34.0","5d8d12f6d88e3a00142c9751","665500ab8938657b03fbdba8","66579293baa0b047b63e26f4","519","stimuli/10010101.jpg"," ","","feedback_trial","1","","","","","","","","","","","","","","","","","","","","",""
"","","","","","image-keyboard-response","60","153878","0.0-35.0","5d8d12f6d88e3a00142c9751","665500ab8938657b03fbdba8","66579293baa0b047b63e26f4","1392","stimuli/2101001.jpg","2","","prediction_trial","2","","true","","2","false","true","false","false","false","false","[0,2]","101","001","1","","","","","","",""
"","","","","","image-keyboard-response","61","154406","0.0-36.0","5d8d12f6d88e3a00142c9751","665500ab8938657b03fbdba8","66579293baa0b047b63e26f4","527","stimuli/21010012.jpg"," ","","feedback_trial","0","","","","","","","","","","","","","","","","","","","","",""
"","","","","","image-keyboard-response","62","156294","0.0-37.0","5d8d12f6d88e3a00142c9751","665500ab8938657b03fbdba8","66579293baa0b047b63e26f4","1887","stimuli/1110000.jpg","1","","prediction_trial","0","","false","","1","true","true","false","false","false","false","[1,0]","110","000","0","","","","","","",""
"","","","","","image-keyboard-response","63","158150","0.0-38.0","5d8d12f6d88e3a00142c9751","665500ab8938657b03fbdba8","66579293baa0b047b63e26f4","1855","stimuli/11100000.jpg"," ","","feedback_trial","1","","","","","","","","","","","","","","","","","","","","",""
"","","","","","image-keyboard-response","64","160510","0.0-39.0","5d8d12f6d88e3a00142c9751","665500ab8938657b03fbdba8","66579293baa0b047b63e26f4","2360","stimuli/0101010.jpg","0","","prediction_trial","2","","false","","0","true","true","false","false","false","false","[0,2]","101","010","0","","","","","","",""
"","","","","","image-keyboard-response","65","161094","0.0-40.0","5d8d12f6d88e3a00142c9751","665500ab8938657b03fbdba8","66579293baa0b047b63e26f4","584","stimuli/01010102.jpg"," ","","feedback_trial","0","","","","","","","","","","","","","","","","","","","","",""
"","","","","","image-keyboard-response","66","162246","0.0-41.0","5d8d12f6d88e3a00142c9751","665500ab8938657b03fbdba8","66579293baa0b047b63e26f4","1152","stimuli/2111000.jpg","2","","prediction_trial","2","","true","","2","true","true","false","false","false","false","[0,1,2]","111","000","1","","","","","","",""
"","","","","","image-keyboard-response","67","162887","0.0-42.0","5d8d12f6d88e3a00142c9751","665500ab8938657b03fbdba8","66579293baa0b047b63e26f4","640","stimuli/21110002.jpg"," ","","feedback_trial","0","","","","","","","","","","","","","","","","","","","","",""
"","","","","","image-keyboard-response","68","164191","0.0-43.0","5d8d12f6d88e3a00142c9751","665500ab8938657b03fbdba8","66579293baa0b047b63e26f4","1304","stimuli/0100000.jpg","0","","prediction_trial","0","","true","","0","true","true","false","true","false","true","[0]","100","000","1","","","","","","",""
"","","","","","image-keyboard-response","69","164663","0.0-44.0","5d8d12f6d88e3a00142c9751","665500ab8938657b03fbdba8","66579293baa0b047b63e26f4","471","stimuli/01000000.jpg"," ","","feedback_trial","0","","","","","","","","","","","","","","","","","","","","",""
"","","","","","image-keyboard-response","70","167646","0.0-45.0","5d8d12f6d88e3a00142c9751","665500ab8938657b03fbdba8","66579293baa0b047b63e26f4","2983","stimuli/1110011.jpg","2","","prediction_trial","0","","false","","1","false","false","false","false","false","false","[0,1]","110","011","0","","","","","","",""
"","","","","","image-keyboard-response","71","168782","0.0-46.0","5d8d12f6d88e3a00142c9751","665500ab8938657b03fbdba8","66579293baa0b047b63e26f4","1135","stimuli/11100110.jpg"," ","","feedback_trial","0","","","","","","","","","","","","","","","","","","","","",""
"","","","","","image-keyboard-response","72","170646","0.0-47.0","5d8d12f6d88e3a00142c9751","665500ab8938657b03fbdba8","66579293baa0b047b63e26f4","1864","stimuli/0100001.jpg","0","","prediction_trial","0","","true","","0","true","true","false","true","false","true","[0]","100","001","1","","","","","","",""
"","","","","","image-keyboard-response","73","171230","0.0-48.0","5d8d12f6d88e3a00142c9751","665500ab8938657b03fbdba8","66579293baa0b047b63e26f4","583","stimuli/01000010.jpg"," ","","feedback_trial","0","","","","","","","","","","","","","","","","","","","","",""
"","","","","","image-keyboard-response","74","174839","0.0-49.0","5d8d12f6d88e3a00142c9751","665500ab8938657b03fbdba8","66579293baa0b047b63e26f4","3608","stimuli/0100111.jpg","0","","prediction_trial","0","","true","","0","false","false","false","true","false","false","[0]","100","111","1","","","","","","",""
"","","","","","image-keyboard-response","75","175671","0.0-50.0","5d8d12f6d88e3a00142c9751","665500ab8938657b03fbdba8","66579293baa0b047b63e26f4","831","stimuli/01001110.jpg"," ","","feedback_trial","0","","","","","","","","","","","","","","","","","","","","",""
"","","","","","image-keyboard-response","76","176622","0.0-51.0","5d8d12f6d88e3a00142c9751","665500ab8938657b03fbdba8","66579293baa0b047b63e26f4","951","stimuli/0011001.jpg","0","","prediction_trial","0","","true","","0","true","true","true","true","true","true","[0]","011","001","1","","","","","","",""
"","","","","","image-keyboard-response","77","177190","0.0-52.0","5d8d12f6d88e3a00142c9751","665500ab8938657b03fbdba8","66579293baa0b047b63e26f4","568","stimuli/00110010.jpg"," ","","feedback_trial","0","","","","","","","","","","","","","","","","","","","","",""
"","","","","","image-keyboard-response","78","178487","0.0-53.0","5d8d12f6d88e3a00142c9751","665500ab8938657b03fbdba8","66579293baa0b047b63e26f4","1295","stimuli/1011000.jpg","1","","prediction_trial","2","","false","","1","true","true","false","false","false","false","[1,2]","011","000","0","","","","","","",""
"","","","","","image-keyboard-response","79","179063","0.0-54.0","5d8d12f6d88e3a00142c9751","665500ab8938657b03fbdba8","66579293baa0b047b63e26f4","575","stimuli/10110002.jpg"," ","","feedback_trial","1","","","","","","","","","","","","","","","","","","","","",""
"","","","","","image-keyboard-response","80","180822","0.0-55.0","5d8d12f6d88e3a00142c9751","665500ab8938657b03fbdba8","66579293baa0b047b63e26f4","1759","stimuli/1010101.jpg","1","","prediction_trial","1","","true","","1","true","true","false","true","false","true","[1]","010","101","1","","","","","","",""
"","","","","","image-keyboard-response","81","181310","0.0-56.0","5d8d12f6d88e3a00142c9751","665500ab8938657b03fbdba8","66579293baa0b047b63e26f4","487","stimuli/10101011.jpg"," ","","feedback_trial","1","","","","","","","","","","","","","","","","","","","","",""
"","","","","","image-keyboard-response","82","182503","0.0-57.0","5d8d12f6d88e3a00142c9751","665500ab8938657b03fbdba8","66579293baa0b047b63e26f4","1192","stimuli/2011000.jpg","2","","prediction_trial","1","","false","","2","true","true","false","false","false","false","[1,2]","011","000","0","","","","","","",""
"","","","","","image-keyboard-response","83","183126","0.0-58.0","5d8d12f6d88e3a00142c9751","665500ab8938657b03fbdba8","66579293baa0b047b63e26f4","623","stimuli/20110001.jpg"," ","","feedback_trial","1","","","","","","","","","","","","","","","","","","","","",""
"","","","","","image-keyboard-response","84","185134","0.0-59.0","5d8d12f6d88e3a00142c9751","665500ab8938657b03fbdba8","66579293baa0b047b63e26f4","2008","stimuli/2010000.jpg","2","","prediction_trial","2","","true","","2","true","true","true","true","true","true","[2]","010","000","1","","","","","","",""
"","","","","","image-keyboard-response","85","185622","0.0-60.0","5d8d12f6d88e3a00142c9751","665500ab8938657b03fbdba8","66579293baa0b047b63e26f4","487","stimuli/20100002.jpg"," ","","feedback_trial","2","","","","","","","","","","","","","","","","","","","","",""
"","","","","","image-keyboard-response","86","186743","0.0-61.0","5d8d12f6d88e3a00142c9751","665500ab8938657b03fbdba8","66579293baa0b047b63e26f4","1120","stimuli/2111100.jpg","2","","prediction_trial","2","","true","","2","true","true","false","false","false","false","[2,1,0]","111","100","1","","","","","","",""
"","","","","","image-keyboard-response","87","187254","0.0-62.0","5d8d12f6d88e3a00142c9751","665500ab8938657b03fbdba8","66579293baa0b047b63e26f4","511","stimuli/21111002.jpg"," ","","feedback_trial","2","","","","","","","","","","","","","","","","","","","","",""
"","","","","","image-keyboard-response","88","188230","0.0-63.0","5d8d12f6d88e3a00142c9751","665500ab8938657b03fbdba8","66579293baa0b047b63e26f4","975","stimuli/1100101.jpg","1","","prediction_trial","1","","true","","1","true","true","true","true","true","true","[1]","100","101","1","","","","","","",""
"","","","","","image-keyboard-response","89","188646","0.0-64.0","5d8d12f6d88e3a00142c9751","665500ab8938657b03fbdba8","66579293baa0b047b63e26f4","416","stimuli/11001011.jpg"," ","","feedback_trial","1","","","","","","","","","","","","","","","","","","","","",""
"","","","","","image-keyboard-response","90","190863","0.0-65.0","5d8d12f6d88e3a00142c9751","665500ab8938657b03fbdba8","66579293baa0b047b63e26f4","2216","stimuli/0111101.jpg","2","","prediction_trial","0","","false","","0","false","false","false","false","false","false","[1,2,0]","111","101","0","","","","","","",""
"","","","","","image-keyboard-response","91","191494","0.0-66.0","5d8d12f6d88e3a00142c9751","665500ab8938657b03fbdba8","66579293baa0b047b63e26f4","631","stimuli/01111010.jpg"," ","","feedback_trial","1","","","","","","","","","","","","","","","","","","","","",""
"","","","","","image-keyboard-response","92","192542","0.0-67.0","5d8d12f6d88e3a00142c9751","665500ab8938657b03fbdba8","66579293baa0b047b63e26f4","1048","stimuli/1110001.jpg","1","","prediction_trial","1","","true","","1","true","true","false","false","false","false","[0,1]","110","001","1","","","","","","",""
"","","","","","image-keyboard-response","93","192998","0.0-68.0","5d8d12f6d88e3a00142c9751","665500ab8938657b03fbdba8","66579293baa0b047b63e26f4","456","stimuli/11100011.jpg"," ","","feedback_trial","0","","","","","","","","","","","","","","","","","","","","",""
"","","","","","image-keyboard-response","94","193822","0.0-69.0","5d8d12f6d88e3a00142c9751","665500ab8938657b03fbdba8","66579293baa0b047b63e26f4","823","stimuli/0010000.jpg","0","","prediction_trial","0","","true","","0","true","true","true","true","true","true","[0]","010","000","1","","","","","","",""
"","","","","","image-keyboard-response","95","194246","0.0-70.0","5d8d12f6d88e3a00142c9751","665500ab8938657b03fbdba8","66579293baa0b047b63e26f4","423","stimuli/00100000.jpg"," ","","feedback_trial","0","","","","","","","","","","","","","","","","","","","","",""
"","","","","","image-keyboard-response","96","195567","0.0-71.0","5d8d12f6d88e3a00142c9751","665500ab8938657b03fbdba8","66579293baa0b047b63e26f4","1320","stimuli/2100001.jpg","2","","prediction_trial","2","","true","","2","false","true","true","true","false","true","[2]","100","001","1","","","","","","",""
"","","","","","image-keyboard-response","97","196095","0.0-72.0","5d8d12f6d88e3a00142c9751","665500ab8938657b03fbdba8","66579293baa0b047b63e26f4","527","stimuli/21000012.jpg"," ","","feedback_trial","2","","","","","","","","","","","","","","","","","","","","",""
"","","","","","image-keyboard-response","98","197446","0.0-73.0","5d8d12f6d88e3a00142c9751","665500ab8938657b03fbdba8","66579293baa0b047b63e26f4","1351","stimuli/1101111.jpg","1","","prediction_trial","1","","true","","1","false","false","true","true","false","false","[1]","101","111","1","","","","","","",""
"","","","","","image-keyboard-response","99","198006","0.0-74.0","5d8d12f6d88e3a00142c9751","665500ab8938657b03fbdba8","66579293baa0b047b63e26f4","560","stimuli/11011111.jpg"," ","","feedback_trial","1","","","","","","","","","","","","","","","","","","","","",""
"","","","","","image-keyboard-response","100","199279","0.0-75.0","5d8d12f6d88e3a00142c9751","665500ab8938657b03fbdba8","66579293baa0b047b63e26f4","1272","stimuli/1010110.jpg","0","","prediction_trial","1","","false","","1","false","false","false","true","false","false","[1]","010","110","0","","","","","","",""
"","","","","","image-keyboard-response","101","200126","0.0-76.0","5d8d12f6d88e3a00142c9751","665500ab8938657b03fbdba8","66579293baa0b047b63e26f4","846","stimuli/10101101.jpg"," ","","feedback_trial","1","","","","","","","","","","","","","","","","","","","","",""
"","","","","","image-keyboard-response","102","201150","0.0-77.0","5d8d12f6d88e3a00142c9751","665500ab8938657b03fbdba8","66579293baa0b047b63e26f4","1024","stimuli/1100111.jpg","1","","prediction_trial","1","","true","","1","false","false","true","true","false","false","[1]","100","111","1","","","","","","",""
"","","","","","image-keyboard-response","103","201702","0.0-78.0","5d8d12f6d88e3a00142c9751","665500ab8938657b03fbdba8","66579293baa0b047b63e26f4","551","stimuli/11001111.jpg"," ","","feedback_trial","1","","","","","","","","","","","","","","","","","","","","",""
"","","","","","image-keyboard-response","104","204238","0.0-79.0","5d8d12f6d88e3a00142c9751","665500ab8938657b03fbdba8","66579293baa0b047b63e26f4","2536","stimuli/2101111.jpg","2","","prediction_trial","0","","false","","2","false","false","false","false","false","false","[0,2]","101","111","0","","","","","","",""
"","","","","","image-keyboard-response","105","204862","0.0-80.0","5d8d12f6d88e3a00142c9751","665500ab8938657b03fbdba8","66579293baa0b047b63e26f4","623","stimuli/21011110.jpg"," ","","feedback_trial","0","","","","","","","","","","","","","","","","","","","","",""
"","","","","","image-keyboard-response","106","206159","0.0-81.0","5d8d12f6d88e3a00142c9751","665500ab8938657b03fbdba8","66579293baa0b047b63e26f4","1296","stimuli/0101000.jpg","0","","prediction_trial","0","","true","","0","true","true","false","false","false","false","[0,2]","101","000","1","","","","","","",""
"","","","","","image-keyboard-response","107","206727","0.0-82.0","5d8d12f6d88e3a00142c9751","665500ab8938657b03fbdba8","66579293baa0b047b63e26f4","567","stimuli/01010000.jpg"," ","","feedback_trial","0","","","","","","","","","","","","","","","","","","","","",""
"","","","","","image-keyboard-response","108","207822","0.0-83.0","5d8d12f6d88e3a00142c9751","665500ab8938657b03fbdba8","66579293baa0b047b63e26f4","1095","stimuli/0100100.jpg","0","","prediction_trial","0","","true","","0","false","true","false","true","false","true","[0]","100","100","1","","","","","","",""
"","","","","","image-keyboard-response","109","208358","0.0-84.0","5d8d12f6d88e3a00142c9751","665500ab8938657b03fbdba8","66579293baa0b047b63e26f4","535","stimuli/01001000.jpg"," ","","feedback_trial","0","","","","","","","","","","","","","","","","","","","","",""
"","","","","","image-keyboard-response","110","209182","0.0-85.0","5d8d12f6d88e3a00142c9751","665500ab8938657b03fbdba8","66579293baa0b047b63e26f4","823","stimuli/2100100.jpg","2","","prediction_trial","2","","true","","2","true","true","true","true","true","true","[2]","100","100","1","","","","","","",""
"","","","","","image-keyboard-response","111","209895","0.0-86.0","5d8d12f6d88e3a00142c9751","665500ab8938657b03fbdba8","66579293baa0b047b63e26f4","712","stimuli/21001002.jpg"," ","","feedback_trial","2","","","","","","","","","","","","","","","","","","","","",""
"","","","","","image-keyboard-response","112","210718","0.0-87.0","5d8d12f6d88e3a00142c9751","665500ab8938657b03fbdba8","66579293baa0b047b63e26f4","823","stimuli/2100110.jpg","2","","prediction_trial","2","","true","","2","true","true","true","true","true","true","[2]","100","110","1","","","","","","",""
"","","","","","image-keyboard-response","113","211294","0.0-88.0","5d8d12f6d88e3a00142c9751","665500ab8938657b03fbdba8","66579293baa0b047b63e26f4","576","stimuli/21001102.jpg"," ","","feedback_trial","2","","","","","","","","","","","","","","","","","","","","",""
"","","","","","image-keyboard-response","114","213262","0.0-89.0","5d8d12f6d88e3a00142c9751","665500ab8938657b03fbdba8","66579293baa0b047b63e26f4","1967","stimuli/1100011.jpg","1","","prediction_trial","1","","true","","1","false","false","true","true","false","false","[1]","100","011","1","","","","","","",""
"","","","","","image-keyboard-response","115","213814","0.0-90.0","5d8d12f6d88e3a00142c9751","665500ab8938657b03fbdba8","66579293baa0b047b63e26f4","552","stimuli/11000111.jpg"," ","","feedback_trial","1","","","","","","","","","","","","","","","","","","","","",""
"","","","","","image-keyboard-response","116","214694","0.0-91.0","5d8d12f6d88e3a00142c9751","665500ab8938657b03fbdba8","66579293baa0b047b63e26f4","880","stimuli/1001011.jpg","1","","prediction_trial","1","","true","","1","false","false","true","true","false","false","[1]","001","011","1","","","","","","",""
"","","","","","image-keyboard-response","117","215302","0.0-92.0","5d8d12f6d88e3a00142c9751","665500ab8938657b03fbdba8","66579293baa0b047b63e26f4","607","stimuli/10010111.jpg"," ","","feedback_trial","1","","","","","","","","","","","","","","","","","","","","",""
"","","","","","image-keyboard-response","118","217477","0.0-93.0","5d8d12f6d88e3a00142c9751","665500ab8938657b03fbdba8","66579293baa0b047b63e26f4","2176","stimuli/2001100.jpg","2","","prediction_trial","2","","true","","2","true","true","false","true","false","true","[2]","001","100","1","","","","","","",""
"","","","","","image-keyboard-response","119","218061","0.0-94.0","5d8d12f6d88e3a00142c9751","665500ab8938657b03fbdba8","66579293baa0b047b63e26f4","584","stimuli/20011002.jpg"," ","","feedback_trial","2","","","","","","","","","","","","","","","","","","","","",""
"","","","","","image-keyboard-response","120","221069","0.0-95.0","5d8d12f6d88e3a00142c9751","665500ab8938657b03fbdba8","66579293baa0b047b63e26f4","3007","stimuli/2101010.jpg","2","","prediction_trial","0","","false","","2","true","true","false","false","false","false","[0,2]","101","010","0","","","","","","",""
"","","","","","image-keyboard-response","121","221605","0.0-96.0","5d8d12f6d88e3a00142c9751","665500ab8938657b03fbdba8","66579293baa0b047b63e26f4","536","stimuli/21010100.jpg"," ","","feedback_trial","0","","","","","","","","","","","","","","","","","","","","",""
"","","","","","image-keyboard-response","122","222470","0.0-97.0","5d8d12f6d88e3a00142c9751","665500ab8938657b03fbdba8","66579293baa0b047b63e26f4","864","stimuli/0001001.jpg","0","","prediction_trial","0","","true","","0","true","true","true","true","true","true","[0]","001","001","1","","","","","","",""
"","","","","","image-keyboard-response","123","222997","0.0-98.0","5d8d12f6d88e3a00142c9751","665500ab8938657b03fbdba8","66579293baa0b047b63e26f4","528","stimuli/00010010.jpg"," ","","feedback_trial","0","","","","","","","","","","","","","","","","","","","","",""
"","","","","","image-keyboard-response","124","223877","0.0-99.0","5d8d12f6d88e3a00142c9751","665500ab8938657b03fbdba8","66579293baa0b047b63e26f4","879","stimuli/0011110.jpg","0","","prediction_trial","0","","true","","0","false","false","true","true","false","false","[0]","011","110","1","","","","","","",""
"","","","","","image-keyboard-response","125","224478","0.0-100.0","5d8d12f6d88e3a00142c9751","665500ab8938657b03fbdba8","66579293baa0b047b63e26f4","600","stimuli/00111100.jpg"," ","","feedback_trial","0","","","","","","","","","","","","","","","","","","","","",""
"","","","","","image-keyboard-response","126","225413","0.0-101.0","5d8d12f6d88e3a00142c9751","665500ab8938657b03fbdba8","66579293baa0b047b63e26f4","935","stimuli/1001111.jpg","0","","prediction_trial","1","","false","","1","false","false","true","true","false","false","[1]","001","111","0","","","","","","",""
"","","","","","image-keyboard-response","127","225941","0.0-102.0","5d8d12f6d88e3a00142c9751","665500ab8938657b03fbdba8","66579293baa0b047b63e26f4","527","stimuli/10011111.jpg"," ","","feedback_trial","1","","","","","","","","","","","","","","","","","","","","",""
"","","","","","image-keyboard-response","128","227069","0.0-103.0","5d8d12f6d88e3a00142c9751","665500ab8938657b03fbdba8","66579293baa0b047b63e26f4","1128","stimuli/1010010.jpg","1","","prediction_trial","1","","true","","1","false","true","false","true","false","true","[1]","010","010","1","","","","","","",""
"","","","","","image-keyboard-response","129","227534","0.0-104.0","5d8d12f6d88e3a00142c9751","665500ab8938657b03fbdba8","66579293baa0b047b63e26f4","464","stimuli/10100101.jpg"," ","","feedback_trial","1","","","","","","","","","","","","","","","","","","","","",""
"","","","","","image-keyboard-response","130","228901","0.0-105.0","5d8d12f6d88e3a00142c9751","665500ab8938657b03fbdba8","66579293baa0b047b63e26f4","1367","stimuli/2001101.jpg","2","","prediction_trial","2","","true","","2","false","false","false","true","false","false","[2]","001","101","1","","","","","","",""
"","","","","","image-keyboard-response","131","229477","0.0-106.0","5d8d12f6d88e3a00142c9751","665500ab8938657b03fbdba8","66579293baa0b047b63e26f4","575","stimuli/20011012.jpg"," ","","feedback_trial","2","","","","","","","","","","","","","","","","","","","","",""
"","","","","","image-keyboard-response","132","230533","0.0-107.0","5d8d12f6d88e3a00142c9751","665500ab8938657b03fbdba8","66579293baa0b047b63e26f4","1055","stimuli/0111001.jpg","0","","prediction_trial","1","","false","","0","true","true","false","false","false","false","[1,2,0]","111","001","0","","","","","","",""
"","","","","","image-keyboard-response","133","231062","0.0-108.0","5d8d12f6d88e3a00142c9751","665500ab8938657b03fbdba8","66579293baa0b047b63e26f4","528","stimuli/01110011.jpg"," ","","feedback_trial","1","","","","","","","","","","","","","","","","","","","","",""
"","","","","","image-keyboard-response","134","232629","0.0-109.0","5d8d12f6d88e3a00142c9751","665500ab8938657b03fbdba8","66579293baa0b047b63e26f4","1567","stimuli/1111110.jpg","0","","prediction_trial","1","","false","","1","false","false","false","false","false","false","[0,1,2]","111","110","0","","","","","","",""
"","","","","","image-keyboard-response","135","233206","0.0-110.0","5d8d12f6d88e3a00142c9751","665500ab8938657b03fbdba8","66579293baa0b047b63e26f4","576","stimuli/11111101.jpg"," ","","feedback_trial","0","","","","","","","","","","","","","","","","","","","","",""
"","","","","","image-keyboard-response","136","233949","0.0-111.0","5d8d12f6d88e3a00142c9751","665500ab8938657b03fbdba8","66579293baa0b047b63e26f4","743","stimuli/1100100.jpg","1","","prediction_trial","1","","true","","1","true","true","true","true","true","true","[1]","100","100","1","","","","","","",""
"","","","","","image-keyboard-response","137","234510","0.0-112.0","5d8d12f6d88e3a00142c9751","665500ab8938657b03fbdba8","66579293baa0b047b63e26f4","560","stimuli/11001001.jpg"," ","","feedback_trial","1","","","","","","","","","","","","","","","","","","","","",""
"","","","","","image-keyboard-response","138","235301","0.0-113.0","5d8d12f6d88e3a00142c9751","665500ab8938657b03fbdba8","66579293baa0b047b63e26f4","790","stimuli/2010100.jpg","2","","prediction_trial","2","","true","","2","true","true","true","true","true","true","[2]","010","100","1","","","","","","",""
"","","","","","image-keyboard-response","139","235885","0.0-114.0","5d8d12f6d88e3a00142c9751","665500ab8938657b03fbdba8","66579293baa0b047b63e26f4","584","stimuli/20101002.jpg"," ","","feedback_trial","2","","","","","","","","","","","","","","","","","","","","",""
"","","","","","image-keyboard-response","140","236485","0.0-115.0","5d8d12f6d88e3a00142c9751","665500ab8938657b03fbdba8","66579293baa0b047b63e26f4","599","stimuli/1101000.jpg","1","","prediction_trial","1","","true","","1","true","true","true","true","true","true","[1]","101","000","1","","","","","","",""
"","","","","","image-keyboard-response","141","237069","0.0-116.0","5d8d12f6d88e3a00142c9751","665500ab8938657b03fbdba8","66579293baa0b047b63e26f4","583","stimuli/11010001.jpg"," ","","feedback_trial","1","","","","","","","","","","","","","","","","","","","","",""
"","","","","","image-keyboard-response","142","237853","0.0-117.0","5d8d12f6d88e3a00142c9751","665500ab8938657b03fbdba8","66579293baa0b047b63e26f4","784","stimuli/1001000.jpg","1","","prediction_trial","1","","true","","1","true","true","true","true","true","true","[1]","001","000","1","","","","","","",""
"","","","","","image-keyboard-response","143","238422","0.0-118.0","5d8d12f6d88e3a00142c9751","665500ab8938657b03fbdba8","66579293baa0b047b63e26f4","568","stimuli/10010001.jpg"," ","","feedback_trial","1","","","","","","","","","","","","","","","","","","","","",""
"","","","","","image-keyboard-response","144","239445","0.0-119.0","5d8d12f6d88e3a00142c9751","665500ab8938657b03fbdba8","66579293baa0b047b63e26f4","1023","stimuli/2011100.jpg","2","","prediction_trial","2","","true","","2","true","true","false","false","false","false","[2,1]","011","100","1","","","","","","",""
"","","","","","image-keyboard-response","145","239949","0.0-120.0","5d8d12f6d88e3a00142c9751","665500ab8938657b03fbdba8","66579293baa0b047b63e26f4","504","stimuli/20111002.jpg"," ","","feedback_trial","2","","","","","","","","","","","","","","","","","","","","",""
"","","","","","image-keyboard-response","146","241342","0.0-121.0","5d8d12f6d88e3a00142c9751","665500ab8938657b03fbdba8","66579293baa0b047b63e26f4","1392","stimuli/0101001.jpg","0","","prediction_trial","0","","true","","0","true","true","false","false","false","false","[0,2]","101","001","1","","","","","","",""
"","","","","","image-keyboard-response","147","241869","0.0-122.0","5d8d12f6d88e3a00142c9751","665500ab8938657b03fbdba8","66579293baa0b047b63e26f4","527","stimuli/01010010.jpg"," ","","feedback_trial","0","","","","","","","","","","","","","","","","","","","","",""
"","","","","","image-keyboard-response","148","242885","0.0-123.0","5d8d12f6d88e3a00142c9751","665500ab8938657b03fbdba8","66579293baa0b047b63e26f4","1016","stimuli/1000110.jpg","0","","prediction_trial","1","","false","","1","false","false","true","true","false","false","[1]","000","110","0","","","","","","",""
"","","","","","image-keyboard-response","149","243534","0.0-124.0","5d8d12f6d88e3a00142c9751","665500ab8938657b03fbdba8","66579293baa0b047b63e26f4","648","stimuli/10001101.jpg"," ","","feedback_trial","1","","","","","","","","","","","","","","","","","","","","",""
"","","","","","image-keyboard-response","150","245094","0.0-125.0","5d8d12f6d88e3a00142c9751","665500ab8938657b03fbdba8","66579293baa0b047b63e26f4","1560","stimuli/1010011.jpg","2","","prediction_trial","1","","false","","1","false","false","false","true","false","false","[1]","010","011","0","","","","","","",""
"","","","","","image-keyboard-response","151","245662","0.0-126.0","5d8d12f6d88e3a00142c9751","665500ab8938657b03fbdba8","66579293baa0b047b63e26f4","567","stimuli/10100111.jpg"," ","","feedback_trial","1","","","","","","","","","","","","","","","","","","","","",""
"","","","","","image-keyboard-response","152","246333","0.0-127.0","5d8d12f6d88e3a00142c9751","665500ab8938657b03fbdba8","66579293baa0b047b63e26f4","671","stimuli/0000011.jpg","0","","prediction_trial","0","","true","","0","true","true","true","true","true","true","[0]","000","011","1","","","","","","",""
"","","","","","image-keyboard-response","153","246854","0.0-128.0","5d8d12f6d88e3a00142c9751","665500ab8938657b03fbdba8","66579293baa0b047b63e26f4","520","stimuli/00000110.jpg"," ","","feedback_trial","0","","","","","","","","","","","","","","","","","","","","",""
"","","","","","image-keyboard-response","154","247654","0.0-129.0","5d8d12f6d88e3a00142c9751","665500ab8938657b03fbdba8","66579293baa0b047b63e26f4","799","stimuli/2110011.jpg","1","","prediction_trial","2","","false","","2","false","false","true","true","false","false","[2]","110","011","0","","","","","","",""
"","","","","","image-keyboard-response","155","248341","0.0-130.0","5d8d12f6d88e3a00142c9751","665500ab8938657b03fbdba8","66579293baa0b047b63e26f4","687","stimuli/21100112.jpg"," ","","feedback_trial","2","","","","","","","","","","","","","","","","","","","","",""
"","","","","","image-keyboard-response","156","248997","0.0-131.0","5d8d12f6d88e3a00142c9751","665500ab8938657b03fbdba8","66579293baa0b047b63e26f4","656","stimuli/2010110.jpg","2","","prediction_trial","2","","true","","2","true","true","true","true","true","true","[2]","010","110","1","","","","","","",""
"","","","","","image-keyboard-response","157","249517","0.0-132.0","5d8d12f6d88e3a00142c9751","665500ab8938657b03fbdba8","66579293baa0b047b63e26f4","519","stimuli/20101102.jpg"," ","","feedback_trial","2","","","","","","","","","","","","","","","","","","","","",""
"","","","","","image-keyboard-response","158","250301","0.0-133.0","5d8d12f6d88e3a00142c9751","665500ab8938657b03fbdba8","66579293baa0b047b63e26f4","784","stimuli/1001110.jpg","0","","prediction_trial","1","","false","","1","false","false","true","true","false","false","[1]","001","110","0","","","","","","",""
"","","","","","image-keyboard-response","159","250893","0.0-134.0","5d8d12f6d88e3a00142c9751","665500ab8938657b03fbdba8","66579293baa0b047b63e26f4","591","stimuli/10011101.jpg"," ","","feedback_trial","1","","","","","","","","","","","","","","","","","","","","",""
"","","","","","image-keyboard-response","160","251685","0.0-135.0","5d8d12f6d88e3a00142c9751","665500ab8938657b03fbdba8","66579293baa0b047b63e26f4","792","stimuli/1111101.jpg","1","","prediction_trial","2","","false","","1","true","true","false","false","false","false","[2,1,0]","111","101","0","","","","","","",""
"","","","","","image-keyboard-response","161","252237","0.0-136.0","5d8d12f6d88e3a00142c9751","665500ab8938657b03fbdba8","66579293baa0b047b63e26f4","552","stimuli/11111012.jpg"," ","","feedback_trial","2","","","","","","","","","","","","","","","","","","","","",""
"","","","","","image-keyboard-response","162","252917","0.0-137.0","5d8d12f6d88e3a00142c9751","665500ab8938657b03fbdba8","66579293baa0b047b63e26f4","679","stimuli/1000100.jpg","1","","prediction_trial","1","","true","","1","true","true","true","true","true","true","[1]","000","100","1","","","","","","",""
"","","","","","image-keyboard-response","163","253454","0.0-138.0","5d8d12f6d88e3a00142c9751","665500ab8938657b03fbdba8","66579293baa0b047b63e26f4","536","stimuli/10001001.jpg"," ","","feedback_trial","1","","","","","","","","","","","","","","","","","","","","",""
"","","","","","image-keyboard-response","164","256029","0.0-139.0","5d8d12f6d88e3a00142c9751","665500ab8938657b03fbdba8","66579293baa0b047b63e26f4","2575","stimuli/2011110.jpg","2","","prediction_trial","1","","false","","2","true","true","false","false","false","false","[1,2]","011","110","0","","","","","","",""
"","","","","","image-keyboard-response","165","256637","0.0-140.0","5d8d12f6d88e3a00142c9751","665500ab8938657b03fbdba8","66579293baa0b047b63e26f4","607","stimuli/20111101.jpg"," ","","feedback_trial","1","","","","","","","","","","","","","","","","","","","","",""
"","","","","","image-keyboard-response","166","257861","0.0-141.0","5d8d12f6d88e3a00142c9751","665500ab8938657b03fbdba8","66579293baa0b047b63e26f4","1224","stimuli/0110111.jpg","1","","prediction_trial","0","","false","","0","false","false","false","false","false","false","[0,1]","110","111","0","","","","","","",""
"","","","","","image-keyboard-response","167","258446","0.0-142.0","5d8d12f6d88e3a00142c9751","665500ab8938657b03fbdba8","66579293baa0b047b63e26f4","584","stimuli/01101110.jpg"," ","","feedback_trial","0","","","","","","","","","","","","","","","","","","","","",""
"","","","","","image-keyboard-response","168","259013","0.0-143.0","5d8d12f6d88e3a00142c9751","665500ab8938657b03fbdba8","66579293baa0b047b63e26f4","567","stimuli/1101100.jpg","1","","prediction_trial","1","","true","","1","true","true","true","true","true","true","[1]","101","100","1","","","","","","",""
"","","","","","image-keyboard-response","169","259501","0.0-144.0","5d8d12f6d88e3a00142c9751","665500ab8938657b03fbdba8","66579293baa0b047b63e26f4","487","stimuli/11011001.jpg"," ","","feedback_trial","1","","","","","","","","","","","","","","","","","","","","",""
"","","","","","image-keyboard-response","170","260174","0.0-145.0","5d8d12f6d88e3a00142c9751","665500ab8938657b03fbdba8","66579293baa0b047b63e26f4","672","stimuli/1111000.jpg","1","","prediction_trial","1","","true","","1","true","true","false","false","false","false","[1,2,0]","111","000","1","","","","","","",""
"","","","","","image-keyboard-response","171","260741","0.0-146.0","5d8d12f6d88e3a00142c9751","665500ab8938657b03fbdba8","66579293baa0b047b63e26f4","567","stimuli/11110001.jpg"," ","","feedback_trial","1","","","","","","","","","","","","","","","","","","","","",""
"","","","","","image-keyboard-response","172","261597","0.0-147.0","5d8d12f6d88e3a00142c9751","665500ab8938657b03fbdba8","66579293baa0b047b63e26f4","856","stimuli/2101101.jpg","2","","prediction_trial","2","","true","","2","false","false","false","false","false","false","[0,2]","101","101","1","","","","","","",""
"","","","","","image-keyboard-response","173","262133","0.0-148.0","5d8d12f6d88e3a00142c9751","665500ab8938657b03fbdba8","66579293baa0b047b63e26f4","535","stimuli/21011012.jpg"," ","","feedback_trial","0","","","","","","","","","","","","","","","","","","","","",""
"","","","","","image-keyboard-response","174","263230","0.0-149.0","5d8d12f6d88e3a00142c9751","665500ab8938657b03fbdba8","66579293baa0b047b63e26f4","1096","stimuli/0101011.jpg","0","","prediction_trial","0","","true","","0","true","true","false","false","false","false","[0,2]","101","011","1","","","","","","",""
"","","","","","image-keyboard-response","175","263749","0.0-150.0","5d8d12f6d88e3a00142c9751","665500ab8938657b03fbdba8","66579293baa0b047b63e26f4","519","stimuli/01010110.jpg"," ","","feedback_trial","0","","","","","","","","","","","","","","","","","","","","",""
"","","","","","image-keyboard-response","176","266141","0.0-151.0","5d8d12f6d88e3a00142c9751","665500ab8938657b03fbdba8","66579293baa0b047b63e26f4","2392","stimuli/0001111.jpg","0","","prediction_trial","0","","true","","0","false","false","true","true","false","false","[0]","001","111","1","","","","","","",""
"","","","","","image-keyboard-response","177","266773","0.0-152.0","5d8d12f6d88e3a00142c9751","665500ab8938657b03fbdba8","66579293baa0b047b63e26f4","631","stimuli/00011110.jpg"," ","","feedback_trial","0","","","","","","","","","","","","","","","","","","","","",""
"","","","","","image-keyboard-response","178","267518","0.0-153.0","5d8d12f6d88e3a00142c9751","665500ab8938657b03fbdba8","66579293baa0b047b63e26f4","744","stimuli/2001110.jpg","2","","prediction_trial","2","","true","","2","true","true","false","true","false","true","[2]","001","110","1","","","","","","",""
"","","","","","image-keyboard-response","179","268109","0.0-154.0","5d8d12f6d88e3a00142c9751","665500ab8938657b03fbdba8","66579293baa0b047b63e26f4","591","stimuli/20011102.jpg"," ","","feedback_trial","2","","","","","","","","","","","","","","","","","","","","",""
"","","","","","image-keyboard-response","180","269157","0.0-155.0","5d8d12f6d88e3a00142c9751","665500ab8938657b03fbdba8","66579293baa0b047b63e26f4","1048","stimuli/0110110.jpg","0","","prediction_trial","0","","true","","0","false","false","false","false","false","false","[0,1]","110","110","1","","","","","","",""
"","","","","","image-keyboard-response","181","269717","0.0-156.0","5d8d12f6d88e3a00142c9751","665500ab8938657b03fbdba8","66579293baa0b047b63e26f4","559","stimuli/01101100.jpg"," ","","feedback_trial","0","","","","","","","","","","","","","","","","","","","","",""
"","","","","","image-keyboard-response","182","270758","0.0-157.0","5d8d12f6d88e3a00142c9751","665500ab8938657b03fbdba8","66579293baa0b047b63e26f4","1040","stimuli/0011101.jpg","2","","prediction_trial","0","","false","","0","false","false","true","true","false","false","[0]","011","101","0","","","","","","",""
"","","","","","image-keyboard-response","183","271317","0.0-158.0","5d8d12f6d88e3a00142c9751","665500ab8938657b03fbdba8","66579293baa0b047b63e26f4","559","stimuli/00111010.jpg"," ","","feedback_trial","0","","","","","","","","","","","","","","","","","","","","",""
"","","","","","image-keyboard-response","184","271941","0.0-159.0","5d8d12f6d88e3a00142c9751","665500ab8938657b03fbdba8","66579293baa0b047b63e26f4","624","stimuli/0010010.jpg","0","","prediction_trial","0","","true","","0","true","true","true","true","true","true","[0]","010","010","1","","","","","","",""
"","","","","","image-keyboard-response","185","272461","0.0-160.0","5d8d12f6d88e3a00142c9751","665500ab8938657b03fbdba8","66579293baa0b047b63e26f4","520","stimuli/00100100.jpg"," ","","feedback_trial","0","","","","","","","","","","","","","","","","","","","","",""
"","","","","","image-keyboard-response","186","273157","0.0-161.0","5d8d12f6d88e3a00142c9751","665500ab8938657b03fbdba8","66579293baa0b047b63e26f4","695","stimuli/0110000.jpg","0","","prediction_trial","1","","false","","0","true","true","false","false","false","false","[0,1]","110","000","0","","","","","","",""
"","","","","","image-keyboard-response","187","273789","0.0-162.0","5d8d12f6d88e3a00142c9751","665500ab8938657b03fbdba8","66579293baa0b047b63e26f4","632","stimuli/01100001.jpg"," ","","feedback_trial","0","","","","","","","","","","","","","","","","","","","","",""
"","","","","","image-keyboard-response","188","274726","0.0-163.0","5d8d12f6d88e3a00142c9751","665500ab8938657b03fbdba8","66579293baa0b047b63e26f4","936","stimuli/0111010.jpg","0","","prediction_trial","1","","false","","0","true","true","false","false","false","false","[0,1,2]","111","010","0","","","","","","",""
"","","","","","image-keyboard-response","189","275277","0.0-164.0","5d8d12f6d88e3a00142c9751","665500ab8938657b03fbdba8","66579293baa0b047b63e26f4","551","stimuli/01110101.jpg"," ","","feedback_trial","0","","","","","","","","","","","","","","","","","","","","",""
"","","","","","image-keyboard-response","190","276318","0.0-165.0","5d8d12f6d88e3a00142c9751","665500ab8938657b03fbdba8","66579293baa0b047b63e26f4","1040","stimuli/0100010.jpg","0","","prediction_trial","0","","true","","0","true","true","false","true","false","true","[0]","100","010","1","","","","","","",""
"","","","","","image-keyboard-response","191","276862","0.0-166.0","5d8d12f6d88e3a00142c9751","665500ab8938657b03fbdba8","66579293baa0b047b63e26f4","543","stimuli/01000100.jpg"," ","","feedback_trial","0","","","","","","","","","","","","","","","","","","","","",""
"","","","","","image-keyboard-response","192","278293","0.0-167.0","5d8d12f6d88e3a00142c9751","665500ab8938657b03fbdba8","66579293baa0b047b63e26f4","1431","stimuli/0000010.jpg","0","","prediction_trial","0","","true","","0","true","true","true","true","true","true","[0]","000","010","1","","","","","","",""
"","","","","","image-keyboard-response","193","278909","0.0-168.0","5d8d12f6d88e3a00142c9751","665500ab8938657b03fbdba8","66579293baa0b047b63e26f4","615","stimuli/00000100.jpg"," ","","feedback_trial","0","","","","","","","","","","","","","","","","","","","","",""
"","","","","","image-keyboard-response","194","280270","0.0-169.0","5d8d12f6d88e3a00142c9751","665500ab8938657b03fbdba8","66579293baa0b047b63e26f4","1360","stimuli/0110001.jpg","0","","prediction_trial","1","","false","","0","true","true","false","false","false","false","[1,0]","110","001","0","","","","","","",""
"","","","","","image-keyboard-response","195","280837","0.0-170.0","5d8d12f6d88e3a00142c9751","665500ab8938657b03fbdba8","66579293baa0b047b63e26f4","567","stimuli/01100011.jpg"," ","","feedback_trial","1","","","","","","","","","","","","","","","","","","","","",""
"","","","","","image-keyboard-response","196","281581","0.0-171.0","5d8d12f6d88e3a00142c9751","665500ab8938657b03fbdba8","66579293baa0b047b63e26f4","744","stimuli/0000000.jpg","0","","prediction_trial","0","","true","","0","true","true","true","true","true","true","[0]","000","000","1","","","","","","",""
"","","","","","image-keyboard-response","197","282069","0.0-172.0","5d8d12f6d88e3a00142c9751","665500ab8938657b03fbdba8","66579293baa0b047b63e26f4","487","stimuli/00000000.jpg"," ","","feedback_trial","0","","","","","","","","","","","","","","","","","","","","",""
"","","","","","image-keyboard-response","198","282854","0.0-173.0","5d8d12f6d88e3a00142c9751","665500ab8938657b03fbdba8","66579293baa0b047b63e26f4","784","stimuli/2111101.jpg","0","","prediction_trial","1","","false","","2","false","false","false","false","false","false","[1,0,2]","111","101","0","","","","","","",""
"","","","","","image-keyboard-response","199","283565","0.0-174.0","5d8d12f6d88e3a00142c9751","665500ab8938657b03fbdba8","66579293baa0b047b63e26f4","711","stimuli/21111011.jpg"," ","","feedback_trial","1","","","","","","","","","","","","","","","","","","","","",""
"","","","","","image-keyboard-response","200","284509","0.0-175.0","5d8d12f6d88e3a00142c9751","665500ab8938657b03fbdba8","66579293baa0b047b63e26f4","943","stimuli/0111110.jpg","0","","prediction_trial","2","","false","","0","false","false","false","false","false","false","[1,0,2]","111","110","0","","","","","","",""
"","","","","","image-keyboard-response","201","285262","0.0-176.0","5d8d12f6d88e3a00142c9751","665500ab8938657b03fbdba8","66579293baa0b047b63e26f4","752","stimuli/01111102.jpg"," ","","feedback_trial","1","","","","","","","","","","","","","","","","","","","","",""
"","","","","","image-keyboard-response","202","285893","0.0-177.0","5d8d12f6d88e3a00142c9751","665500ab8938657b03fbdba8","66579293baa0b047b63e26f4","631","stimuli/2110010.jpg","2","","prediction_trial","2","","true","","2","true","true","true","true","true","true","[2]","110","010","1","","","","","","",""
"","","","","","image-keyboard-response","203","286557","0.0-178.0","5d8d12f6d88e3a00142c9751","665500ab8938657b03fbdba8","66579293baa0b047b63e26f4","664","stimuli/21100102.jpg"," ","","feedback_trial","2","","","","","","","","","","","","","","","","","","","","",""
"","","","","","image-keyboard-response","204","287245","0.0-179.0","5d8d12f6d88e3a00142c9751","665500ab8938657b03fbdba8","66579293baa0b047b63e26f4","687","stimuli/1100000.jpg","1","","prediction_trial","1","","true","","1","true","true","true","true","true","true","[1]","100","000","1","","","","","","",""
"","","","","","image-keyboard-response","205","288317","0.0-180.0","5d8d12f6d88e3a00142c9751","665500ab8938657b03fbdba8","66579293baa0b047b63e26f4","1071","stimuli/11000001.jpg"," ","","feedback_trial","1","","","","","","","","","","","","","","","","","","","","",""
"","","","","","image-keyboard-response","206","289525","0.0-181.0","5d8d12f6d88e3a00142c9751","665500ab8938657b03fbdba8","66579293baa0b047b63e26f4","1208","stimuli/2011001.jpg","2","","prediction_trial","2","","true","","2","false","true","false","false","false","false","[2,1]","011","001","1","","","","","","",""
"","","","","","image-keyboard-response","207","290109","0.0-182.0","5d8d12f6d88e3a00142c9751","665500ab8938657b03fbdba8","66579293baa0b047b63e26f4","583","stimuli/20110012.jpg"," ","","feedback_trial","2","","","","","","","","","","","","","","","","","","","","",""
"","","","","","image-keyboard-response","208","291238","0.0-183.0","5d8d12f6d88e3a00142c9751","665500ab8938657b03fbdba8","66579293baa0b047b63e26f4","1128","stimuli/1101010.jpg","1","","prediction_trial","1","","true","","1","false","true","true","true","false","true","[1]","101","010","1","","","","","","",""
"","","","","","image-keyboard-response","209","291805","0.0-184.0","5d8d12f6d88e3a00142c9751","665500ab8938657b03fbdba8","66579293baa0b047b63e26f4","567","stimuli/11010101.jpg"," ","","feedback_trial","1","","","","","","","","","","","","","","","","","","","","",""
"","","","","","image-keyboard-response","210","292622","0.0-185.0","5d8d12f6d88e3a00142c9751","665500ab8938657b03fbdba8","66579293baa0b047b63e26f4","816","stimuli/1101110.jpg","1","","prediction_trial","1","","true","","1","false","false","true","true","false","false","[1]","101","110","1","","","","","","",""
"","","","","","image-keyboard-response","211","293222","0.0-186.0","5d8d12f6d88e3a00142c9751","665500ab8938657b03fbdba8","66579293baa0b047b63e26f4","600","stimuli/11011101.jpg"," ","","feedback_trial","1","","","","","","","","","","","","","","","","","","","","",""
"","","","","","image-keyboard-response","212","294309","0.0-187.0","5d8d12f6d88e3a00142c9751","665500ab8938657b03fbdba8","66579293baa0b047b63e26f4","1087","stimuli/1000111.jpg","2","","prediction_trial","1","","false","","1","false","false","true","true","false","false","[1]","000","111","0","","","","","","",""
"","","","","","image-keyboard-response","213","294957","0.0-188.0","5d8d12f6d88e3a00142c9751","665500ab8938657b03fbdba8","66579293baa0b047b63e26f4","647","stimuli/10001111.jpg"," ","","feedback_trial","1","","","","","","","","","","","","","","","","","","","","",""
"","","","","","image-keyboard-response","214","295853","0.0-189.0","5d8d12f6d88e3a00142c9751","665500ab8938657b03fbdba8","66579293baa0b047b63e26f4","896","stimuli/2010101.jpg","2","","prediction_trial","2","","true","","2","false","false","true","true","false","false","[2]","010","101","1","","","","","","",""
"","","","","","image-keyboard-response","215","296397","0.0-190.0","5d8d12f6d88e3a00142c9751","665500ab8938657b03fbdba8","66579293baa0b047b63e26f4","543","stimuli/20101012.jpg"," ","","feedback_trial","2","","","","","","","","","","","","","","","","","","","","",""
"","","","","","image-keyboard-response","216","297341","0.0-191.0","5d8d12f6d88e3a00142c9751","665500ab8938657b03fbdba8","66579293baa0b047b63e26f4","944","stimuli/1111010.jpg","1","","prediction_trial","2","","false","","1","false","true","false","false","false","false","[1,0,2]","111","010","0","","","","","","",""
"","","","","","image-keyboard-response","217","297989","0.0-192.0","5d8d12f6d88e3a00142c9751","665500ab8938657b03fbdba8","66579293baa0b047b63e26f4","648","stimuli/11110102.jpg"," ","","feedback_trial","1","","","","","","","","","","","","","","","","","","","","",""
"","","","","","image-keyboard-response","218","298837","0.0-193.0","5d8d12f6d88e3a00142c9751","665500ab8938657b03fbdba8","66579293baa0b047b63e26f4","847","stimuli/2001010.jpg","2","","prediction_trial","2","","true","","2","true","true","false","true","false","true","[2]","001","010","1","","","","","","",""
"","","","","","image-keyboard-response","219","299397","0.0-194.0","5d8d12f6d88e3a00142c9751","665500ab8938657b03fbdba8","66579293baa0b047b63e26f4","559","stimuli/20010102.jpg"," ","","feedback_trial","2","","","","","","","","","","","","","","","","","","","","",""
"","","","","","image-keyboard-response","220","300429","0.0-195.0","5d8d12f6d88e3a00142c9751","665500ab8938657b03fbdba8","66579293baa0b047b63e26f4","1032","stimuli/0111100.jpg","0","","prediction_trial","2","","false","","0","false","true","false","false","false","false","[0,1,2]","111","100","0","","","","","","",""
"","","","","","image-keyboard-response","221","301261","0.0-196.0","5d8d12f6d88e3a00142c9751","665500ab8938657b03fbdba8","66579293baa0b047b63e26f4","831","stimuli/01111002.jpg"," ","","feedback_trial","0","","","","","","","","","","","","","","","","","","","","",""
"","","","","","image-keyboard-response","222","302285","0.0-197.0","5d8d12f6d88e3a00142c9751","665500ab8938657b03fbdba8","66579293baa0b047b63e26f4","1023","stimuli/2100111.jpg","0","","prediction_trial","2","","false","","2","false","false","true","true","false","false","[2]","100","111","0","","","","","","",""
"","","","","","image-keyboard-response","223","303237","0.0-198.0","5d8d12f6d88e3a00142c9751","665500ab8938657b03fbdba8","66579293baa0b047b63e26f4","952","stimuli/21001112.jpg"," ","","feedback_trial","2","","","","","","","","","","","","","","","","","","","","",""
"","","","","","image-keyboard-response","224","305357","0.0-199.0","5d8d12f6d88e3a00142c9751","665500ab8938657b03fbdba8","66579293baa0b047b63e26f4","2119","stimuli/2000001.jpg","2","","prediction_trial","2","","true","","2","false","true","true","true","false","true","[2]","000","001","1","","","","","","",""
"","","","","","image-keyboard-response","225","305845","0.0-200.0","5d8d12f6d88e3a00142c9751","665500ab8938657b03fbdba8","66579293baa0b047b63e26f4","488","stimuli/20000012.jpg"," ","","feedback_trial","2","","","","","","","","","","","","","","","","","","","","",""
"","","","","","image-keyboard-response","226","306725","0.0-201.0","5d8d12f6d88e3a00142c9751","665500ab8938657b03fbdba8","66579293baa0b047b63e26f4","879","stimuli/2110000.jpg","2","","prediction_trial","2","","true","","2","true","true","true","true","true","true","[2]","110","000","1","","","","","","",""
"","","","","","image-keyboard-response","227","307765","0.0-202.0","5d8d12f6d88e3a00142c9751","665500ab8938657b03fbdba8","66579293baa0b047b63e26f4","1040","stimuli/21100002.jpg"," ","","feedback_trial","2","","","","","","","","","","","","","","","","","","","","",""
"","","","","","image-keyboard-response","228","309965","0.0-203.0","5d8d12f6d88e3a00142c9751","665500ab8938657b03fbdba8","66579293baa0b047b63e26f4","2199","stimuli/1100010.jpg","1","","prediction_trial","1","","true","","1","false","true","true","true","false","true","[1]","100","010","1","","","","","","",""
"","","","","","image-keyboard-response","229","310501","0.0-204.0","5d8d12f6d88e3a00142c9751","665500ab8938657b03fbdba8","66579293baa0b047b63e26f4","536","stimuli/11000101.jpg"," ","","feedback_trial","1","","","","","","","","","","","","","","","","","","","","",""
"","","","","","image-keyboard-response","230","311661","0.0-205.0","5d8d12f6d88e3a00142c9751","665500ab8938657b03fbdba8","66579293baa0b047b63e26f4","1160","stimuli/0100011.jpg","0","","prediction_trial","0","","true","","0","true","true","false","true","false","true","[0]","100","011","1","","","","","","",""
"","","","","","image-keyboard-response","231","312101","0.0-206.0","5d8d12f6d88e3a00142c9751","665500ab8938657b03fbdba8","66579293baa0b047b63e26f4","439","stimuli/01000110.jpg"," ","","feedback_trial","0","","","","","","","","","","","","","","","","","","","","",""
"","","","","","image-keyboard-response","232","314141","0.0-207.0","5d8d12f6d88e3a00142c9751","665500ab8938657b03fbdba8","66579293baa0b047b63e26f4","2040","stimuli/2000101.jpg","2","","prediction_trial","2","","true","","2","false","false","true","true","false","false","[2]","000","101","1","","","","","","",""
"","","","","","image-keyboard-response","233","314653","0.0-208.0","5d8d12f6d88e3a00142c9751","665500ab8938657b03fbdba8","66579293baa0b047b63e26f4","512","stimuli/20001012.jpg"," ","","feedback_trial","2","","","","","","","","","","","","","","","","","","","","",""
"","","","","","image-keyboard-response","234","316262","0.0-209.0","5d8d12f6d88e3a00142c9751","665500ab8938657b03fbdba8","66579293baa0b047b63e26f4","1608","stimuli/0011011.jpg","0","","prediction_trial","0","","true","","0","true","true","true","true","true","true","[0]","011","011","1","","","","","","",""
"","","","","","image-keyboard-response","235","316709","0.0-210.0","5d8d12f6d88e3a00142c9751","665500ab8938657b03fbdba8","66579293baa0b047b63e26f4","447","stimuli/00110110.jpg"," ","","feedback_trial","0","","","","","","","","","","","","","","","","","","","","",""
"","","","","","image-keyboard-response","236","317541","0.0-211.0","5d8d12f6d88e3a00142c9751","665500ab8938657b03fbdba8","66579293baa0b047b63e26f4","831","stimuli/1111111.jpg","2","","prediction_trial","0","","false","","1","false","false","false","false","false","false","[2,0,1]","111","111","0","","","","","","",""
"","","","","","image-keyboard-response","237","318149","0.0-212.0","5d8d12f6d88e3a00142c9751","665500ab8938657b03fbdba8","66579293baa0b047b63e26f4","608","stimuli/11111110.jpg"," ","","feedback_trial","2","","","","","","","","","","","","","","","","","","","","",""
"","","","","","image-keyboard-response","238","318813","0.0-213.0","5d8d12f6d88e3a00142c9751","665500ab8938657b03fbdba8","66579293baa0b047b63e26f4","663","stimuli/2011111.jpg","0","","prediction_trial","2","","false","","2","false","false","false","false","false","false","[1,2]","011","111","0","","","","","","",""
"","","","","","image-keyboard-response","239","319454","0.0-214.0","5d8d12f6d88e3a00142c9751","665500ab8938657b03fbdba8","66579293baa0b047b63e26f4","640","stimuli/20111112.jpg"," ","","feedback_trial","1","","","","","","","","","","","","","","","","","","","","",""
"","","","","","image-keyboard-response","240","320133","0.0-215.0","5d8d12f6d88e3a00142c9751","665500ab8938657b03fbdba8","66579293baa0b047b63e26f4","679","stimuli/1111100.jpg","1","","prediction_trial","1","","true","","1","true","true","false","false","false","false","[1,2,0]","111","100","1","","","","","","",""
"","","","","","image-keyboard-response","241","320661","0.0-216.0","5d8d12f6d88e3a00142c9751","665500ab8938657b03fbdba8","66579293baa0b047b63e26f4","527","stimuli/11111001.jpg"," ","","feedback_trial","1","","","","","","","","","","","","","","","","","","","","",""
"","","","","","image-keyboard-response","242","321366","0.0-217.0","5d8d12f6d88e3a00142c9751","665500ab8938657b03fbdba8","66579293baa0b047b63e26f4","704","stimuli/0110100.jpg","0","","prediction_trial","1","","false","","0","false","true","false","false","false","false","[1,0]","110","100","0","","","","","","",""
"","","","","","image-keyboard-response","243","322013","0.0-218.0","5d8d12f6d88e3a00142c9751","665500ab8938657b03fbdba8","66579293baa0b047b63e26f4","646","stimuli/01101001.jpg"," ","","feedback_trial","1","","","","","","","","","","","","","","","","","","","","",""
"","","","","","image-keyboard-response","244","322702","0.0-219.0","5d8d12f6d88e3a00142c9751","665500ab8938657b03fbdba8","66579293baa0b047b63e26f4","688","stimuli/0011000.jpg","0","","prediction_trial","0","","true","","0","true","true","true","true","true","true","[0]","011","000","1","","","","","","",""
"","","","","","image-keyboard-response","245","323149","0.0-220.0","5d8d12f6d88e3a00142c9751","665500ab8938657b03fbdba8","66579293baa0b047b63e26f4","446","stimuli/00110000.jpg"," ","","feedback_trial","0","","","","","","","","","","","","","","","","","","","","",""
"","","","","","image-keyboard-response","246","323885","0.0-221.0","5d8d12f6d88e3a00142c9751","665500ab8938657b03fbdba8","66579293baa0b047b63e26f4","736","stimuli/2101110.jpg","2","","prediction_trial","0","","false","","2","true","true","false","false","false","false","[0,2]","101","110","0","","","","","","",""
"","","","","","image-keyboard-response","247","324486","0.0-222.0","5d8d12f6d88e3a00142c9751","665500ab8938657b03fbdba8","66579293baa0b047b63e26f4","600","stimuli/21011100.jpg"," ","","feedback_trial","0","","","","","","","","","","","","","","","","","","","","",""
"","","","","","image-keyboard-response","248","324981","0.0-223.0","5d8d12f6d88e3a00142c9751","665500ab8938657b03fbdba8","66579293baa0b047b63e26f4","495","stimuli/1001100.jpg","1","","prediction_trial","1","","true","","1","true","true","true","true","true","true","[1]","001","100","1","","","","","","",""
"","","","","","image-keyboard-response","249","325526","0.0-224.0","5d8d12f6d88e3a00142c9751","665500ab8938657b03fbdba8","66579293baa0b047b63e26f4","544","stimuli/10011001.jpg"," ","","feedback_trial","1","","","","","","","","","","","","","","","","","","","","",""
"","","","","","image-keyboard-response","250","326325","0.0-225.0","5d8d12f6d88e3a00142c9751","665500ab8938657b03fbdba8","66579293baa0b047b63e26f4","798","stimuli/1000010.jpg","1","","prediction_trial","1","","true","","1","false","true","true","true","false","true","[1]","000","010","1","","","","","","",""
"","","","","","image-keyboard-response","251","326869","0.0-226.0","5d8d12f6d88e3a00142c9751","665500ab8938657b03fbdba8","66579293baa0b047b63e26f4","544","stimuli/10000101.jpg"," ","","feedback_trial","1","","","","","","","","","","","","","","","","","","","","",""
"","","","","","image-keyboard-response","252","327429","0.0-227.0","5d8d12f6d88e3a00142c9751","665500ab8938657b03fbdba8","66579293baa0b047b63e26f4","560","stimuli/1001001.jpg","1","","prediction_trial","1","","true","","1","true","true","true","true","true","true","[1]","001","001","1","","","","","","",""
"","","","","","image-keyboard-response","253","328173","0.0-228.0","5d8d12f6d88e3a00142c9751","665500ab8938657b03fbdba8","66579293baa0b047b63e26f4","744","stimuli/10010011.jpg"," ","","feedback_trial","1","","","","","","","","","","","","","","","","","","","","",""
"","","","","","image-keyboard-response","254","328974","0.0-229.0","5d8d12f6d88e3a00142c9751","665500ab8938657b03fbdba8","66579293baa0b047b63e26f4","800","stimuli/1010111.jpg","2","","prediction_trial","1","","false","","1","false","false","false","true","false","false","[1]","010","111","0","","","","","","",""
"","","","","","image-keyboard-response","255","329653","0.0-230.0","5d8d12f6d88e3a00142c9751","665500ab8938657b03fbdba8","66579293baa0b047b63e26f4","679","stimuli/10101111.jpg"," ","","feedback_trial","1","","","","","","","","","","","","","","","","","","","","",""
"","","","","","image-keyboard-response","256","330261","0.0-231.0","5d8d12f6d88e3a00142c9751","665500ab8938657b03fbdba8","66579293baa0b047b63e26f4","607","stimuli/0001100.jpg","0","","prediction_trial","0","","true","","0","false","true","true","true","false","true","[0]","001","100","1","","","","","","",""
"","","","","","image-keyboard-response","257","330861","0.0-232.0","5d8d12f6d88e3a00142c9751","665500ab8938657b03fbdba8","66579293baa0b047b63e26f4","600","stimuli/00011000.jpg"," ","","feedback_trial","0","","","","","","","","","","","","","","","","","","","","",""
"","","","","","image-keyboard-response","258","331493","0.0-233.0","5d8d12f6d88e3a00142c9751","665500ab8938657b03fbdba8","66579293baa0b047b63e26f4","631","stimuli/1100001.jpg","1","","prediction_trial","1","","true","","1","true","true","true","true","true","true","[1]","100","001","1","","","","","","",""
"","","","","","image-keyboard-response","259","332061","0.0-234.0","5d8d12f6d88e3a00142c9751","665500ab8938657b03fbdba8","66579293baa0b047b63e26f4","568","stimuli/11000011.jpg"," ","","feedback_trial","1","","","","","","","","","","","","","","","","","","","","",""
"","","","","","image-keyboard-response","260","333005","0.0-235.0","5d8d12f6d88e3a00142c9751","665500ab8938657b03fbdba8","66579293baa0b047b63e26f4","943","stimuli/2101100.jpg","2","","prediction_trial","0","","false","","2","true","true","false","false","false","false","[0,2]","101","100","0","","","","","","",""
"","","","","","image-keyboard-response","261","333597","0.0-236.0","5d8d12f6d88e3a00142c9751","665500ab8938657b03fbdba8","66579293baa0b047b63e26f4","591","stimuli/21011000.jpg"," ","","feedback_trial","0","","","","","","","","","","","","","","","","","","","","",""
"","","","","","image-keyboard-response","262","334189","0.0-237.0","5d8d12f6d88e3a00142c9751","665500ab8938657b03fbdba8","66579293baa0b047b63e26f4","591","stimuli/0010100.jpg","0","","prediction_trial","0","","true","","0","false","true","true","true","false","true","[0]","010","100","1","","","","","","",""
"","","","","","image-keyboard-response","263","334757","0.0-238.0","5d8d12f6d88e3a00142c9751","665500ab8938657b03fbdba8","66579293baa0b047b63e26f4","568","stimuli/00101000.jpg"," ","","feedback_trial","0","","","","","","","","","","","","","","","","","","","","",""
"","","","","","image-keyboard-response","264","335477","0.0-239.0","5d8d12f6d88e3a00142c9751","665500ab8938657b03fbdba8","66579293baa0b047b63e26f4","719","stimuli/1010001.jpg","1","","prediction_trial","1","","true","","1","true","true","false","true","false","true","[1]","010","001","1","","","","","","",""
"","","","","","image-keyboard-response","265","335997","0.0-240.0","5d8d12f6d88e3a00142c9751","665500ab8938657b03fbdba8","66579293baa0b047b63e26f4","519","stimuli/10100011.jpg"," ","","feedback_trial","1","","","","","","","","","","","","","","","","","","","","",""
"","","","","","image-keyboard-response","266","336709","0.0-241.0","5d8d12f6d88e3a00142c9751","665500ab8938657b03fbdba8","66579293baa0b047b63e26f4","712","stimuli/0010001.jpg","0","","prediction_trial","0","","true","","0","true","true","true","true","true","true","[0]","010","001","1","","","","","","",""
"","","","","","image-keyboard-response","267","337229","0.0-242.0","5d8d12f6d88e3a00142c9751","665500ab8938657b03fbdba8","66579293baa0b047b63e26f4","520","stimuli/00100010.jpg"," ","","feedback_trial","0","","","","","","","","","","","","","","","","","","","","",""
"","","","","","image-keyboard-response","268","338053","0.0-243.0","5d8d12f6d88e3a00142c9751","665500ab8938657b03fbdba8","66579293baa0b047b63e26f4","823","stimuli/0001011.jpg","0","","prediction_trial","0","","true","","0","true","true","true","true","true","true","[0]","001","011","1","","","","","","",""
"","","","","","image-keyboard-response","269","338509","0.0-244.0","5d8d12f6d88e3a00142c9751","665500ab8938657b03fbdba8","66579293baa0b047b63e26f4","455","stimuli/00010110.jpg"," ","","feedback_trial","0","","","","","","","","","","","","","","","","","","","","",""
"","","","","","image-keyboard-response","270","339949","0.0-245.0","5d8d12f6d88e3a00142c9751","665500ab8938657b03fbdba8","66579293baa0b047b63e26f4","1439","stimuli/0100110.jpg","0","","prediction_trial","0","","true","","0","false","false","false","true","false","false","[0]","100","110","1","","","","","","",""
"","","","","","image-keyboard-response","271","340453","0.0-246.0","5d8d12f6d88e3a00142c9751","665500ab8938657b03fbdba8","66579293baa0b047b63e26f4","504","stimuli/01001100.jpg"," ","","feedback_trial","0","","","","","","","","","","","","","","","","","","","","",""
"","","","","","image-keyboard-response","272","341077","0.0-247.0","5d8d12f6d88e3a00142c9751","665500ab8938657b03fbdba8","66579293baa0b047b63e26f4","623","stimuli/0011100.jpg","0","","prediction_trial","0","","true","","0","false","true","true","true","false","true","[0]","011","100","1","","","","","","",""
"","","","","","image-keyboard-response","273","341582","0.0-248.0","5d8d12f6d88e3a00142c9751","665500ab8938657b03fbdba8","66579293baa0b047b63e26f4","504","stimuli/00111000.jpg"," ","","feedback_trial","0","","","","","","","","","","","","","","","","","","","","",""
"","","","","","image-keyboard-response","274","342389","0.0-249.0","5d8d12f6d88e3a00142c9751","665500ab8938657b03fbdba8","66579293baa0b047b63e26f4","807","stimuli/0111011.jpg","0","","prediction_trial","2","","false","","0","true","true","false","false","false","false","[2,1,0]","111","011","0","","","","","","",""
"","","","","","image-keyboard-response","275","342933","0.0-250.0","5d8d12f6d88e3a00142c9751","665500ab8938657b03fbdba8","66579293baa0b047b63e26f4","543","stimuli/01110112.jpg"," ","","feedback_trial","2","","","","","","","","","","","","","","","","","","","","",""
"","","","","","image-keyboard-response","276","343421","0.0-251.0","5d8d12f6d88e3a00142c9751","665500ab8938657b03fbdba8","66579293baa0b047b63e26f4","488","stimuli/2101000.jpg","2","","prediction_trial","0","","false","","2","true","true","false","false","false","false","[0,2]","101","000","0","","","","","","",""
"","","","","","image-keyboard-response","277","344085","0.0-252.0","5d8d12f6d88e3a00142c9751","665500ab8938657b03fbdba8","66579293baa0b047b63e26f4","664","stimuli/21010000.jpg"," ","","feedback_trial","0","","","","","","","","","","","","","","","","","","","","",""
"","","","","","image-keyboard-response","278","344949","0.0-253.0","5d8d12f6d88e3a00142c9751","665500ab8938657b03fbdba8","66579293baa0b047b63e26f4","864","stimuli/0111000.jpg","0","","prediction_trial","0","","true","","0","true","true","false","false","false","false","[2,1,0]","111","000","1","","","","","","",""
"","","","","","image-keyboard-response","279","345574","0.0-254.0","5d8d12f6d88e3a00142c9751","665500ab8938657b03fbdba8","66579293baa0b047b63e26f4","624","stimuli/01110000.jpg"," ","","feedback_trial","2","","","","","","","","","","","","","","","","","","","","",""
"","","","","","image-keyboard-response","280","346397","0.0-255.0","5d8d12f6d88e3a00142c9751","665500ab8938657b03fbdba8","66579293baa0b047b63e26f4","823","stimuli/2010111.jpg","0","","prediction_trial","2","","false","","2","false","false","true","true","false","false","[2]","010","111","0","","","","","","",""
"","","","","","image-keyboard-response","281","346957","0.0-256.0","5d8d12f6d88e3a00142c9751","665500ab8938657b03fbdba8","66579293baa0b047b63e26f4","560","stimuli/20101112.jpg"," ","","feedback_trial","2","","","","","","","","","","","","","","","","","","","","",""
"","","","","","image-keyboard-response","282","347701","0.0-257.0","5d8d12f6d88e3a00142c9751","665500ab8938657b03fbdba8","66579293baa0b047b63e26f4","743","stimuli/1011010.jpg","0","","prediction_trial","2","","false","","1","false","true","false","false","false","false","[1,2]","011","010","0","","","","","","",""
"","","","","","image-keyboard-response","283","348398","0.0-258.0","5d8d12f6d88e3a00142c9751","665500ab8938657b03fbdba8","66579293baa0b047b63e26f4","696","stimuli/10110102.jpg"," ","","feedback_trial","1","","","","","","","","","","","","","","","","","","","","",""
"","","","","","image-keyboard-response","284","348846","0.0-259.0","5d8d12f6d88e3a00142c9751","665500ab8938657b03fbdba8","66579293baa0b047b63e26f4","448","stimuli/1111001.jpg","1","","prediction_trial","0","","false","","1","true","true","false","false","false","false","[1,2,0]","111","001","0","","","","","","",""
"","","","","","image-keyboard-response","285","349918","0.0-260.0","5d8d12f6d88e3a00142c9751","665500ab8938657b03fbdba8","66579293baa0b047b63e26f4","1071","stimuli/11110010.jpg"," ","","feedback_trial","1","","","","","","","","","","","","","","","","","","","","",""
"","","","","","image-keyboard-response","286","350517","0.0-261.0","5d8d12f6d88e3a00142c9751","665500ab8938657b03fbdba8","66579293baa0b047b63e26f4","599","stimuli/0101100.jpg","0","","prediction_trial","2","","false","","0","false","true","false","false","false","false","[0,2]","101","100","0","","","","","","",""
"","","","","","image-keyboard-response","287","351173","0.0-262.0","5d8d12f6d88e3a00142c9751","665500ab8938657b03fbdba8","66579293baa0b047b63e26f4","655","stimuli/01011002.jpg"," ","","feedback_trial","0","","","","","","","","","","","","","","","","","","","","",""
"","","","","","image-keyboard-response","288","351950","0.0-263.0","5d8d12f6d88e3a00142c9751","665500ab8938657b03fbdba8","66579293baa0b047b63e26f4","776","stimuli/0000101.jpg","2","","prediction_trial","0","","false","","0","false","false","true","true","false","false","[0]","000","101","0","","","","","","",""
"","","","","","image-keyboard-response","289","352613","0.0-264.0","5d8d12f6d88e3a00142c9751","665500ab8938657b03fbdba8","66579293baa0b047b63e26f4","663","stimuli/00001010.jpg"," ","","feedback_trial","0","","","","","","","","","","","","","","","","","","","","",""
"","","","","","image-keyboard-response","290","353149","0.0-265.0","5d8d12f6d88e3a00142c9751","665500ab8938657b03fbdba8","66579293baa0b047b63e26f4","535","stimuli/1101001.jpg","1","","prediction_trial","1","","true","","1","true","true","true","true","true","true","[1]","101","001","1","","","","","","",""
"","","","","","image-keyboard-response","291","353765","0.0-266.0","5d8d12f6d88e3a00142c9751","665500ab8938657b03fbdba8","66579293baa0b047b63e26f4","616","stimuli/11010011.jpg"," ","","feedback_trial","1","","","","","","","","","","","","","","","","","","","","",""
"","","","","","image-keyboard-response","292","354461","0.0-267.0","5d8d12f6d88e3a00142c9751","665500ab8938657b03fbdba8","66579293baa0b047b63e26f4","695","stimuli/0001110.jpg","0","","prediction_trial","0","","true","","0","false","false","true","true","false","false","[0]","001","110","1","","","","","","",""
"","","","","","image-keyboard-response","293","355094","0.0-268.0","5d8d12f6d88e3a00142c9751","665500ab8938657b03fbdba8","66579293baa0b047b63e26f4","632","stimuli/00011100.jpg"," ","","feedback_trial","0","","","","","","","","","","","","","","","","","","","","",""
"","","","","","image-keyboard-response","294","356013","0.0-269.0","5d8d12f6d88e3a00142c9751","665500ab8938657b03fbdba8","66579293baa0b047b63e26f4","919","stimuli/2001001.jpg","2","","prediction_trial","2","","true","","2","false","true","false","true","false","true","[2]","001","001","1","","","","","","",""
"","","","","","image-keyboard-response","295","356669","0.0-270.0","5d8d12f6d88e3a00142c9751","665500ab8938657b03fbdba8","66579293baa0b047b63e26f4","655","stimuli/20010012.jpg"," ","","feedback_trial","2","","","","","","","","","","","","","","","","","","","","",""
"","","","","","image-keyboard-response","296","357533","0.0-271.0","5d8d12f6d88e3a00142c9751","665500ab8938657b03fbdba8","66579293baa0b047b63e26f4","863","stimuli/2111011.jpg","2","","prediction_trial","1","","false","","2","false","false","false","false","false","false","[2,0,1]","111","011","0","","","","","","",""
"","","","","","image-keyboard-response","297","358133","0.0-272.0","5d8d12f6d88e3a00142c9751","665500ab8938657b03fbdba8","66579293baa0b047b63e26f4","600","stimuli/21110111.jpg"," ","","feedback_trial","2","","","","","","","","","","","","","","","","","","","","",""
"","","","","","image-keyboard-response","298","358717","0.0-273.0","5d8d12f6d88e3a00142c9751","665500ab8938657b03fbdba8","66579293baa0b047b63e26f4","583","stimuli/1111011.jpg","0","","prediction_trial","2","","false","","1","false","false","false","false","false","false","[1,0,2]","111","011","0","","","","","","",""
"","","","","","image-keyboard-response","299","359301","0.0-274.0","5d8d12f6d88e3a00142c9751","665500ab8938657b03fbdba8","66579293baa0b047b63e26f4","583","stimuli/11110112.jpg"," ","","feedback_trial","1","","","","","","","","","","","","","","","","","","","","",""
"","","","","","image-keyboard-response","300","359894","0.0-275.0","5d8d12f6d88e3a00142c9751","665500ab8938657b03fbdba8","66579293baa0b047b63e26f4","592","stimuli/1110111.jpg","2","","prediction_trial","0","","false","","1","false","false","false","false","false","false","[1,0]","110","111","0","","","","","","",""
"","","","","","image-keyboard-response","301","360518","0.0-276.0","5d8d12f6d88e3a00142c9751","665500ab8938657b03fbdba8","66579293baa0b047b63e26f4","623","stimuli/11101110.jpg"," ","","feedback_trial","1","","","","","","","","","","","","","","","","","","","","",""
"","","","","","image-keyboard-response","302","361005","0.0-277.0","5d8d12f6d88e3a00142c9751","665500ab8938657b03fbdba8","66579293baa0b047b63e26f4","487","stimuli/1011001.jpg","1","","prediction_trial","1","","true","","1","true","true","false","false","false","false","[1,2]","011","001","1","","","","","","",""
"","","","","","image-keyboard-response","303","361613","0.0-278.0","5d8d12f6d88e3a00142c9751","665500ab8938657b03fbdba8","66579293baa0b047b63e26f4","608","stimuli/10110011.jpg"," ","","feedback_trial","1","","","","","","","","","","","","","","","","","","","","",""
"","","","","","image-keyboard-response","304","362213","0.0-279.0","5d8d12f6d88e3a00142c9751","665500ab8938657b03fbdba8","66579293baa0b047b63e26f4","600","stimuli/2111001.jpg","2","","prediction_trial","2","","true","","2","false","true","false","false","false","false","[2,1,0]","111","001","1","","","","","","",""
"","","","","","image-keyboard-response","305","362773","0.0-280.0","5d8d12f6d88e3a00142c9751","665500ab8938657b03fbdba8","66579293baa0b047b63e26f4","559","stimuli/21110012.jpg"," ","","feedback_trial","2","","","","","","","","","","","","","","","","","","","","",""
"","","","","","image-keyboard-response","306","364141","0.0-281.0","5d8d12f6d88e3a00142c9751","665500ab8938657b03fbdba8","66579293baa0b047b63e26f4","1367","stimuli/0011111.jpg","0","","prediction_trial","0","","true","","0","false","false","true","true","false","false","[0]","011","111","1","","","","","","",""
"","","","","","image-keyboard-response","307","364758","0.0-282.0","5d8d12f6d88e3a00142c9751","665500ab8938657b03fbdba8","66579293baa0b047b63e26f4","616","stimuli/00111110.jpg"," ","","feedback_trial","0","","","","","","","","","","","","","","","","","","","","",""
"","","","","","image-keyboard-response","308","365317","0.0-283.0","5d8d12f6d88e3a00142c9751","665500ab8938657b03fbdba8","66579293baa0b047b63e26f4","558","stimuli/2100010.jpg","2","","prediction_trial","2","","true","","2","true","true","true","true","true","true","[2]","100","010","1","","","","","","",""
"","","","","","image-keyboard-response","309","365910","0.0-284.0","5d8d12f6d88e3a00142c9751","665500ab8938657b03fbdba8","66579293baa0b047b63e26f4","592","stimuli/21000102.jpg"," ","","feedback_trial","2","","","","","","","","","","","","","","","","","","","","",""
"","","","","","image-keyboard-response","310","366493","0.0-285.0","5d8d12f6d88e3a00142c9751","665500ab8938657b03fbdba8","66579293baa0b047b63e26f4","583","stimuli/2000010.jpg","2","","prediction_trial","2","","true","","2","true","true","true","true","true","true","[2]","000","010","1","","","","","","",""
"","","","","","image-keyboard-response","311","367078","0.0-286.0","5d8d12f6d88e3a00142c9751","665500ab8938657b03fbdba8","66579293baa0b047b63e26f4","584","stimuli/20000102.jpg"," ","","feedback_trial","2","","","","","","","","","","","","","","","","","","","","",""
"","","","","","image-keyboard-response","312","367686","0.0-287.0","5d8d12f6d88e3a00142c9751","665500ab8938657b03fbdba8","66579293baa0b047b63e26f4","607","stimuli/2110110.jpg","2","","prediction_trial","2","","true","","2","true","true","true","true","true","true","[2]","110","110","1","","","","","","",""
"","","","","","image-keyboard-response","313","368277","0.0-288.0","5d8d12f6d88e3a00142c9751","665500ab8938657b03fbdba8","66579293baa0b047b63e26f4","591","stimuli/21101102.jpg"," ","","feedback_trial","2","","","","","","","","","","","","","","","","","","","","",""
"","","","","","image-keyboard-response","314","369046","0.0-289.0","5d8d12f6d88e3a00142c9751","665500ab8938657b03fbdba8","66579293baa0b047b63e26f4","768","stimuli/0010110.jpg","0","","prediction_trial","0","","true","","0","false","false","true","true","false","false","[0]","010","110","1","","","","","","",""
"","","","","","image-keyboard-response","315","369589","0.0-290.0","5d8d12f6d88e3a00142c9751","665500ab8938657b03fbdba8","66579293baa0b047b63e26f4","543","stimuli/00101100.jpg"," ","","feedback_trial","0","","","","","","","","","","","","","","","","","","","","",""
"","","","","","image-keyboard-response","316","370205","0.0-291.0","5d8d12f6d88e3a00142c9751","665500ab8938657b03fbdba8","66579293baa0b047b63e26f4","616","stimuli/0101110.jpg","1","","prediction_trial","2","","false","","0","false","false","false","false","false","false","[0,2]","101","110","0","","","","","","",""
"","","","","","image-keyboard-response","317","370757","0.0-292.0","5d8d12f6d88e3a00142c9751","665500ab8938657b03fbdba8","66579293baa0b047b63e26f4","551","stimuli/01011102.jpg"," ","","feedback_trial","0","","","","","","","","","","","","","","","","","","","","",""
"","","","","","survey-html-form","318","409928","0.0-293.0","5d8d12f6d88e3a00142c9751","665500ab8938657b03fbdba8","66579293baa0b047b63e26f4","39169","","{""feedback"":""In some cases, it was obvious where the ball was. In others, I had to just guess."",""age"":""38"",""gender"":""Male"",""other_gender"":"""",""race"":""White"",""other_race"":"""",""ethnicity"":""Non-Hispanic""}","","exit_survey","","","","","","","","","","","","","","","","In some cases, it was obvious where the ball was. In others, I had to just guess.","38","Non-Hispanic","Male","White","0.6527777777777778","0.6527777777777778"
