"success","timeout","failed_images","failed_audio","failed_video","trial_type","trial_index","time_elapsed","internal_node_id","prolific_id","prolific_study_id","prolific_session_id","rt","stimulus","response","view_history","trial","character_choice","stimulus_dict","accuracy","correct_response","ball_pos","ego_ball_visible","ego_can_infer","alter_ball_visible","alter_can_infer","collective_ball_visible","collective_can_infer","search_locations","alter_occluders","ego_occluders","accuracy_bool","feedback","age","ethnicity","gender","race","overall_accuracy","bonus"
"true","false","[]","[]","[]","preload","0","596","0.0-0.0","5ac8328afa3b4e0001738e4e","665500ab8938657b03fbdba8","665792599ae495e94c1fe26d","","","","","","","","","","","","","","","","","","","","","","","","","","",""
"true","","","","","fullscreen","1","3829","0.0-1.0","5ac8328afa3b4e0001738e4e","665500ab8938657b03fbdba8","665792599ae495e94c1fe26d","","","","","","","","","","","","","","","","","","","","","","","","","","",""
"","","","","","html-button-response","2","28609","0.0-2.0","5ac8328afa3b4e0001738e4e","665500ab8938657b03fbdba8","665792599ae495e94c1fe26d","24778","<p><b>Consent Form</b></p> <div style=""text-align:left;background-color:lightgrey; padding:20px; max-width:900px;""><p>Please consider this information carefully before deciding whether to participate in this research.</p> <p>The purpose of this research is to examine which factors influence social judgment and decision-making. You will be asked to make judgements about individuals and actions in social scenarios. We are simply interested in your judgement. The study will take less than 1 hour to complete, and you will receive less than $20 on Prolific. Your compensation and time commitment are specified in the study description. There are no anticipated risks associated with participating in this study. The effects of participating should be comparable to those you would ordinarily experience from viewing a computer monitor and using a mouse or keyboard for a similar amount of time. At the end of the study, we will provide an explanation of the questions that motivate this line of research and will describe the potential implications. </p><p> Your participation in this study is completely voluntary and you may refuse to participate or you may choose to withdraw at any time without penalty or loss of benefits to you which are otherwise entitled. Your participation in this study will remain confidential. No personally identifiable information will be associated with your data. Also, all analyses of the data will be averaged across all the participants, so your individual responses will never be specifically analyzed. </p><p> If you have questions or concerns about your participation or payment, or want to request a summary of research findings, please contact Dr. Jonathan Phillips at Jonathan.S.Phillips@dartmouth.edu. </p><p> Please save a copy of this form for your records. </p><p><b>Agreement: </b>The nature and purpose of this research have been sufficiently explained and I agree to participate in this study. I understand that I am free to withdraw at any time without incurring any penalty. Please consent by clicking the button below to continue. Otherwise, please exit the study at any time. </p>","0","","","","","","","","","","","","","","","","","","","","","","","",""
"","","","","","instructions","3","169450","0.0-3.0-0.0","5ac8328afa3b4e0001738e4e","665500ab8938657b03fbdba8","665792599ae495e94c1fe26d","140840","","","[{""page_index"":0,""viewing_time"":2647},{""page_index"":1,""viewing_time"":8504},{""page_index"":2,""viewing_time"":4856},{""page_index"":3,""viewing_time"":14792},{""page_index"":4,""viewing_time"":7344},{""page_index"":5,""viewing_time"":7936},{""page_index"":6,""viewing_time"":6560},{""page_index"":7,""viewing_time"":5088},{""page_index"":8,""viewing_time"":7912},{""page_index"":9,""viewing_time"":4440},{""page_index"":10,""viewing_time"":41936},{""page_index"":11,""viewing_time"":16592},{""page_index"":12,""viewing_time"":9824},{""page_index"":13,""viewing_time"":2408}]","intro","","","","","","","","","","","","","","","","","","","","","",""
"","","","","","image-keyboard-response","4","184811","0.0-3.0-1.0","5ac8328afa3b4e0001738e4e","665500ab8938657b03fbdba8","665792599ae495e94c1fe26d","15359","stimuli/2101101.jpg","1","","prediction_practice","0","{""filepath"":""stimuli/2101101.jpg"",""ball_pos"":2,""ego_ball_visible"":false,""ego_can_infer"":false,""alter_ball_visible"":false,""alter_can_infer"":false,""collective_ball_visible"":false,""collective_can_infer"":false,""search_locations"":[2,0],""alter_occluders"":""101"",""ego_occluders"":""101""}","false","","","","","","","","","","","","","","","","","","",""
"","","","","","image-keyboard-response","5","190057","0.0-3.0-2.0","5ac8328afa3b4e0001738e4e","665500ab8938657b03fbdba8","665792599ae495e94c1fe26d","5245","stimuli/21011010.jpg"," ","","practrice_feedback","2","","","","","","","","","","","","","","","","","","","","",""
"","","","","","image-keyboard-response","6","192809","0.0-3.0-3.0","5ac8328afa3b4e0001738e4e","665500ab8938657b03fbdba8","665792599ae495e94c1fe26d","2751","stimuli/0010111.jpg","0","","prediction_practice","0","{""filepath"":""stimuli/0010111.jpg"",""ball_pos"":0,""ego_ball_visible"":false,""ego_can_infer"":false,""alter_ball_visible"":true,""alter_can_infer"":true,""collective_ball_visible"":false,""collective_can_infer"":false,""search_locations"":[0],""alter_occluders"":""010"",""ego_occluders"":""111""}","true","","","","","","","","","","","","","","","","","","",""
"","","","","","image-keyboard-response","7","197249","0.0-3.0-4.0","5ac8328afa3b4e0001738e4e","665500ab8938657b03fbdba8","665792599ae495e94c1fe26d","4439","stimuli/00101110.jpg"," ","","practrice_feedback","0","","","","","","","","","","","","","","","","","","","","",""
"","","","","","image-keyboard-response","8","202074","0.0-3.0-5.0","5ac8328afa3b4e0001738e4e","665500ab8938657b03fbdba8","665792599ae495e94c1fe26d","4823","stimuli/2110001.jpg","2","","prediction_practice","2","{""filepath"":""stimuli/2110001.jpg"",""ball_pos"":2,""ego_ball_visible"":false,""ego_can_infer"":true,""alter_ball_visible"":true,""alter_can_infer"":true,""collective_ball_visible"":false,""collective_can_infer"":true,""search_locations"":[2],""alter_occluders"":""110"",""ego_occluders"":""001""}","true","","","","","","","","","","","","","","","","","","",""
"","","","","","image-keyboard-response","9","203385","0.0-3.0-6.0","5ac8328afa3b4e0001738e4e","665500ab8938657b03fbdba8","665792599ae495e94c1fe26d","1311","stimuli/21100012.jpg"," ","","practrice_feedback","2","","","","","","","","","","","","","","","","","","","","",""
"","","","","","image-keyboard-response","10","207193","0.0-3.0-7.0","5ac8328afa3b4e0001738e4e","665500ab8938657b03fbdba8","665792599ae495e94c1fe26d","3807","stimuli/1001011.jpg","1","","prediction_practice","1","{""filepath"":""stimuli/1001011.jpg"",""ball_pos"":1,""ego_ball_visible"":false,""ego_can_infer"":false,""alter_ball_visible"":true,""alter_can_infer"":true,""collective_ball_visible"":false,""collective_can_infer"":false,""search_locations"":[1],""alter_occluders"":""001"",""ego_occluders"":""011""}","true","","","","","","","","","","","","","","","","","","",""
"","","","","","image-keyboard-response","11","208657","0.0-3.0-8.0","5ac8328afa3b4e0001738e4e","665500ab8938657b03fbdba8","665792599ae495e94c1fe26d","1463","stimuli/10010111.jpg"," ","","practrice_feedback","1","","","","","","","","","","","","","","","","","","","","",""
"","","","","","image-keyboard-response","12","212417","0.0-3.0-9.0","5ac8328afa3b4e0001738e4e","665500ab8938657b03fbdba8","665792599ae495e94c1fe26d","3759","stimuli/2100010.jpg","2","","prediction_practice","2","{""filepath"":""stimuli/2100010.jpg"",""ball_pos"":2,""ego_ball_visible"":true,""ego_can_infer"":true,""alter_ball_visible"":true,""alter_can_infer"":true,""collective_ball_visible"":true,""collective_can_infer"":true,""search_locations"":[2],""alter_occluders"":""100"",""ego_occluders"":""010""}","true","","","","","","","","","","","","","","","","","","",""
"","","","","","image-keyboard-response","13","213681","0.0-3.0-10.0","5ac8328afa3b4e0001738e4e","665500ab8938657b03fbdba8","665792599ae495e94c1fe26d","1264","stimuli/21000102.jpg"," ","","practrice_feedback","2","","","","","","","","","","","","","","","","","","","","",""
"","","","","","image-keyboard-response","14","215081","0.0-3.0-11.0","5ac8328afa3b4e0001738e4e","665500ab8938657b03fbdba8","665792599ae495e94c1fe26d","1399","stimuli/2101000.jpg","2","","prediction_practice","0","{""filepath"":""stimuli/2101000.jpg"",""ball_pos"":2,""ego_ball_visible"":true,""ego_can_infer"":true,""alter_ball_visible"":false,""alter_can_infer"":false,""collective_ball_visible"":false,""collective_can_infer"":false,""search_locations"":[2,0],""alter_occluders"":""101"",""ego_occluders"":""000""}","false","","","","","","","","","","","","","","","","","","",""
"","","","","","image-keyboard-response","15","220993","0.0-3.0-12.0","5ac8328afa3b4e0001738e4e","665500ab8938657b03fbdba8","665792599ae495e94c1fe26d","5911","stimuli/21010000.jpg"," ","","practrice_feedback","2","","","","","","","","","","","","","","","","","","","","",""
"","","","","","image-keyboard-response","16","223737","0.0-3.0-13.0","5ac8328afa3b4e0001738e4e","665500ab8938657b03fbdba8","665792599ae495e94c1fe26d","2744","stimuli/2001011.jpg","1","","prediction_practice","2","{""filepath"":""stimuli/2001011.jpg"",""ball_pos"":2,""ego_ball_visible"":false,""ego_can_infer"":false,""alter_ball_visible"":false,""alter_can_infer"":true,""collective_ball_visible"":false,""collective_can_infer"":false,""search_locations"":[2],""alter_occluders"":""001"",""ego_occluders"":""011""}","false","","","","","","","","","","","","","","","","","","",""
"","","","","","image-keyboard-response","17","225536","0.0-3.0-14.0","5ac8328afa3b4e0001738e4e","665500ab8938657b03fbdba8","665792599ae495e94c1fe26d","1799","stimuli/20010112.jpg"," ","","practrice_feedback","2","","","","","","","","","","","","","","","","","","","","",""
"","","","","","image-keyboard-response","18","227728","0.0-3.0-15.0","5ac8328afa3b4e0001738e4e","665500ab8938657b03fbdba8","665792599ae495e94c1fe26d","2191","stimuli/0100010.jpg","0","","prediction_practice","0","{""filepath"":""stimuli/0100010.jpg"",""ball_pos"":0,""ego_ball_visible"":true,""ego_can_infer"":true,""alter_ball_visible"":false,""alter_can_infer"":true,""collective_ball_visible"":false,""collective_can_infer"":true,""search_locations"":[0],""alter_occluders"":""100"",""ego_occluders"":""010""}","true","","","","","","","","","","","","","","","","","","",""
"","","","","","image-keyboard-response","19","229425","0.0-3.0-16.0","5ac8328afa3b4e0001738e4e","665500ab8938657b03fbdba8","665792599ae495e94c1fe26d","1695","stimuli/01000100.jpg"," ","","practrice_feedback","0","","","","","","","","","","","","","","","","","","","","",""
"","","","","","image-keyboard-response","20","232952","0.0-3.0-17.0","5ac8328afa3b4e0001738e4e","665500ab8938657b03fbdba8","665792599ae495e94c1fe26d","3527","stimuli/2100011.jpg","1","","prediction_practice","2","{""filepath"":""stimuli/2100011.jpg"",""ball_pos"":2,""ego_ball_visible"":false,""ego_can_infer"":false,""alter_ball_visible"":true,""alter_can_infer"":true,""collective_ball_visible"":false,""collective_can_infer"":false,""search_locations"":[2],""alter_occluders"":""100"",""ego_occluders"":""011""}","false","","","","","","","","","","","","","","","","","","",""
"","","","","","image-keyboard-response","21","233977","0.0-3.0-18.0","5ac8328afa3b4e0001738e4e","665500ab8938657b03fbdba8","665792599ae495e94c1fe26d","1024","stimuli/21000112.jpg"," ","","practrice_feedback","2","","","","","","","","","","","","","","","","","","","","",""
"","","","","","image-keyboard-response","22","236440","0.0-3.0-19.0","5ac8328afa3b4e0001738e4e","665500ab8938657b03fbdba8","665792599ae495e94c1fe26d","2463","stimuli/2001001.jpg","2","","prediction_practice","2","{""filepath"":""stimuli/2001001.jpg"",""ball_pos"":2,""ego_ball_visible"":false,""ego_can_infer"":true,""alter_ball_visible"":false,""alter_can_infer"":true,""collective_ball_visible"":false,""collective_can_infer"":true,""search_locations"":[2],""alter_occluders"":""001"",""ego_occluders"":""001""}","true","","","","","","","","","","","","","","","","","","",""
"","","","","","image-keyboard-response","23","237648","0.0-3.0-20.0","5ac8328afa3b4e0001738e4e","665500ab8938657b03fbdba8","665792599ae495e94c1fe26d","1207","stimuli/20010012.jpg"," ","","practrice_feedback","2","","","","","","","","","","","","","","","","","","","","",""
"","","","","","html-button-response","24","255529","0.0-3.0-21.0","5ac8328afa3b4e0001738e4e","665500ab8938657b03fbdba8","665792599ae495e94c1fe26d","17879","Now that you've had some practice, you'll be tested with a couple of easy trials. If you correctly predict Sam's choice, you'll move on to complete the experiment!","0","","","","","","","","","","","","","","","","","","","","","","","",""
"","","","","","image-keyboard-response","25","258040","0.0-3.0-22.0-0.0","5ac8328afa3b4e0001738e4e","665500ab8938657b03fbdba8","665792599ae495e94c1fe26d","2511","stimuli/0000011.jpg","arrowleft","","comprehension_quiz","","","true","arrowleft","","","","","","","","","","","","","","","","","",""
"","","","","","image-keyboard-response","26","259839","0.0-3.0-22.0-1.0","5ac8328afa3b4e0001738e4e","665500ab8938657b03fbdba8","665792599ae495e94c1fe26d","1798","stimuli/00000110.jpg"," ","","comprehension_quiz","","","true"," ","","","","","","","","","","","","","","","","","",""
"","","","","","image-keyboard-response","27","261344","0.0-3.0-22.0-2.0","5ac8328afa3b4e0001738e4e","665500ab8938657b03fbdba8","665792599ae495e94c1fe26d","1504","stimuli/1010010.jpg","arrowdown","","comprehension_quiz","","","true","arrowdown","","","","","","","","","","","","","","","","","",""
"","","","","","image-keyboard-response","28","263240","0.0-3.0-22.0-3.0","5ac8328afa3b4e0001738e4e","665500ab8938657b03fbdba8","665792599ae495e94c1fe26d","1895","stimuli/10100101.jpg"," ","","comprehension_quiz","","","true"," ","","","","","","","","","","","","","","","","","",""
"","","","","","html-button-response","29","266200","0.0-4.0","5ac8328afa3b4e0001738e4e","665500ab8938657b03fbdba8","665792599ae495e94c1fe26d","2958","The experiment will now begin.","0","","","","","","","","","","","","","","","","","","","","","","","",""
"","","","","","image-keyboard-response","30","267696","0.0-5.0","5ac8328afa3b4e0001738e4e","665500ab8938657b03fbdba8","665792599ae495e94c1fe26d","1495","stimuli/2111100.jpg","2","","prediction_trial","1","","false","","2","true","true","false","false","false","false","[0,2,1]","111","100","0","","","","","","",""
"","","","","","image-keyboard-response","31","275202","0.0-6.0","5ac8328afa3b4e0001738e4e","665500ab8938657b03fbdba8","665792599ae495e94c1fe26d","7504","stimuli/21111001.jpg"," ","","feedback_trial","0","","","","","","","","","","","","","","","","","","","","",""
"","","","","","image-keyboard-response","32","276256","0.0-7.0","5ac8328afa3b4e0001738e4e","665500ab8938657b03fbdba8","665792599ae495e94c1fe26d","1053","stimuli/0011010.jpg","0","","prediction_trial","0","","true","","0","true","true","true","true","true","true","[0]","011","010","1","","","","","","",""
"","","","","","image-keyboard-response","33","278312","0.0-8.0","5ac8328afa3b4e0001738e4e","665500ab8938657b03fbdba8","665792599ae495e94c1fe26d","2056","stimuli/00110100.jpg"," ","","feedback_trial","0","","","","","","","","","","","","","","","","","","","","",""
"","","","","","image-keyboard-response","34","280455","0.0-9.0","5ac8328afa3b4e0001738e4e","665500ab8938657b03fbdba8","665792599ae495e94c1fe26d","2142","stimuli/0101101.jpg","2","","prediction_trial","2","","true","","0","false","false","false","false","false","false","[2,0]","101","101","1","","","","","","",""
"","","","","","image-keyboard-response","35","281681","0.0-10.0","5ac8328afa3b4e0001738e4e","665500ab8938657b03fbdba8","665792599ae495e94c1fe26d","1225","stimuli/01011012.jpg"," ","","feedback_trial","2","","","","","","","","","","","","","","","","","","","","",""
"","","","","","image-keyboard-response","36","284704","0.0-11.0","5ac8328afa3b4e0001738e4e","665500ab8938657b03fbdba8","665792599ae495e94c1fe26d","3022","stimuli/1110100.jpg","1","","prediction_trial","1","","true","","1","true","true","false","false","false","false","[0,1]","110","100","1","","","","","","",""
"","","","","","image-keyboard-response","37","286625","0.0-12.0","5ac8328afa3b4e0001738e4e","665500ab8938657b03fbdba8","665792599ae495e94c1fe26d","1921","stimuli/11101001.jpg"," ","","feedback_trial","0","","","","","","","","","","","","","","","","","","","","",""
"","","","","","image-keyboard-response","38","287577","0.0-13.0","5ac8328afa3b4e0001738e4e","665500ab8938657b03fbdba8","665792599ae495e94c1fe26d","951","stimuli/1001100.jpg","1","","prediction_trial","1","","true","","1","true","true","true","true","true","true","[1]","001","100","1","","","","","","",""
"","","","","","image-keyboard-response","39","288345","0.0-14.0","5ac8328afa3b4e0001738e4e","665500ab8938657b03fbdba8","665792599ae495e94c1fe26d","767","stimuli/10011001.jpg"," ","","feedback_trial","1","","","","","","","","","","","","","","","","","","","","",""
"","","","","","image-keyboard-response","40","290553","0.0-15.0","5ac8328afa3b4e0001738e4e","665500ab8938657b03fbdba8","665792599ae495e94c1fe26d","2207","stimuli/2000111.jpg","0","","prediction_trial","2","","false","","2","false","false","true","true","false","false","[2]","000","111","0","","","","","","",""
"","","","","","image-keyboard-response","41","291497","0.0-16.0","5ac8328afa3b4e0001738e4e","665500ab8938657b03fbdba8","665792599ae495e94c1fe26d","943","stimuli/20001112.jpg"," ","","feedback_trial","2","","","","","","","","","","","","","","","","","","","","",""
"","","","","","image-keyboard-response","42","294969","0.0-17.0","5ac8328afa3b4e0001738e4e","665500ab8938657b03fbdba8","665792599ae495e94c1fe26d","3472","stimuli/1100011.jpg","1","","prediction_trial","1","","true","","1","false","false","true","true","false","false","[1]","100","011","1","","","","","","",""
"","","","","","image-keyboard-response","43","295945","0.0-18.0","5ac8328afa3b4e0001738e4e","665500ab8938657b03fbdba8","665792599ae495e94c1fe26d","975","stimuli/11000111.jpg"," ","","feedback_trial","1","","","","","","","","","","","","","","","","","","","","",""
"","","","","","image-keyboard-response","44","297585","0.0-19.0","5ac8328afa3b4e0001738e4e","665500ab8938657b03fbdba8","665792599ae495e94c1fe26d","1639","stimuli/1011001.jpg","1","","prediction_trial","2","","false","","1","true","true","false","false","false","false","[2,1]","011","001","0","","","","","","",""
"","","","","","image-keyboard-response","45","302641","0.0-20.0","5ac8328afa3b4e0001738e4e","665500ab8938657b03fbdba8","665792599ae495e94c1fe26d","5055","stimuli/10110012.jpg"," ","","feedback_trial","2","","","","","","","","","","","","","","","","","","","","",""
"","","","","","image-keyboard-response","46","306680","0.0-21.0","5ac8328afa3b4e0001738e4e","665500ab8938657b03fbdba8","665792599ae495e94c1fe26d","4039","stimuli/0101100.jpg","0","","prediction_trial","2","","false","","0","false","true","false","false","false","false","[0,2]","101","100","0","","","","","","",""
"","","","","","image-keyboard-response","47","310273","0.0-22.0","5ac8328afa3b4e0001738e4e","665500ab8938657b03fbdba8","665792599ae495e94c1fe26d","3592","stimuli/01011002.jpg"," ","","feedback_trial","0","","","","","","","","","","","","","","","","","","","","",""
"","","","","","image-keyboard-response","48","314753","0.0-23.0","5ac8328afa3b4e0001738e4e","665500ab8938657b03fbdba8","665792599ae495e94c1fe26d","4479","stimuli/2010011.jpg","1","","prediction_trial","2","","false","","2","false","false","true","true","false","false","[2]","010","011","0","","","","","","",""
"","","","","","image-keyboard-response","49","315585","0.0-24.0","5ac8328afa3b4e0001738e4e","665500ab8938657b03fbdba8","665792599ae495e94c1fe26d","831","stimuli/20100112.jpg"," ","","feedback_trial","2","","","","","","","","","","","","","","","","","","","","",""
"","","","","","image-keyboard-response","50","317417","0.0-25.0","5ac8328afa3b4e0001738e4e","665500ab8938657b03fbdba8","665792599ae495e94c1fe26d","1831","stimuli/2001100.jpg","0","","prediction_trial","2","","false","","2","true","true","false","true","false","true","[2]","001","100","0","","","","","","",""
"","","","","","image-keyboard-response","51","318481","0.0-26.0","5ac8328afa3b4e0001738e4e","665500ab8938657b03fbdba8","665792599ae495e94c1fe26d","1063","stimuli/20011002.jpg"," ","","feedback_trial","2","","","","","","","","","","","","","","","","","","","","",""
"","","","","","image-keyboard-response","52","320305","0.0-27.0","5ac8328afa3b4e0001738e4e","665500ab8938657b03fbdba8","665792599ae495e94c1fe26d","1823","stimuli/0000101.jpg","2","","prediction_trial","0","","false","","0","false","false","true","true","false","false","[0]","000","101","0","","","","","","",""
"","","","","","image-keyboard-response","53","321249","0.0-28.0","5ac8328afa3b4e0001738e4e","665500ab8938657b03fbdba8","665792599ae495e94c1fe26d","943","stimuli/00001010.jpg"," ","","feedback_trial","0","","","","","","","","","","","","","","","","","","","","",""
"","","","","","image-keyboard-response","54","322440","0.0-29.0","5ac8328afa3b4e0001738e4e","665500ab8938657b03fbdba8","665792599ae495e94c1fe26d","1191","stimuli/0110101.jpg","2","","prediction_trial","0","","false","","0","false","false","false","false","false","false","[1,0]","110","101","0","","","","","","",""
"","","","","","image-keyboard-response","55","323448","0.0-30.0","5ac8328afa3b4e0001738e4e","665500ab8938657b03fbdba8","665792599ae495e94c1fe26d","1007","stimuli/01101010.jpg"," ","","feedback_trial","1","","","","","","","","","","","","","","","","","","","","",""
"","","","","","image-keyboard-response","56","325097","0.0-31.0","5ac8328afa3b4e0001738e4e","665500ab8938657b03fbdba8","665792599ae495e94c1fe26d","1647","stimuli/2110100.jpg","2","","prediction_trial","2","","true","","2","true","true","true","true","true","true","[2]","110","100","1","","","","","","",""
"","","","","","image-keyboard-response","57","326017","0.0-32.0","5ac8328afa3b4e0001738e4e","665500ab8938657b03fbdba8","665792599ae495e94c1fe26d","919","stimuli/21101002.jpg"," ","","feedback_trial","2","","","","","","","","","","","","","","","","","","","","",""
"","","","","","image-keyboard-response","58","327945","0.0-33.0","5ac8328afa3b4e0001738e4e","665500ab8938657b03fbdba8","665792599ae495e94c1fe26d","1926","stimuli/1110010.jpg","1","","prediction_trial","0","","false","","1","false","true","false","false","false","false","[1,0]","110","010","0","","","","","","",""
"","","","","","image-keyboard-response","59","328888","0.0-34.0","5ac8328afa3b4e0001738e4e","665500ab8938657b03fbdba8","665792599ae495e94c1fe26d","943","stimuli/11100100.jpg"," ","","feedback_trial","1","","","","","","","","","","","","","","","","","","","","",""
"","","","","","image-keyboard-response","60","330985","0.0-35.0","5ac8328afa3b4e0001738e4e","665500ab8938657b03fbdba8","665792599ae495e94c1fe26d","2096","stimuli/2110000.jpg","2","","prediction_trial","2","","true","","2","true","true","true","true","true","true","[2]","110","000","1","","","","","","",""
"","","","","","image-keyboard-response","61","331856","0.0-36.0","5ac8328afa3b4e0001738e4e","665500ab8938657b03fbdba8","665792599ae495e94c1fe26d","871","stimuli/21100002.jpg"," ","","feedback_trial","2","","","","","","","","","","","","","","","","","","","","",""
"","","","","","image-keyboard-response","62","333432","0.0-37.0","5ac8328afa3b4e0001738e4e","665500ab8938657b03fbdba8","665792599ae495e94c1fe26d","1575","stimuli/0001110.jpg","1","","prediction_trial","0","","false","","0","false","false","true","true","false","false","[0]","001","110","0","","","","","","",""
"","","","","","image-keyboard-response","63","334129","0.0-38.0","5ac8328afa3b4e0001738e4e","665500ab8938657b03fbdba8","665792599ae495e94c1fe26d","695","stimuli/00011100.jpg"," ","","feedback_trial","0","","","","","","","","","","","","","","","","","","","","",""
"","","","","","image-keyboard-response","64","335728","0.0-39.0","5ac8328afa3b4e0001738e4e","665500ab8938657b03fbdba8","665792599ae495e94c1fe26d","1599","stimuli/1010001.jpg","1","","prediction_trial","1","","true","","1","true","true","false","true","false","true","[1]","010","001","1","","","","","","",""
"","","","","","image-keyboard-response","65","336568","0.0-40.0","5ac8328afa3b4e0001738e4e","665500ab8938657b03fbdba8","665792599ae495e94c1fe26d","839","stimuli/10100011.jpg"," ","","feedback_trial","1","","","","","","","","","","","","","","","","","","","","",""
"","","","","","image-keyboard-response","66","338065","0.0-41.0","5ac8328afa3b4e0001738e4e","665500ab8938657b03fbdba8","665792599ae495e94c1fe26d","1496","stimuli/2000011.jpg","2","","prediction_trial","2","","true","","2","false","false","true","true","false","false","[2]","000","011","1","","","","","","",""
"","","","","","image-keyboard-response","67","338873","0.0-42.0","5ac8328afa3b4e0001738e4e","665500ab8938657b03fbdba8","665792599ae495e94c1fe26d","807","stimuli/20000112.jpg"," ","","feedback_trial","2","","","","","","","","","","","","","","","","","","","","",""
"","","","","","image-keyboard-response","68","340384","0.0-43.0","5ac8328afa3b4e0001738e4e","665500ab8938657b03fbdba8","665792599ae495e94c1fe26d","1511","stimuli/1000010.jpg","1","","prediction_trial","1","","true","","1","false","true","true","true","false","true","[1]","000","010","1","","","","","","",""
"","","","","","image-keyboard-response","69","341129","0.0-44.0","5ac8328afa3b4e0001738e4e","665500ab8938657b03fbdba8","665792599ae495e94c1fe26d","744","stimuli/10000101.jpg"," ","","feedback_trial","1","","","","","","","","","","","","","","","","","","","","",""
"","","","","","image-keyboard-response","70","342777","0.0-45.0","5ac8328afa3b4e0001738e4e","665500ab8938657b03fbdba8","665792599ae495e94c1fe26d","1647","stimuli/0000110.jpg","0","","prediction_trial","0","","true","","0","false","false","true","true","false","false","[0]","000","110","1","","","","","","",""
"","","","","","image-keyboard-response","71","343657","0.0-46.0","5ac8328afa3b4e0001738e4e","665500ab8938657b03fbdba8","665792599ae495e94c1fe26d","879","stimuli/00001100.jpg"," ","","feedback_trial","0","","","","","","","","","","","","","","","","","","","","",""
"","","","","","image-keyboard-response","72","345465","0.0-47.0","5ac8328afa3b4e0001738e4e","665500ab8938657b03fbdba8","665792599ae495e94c1fe26d","1807","stimuli/1100111.jpg","2","","prediction_trial","1","","false","","1","false","false","true","true","false","false","[1]","100","111","0","","","","","","",""
"","","","","","image-keyboard-response","73","346233","0.0-48.0","5ac8328afa3b4e0001738e4e","665500ab8938657b03fbdba8","665792599ae495e94c1fe26d","767","stimuli/11001111.jpg"," ","","feedback_trial","1","","","","","","","","","","","","","","","","","","","","",""
"","","","","","image-keyboard-response","74","347793","0.0-49.0","5ac8328afa3b4e0001738e4e","665500ab8938657b03fbdba8","665792599ae495e94c1fe26d","1559","stimuli/0000011.jpg","0","","prediction_trial","0","","true","","0","true","true","true","true","true","true","[0]","000","011","1","","","","","","",""
"","","","","","image-keyboard-response","75","348609","0.0-50.0","5ac8328afa3b4e0001738e4e","665500ab8938657b03fbdba8","665792599ae495e94c1fe26d","815","stimuli/00000110.jpg"," ","","feedback_trial","0","","","","","","","","","","","","","","","","","","","","",""
"","","","","","image-keyboard-response","76","350577","0.0-51.0","5ac8328afa3b4e0001738e4e","665500ab8938657b03fbdba8","665792599ae495e94c1fe26d","1967","stimuli/0000010.jpg","1","","prediction_trial","0","","false","","0","true","true","true","true","true","true","[0]","000","010","0","","","","","","",""
"","","","","","image-keyboard-response","77","351889","0.0-52.0","5ac8328afa3b4e0001738e4e","665500ab8938657b03fbdba8","665792599ae495e94c1fe26d","1312","stimuli/00000100.jpg"," ","","feedback_trial","0","","","","","","","","","","","","","","","","","","","","",""
"","","","","","image-keyboard-response","78","352969","0.0-53.0","5ac8328afa3b4e0001738e4e","665500ab8938657b03fbdba8","665792599ae495e94c1fe26d","1079","stimuli/0100011.jpg","0","","prediction_trial","0","","true","","0","true","true","false","true","false","true","[0]","100","011","1","","","","","","",""
"","","","","","image-keyboard-response","79","353849","0.0-54.0","5ac8328afa3b4e0001738e4e","665500ab8938657b03fbdba8","665792599ae495e94c1fe26d","880","stimuli/01000110.jpg"," ","","feedback_trial","0","","","","","","","","","","","","","","","","","","","","",""
"","","","","","image-keyboard-response","80","355473","0.0-55.0","5ac8328afa3b4e0001738e4e","665500ab8938657b03fbdba8","665792599ae495e94c1fe26d","1623","stimuli/1110110.jpg","1","","prediction_trial","0","","false","","1","false","false","false","false","false","false","[0,1]","110","110","0","","","","","","",""
"","","","","","image-keyboard-response","81","356145","0.0-56.0","5ac8328afa3b4e0001738e4e","665500ab8938657b03fbdba8","665792599ae495e94c1fe26d","671","stimuli/11101100.jpg"," ","","feedback_trial","0","","","","","","","","","","","","","","","","","","","","",""
"","","","","","image-keyboard-response","82","357417","0.0-57.0","5ac8328afa3b4e0001738e4e","665500ab8938657b03fbdba8","665792599ae495e94c1fe26d","1271","stimuli/2011101.jpg","2","","prediction_trial","2","","true","","2","false","false","false","false","false","false","[1,2]","011","101","1","","","","","","",""
"","","","","","image-keyboard-response","83","358225","0.0-58.0","5ac8328afa3b4e0001738e4e","665500ab8938657b03fbdba8","665792599ae495e94c1fe26d","807","stimuli/20111012.jpg"," ","","feedback_trial","1","","","","","","","","","","","","","","","","","","","","",""
"","","","","","image-keyboard-response","84","359673","0.0-59.0","5ac8328afa3b4e0001738e4e","665500ab8938657b03fbdba8","665792599ae495e94c1fe26d","1448","stimuli/1001010.jpg","1","","prediction_trial","1","","true","","1","false","true","true","true","false","true","[1]","001","010","1","","","","","","",""
"","","","","","image-keyboard-response","85","360353","0.0-60.0","5ac8328afa3b4e0001738e4e","665500ab8938657b03fbdba8","665792599ae495e94c1fe26d","679","stimuli/10010101.jpg"," ","","feedback_trial","1","","","","","","","","","","","","","","","","","","","","",""
"","","","","","image-keyboard-response","86","361729","0.0-61.0","5ac8328afa3b4e0001738e4e","665500ab8938657b03fbdba8","665792599ae495e94c1fe26d","1375","stimuli/1110000.jpg","1","","prediction_trial","0","","false","","1","true","true","false","false","false","false","[1,0]","110","000","0","","","","","","",""
"","","","","","image-keyboard-response","87","362449","0.0-62.0","5ac8328afa3b4e0001738e4e","665500ab8938657b03fbdba8","665792599ae495e94c1fe26d","719","stimuli/11100000.jpg"," ","","feedback_trial","1","","","","","","","","","","","","","","","","","","","","",""
"","","","","","image-keyboard-response","88","363425","0.0-63.0","5ac8328afa3b4e0001738e4e","665500ab8938657b03fbdba8","665792599ae495e94c1fe26d","975","stimuli/2101001.jpg","2","","prediction_trial","0","","false","","2","false","true","false","false","false","false","[2,0]","101","001","0","","","","","","",""
"","","","","","image-keyboard-response","89","364617","0.0-64.0","5ac8328afa3b4e0001738e4e","665500ab8938657b03fbdba8","665792599ae495e94c1fe26d","1191","stimuli/21010010.jpg"," ","","feedback_trial","2","","","","","","","","","","","","","","","","","","","","",""
"","","","","","image-keyboard-response","90","366881","0.0-65.0","5ac8328afa3b4e0001738e4e","665500ab8938657b03fbdba8","665792599ae495e94c1fe26d","2263","stimuli/1010101.jpg","1","","prediction_trial","1","","true","","1","true","true","false","true","false","true","[1]","010","101","1","","","","","","",""
"","","","","","image-keyboard-response","91","367529","0.0-66.0","5ac8328afa3b4e0001738e4e","665500ab8938657b03fbdba8","665792599ae495e94c1fe26d","648","stimuli/10101011.jpg"," ","","feedback_trial","1","","","","","","","","","","","","","","","","","","","","",""
"","","","","","image-keyboard-response","92","370072","0.0-67.0","5ac8328afa3b4e0001738e4e","665500ab8938657b03fbdba8","665792599ae495e94c1fe26d","2543","stimuli/1010110.jpg","0","","prediction_trial","1","","false","","1","false","false","false","true","false","false","[1]","010","110","0","","","","","","",""
"","","","","","image-keyboard-response","93","370913","0.0-68.0","5ac8328afa3b4e0001738e4e","665500ab8938657b03fbdba8","665792599ae495e94c1fe26d","840","stimuli/10101101.jpg"," ","","feedback_trial","1","","","","","","","","","","","","","","","","","","","","",""
"","","","","","image-keyboard-response","94","372474","0.0-69.0","5ac8328afa3b4e0001738e4e","665500ab8938657b03fbdba8","665792599ae495e94c1fe26d","1560","stimuli/1000110.jpg","1","","prediction_trial","1","","true","","1","false","false","true","true","false","false","[1]","000","110","1","","","","","","",""
"","","","","","image-keyboard-response","95","373137","0.0-70.0","5ac8328afa3b4e0001738e4e","665500ab8938657b03fbdba8","665792599ae495e94c1fe26d","662","stimuli/10001101.jpg"," ","","feedback_trial","1","","","","","","","","","","","","","","","","","","","","",""
"","","","","","image-keyboard-response","96","375889","0.0-71.0","5ac8328afa3b4e0001738e4e","665500ab8938657b03fbdba8","665792599ae495e94c1fe26d","2751","stimuli/2001110.jpg","2","","prediction_trial","2","","true","","2","true","true","false","true","false","true","[2]","001","110","1","","","","","","",""
"","","","","","image-keyboard-response","97","376625","0.0-72.0","5ac8328afa3b4e0001738e4e","665500ab8938657b03fbdba8","665792599ae495e94c1fe26d","735","stimuli/20011102.jpg"," ","","feedback_trial","2","","","","","","","","","","","","","","","","","","","","",""
"","","","","","image-keyboard-response","98","377785","0.0-73.0","5ac8328afa3b4e0001738e4e","665500ab8938657b03fbdba8","665792599ae495e94c1fe26d","1159","stimuli/1001101.jpg","1","","prediction_trial","1","","true","","1","true","true","true","true","true","true","[1]","001","101","1","","","","","","",""
"","","","","","image-keyboard-response","99","378601","0.0-74.0","5ac8328afa3b4e0001738e4e","665500ab8938657b03fbdba8","665792599ae495e94c1fe26d","816","stimuli/10011011.jpg"," ","","feedback_trial","1","","","","","","","","","","","","","","","","","","","","",""
"","","","","","image-keyboard-response","100","379985","0.0-75.0","5ac8328afa3b4e0001738e4e","665500ab8938657b03fbdba8","665792599ae495e94c1fe26d","1383","stimuli/2111001.jpg","2","","prediction_trial","0","","false","","2","false","true","false","false","false","false","[0,2,1]","111","001","0","","","","","","",""
"","","","","","image-keyboard-response","101","380929","0.0-76.0","5ac8328afa3b4e0001738e4e","665500ab8938657b03fbdba8","665792599ae495e94c1fe26d","943","stimuli/21110010.jpg"," ","","feedback_trial","0","","","","","","","","","","","","","","","","","","","","",""
"","","","","","image-keyboard-response","102","382961","0.0-77.0","5ac8328afa3b4e0001738e4e","665500ab8938657b03fbdba8","665792599ae495e94c1fe26d","2032","stimuli/0011000.jpg","0","","prediction_trial","0","","true","","0","true","true","true","true","true","true","[0]","011","000","1","","","","","","",""
"","","","","","image-keyboard-response","103","383697","0.0-78.0","5ac8328afa3b4e0001738e4e","665500ab8938657b03fbdba8","665792599ae495e94c1fe26d","735","stimuli/00110000.jpg"," ","","feedback_trial","0","","","","","","","","","","","","","","","","","","","","",""
"","","","","","image-keyboard-response","104","384745","0.0-79.0","5ac8328afa3b4e0001738e4e","665500ab8938657b03fbdba8","665792599ae495e94c1fe26d","1047","stimuli/1110101.jpg","1","","prediction_trial","1","","true","","1","true","true","false","false","false","false","[1,0]","110","101","1","","","","","","",""
"","","","","","image-keyboard-response","105","385377","0.0-80.0","5ac8328afa3b4e0001738e4e","665500ab8938657b03fbdba8","665792599ae495e94c1fe26d","631","stimuli/11101011.jpg"," ","","feedback_trial","1","","","","","","","","","","","","","","","","","","","","",""
"","","","","","image-keyboard-response","106","386897","0.0-81.0","5ac8328afa3b4e0001738e4e","665500ab8938657b03fbdba8","665792599ae495e94c1fe26d","1520","stimuli/0100101.jpg","0","","prediction_trial","0","","true","","0","false","false","false","true","false","false","[0]","100","101","1","","","","","","",""
"","","","","","image-keyboard-response","107","387681","0.0-82.0","5ac8328afa3b4e0001738e4e","665500ab8938657b03fbdba8","665792599ae495e94c1fe26d","783","stimuli/01001010.jpg"," ","","feedback_trial","0","","","","","","","","","","","","","","","","","","","","",""
"","","","","","image-keyboard-response","108","389169","0.0-83.0","5ac8328afa3b4e0001738e4e","665500ab8938657b03fbdba8","665792599ae495e94c1fe26d","1487","stimuli/1001110.jpg","1","","prediction_trial","1","","true","","1","false","false","true","true","false","false","[1]","001","110","1","","","","","","",""
"","","","","","image-keyboard-response","109","389808","0.0-84.0","5ac8328afa3b4e0001738e4e","665500ab8938657b03fbdba8","665792599ae495e94c1fe26d","639","stimuli/10011101.jpg"," ","","feedback_trial","1","","","","","","","","","","","","","","","","","","","","",""
"","","","","","image-keyboard-response","110","391177","0.0-85.0","5ac8328afa3b4e0001738e4e","665500ab8938657b03fbdba8","665792599ae495e94c1fe26d","1368","stimuli/2111000.jpg","2","","prediction_trial","2","","true","","2","true","true","false","false","false","false","[0,1,2]","111","000","1","","","","","","",""
"","","","","","image-keyboard-response","111","391945","0.0-86.0","5ac8328afa3b4e0001738e4e","665500ab8938657b03fbdba8","665792599ae495e94c1fe26d","767","stimuli/21110002.jpg"," ","","feedback_trial","0","","","","","","","","","","","","","","","","","","","","",""
"","","","","","image-keyboard-response","112","393457","0.0-87.0","5ac8328afa3b4e0001738e4e","665500ab8938657b03fbdba8","665792599ae495e94c1fe26d","1512","stimuli/2110101.jpg","0","","prediction_trial","2","","false","","2","false","false","true","true","false","false","[2]","110","101","0","","","","","","",""
"","","","","","image-keyboard-response","113","394161","0.0-88.0","5ac8328afa3b4e0001738e4e","665500ab8938657b03fbdba8","665792599ae495e94c1fe26d","703","stimuli/21101012.jpg"," ","","feedback_trial","2","","","","","","","","","","","","","","","","","","","","",""
"","","","","","image-keyboard-response","114","395345","0.0-89.0","5ac8328afa3b4e0001738e4e","665500ab8938657b03fbdba8","665792599ae495e94c1fe26d","1184","stimuli/2101010.jpg","2","","prediction_trial","2","","true","","2","true","true","false","false","false","false","[2,0]","101","010","1","","","","","","",""
"","","","","","image-keyboard-response","115","396081","0.0-90.0","5ac8328afa3b4e0001738e4e","665500ab8938657b03fbdba8","665792599ae495e94c1fe26d","735","stimuli/21010102.jpg"," ","","feedback_trial","2","","","","","","","","","","","","","","","","","","","","",""
"","","","","","image-keyboard-response","116","397802","0.0-91.0","5ac8328afa3b4e0001738e4e","665500ab8938657b03fbdba8","665792599ae495e94c1fe26d","1720","stimuli/2011010.jpg","2","","prediction_trial","2","","true","","2","true","true","false","false","false","false","[1,2]","011","010","1","","","","","","",""
"","","","","","image-keyboard-response","117","398497","0.0-92.0","5ac8328afa3b4e0001738e4e","665500ab8938657b03fbdba8","665792599ae495e94c1fe26d","695","stimuli/20110102.jpg"," ","","feedback_trial","1","","","","","","","","","","","","","","","","","","","","",""
"","","","","","image-keyboard-response","118","399681","0.0-93.0","5ac8328afa3b4e0001738e4e","665500ab8938657b03fbdba8","665792599ae495e94c1fe26d","1184","stimuli/2101011.jpg","1","","prediction_trial","2","","false","","2","false","false","false","false","false","false","[2,0]","101","011","0","","","","","","",""
"","","","","","image-keyboard-response","119","400273","0.0-94.0","5ac8328afa3b4e0001738e4e","665500ab8938657b03fbdba8","665792599ae495e94c1fe26d","591","stimuli/21010112.jpg"," ","","feedback_trial","2","","","","","","","","","","","","","","","","","","","","",""
"","","","","","image-keyboard-response","120","401993","0.0-95.0","5ac8328afa3b4e0001738e4e","665500ab8938657b03fbdba8","665792599ae495e94c1fe26d","1719","stimuli/2100111.jpg","0","","prediction_trial","2","","false","","2","false","false","true","true","false","false","[2]","100","111","0","","","","","","",""
"","","","","","image-keyboard-response","121","402560","0.0-96.0","5ac8328afa3b4e0001738e4e","665500ab8938657b03fbdba8","665792599ae495e94c1fe26d","567","stimuli/21001112.jpg"," ","","feedback_trial","2","","","","","","","","","","","","","","","","","","","","",""
"","","","","","image-keyboard-response","122","403937","0.0-97.0","5ac8328afa3b4e0001738e4e","665500ab8938657b03fbdba8","665792599ae495e94c1fe26d","1376","stimuli/2100010.jpg","2","","prediction_trial","2","","true","","2","true","true","true","true","true","true","[2]","100","010","1","","","","","","",""
"","","","","","image-keyboard-response","123","404521","0.0-98.0","5ac8328afa3b4e0001738e4e","665500ab8938657b03fbdba8","665792599ae495e94c1fe26d","583","stimuli/21000102.jpg"," ","","feedback_trial","2","","","","","","","","","","","","","","","","","","","","",""
"","","","","","image-keyboard-response","124","405736","0.0-99.0","5ac8328afa3b4e0001738e4e","665500ab8938657b03fbdba8","665792599ae495e94c1fe26d","1215","stimuli/1000100.jpg","1","","prediction_trial","1","","true","","1","true","true","true","true","true","true","[1]","000","100","1","","","","","","",""
"","","","","","image-keyboard-response","125","406296","0.0-100.0","5ac8328afa3b4e0001738e4e","665500ab8938657b03fbdba8","665792599ae495e94c1fe26d","559","stimuli/10001001.jpg"," ","","feedback_trial","1","","","","","","","","","","","","","","","","","","","","",""
"","","","","","image-keyboard-response","126","407240","0.0-101.0","5ac8328afa3b4e0001738e4e","665500ab8938657b03fbdba8","665792599ae495e94c1fe26d","943","stimuli/1100000.jpg","1","","prediction_trial","1","","true","","1","true","true","true","true","true","true","[1]","100","000","1","","","","","","",""
"","","","","","image-keyboard-response","127","407976","0.0-102.0","5ac8328afa3b4e0001738e4e","665500ab8938657b03fbdba8","665792599ae495e94c1fe26d","736","stimuli/11000001.jpg"," ","","feedback_trial","1","","","","","","","","","","","","","","","","","","","","",""
"","","","","","image-keyboard-response","128","408856","0.0-103.0","5ac8328afa3b4e0001738e4e","665500ab8938657b03fbdba8","665792599ae495e94c1fe26d","879","stimuli/0100000.jpg","0","","prediction_trial","0","","true","","0","true","true","false","true","false","true","[0]","100","000","1","","","","","","",""
"","","","","","image-keyboard-response","129","409320","0.0-104.0","5ac8328afa3b4e0001738e4e","665500ab8938657b03fbdba8","665792599ae495e94c1fe26d","463","stimuli/01000000.jpg"," ","","feedback_trial","0","","","","","","","","","","","","","","","","","","","","",""
"","","","","","image-keyboard-response","130","411960","0.0-105.0","5ac8328afa3b4e0001738e4e","665500ab8938657b03fbdba8","665792599ae495e94c1fe26d","2639","stimuli/2100011.jpg","2","","prediction_trial","2","","true","","2","false","false","true","true","false","false","[2]","100","011","1","","","","","","",""
"","","","","","image-keyboard-response","131","412448","0.0-106.0","5ac8328afa3b4e0001738e4e","665500ab8938657b03fbdba8","665792599ae495e94c1fe26d","487","stimuli/21000112.jpg"," ","","feedback_trial","2","","","","","","","","","","","","","","","","","","","","",""
"","","","","","image-keyboard-response","132","413608","0.0-107.0","5ac8328afa3b4e0001738e4e","665500ab8938657b03fbdba8","665792599ae495e94c1fe26d","1159","stimuli/0110011.jpg","0","","prediction_trial","0","","true","","0","true","true","false","false","false","false","[0,1]","110","011","1","","","","","","",""
"","","","","","image-keyboard-response","133","414120","0.0-108.0","5ac8328afa3b4e0001738e4e","665500ab8938657b03fbdba8","665792599ae495e94c1fe26d","511","stimuli/01100110.jpg"," ","","feedback_trial","0","","","","","","","","","","","","","","","","","","","","",""
"","","","","","image-keyboard-response","134","415401","0.0-109.0","5ac8328afa3b4e0001738e4e","665500ab8938657b03fbdba8","665792599ae495e94c1fe26d","1280","stimuli/0010110.jpg","1","","prediction_trial","0","","false","","0","false","false","true","true","false","false","[0]","010","110","0","","","","","","",""
"","","","","","image-keyboard-response","135","415896","0.0-110.0","5ac8328afa3b4e0001738e4e","665500ab8938657b03fbdba8","665792599ae495e94c1fe26d","495","stimuli/00101100.jpg"," ","","feedback_trial","0","","","","","","","","","","","","","","","","","","","","",""
"","","","","","image-keyboard-response","136","416912","0.0-111.0","5ac8328afa3b4e0001738e4e","665500ab8938657b03fbdba8","665792599ae495e94c1fe26d","1015","stimuli/2110110.jpg","2","","prediction_trial","2","","true","","2","true","true","true","true","true","true","[2]","110","110","1","","","","","","",""
"","","","","","image-keyboard-response","137","417576","0.0-112.0","5ac8328afa3b4e0001738e4e","665500ab8938657b03fbdba8","665792599ae495e94c1fe26d","663","stimuli/21101102.jpg"," ","","feedback_trial","2","","","","","","","","","","","","","","","","","","","","",""
"","","","","","image-keyboard-response","138","418288","0.0-113.0","5ac8328afa3b4e0001738e4e","665500ab8938657b03fbdba8","665792599ae495e94c1fe26d","711","stimuli/0111011.jpg","0","","prediction_trial","0","","true","","0","true","true","false","false","false","false","[1,2,0]","111","011","1","","","","","","",""
"","","","","","image-keyboard-response","139","418824","0.0-114.0","5ac8328afa3b4e0001738e4e","665500ab8938657b03fbdba8","665792599ae495e94c1fe26d","536","stimuli/01110110.jpg"," ","","feedback_trial","1","","","","","","","","","","","","","","","","","","","","",""
"","","","","","image-keyboard-response","140","419712","0.0-115.0","5ac8328afa3b4e0001738e4e","665500ab8938657b03fbdba8","665792599ae495e94c1fe26d","887","stimuli/1101000.jpg","1","","prediction_trial","1","","true","","1","true","true","true","true","true","true","[1]","101","000","1","","","","","","",""
"","","","","","image-keyboard-response","141","420192","0.0-116.0","5ac8328afa3b4e0001738e4e","665500ab8938657b03fbdba8","665792599ae495e94c1fe26d","479","stimuli/11010001.jpg"," ","","feedback_trial","1","","","","","","","","","","","","","","","","","","","","",""
"","","","","","image-keyboard-response","142","420912","0.0-117.0","5ac8328afa3b4e0001738e4e","665500ab8938657b03fbdba8","665792599ae495e94c1fe26d","719","stimuli/0101000.jpg","0","","prediction_trial","0","","true","","0","true","true","false","false","false","false","[2,0]","101","000","1","","","","","","",""
"","","","","","image-keyboard-response","143","421416","0.0-118.0","5ac8328afa3b4e0001738e4e","665500ab8938657b03fbdba8","665792599ae495e94c1fe26d","503","stimuli/01010000.jpg"," ","","feedback_trial","2","","","","","","","","","","","","","","","","","","","","",""
"","","","","","image-keyboard-response","144","423328","0.0-119.0","5ac8328afa3b4e0001738e4e","665500ab8938657b03fbdba8","665792599ae495e94c1fe26d","1911","stimuli/1011111.jpg","2","","prediction_trial","2","","true","","1","false","false","false","false","false","false","[2,1]","011","111","1","","","","","","",""
"","","","","","image-keyboard-response","145","423896","0.0-120.0","5ac8328afa3b4e0001738e4e","665500ab8938657b03fbdba8","665792599ae495e94c1fe26d","568","stimuli/10111112.jpg"," ","","feedback_trial","2","","","","","","","","","","","","","","","","","","","","",""
"","","","","","image-keyboard-response","146","424984","0.0-121.0","5ac8328afa3b4e0001738e4e","665500ab8938657b03fbdba8","665792599ae495e94c1fe26d","1087","stimuli/2001101.jpg","0","","prediction_trial","2","","false","","2","false","false","false","true","false","false","[2]","001","101","0","","","","","","",""
"","","","","","image-keyboard-response","147","425512","0.0-122.0","5ac8328afa3b4e0001738e4e","665500ab8938657b03fbdba8","665792599ae495e94c1fe26d","528","stimuli/20011012.jpg"," ","","feedback_trial","2","","","","","","","","","","","","","","","","","","","","",""
"","","","","","image-keyboard-response","148","426408","0.0-123.0","5ac8328afa3b4e0001738e4e","665500ab8938657b03fbdba8","665792599ae495e94c1fe26d","895","stimuli/1111010.jpg","1","","prediction_trial","2","","false","","1","false","true","false","false","false","false","[2,0,1]","111","010","0","","","","","","",""
"","","","","","image-keyboard-response","149","426872","0.0-124.0","5ac8328afa3b4e0001738e4e","665500ab8938657b03fbdba8","665792599ae495e94c1fe26d","464","stimuli/11110102.jpg"," ","","feedback_trial","2","","","","","","","","","","","","","","","","","","","","",""
"","","","","","image-keyboard-response","150","428376","0.0-125.0","5ac8328afa3b4e0001738e4e","665500ab8938657b03fbdba8","665792599ae495e94c1fe26d","1503","stimuli/1011101.jpg","1","","prediction_trial","1","","true","","1","true","true","false","false","false","false","[2,1]","011","101","1","","","","","","",""
"","","","","","image-keyboard-response","151","428968","0.0-126.0","5ac8328afa3b4e0001738e4e","665500ab8938657b03fbdba8","665792599ae495e94c1fe26d","591","stimuli/10111011.jpg"," ","","feedback_trial","2","","","","","","","","","","","","","","","","","","","","",""
"","","","","","image-keyboard-response","152","430296","0.0-127.0","5ac8328afa3b4e0001738e4e","665500ab8938657b03fbdba8","665792599ae495e94c1fe26d","1327","stimuli/1101111.jpg","2","","prediction_trial","1","","false","","1","false","false","true","true","false","false","[1]","101","111","0","","","","","","",""
"","","","","","image-keyboard-response","153","430776","0.0-128.0","5ac8328afa3b4e0001738e4e","665500ab8938657b03fbdba8","665792599ae495e94c1fe26d","479","stimuli/11011111.jpg"," ","","feedback_trial","1","","","","","","","","","","","","","","","","","","","","",""
"","","","","","image-keyboard-response","154","431904","0.0-129.0","5ac8328afa3b4e0001738e4e","665500ab8938657b03fbdba8","665792599ae495e94c1fe26d","1127","stimuli/2010010.jpg","2","","prediction_trial","2","","true","","2","true","true","true","true","true","true","[2]","010","010","1","","","","","","",""
"","","","","","image-keyboard-response","155","432512","0.0-130.0","5ac8328afa3b4e0001738e4e","665500ab8938657b03fbdba8","665792599ae495e94c1fe26d","607","stimuli/20100102.jpg"," ","","feedback_trial","2","","","","","","","","","","","","","","","","","","","","",""
"","","","","","image-keyboard-response","156","434168","0.0-131.0","5ac8328afa3b4e0001738e4e","665500ab8938657b03fbdba8","665792599ae495e94c1fe26d","1656","stimuli/0111111.jpg","0","","prediction_trial","2","","false","","0","false","false","false","false","false","false","[2,1,0]","111","111","0","","","","","","",""
"","","","","","image-keyboard-response","157","435129","0.0-132.0","5ac8328afa3b4e0001738e4e","665500ab8938657b03fbdba8","665792599ae495e94c1fe26d","960","stimuli/01111112.jpg"," ","","feedback_trial","2","","","","","","","","","","","","","","","","","","","","",""
"","","","","","image-keyboard-response","158","437832","0.0-133.0","5ac8328afa3b4e0001738e4e","665500ab8938657b03fbdba8","665792599ae495e94c1fe26d","2703","stimuli/2010000.jpg","2","","prediction_trial","2","","true","","2","true","true","true","true","true","true","[2]","010","000","1","","","","","","",""
"","","","","","image-keyboard-response","159","438544","0.0-134.0","5ac8328afa3b4e0001738e4e","665500ab8938657b03fbdba8","665792599ae495e94c1fe26d","711","stimuli/20100002.jpg"," ","","feedback_trial","2","","","","","","","","","","","","","","","","","","","","",""
"","","","","","image-keyboard-response","160","439376","0.0-135.0","5ac8328afa3b4e0001738e4e","665500ab8938657b03fbdba8","665792599ae495e94c1fe26d","831","stimuli/2110001.jpg","2","","prediction_trial","2","","true","","2","false","true","true","true","false","true","[2]","110","001","1","","","","","","",""
"","","","","","image-keyboard-response","161","439872","0.0-136.0","5ac8328afa3b4e0001738e4e","665500ab8938657b03fbdba8","665792599ae495e94c1fe26d","495","stimuli/21100012.jpg"," ","","feedback_trial","2","","","","","","","","","","","","","","","","","","","","",""
"","","","","","image-keyboard-response","162","440920","0.0-137.0","5ac8328afa3b4e0001738e4e","665500ab8938657b03fbdba8","665792599ae495e94c1fe26d","1047","stimuli/0100001.jpg","0","","prediction_trial","0","","true","","0","true","true","false","true","false","true","[0]","100","001","1","","","","","","",""
"","","","","","image-keyboard-response","163","441416","0.0-138.0","5ac8328afa3b4e0001738e4e","665500ab8938657b03fbdba8","665792599ae495e94c1fe26d","495","stimuli/01000010.jpg"," ","","feedback_trial","0","","","","","","","","","","","","","","","","","","","","",""
"","","","","","image-keyboard-response","164","443480","0.0-139.0","5ac8328afa3b4e0001738e4e","665500ab8938657b03fbdba8","665792599ae495e94c1fe26d","2063","stimuli/1011110.jpg","0","","prediction_trial","1","","false","","1","false","false","false","false","false","false","[2,1]","011","110","0","","","","","","",""
"","","","","","image-keyboard-response","165","443976","0.0-140.0","5ac8328afa3b4e0001738e4e","665500ab8938657b03fbdba8","665792599ae495e94c1fe26d","495","stimuli/10111101.jpg"," ","","feedback_trial","2","","","","","","","","","","","","","","","","","","","","",""
"","","","","","image-keyboard-response","166","444960","0.0-141.0","5ac8328afa3b4e0001738e4e","665500ab8938657b03fbdba8","665792599ae495e94c1fe26d","983","stimuli/2101000.jpg","2","","prediction_trial","2","","true","","2","true","true","false","false","false","false","[2,0]","101","000","1","","","","","","",""
"","","","","","image-keyboard-response","167","445360","0.0-142.0","5ac8328afa3b4e0001738e4e","665500ab8938657b03fbdba8","665792599ae495e94c1fe26d","399","stimuli/21010002.jpg"," ","","feedback_trial","2","","","","","","","","","","","","","","","","","","","","",""
"","","","","","image-keyboard-response","168","447352","0.0-143.0","5ac8328afa3b4e0001738e4e","665500ab8938657b03fbdba8","665792599ae495e94c1fe26d","1991","stimuli/1110011.jpg","1","","prediction_trial","0","","false","","1","false","false","false","false","false","false","[1,0]","110","011","0","","","","","","",""
"","","","","","image-keyboard-response","169","447848","0.0-144.0","5ac8328afa3b4e0001738e4e","665500ab8938657b03fbdba8","665792599ae495e94c1fe26d","495","stimuli/11100110.jpg"," ","","feedback_trial","1","","","","","","","","","","","","","","","","","","","","",""
"","","","","","image-keyboard-response","170","451160","0.0-145.0","5ac8328afa3b4e0001738e4e","665500ab8938657b03fbdba8","665792599ae495e94c1fe26d","3311","stimuli/0111010.jpg","0","","prediction_trial","0","","true","","0","true","true","false","false","false","false","[1,2,0]","111","010","1","","","","","","",""
"","","","","","image-keyboard-response","171","451840","0.0-146.0","5ac8328afa3b4e0001738e4e","665500ab8938657b03fbdba8","665792599ae495e94c1fe26d","679","stimuli/01110100.jpg"," ","","feedback_trial","1","","","","","","","","","","","","","","","","","","","","",""
"","","","","","image-keyboard-response","172","453560","0.0-147.0","5ac8328afa3b4e0001738e4e","665500ab8938657b03fbdba8","665792599ae495e94c1fe26d","1719","stimuli/2000101.jpg","0","","prediction_trial","2","","false","","2","false","false","true","true","false","false","[2]","000","101","0","","","","","","",""
"","","","","","image-keyboard-response","173","454072","0.0-148.0","5ac8328afa3b4e0001738e4e","665500ab8938657b03fbdba8","665792599ae495e94c1fe26d","511","stimuli/20001012.jpg"," ","","feedback_trial","2","","","","","","","","","","","","","","","","","","","","",""
"","","","","","image-keyboard-response","174","455400","0.0-149.0","5ac8328afa3b4e0001738e4e","665500ab8938657b03fbdba8","665792599ae495e94c1fe26d","1328","stimuli/2000000.jpg","2","","prediction_trial","2","","true","","2","true","true","true","true","true","true","[2]","000","000","1","","","","","","",""
"","","","","","image-keyboard-response","175","455824","0.0-150.0","5ac8328afa3b4e0001738e4e","665500ab8938657b03fbdba8","665792599ae495e94c1fe26d","423","stimuli/20000002.jpg"," ","","feedback_trial","2","","","","","","","","","","","","","","","","","","","","",""
"","","","","","image-keyboard-response","176","457272","0.0-151.0","5ac8328afa3b4e0001738e4e","665500ab8938657b03fbdba8","665792599ae495e94c1fe26d","1448","stimuli/0011101.jpg","2","","prediction_trial","0","","false","","0","false","false","true","true","false","false","[0]","011","101","0","","","","","","",""
"","","","","","image-keyboard-response","177","457792","0.0-152.0","5ac8328afa3b4e0001738e4e","665500ab8938657b03fbdba8","665792599ae495e94c1fe26d","519","stimuli/00111010.jpg"," ","","feedback_trial","0","","","","","","","","","","","","","","","","","","","","",""
"","","","","","image-keyboard-response","178","459000","0.0-153.0","5ac8328afa3b4e0001738e4e","665500ab8938657b03fbdba8","665792599ae495e94c1fe26d","1208","stimuli/0010100.jpg","0","","prediction_trial","0","","true","","0","false","true","true","true","false","true","[0]","010","100","1","","","","","","",""
"","","","","","image-keyboard-response","179","459681","0.0-154.0","5ac8328afa3b4e0001738e4e","665500ab8938657b03fbdba8","665792599ae495e94c1fe26d","680","stimuli/00101000.jpg"," ","","feedback_trial","0","","","","","","","","","","","","","","","","","","","","",""
"","","","","","image-keyboard-response","180","461792","0.0-155.0","5ac8328afa3b4e0001738e4e","665500ab8938657b03fbdba8","665792599ae495e94c1fe26d","2111","stimuli/0001011.jpg","0","","prediction_trial","0","","true","","0","true","true","true","true","true","true","[0]","001","011","1","","","","","","",""
"","","","","","image-keyboard-response","181","462512","0.0-156.0","5ac8328afa3b4e0001738e4e","665500ab8938657b03fbdba8","665792599ae495e94c1fe26d","719","stimuli/00010110.jpg"," ","","feedback_trial","0","","","","","","","","","","","","","","","","","","","","",""
"","","","","","image-keyboard-response","182","463432","0.0-157.0","5ac8328afa3b4e0001738e4e","665500ab8938657b03fbdba8","665792599ae495e94c1fe26d","919","stimuli/2000010.jpg","2","","prediction_trial","2","","true","","2","true","true","true","true","true","true","[2]","000","010","1","","","","","","",""
"","","","","","image-keyboard-response","183","464065","0.0-158.0","5ac8328afa3b4e0001738e4e","665500ab8938657b03fbdba8","665792599ae495e94c1fe26d","632","stimuli/20000102.jpg"," ","","feedback_trial","2","","","","","","","","","","","","","","","","","","","","",""
"","","","","","image-keyboard-response","184","465592","0.0-159.0","5ac8328afa3b4e0001738e4e","665500ab8938657b03fbdba8","665792599ae495e94c1fe26d","1527","stimuli/0111101.jpg","0","","prediction_trial","2","","false","","0","false","false","false","false","false","false","[1,0,2]","111","101","0","","","","","","",""
"","","","","","image-keyboard-response","185","466072","0.0-160.0","5ac8328afa3b4e0001738e4e","665500ab8938657b03fbdba8","665792599ae495e94c1fe26d","479","stimuli/01111012.jpg"," ","","feedback_trial","1","","","","","","","","","","","","","","","","","","","","",""
"","","","","","image-keyboard-response","186","466941","0.0-161.0","5ac8328afa3b4e0001738e4e","665500ab8938657b03fbdba8","665792599ae495e94c1fe26d","868","stimuli/2100100.jpg","2","","prediction_trial","2","","true","","2","true","true","true","true","true","true","[2]","100","100","1","","","","","","",""
"","","","","","image-keyboard-response","187","467464","0.0-162.0","5ac8328afa3b4e0001738e4e","665500ab8938657b03fbdba8","665792599ae495e94c1fe26d","523","stimuli/21001002.jpg"," ","","feedback_trial","2","","","","","","","","","","","","","","","","","","","","",""
"","","","","","image-keyboard-response","188","468232","0.0-163.0","5ac8328afa3b4e0001738e4e","665500ab8938657b03fbdba8","665792599ae495e94c1fe26d","767","stimuli/2010110.jpg","2","","prediction_trial","2","","true","","2","true","true","true","true","true","true","[2]","010","110","1","","","","","","",""
"","","","","","image-keyboard-response","189","468728","0.0-164.0","5ac8328afa3b4e0001738e4e","665500ab8938657b03fbdba8","665792599ae495e94c1fe26d","495","stimuli/20101102.jpg"," ","","feedback_trial","2","","","","","","","","","","","","","","","","","","","","",""
"","","","","","image-keyboard-response","190","470128","0.0-165.0","5ac8328afa3b4e0001738e4e","665500ab8938657b03fbdba8","665792599ae495e94c1fe26d","1400","stimuli/0010101.jpg","0","","prediction_trial","0","","true","","0","false","false","true","true","false","false","[0]","010","101","1","","","","","","",""
"","","","","","image-keyboard-response","191","470856","0.0-166.0","5ac8328afa3b4e0001738e4e","665500ab8938657b03fbdba8","665792599ae495e94c1fe26d","727","stimuli/00101010.jpg"," ","","feedback_trial","0","","","","","","","","","","","","","","","","","","","","",""
"","","","","","image-keyboard-response","192","473176","0.0-167.0","5ac8328afa3b4e0001738e4e","665500ab8938657b03fbdba8","665792599ae495e94c1fe26d","2319","stimuli/0001100.jpg","0","","prediction_trial","0","","true","","0","false","true","true","true","false","true","[0]","001","100","1","","","","","","",""
"","","","","","image-keyboard-response","193","473929","0.0-168.0","5ac8328afa3b4e0001738e4e","665500ab8938657b03fbdba8","665792599ae495e94c1fe26d","752","stimuli/00011000.jpg"," ","","feedback_trial","0","","","","","","","","","","","","","","","","","","","","",""
"","","","","","image-keyboard-response","194","474864","0.0-169.0","5ac8328afa3b4e0001738e4e","665500ab8938657b03fbdba8","665792599ae495e94c1fe26d","935","stimuli/2000001.jpg","2","","prediction_trial","2","","true","","2","false","true","true","true","false","true","[2]","000","001","1","","","","","","",""
"","","","","","image-keyboard-response","195","475472","0.0-170.0","5ac8328afa3b4e0001738e4e","665500ab8938657b03fbdba8","665792599ae495e94c1fe26d","607","stimuli/20000012.jpg"," ","","feedback_trial","2","","","","","","","","","","","","","","","","","","","","",""
"","","","","","image-keyboard-response","196","476736","0.0-171.0","5ac8328afa3b4e0001738e4e","665500ab8938657b03fbdba8","665792599ae495e94c1fe26d","1263","stimuli/1111011.jpg","1","","prediction_trial","1","","true","","1","false","false","false","false","false","false","[1,0,2]","111","011","1","","","","","","",""
"","","","","","image-keyboard-response","197","477264","0.0-172.0","5ac8328afa3b4e0001738e4e","665500ab8938657b03fbdba8","665792599ae495e94c1fe26d","527","stimuli/11110111.jpg"," ","","feedback_trial","1","","","","","","","","","","","","","","","","","","","","",""
"","","","","","image-keyboard-response","198","478544","0.0-173.0","5ac8328afa3b4e0001738e4e","665500ab8938657b03fbdba8","665792599ae495e94c1fe26d","1279","stimuli/2111010.jpg","2","","prediction_trial","1","","false","","2","true","true","false","false","false","false","[1,0,2]","111","010","0","","","","","","",""
"","","","","","image-keyboard-response","199","479560","0.0-174.0","5ac8328afa3b4e0001738e4e","665500ab8938657b03fbdba8","665792599ae495e94c1fe26d","1015","stimuli/21110101.jpg"," ","","feedback_trial","1","","","","","","","","","","","","","","","","","","","","",""
"","","","","","image-keyboard-response","200","480656","0.0-175.0","5ac8328afa3b4e0001738e4e","665500ab8938657b03fbdba8","665792599ae495e94c1fe26d","1095","stimuli/2101101.jpg","0","","prediction_trial","0","","true","","2","false","false","false","false","false","false","[2,0]","101","101","1","","","","","","",""
"","","","","","image-keyboard-response","201","481200","0.0-176.0","5ac8328afa3b4e0001738e4e","665500ab8938657b03fbdba8","665792599ae495e94c1fe26d","544","stimuli/21011010.jpg"," ","","feedback_trial","2","","","","","","","","","","","","","","","","","","","","",""
"","","","","","image-keyboard-response","202","483093","0.0-177.0","5ac8328afa3b4e0001738e4e","665500ab8938657b03fbdba8","665792599ae495e94c1fe26d","1893","stimuli/0011100.jpg","0","","prediction_trial","0","","true","","0","false","true","true","true","false","true","[0]","011","100","1","","","","","","",""
"","","","","","image-keyboard-response","203","483576","0.0-178.0","5ac8328afa3b4e0001738e4e","665500ab8938657b03fbdba8","665792599ae495e94c1fe26d","483","stimuli/00111000.jpg"," ","","feedback_trial","0","","","","","","","","","","","","","","","","","","","","",""
"","","","","","image-keyboard-response","204","484632","0.0-179.0","5ac8328afa3b4e0001738e4e","665500ab8938657b03fbdba8","665792599ae495e94c1fe26d","1055","stimuli/1100100.jpg","1","","prediction_trial","1","","true","","1","true","true","true","true","true","true","[1]","100","100","1","","","","","","",""
"","","","","","image-keyboard-response","205","485072","0.0-180.0","5ac8328afa3b4e0001738e4e","665500ab8938657b03fbdba8","665792599ae495e94c1fe26d","439","stimuli/11001001.jpg"," ","","feedback_trial","1","","","","","","","","","","","","","","","","","","","","",""
"","","","","","image-keyboard-response","206","486104","0.0-181.0","5ac8328afa3b4e0001738e4e","665500ab8938657b03fbdba8","665792599ae495e94c1fe26d","1031","stimuli/1010000.jpg","1","","prediction_trial","1","","true","","1","true","true","false","true","false","true","[1]","010","000","1","","","","","","",""
"","","","","","image-keyboard-response","207","486568","0.0-182.0","5ac8328afa3b4e0001738e4e","665500ab8938657b03fbdba8","665792599ae495e94c1fe26d","463","stimuli/10100001.jpg"," ","","feedback_trial","1","","","","","","","","","","","","","","","","","","","","",""
"","","","","","image-keyboard-response","208","487760","0.0-183.0","5ac8328afa3b4e0001738e4e","665500ab8938657b03fbdba8","665792599ae495e94c1fe26d","1192","stimuli/1100010.jpg","1","","prediction_trial","1","","true","","1","false","true","true","true","false","true","[1]","100","010","1","","","","","","",""
"","","","","","image-keyboard-response","209","488216","0.0-184.0","5ac8328afa3b4e0001738e4e","665500ab8938657b03fbdba8","665792599ae495e94c1fe26d","455","stimuli/11000101.jpg"," ","","feedback_trial","1","","","","","","","","","","","","","","","","","","","","",""
"","","","","","image-keyboard-response","210","489585","0.0-185.0","5ac8328afa3b4e0001738e4e","665500ab8938657b03fbdba8","665792599ae495e94c1fe26d","1368","stimuli/0010111.jpg","2","","prediction_trial","0","","false","","0","false","false","true","true","false","false","[0]","010","111","0","","","","","","",""
"","","","","","image-keyboard-response","211","490049","0.0-186.0","5ac8328afa3b4e0001738e4e","665500ab8938657b03fbdba8","665792599ae495e94c1fe26d","463","stimuli/00101110.jpg"," ","","feedback_trial","0","","","","","","","","","","","","","","","","","","","","",""
"","","","","","image-keyboard-response","212","492208","0.0-187.0","5ac8328afa3b4e0001738e4e","665500ab8938657b03fbdba8","665792599ae495e94c1fe26d","2159","stimuli/0011001.jpg","0","","prediction_trial","0","","true","","0","true","true","true","true","true","true","[0]","011","001","1","","","","","","",""
"","","","","","image-keyboard-response","213","492928","0.0-188.0","5ac8328afa3b4e0001738e4e","665500ab8938657b03fbdba8","665792599ae495e94c1fe26d","719","stimuli/00110010.jpg"," ","","feedback_trial","0","","","","","","","","","","","","","","","","","","","","",""
"","","","","","image-keyboard-response","214","496192","0.0-189.0","5ac8328afa3b4e0001738e4e","665500ab8938657b03fbdba8","665792599ae495e94c1fe26d","3264","stimuli/0110000.jpg","0","","prediction_trial","0","","true","","0","true","true","false","false","false","false","[0,1]","110","000","1","","","","","","",""
"","","","","","image-keyboard-response","215","496984","0.0-190.0","5ac8328afa3b4e0001738e4e","665500ab8938657b03fbdba8","665792599ae495e94c1fe26d","791","stimuli/01100000.jpg"," ","","feedback_trial","0","","","","","","","","","","","","","","","","","","","","",""
"","","","","","image-keyboard-response","216","498192","0.0-191.0","5ac8328afa3b4e0001738e4e","665500ab8938657b03fbdba8","665792599ae495e94c1fe26d","1207","stimuli/0110110.jpg","1","","prediction_trial","0","","false","","0","false","false","false","false","false","false","[0,1]","110","110","0","","","","","","",""
"","","","","","image-keyboard-response","217","498680","0.0-192.0","5ac8328afa3b4e0001738e4e","665500ab8938657b03fbdba8","665792599ae495e94c1fe26d","487","stimuli/01101100.jpg"," ","","feedback_trial","0","","","","","","","","","","","","","","","","","","","","",""
"","","","","","image-keyboard-response","218","499632","0.0-193.0","5ac8328afa3b4e0001738e4e","665500ab8938657b03fbdba8","665792599ae495e94c1fe26d","952","stimuli/1000101.jpg","2","","prediction_trial","1","","false","","1","true","true","true","true","true","true","[1]","000","101","0","","","","","","",""
"","","","","","image-keyboard-response","219","500120","0.0-194.0","5ac8328afa3b4e0001738e4e","665500ab8938657b03fbdba8","665792599ae495e94c1fe26d","487","stimuli/10001011.jpg"," ","","feedback_trial","1","","","","","","","","","","","","","","","","","","","","",""
"","","","","","image-keyboard-response","220","500880","0.0-195.0","5ac8328afa3b4e0001738e4e","665500ab8938657b03fbdba8","665792599ae495e94c1fe26d","760","stimuli/2011000.jpg","2","","prediction_trial","1","","false","","2","true","true","false","false","false","false","[2,1]","011","000","0","","","","","","",""
"","","","","","image-keyboard-response","221","502152","0.0-196.0","5ac8328afa3b4e0001738e4e","665500ab8938657b03fbdba8","665792599ae495e94c1fe26d","1271","stimuli/20110001.jpg"," ","","feedback_trial","2","","","","","","","","","","","","","","","","","","","","",""
"","","","","","image-keyboard-response","222","504280","0.0-197.0","5ac8328afa3b4e0001738e4e","665500ab8938657b03fbdba8","665792599ae495e94c1fe26d","2127","stimuli/1001111.jpg","0","","prediction_trial","1","","false","","1","false","false","true","true","false","false","[1]","001","111","0","","","","","","",""
"","","","","","image-keyboard-response","223","505113","0.0-198.0","5ac8328afa3b4e0001738e4e","665500ab8938657b03fbdba8","665792599ae495e94c1fe26d","832","stimuli/10011111.jpg"," ","","feedback_trial","1","","","","","","","","","","","","","","","","","","","","",""
"","","","","","image-keyboard-response","224","507488","0.0-199.0","5ac8328afa3b4e0001738e4e","665500ab8938657b03fbdba8","665792599ae495e94c1fe26d","2375","stimuli/2001011.jpg","1","","prediction_trial","2","","false","","2","false","false","false","true","false","false","[2]","001","011","0","","","","","","",""
"","","","","","image-keyboard-response","225","508440","0.0-200.0","5ac8328afa3b4e0001738e4e","665500ab8938657b03fbdba8","665792599ae495e94c1fe26d","951","stimuli/20010112.jpg"," ","","feedback_trial","2","","","","","","","","","","","","","","","","","","","","",""
"","","","","","image-keyboard-response","226","509232","0.0-201.0","5ac8328afa3b4e0001738e4e","665500ab8938657b03fbdba8","665792599ae495e94c1fe26d","791","stimuli/1010011.jpg","2","","prediction_trial","1","","false","","1","false","false","false","true","false","false","[1]","010","011","0","","","","","","",""
"","","","","","image-keyboard-response","227","509801","0.0-202.0","5ac8328afa3b4e0001738e4e","665500ab8938657b03fbdba8","665792599ae495e94c1fe26d","568","stimuli/10100111.jpg"," ","","feedback_trial","1","","","","","","","","","","","","","","","","","","","","",""
"","","","","","image-keyboard-response","228","510560","0.0-203.0","5ac8328afa3b4e0001738e4e","665500ab8938657b03fbdba8","665792599ae495e94c1fe26d","759","stimuli/0000100.jpg","0","","prediction_trial","0","","true","","0","false","true","true","true","false","true","[0]","000","100","1","","","","","","",""
"","","","","","image-keyboard-response","229","511136","0.0-204.0","5ac8328afa3b4e0001738e4e","665500ab8938657b03fbdba8","665792599ae495e94c1fe26d","575","stimuli/00001000.jpg"," ","","feedback_trial","0","","","","","","","","","","","","","","","","","","","","",""
"","","","","","image-keyboard-response","230","511888","0.0-205.0","5ac8328afa3b4e0001738e4e","665500ab8938657b03fbdba8","665792599ae495e94c1fe26d","751","stimuli/2001000.jpg","2","","prediction_trial","2","","true","","2","true","true","false","true","false","true","[2]","001","000","1","","","","","","",""
"","","","","","image-keyboard-response","231","512417","0.0-206.0","5ac8328afa3b4e0001738e4e","665500ab8938657b03fbdba8","665792599ae495e94c1fe26d","528","stimuli/20010002.jpg"," ","","feedback_trial","2","","","","","","","","","","","","","","","","","","","","",""
"","","","","","image-keyboard-response","232","513344","0.0-207.0","5ac8328afa3b4e0001738e4e","665500ab8938657b03fbdba8","665792599ae495e94c1fe26d","926","stimuli/1111001.jpg","1","","prediction_trial","0","","false","","1","true","true","false","false","false","false","[1,0,2]","111","001","0","","","","","","",""
"","","","","","image-keyboard-response","233","514120","0.0-208.0","5ac8328afa3b4e0001738e4e","665500ab8938657b03fbdba8","665792599ae495e94c1fe26d","775","stimuli/11110010.jpg"," ","","feedback_trial","1","","","","","","","","","","","","","","","","","","","","",""
"","","","","","image-keyboard-response","234","514880","0.0-209.0","5ac8328afa3b4e0001738e4e","665500ab8938657b03fbdba8","665792599ae495e94c1fe26d","759","stimuli/0000000.jpg","0","","prediction_trial","0","","true","","0","true","true","true","true","true","true","[0]","000","000","1","","","","","","",""
"","","","","","image-keyboard-response","235","515368","0.0-210.0","5ac8328afa3b4e0001738e4e","665500ab8938657b03fbdba8","665792599ae495e94c1fe26d","487","stimuli/00000000.jpg"," ","","feedback_trial","0","","","","","","","","","","","","","","","","","","","","",""
"","","","","","image-keyboard-response","236","516056","0.0-211.0","5ac8328afa3b4e0001738e4e","665500ab8938657b03fbdba8","665792599ae495e94c1fe26d","687","stimuli/1011010.jpg","1","","prediction_trial","1","","true","","1","false","true","false","false","false","false","[1,2]","011","010","1","","","","","","",""
"","","","","","image-keyboard-response","237","516536","0.0-212.0","5ac8328afa3b4e0001738e4e","665500ab8938657b03fbdba8","665792599ae495e94c1fe26d","479","stimuli/10110101.jpg"," ","","feedback_trial","1","","","","","","","","","","","","","","","","","","","","",""
"","","","","","image-keyboard-response","238","518136","0.0-213.0","5ac8328afa3b4e0001738e4e","665500ab8938657b03fbdba8","665792599ae495e94c1fe26d","1599","stimuli/1010111.jpg","2","","prediction_trial","1","","false","","1","false","false","false","true","false","false","[1]","010","111","0","","","","","","",""
"","","","","","image-keyboard-response","239","518608","0.0-214.0","5ac8328afa3b4e0001738e4e","665500ab8938657b03fbdba8","665792599ae495e94c1fe26d","471","stimuli/10101111.jpg"," ","","feedback_trial","1","","","","","","","","","","","","","","","","","","","","",""
"","","","","","image-keyboard-response","240","519712","0.0-215.0","5ac8328afa3b4e0001738e4e","665500ab8938657b03fbdba8","665792599ae495e94c1fe26d","1103","stimuli/1001001.jpg","0","","prediction_trial","1","","false","","1","true","true","true","true","true","true","[1]","001","001","0","","","","","","",""
"","","","","","image-keyboard-response","241","520625","0.0-216.0","5ac8328afa3b4e0001738e4e","665500ab8938657b03fbdba8","665792599ae495e94c1fe26d","912","stimuli/10010011.jpg"," ","","feedback_trial","1","","","","","","","","","","","","","","","","","","","","",""
"","","","","","image-keyboard-response","242","521881","0.0-217.0","5ac8328afa3b4e0001738e4e","665500ab8938657b03fbdba8","665792599ae495e94c1fe26d","1255","stimuli/1111101.jpg","1","","prediction_trial","2","","false","","1","true","true","false","false","false","false","[1,0,2]","111","101","0","","","","","","",""
"","","","","","image-keyboard-response","243","522585","0.0-218.0","5ac8328afa3b4e0001738e4e","665500ab8938657b03fbdba8","665792599ae495e94c1fe26d","703","stimuli/11111012.jpg"," ","","feedback_trial","1","","","","","","","","","","","","","","","","","","","","",""
"","","","","","image-keyboard-response","244","524785","0.0-219.0","5ac8328afa3b4e0001738e4e","665500ab8938657b03fbdba8","665792599ae495e94c1fe26d","2199","stimuli/2010001.jpg","2","","prediction_trial","2","","true","","2","false","true","true","true","false","true","[2]","010","001","1","","","","","","",""
"","","","","","image-keyboard-response","245","525672","0.0-220.0","5ac8328afa3b4e0001738e4e","665500ab8938657b03fbdba8","665792599ae495e94c1fe26d","887","stimuli/20100012.jpg"," ","","feedback_trial","2","","","","","","","","","","","","","","","","","","","","",""
"","","","","","image-keyboard-response","246","527160","0.0-221.0","5ac8328afa3b4e0001738e4e","665500ab8938657b03fbdba8","665792599ae495e94c1fe26d","1487","stimuli/2000110.jpg","2","","prediction_trial","2","","true","","2","true","true","true","true","true","true","[2]","000","110","1","","","","","","",""
"","","","","","image-keyboard-response","247","527704","0.0-222.0","5ac8328afa3b4e0001738e4e","665500ab8938657b03fbdba8","665792599ae495e94c1fe26d","543","stimuli/20001102.jpg"," ","","feedback_trial","2","","","","","","","","","","","","","","","","","","","","",""
"","","","","","image-keyboard-response","248","528872","0.0-223.0","5ac8328afa3b4e0001738e4e","665500ab8938657b03fbdba8","665792599ae495e94c1fe26d","1168","stimuli/2110011.jpg","1","","prediction_trial","2","","false","","2","false","false","true","true","false","false","[2]","110","011","0","","","","","","",""
"","","","","","image-keyboard-response","249","529335","0.0-224.0","5ac8328afa3b4e0001738e4e","665500ab8938657b03fbdba8","665792599ae495e94c1fe26d","462","stimuli/21100112.jpg"," ","","feedback_trial","2","","","","","","","","","","","","","","","","","","","","",""
"","","","","","image-keyboard-response","250","530256","0.0-225.0","5ac8328afa3b4e0001738e4e","665500ab8938657b03fbdba8","665792599ae495e94c1fe26d","921","stimuli/0000001.jpg","0","","prediction_trial","0","","true","","0","true","true","true","true","true","true","[0]","000","001","1","","","","","","",""
"","","","","","image-keyboard-response","251","530664","0.0-226.0","5ac8328afa3b4e0001738e4e","665500ab8938657b03fbdba8","665792599ae495e94c1fe26d","407","stimuli/00000010.jpg"," ","","feedback_trial","0","","","","","","","","","","","","","","","","","","","","",""
"","","","","","image-keyboard-response","252","531392","0.0-227.0","5ac8328afa3b4e0001738e4e","665500ab8938657b03fbdba8","665792599ae495e94c1fe26d","728","stimuli/2101110.jpg","2","","prediction_trial","2","","true","","2","true","true","false","false","false","false","[2,0]","101","110","1","","","","","","",""
"","","","","","image-keyboard-response","253","531960","0.0-228.0","5ac8328afa3b4e0001738e4e","665500ab8938657b03fbdba8","665792599ae495e94c1fe26d","567","stimuli/21011102.jpg"," ","","feedback_trial","2","","","","","","","","","","","","","","","","","","","","",""
"","","","","","image-keyboard-response","254","533024","0.0-229.0","5ac8328afa3b4e0001738e4e","665500ab8938657b03fbdba8","665792599ae495e94c1fe26d","1064","stimuli/1011011.jpg","1","","prediction_trial","2","","false","","1","false","false","false","false","false","false","[1,2]","011","011","0","","","","","","",""
"","","","","","image-keyboard-response","255","533432","0.0-230.0","5ac8328afa3b4e0001738e4e","665500ab8938657b03fbdba8","665792599ae495e94c1fe26d","407","stimuli/10110112.jpg"," ","","feedback_trial","1","","","","","","","","","","","","","","","","","","","","",""
"","","","","","image-keyboard-response","256","534704","0.0-231.0","5ac8328afa3b4e0001738e4e","665500ab8938657b03fbdba8","665792599ae495e94c1fe26d","1271","stimuli/0100110.jpg","0","","prediction_trial","0","","true","","0","false","false","false","true","false","false","[0]","100","110","1","","","","","","",""
"","","","","","image-keyboard-response","257","535209","0.0-232.0","5ac8328afa3b4e0001738e4e","665500ab8938657b03fbdba8","665792599ae495e94c1fe26d","504","stimuli/01001100.jpg"," ","","feedback_trial","0","","","","","","","","","","","","","","","","","","","","",""
"","","","","","image-keyboard-response","258","536288","0.0-233.0","5ac8328afa3b4e0001738e4e","665500ab8938657b03fbdba8","665792599ae495e94c1fe26d","1078","stimuli/0010011.jpg","0","","prediction_trial","0","","true","","0","true","true","true","true","true","true","[0]","010","011","1","","","","","","",""
"","","","","","image-keyboard-response","259","536832","0.0-234.0","5ac8328afa3b4e0001738e4e","665500ab8938657b03fbdba8","665792599ae495e94c1fe26d","543","stimuli/00100110.jpg"," ","","feedback_trial","0","","","","","","","","","","","","","","","","","","","","",""
"","","","","","image-keyboard-response","260","538280","0.0-235.0","5ac8328afa3b4e0001738e4e","665500ab8938657b03fbdba8","665792599ae495e94c1fe26d","1447","stimuli/2100000.jpg","2","","prediction_trial","2","","true","","2","true","true","true","true","true","true","[2]","100","000","1","","","","","","",""
"","","","","","image-keyboard-response","261","539008","0.0-236.0","5ac8328afa3b4e0001738e4e","665500ab8938657b03fbdba8","665792599ae495e94c1fe26d","727","stimuli/21000002.jpg"," ","","feedback_trial","2","","","","","","","","","","","","","","","","","","","","",""
"","","","","","image-keyboard-response","262","540528","0.0-237.0","5ac8328afa3b4e0001738e4e","665500ab8938657b03fbdba8","665792599ae495e94c1fe26d","1519","stimuli/1100110.jpg","1","","prediction_trial","1","","true","","1","false","false","true","true","false","false","[1]","100","110","1","","","","","","",""
"","","","","","image-keyboard-response","263","541016","0.0-238.0","5ac8328afa3b4e0001738e4e","665500ab8938657b03fbdba8","665792599ae495e94c1fe26d","488","stimuli/11001101.jpg"," ","","feedback_trial","1","","","","","","","","","","","","","","","","","","","","",""
"","","","","","image-keyboard-response","264","542008","0.0-239.0","5ac8328afa3b4e0001738e4e","665500ab8938657b03fbdba8","665792599ae495e94c1fe26d","991","stimuli/2100110.jpg","2","","prediction_trial","2","","true","","2","true","true","true","true","true","true","[2]","100","110","1","","","","","","",""
"","","","","","image-keyboard-response","265","542672","0.0-240.0","5ac8328afa3b4e0001738e4e","665500ab8938657b03fbdba8","665792599ae495e94c1fe26d","663","stimuli/21001102.jpg"," ","","feedback_trial","2","","","","","","","","","","","","","","","","","","","","",""
"","","","","","image-keyboard-response","266","543872","0.0-241.0","5ac8328afa3b4e0001738e4e","665500ab8938657b03fbdba8","665792599ae495e94c1fe26d","1199","stimuli/0001111.jpg","0","","prediction_trial","0","","true","","0","false","false","true","true","false","false","[0]","001","111","1","","","","","","",""
"","","","","","image-keyboard-response","267","544392","0.0-242.0","5ac8328afa3b4e0001738e4e","665500ab8938657b03fbdba8","665792599ae495e94c1fe26d","520","stimuli/00011110.jpg"," ","","feedback_trial","0","","","","","","","","","","","","","","","","","","","","",""
"","","","","","image-keyboard-response","268","545848","0.0-243.0","5ac8328afa3b4e0001738e4e","665500ab8938657b03fbdba8","665792599ae495e94c1fe26d","1455","stimuli/1101001.jpg","1","","prediction_trial","1","","true","","1","true","true","true","true","true","true","[1]","101","001","1","","","","","","",""
"","","","","","image-keyboard-response","269","546335","0.0-244.0","5ac8328afa3b4e0001738e4e","665500ab8938657b03fbdba8","665792599ae495e94c1fe26d","487","stimuli/11010011.jpg"," ","","feedback_trial","1","","","","","","","","","","","","","","","","","","","","",""
"","","","","","image-keyboard-response","270","547304","0.0-245.0","5ac8328afa3b4e0001738e4e","665500ab8938657b03fbdba8","665792599ae495e94c1fe26d","969","stimuli/1010010.jpg","1","","prediction_trial","1","","true","","1","false","true","false","true","false","true","[1]","010","010","1","","","","","","",""
"","","","","","image-keyboard-response","271","547688","0.0-246.0","5ac8328afa3b4e0001738e4e","665500ab8938657b03fbdba8","665792599ae495e94c1fe26d","383","stimuli/10100101.jpg"," ","","feedback_trial","1","","","","","","","","","","","","","","","","","","","","",""
"","","","","","image-keyboard-response","272","548456","0.0-247.0","5ac8328afa3b4e0001738e4e","665500ab8938657b03fbdba8","665792599ae495e94c1fe26d","767","stimuli/0101001.jpg","0","","prediction_trial","2","","false","","0","true","true","false","false","false","false","[2,0]","101","001","0","","","","","","",""
"","","","","","image-keyboard-response","273","548776","0.0-248.0","5ac8328afa3b4e0001738e4e","665500ab8938657b03fbdba8","665792599ae495e94c1fe26d","320","stimuli/01010012.jpg"," ","","feedback_trial","2","","","","","","","","","","","","","","","","","","","","",""
"","","","","","image-keyboard-response","274","549792","0.0-249.0","5ac8328afa3b4e0001738e4e","665500ab8938657b03fbdba8","665792599ae495e94c1fe26d","1015","stimuli/1101110.jpg","1","","prediction_trial","1","","true","","1","false","false","true","true","false","false","[1]","101","110","1","","","","","","",""
"","","","","","image-keyboard-response","275","550456","0.0-250.0","5ac8328afa3b4e0001738e4e","665500ab8938657b03fbdba8","665792599ae495e94c1fe26d","663","stimuli/11011101.jpg"," ","","feedback_trial","1","","","","","","","","","","","","","","","","","","","","",""
"","","","","","image-keyboard-response","276","551368","0.0-251.0","5ac8328afa3b4e0001738e4e","665500ab8938657b03fbdba8","665792599ae495e94c1fe26d","912","stimuli/2100001.jpg","2","","prediction_trial","2","","true","","2","false","true","true","true","false","true","[2]","100","001","1","","","","","","",""
"","","","","","image-keyboard-response","277","552040","0.0-252.0","5ac8328afa3b4e0001738e4e","665500ab8938657b03fbdba8","665792599ae495e94c1fe26d","671","stimuli/21000012.jpg"," ","","feedback_trial","2","","","","","","","","","","","","","","","","","","","","",""
"","","","","","image-keyboard-response","278","552896","0.0-253.0","5ac8328afa3b4e0001738e4e","665500ab8938657b03fbdba8","665792599ae495e94c1fe26d","855","stimuli/1111000.jpg","1","","prediction_trial","1","","true","","1","true","true","false","false","false","false","[0,1,2]","111","000","1","","","","","","",""
"","","","","","image-keyboard-response","279","553336","0.0-254.0","5ac8328afa3b4e0001738e4e","665500ab8938657b03fbdba8","665792599ae495e94c1fe26d","439","stimuli/11110001.jpg"," ","","feedback_trial","0","","","","","","","","","","","","","","","","","","","","",""
"","","","","","image-keyboard-response","280","554152","0.0-255.0","5ac8328afa3b4e0001738e4e","665500ab8938657b03fbdba8","665792599ae495e94c1fe26d","815","stimuli/0111000.jpg","0","","prediction_trial","0","","true","","0","true","true","false","false","false","false","[2,0,1]","111","000","1","","","","","","",""
"","","","","","image-keyboard-response","281","554576","0.0-256.0","5ac8328afa3b4e0001738e4e","665500ab8938657b03fbdba8","665792599ae495e94c1fe26d","423","stimuli/01110000.jpg"," ","","feedback_trial","2","","","","","","","","","","","","","","","","","","","","",""
"","","","","","image-keyboard-response","282","555864","0.0-257.0","5ac8328afa3b4e0001738e4e","665500ab8938657b03fbdba8","665792599ae495e94c1fe26d","1287","stimuli/1100001.jpg","1","","prediction_trial","1","","true","","1","true","true","true","true","true","true","[1]","100","001","1","","","","","","",""
"","","","","","image-keyboard-response","283","556320","0.0-258.0","5ac8328afa3b4e0001738e4e","665500ab8938657b03fbdba8","665792599ae495e94c1fe26d","455","stimuli/11000011.jpg"," ","","feedback_trial","1","","","","","","","","","","","","","","","","","","","","",""
"","","","","","image-keyboard-response","284","557848","0.0-259.0","5ac8328afa3b4e0001738e4e","665500ab8938657b03fbdba8","665792599ae495e94c1fe26d","1527","stimuli/2111011.jpg","1","","prediction_trial","1","","true","","2","false","false","false","false","false","false","[0,2,1]","111","011","1","","","","","","",""
"","","","","","image-keyboard-response","285","558328","0.0-260.0","5ac8328afa3b4e0001738e4e","665500ab8938657b03fbdba8","665792599ae495e94c1fe26d","479","stimuli/21110111.jpg"," ","","feedback_trial","0","","","","","","","","","","","","","","","","","","","","",""
"","","","","","image-keyboard-response","286","559152","0.0-261.0","5ac8328afa3b4e0001738e4e","665500ab8938657b03fbdba8","665792599ae495e94c1fe26d","823","stimuli/0111001.jpg","0","","prediction_trial","0","","true","","0","true","true","false","false","false","false","[1,0,2]","111","001","1","","","","","","",""
"","","","","","image-keyboard-response","287","559584","0.0-262.0","5ac8328afa3b4e0001738e4e","665500ab8938657b03fbdba8","665792599ae495e94c1fe26d","431","stimuli/01110010.jpg"," ","","feedback_trial","1","","","","","","","","","","","","","","","","","","","","",""
"","","","","","image-keyboard-response","288","560840","0.0-263.0","5ac8328afa3b4e0001738e4e","665500ab8938657b03fbdba8","665792599ae495e94c1fe26d","1255","stimuli/1110001.jpg","1","","prediction_trial","0","","false","","1","true","true","false","false","false","false","[1,0]","110","001","0","","","","","","",""
"","","","","","image-keyboard-response","289","561568","0.0-264.0","5ac8328afa3b4e0001738e4e","665500ab8938657b03fbdba8","665792599ae495e94c1fe26d","727","stimuli/11100010.jpg"," ","","feedback_trial","1","","","","","","","","","","","","","","","","","","","","",""
"","","","","","image-keyboard-response","290","563232","0.0-265.0","5ac8328afa3b4e0001738e4e","665500ab8938657b03fbdba8","665792599ae495e94c1fe26d","1663","stimuli/1100101.jpg","2","","prediction_trial","1","","false","","1","true","true","true","true","true","true","[1]","100","101","0","","","","","","",""
"","","","","","image-keyboard-response","291","563712","0.0-266.0","5ac8328afa3b4e0001738e4e","665500ab8938657b03fbdba8","665792599ae495e94c1fe26d","479","stimuli/11001011.jpg"," ","","feedback_trial","1","","","","","","","","","","","","","","","","","","","","",""
"","","","","","image-keyboard-response","292","565240","0.0-267.0","5ac8328afa3b4e0001738e4e","665500ab8938657b03fbdba8","665792599ae495e94c1fe26d","1527","stimuli/2001010.jpg","2","","prediction_trial","2","","true","","2","true","true","false","true","false","true","[2]","001","010","1","","","","","","",""
"","","","","","image-keyboard-response","293","565752","0.0-268.0","5ac8328afa3b4e0001738e4e","665500ab8938657b03fbdba8","665792599ae495e94c1fe26d","511","stimuli/20010102.jpg"," ","","feedback_trial","2","","","","","","","","","","","","","","","","","","","","",""
"","","","","","image-keyboard-response","294","566840","0.0-269.0","5ac8328afa3b4e0001738e4e","665500ab8938657b03fbdba8","665792599ae495e94c1fe26d","1088","stimuli/0111110.jpg","0","","prediction_trial","0","","true","","0","false","false","false","false","false","false","[2,0,1]","111","110","1","","","","","","",""
"","","","","","image-keyboard-response","295","567304","0.0-270.0","5ac8328afa3b4e0001738e4e","665500ab8938657b03fbdba8","665792599ae495e94c1fe26d","463","stimuli/01111100.jpg"," ","","feedback_trial","2","","","","","","","","","","","","","","","","","","","","",""
"","","","","","image-keyboard-response","296","568528","0.0-271.0","5ac8328afa3b4e0001738e4e","665500ab8938657b03fbdba8","665792599ae495e94c1fe26d","1223","stimuli/2000100.jpg","2","","prediction_trial","2","","true","","2","true","true","true","true","true","true","[2]","000","100","1","","","","","","",""
"","","","","","image-keyboard-response","297","569560","0.0-272.0","5ac8328afa3b4e0001738e4e","665500ab8938657b03fbdba8","665792599ae495e94c1fe26d","1032","stimuli/20001002.jpg"," ","","feedback_trial","2","","","","","","","","","","","","","","","","","","","","",""
"","","","","","image-keyboard-response","298","570768","0.0-273.0","5ac8328afa3b4e0001738e4e","665500ab8938657b03fbdba8","665792599ae495e94c1fe26d","1207","stimuli/1111100.jpg","1","","prediction_trial","0","","false","","1","true","true","false","false","false","false","[2,0,1]","111","100","0","","","","","","",""
"","","","","","image-keyboard-response","299","571744","0.0-274.0","5ac8328afa3b4e0001738e4e","665500ab8938657b03fbdba8","665792599ae495e94c1fe26d","975","stimuli/11111000.jpg"," ","","feedback_trial","2","","","","","","","","","","","","","","","","","","","","",""
"","","","","","image-keyboard-response","300","573504","0.0-275.0","5ac8328afa3b4e0001738e4e","665500ab8938657b03fbdba8","665792599ae495e94c1fe26d","1759","stimuli/2011011.jpg","1","","prediction_trial","1","","true","","2","false","false","false","false","false","false","[2,1]","011","011","1","","","","","","",""
"","","","","","image-keyboard-response","301","574320","0.0-276.0","5ac8328afa3b4e0001738e4e","665500ab8938657b03fbdba8","665792599ae495e94c1fe26d","815","stimuli/20110111.jpg"," ","","feedback_trial","2","","","","","","","","","","","","","","","","","","","","",""
"","","","","","image-keyboard-response","302","576088","0.0-277.0","5ac8328afa3b4e0001738e4e","665500ab8938657b03fbdba8","665792599ae495e94c1fe26d","1767","stimuli/1101011.jpg","2","","prediction_trial","1","","false","","1","false","false","true","true","false","false","[1]","101","011","0","","","","","","",""
"","","","","","image-keyboard-response","303","576608","0.0-278.0","5ac8328afa3b4e0001738e4e","665500ab8938657b03fbdba8","665792599ae495e94c1fe26d","519","stimuli/11010111.jpg"," ","","feedback_trial","1","","","","","","","","","","","","","","","","","","","","",""
"","","","","","image-keyboard-response","304","577480","0.0-279.0","5ac8328afa3b4e0001738e4e","665500ab8938657b03fbdba8","665792599ae495e94c1fe26d","871","stimuli/0011110.jpg","1","","prediction_trial","0","","false","","0","false","false","true","true","false","false","[0]","011","110","0","","","","","","",""
"","","","","","image-keyboard-response","305","578280","0.0-280.0","5ac8328afa3b4e0001738e4e","665500ab8938657b03fbdba8","665792599ae495e94c1fe26d","799","stimuli/00111100.jpg"," ","","feedback_trial","0","","","","","","","","","","","","","","","","","","","","",""
"","","","","","image-keyboard-response","306","579184","0.0-281.0","5ac8328afa3b4e0001738e4e","665500ab8938657b03fbdba8","665792599ae495e94c1fe26d","904","stimuli/0011111.jpg","0","","prediction_trial","0","","true","","0","false","false","true","true","false","false","[0]","011","111","1","","","","","","",""
"","","","","","image-keyboard-response","307","580063","0.0-282.0","5ac8328afa3b4e0001738e4e","665500ab8938657b03fbdba8","665792599ae495e94c1fe26d","878","stimuli/00111110.jpg"," ","","feedback_trial","0","","","","","","","","","","","","","","","","","","","","",""
"","","","","","image-keyboard-response","308","580785","0.0-283.0","5ac8328afa3b4e0001738e4e","665500ab8938657b03fbdba8","665792599ae495e94c1fe26d","721","stimuli/1011000.jpg","1","","prediction_trial","1","","true","","1","true","true","false","false","false","false","[2,1]","011","000","1","","","","","","",""
"","","","","","image-keyboard-response","309","581231","0.0-284.0","5ac8328afa3b4e0001738e4e","665500ab8938657b03fbdba8","665792599ae495e94c1fe26d","446","stimuli/10110001.jpg"," ","","feedback_trial","2","","","","","","","","","","","","","","","","","","","","",""
"","","","","","image-keyboard-response","310","582360","0.0-285.0","5ac8328afa3b4e0001738e4e","665500ab8938657b03fbdba8","665792599ae495e94c1fe26d","1129","stimuli/1000000.jpg","1","","prediction_trial","1","","true","","1","true","true","true","true","true","true","[1]","000","000","1","","","","","","",""
"","","","","","image-keyboard-response","311","582968","0.0-286.0","5ac8328afa3b4e0001738e4e","665500ab8938657b03fbdba8","665792599ae495e94c1fe26d","607","stimuli/10000001.jpg"," ","","feedback_trial","1","","","","","","","","","","","","","","","","","","","","",""
"","","","","","image-keyboard-response","312","584488","0.0-287.0","5ac8328afa3b4e0001738e4e","665500ab8938657b03fbdba8","665792599ae495e94c1fe26d","1519","stimuli/0101110.jpg","1","","prediction_trial","0","","false","","0","false","false","false","false","false","false","[0,2]","101","110","0","","","","","","",""
"","","","","","image-keyboard-response","313","585032","0.0-288.0","5ac8328afa3b4e0001738e4e","665500ab8938657b03fbdba8","665792599ae495e94c1fe26d","544","stimuli/01011100.jpg"," ","","feedback_trial","0","","","","","","","","","","","","","","","","","","","","",""
"","","","","","image-keyboard-response","314","585896","0.0-289.0","5ac8328afa3b4e0001738e4e","665500ab8938657b03fbdba8","665792599ae495e94c1fe26d","863","stimuli/1001011.jpg","2","","prediction_trial","1","","false","","1","false","false","true","true","false","false","[1]","001","011","0","","","","","","",""
"","","","","","image-keyboard-response","315","586864","0.0-290.0","5ac8328afa3b4e0001738e4e","665500ab8938657b03fbdba8","665792599ae495e94c1fe26d","968","stimuli/10010111.jpg"," ","","feedback_trial","1","","","","","","","","","","","","","","","","","","","","",""
"","","","","","image-keyboard-response","316","587736","0.0-291.0","5ac8328afa3b4e0001738e4e","665500ab8938657b03fbdba8","665792599ae495e94c1fe26d","871","stimuli/2111110.jpg","2","","prediction_trial","0","","false","","2","true","true","false","false","false","false","[1,2,0]","111","110","0","","","","","","",""
"","","","","","image-keyboard-response","317","588824","0.0-292.0","5ac8328afa3b4e0001738e4e","665500ab8938657b03fbdba8","665792599ae495e94c1fe26d","1087","stimuli/21111100.jpg"," ","","feedback_trial","1","","","","","","","","","","","","","","","","","","","","",""
"","","","","","survey-html-form","318","610777","0.0-293.0","5ac8328afa3b4e0001738e4e","665500ab8938657b03fbdba8","665792599ae495e94c1fe26d","21951","","{""feedback"":""If I saw the ball."",""age"":""60"",""gender"":""Female"",""other_gender"":"""",""race"":""White"",""other_race"":"""",""ethnicity"":""Non-Hispanic""}","","exit_survey","","","","","","","","","","","","","","","","If I saw the ball.","60","Non-Hispanic","Female","White","0.6319444444444444","0.6319444444444444"
