"success","timeout","failed_images","failed_audio","failed_video","trial_type","trial_index","time_elapsed","internal_node_id","prolific_id","prolific_study_id","prolific_session_id","rt","stimulus","response","view_history","trial","character_choice","stimulus_dict","accuracy","correct_response","ball_pos","ego_ball_visible","ego_can_infer","alter_ball_visible","alter_can_infer","collective_ball_visible","collective_can_infer","search_locations","alter_occluders","ego_occluders","accuracy_bool","feedback","age","ethnicity","gender","race","overall_accuracy","bonus"
"true","false","[]","[]","[]","preload","0","57675","0.0-0.0","64876e8c1a6f7c303a92351b","665500ab8938657b03fbdba8","665793123dafe137eff134c1","","","","","","","","","","","","","","","","","","","","","","","","","","",""
"true","","","","","fullscreen","1","61700","0.0-1.0","64876e8c1a6f7c303a92351b","665500ab8938657b03fbdba8","665793123dafe137eff134c1","","","","","","","","","","","","","","","","","","","","","","","","","","",""
"","","","","","html-button-response","2","81803","0.0-2.0","64876e8c1a6f7c303a92351b","665500ab8938657b03fbdba8","665793123dafe137eff134c1","20100","<p><b>Consent Form</b></p> <div style=""text-align:left;background-color:lightgrey; padding:20px; max-width:900px;""><p>Please consider this information carefully before deciding whether to participate in this research.</p> <p>The purpose of this research is to examine which factors influence social judgment and decision-making. You will be asked to make judgements about individuals and actions in social scenarios. We are simply interested in your judgement. The study will take less than 1 hour to complete, and you will receive less than $20 on Prolific. Your compensation and time commitment are specified in the study description. There are no anticipated risks associated with participating in this study. The effects of participating should be comparable to those you would ordinarily experience from viewing a computer monitor and using a mouse or keyboard for a similar amount of time. At the end of the study, we will provide an explanation of the questions that motivate this line of research and will describe the potential implications. </p><p> Your participation in this study is completely voluntary and you may refuse to participate or you may choose to withdraw at any time without penalty or loss of benefits to you which are otherwise entitled. Your participation in this study will remain confidential. No personally identifiable information will be associated with your data. Also, all analyses of the data will be averaged across all the participants, so your individual responses will never be specifically analyzed. </p><p> If you have questions or concerns about your participation or payment, or want to request a summary of research findings, please contact Dr. Jonathan Phillips at Jonathan.S.Phillips@dartmouth.edu. </p><p> Please save a copy of this form for your records. </p><p><b>Agreement: </b>The nature and purpose of this research have been sufficiently explained and I agree to participate in this study. I understand that I am free to withdraw at any time without incurring any penalty. Please consent by clicking the button below to continue. Otherwise, please exit the study at any time. </p>","0","","","","","","","","","","","","","","","","","","","","","","","",""
"","","","","","instructions","3","174123","0.0-3.0-0.0","64876e8c1a6f7c303a92351b","665500ab8938657b03fbdba8","665793123dafe137eff134c1","92321","","","[{""page_index"":0,""viewing_time"":2535},{""page_index"":1,""viewing_time"":4432},{""page_index"":2,""viewing_time"":3073},{""page_index"":3,""viewing_time"":5704},{""page_index"":4,""viewing_time"":5584},{""page_index"":5,""viewing_time"":3881},{""page_index"":6,""viewing_time"":4256},{""page_index"":7,""viewing_time"":4360},{""page_index"":8,""viewing_time"":3896},{""page_index"":9,""viewing_time"":3849},{""page_index"":10,""viewing_time"":31663},{""page_index"":11,""viewing_time"":9769},{""page_index"":12,""viewing_time"":6776},{""page_index"":13,""viewing_time"":2545}]","intro","","","","","","","","","","","","","","","","","","","","","",""
"","","","","","image-keyboard-response","4","181092","0.0-3.0-1.0","64876e8c1a6f7c303a92351b","665500ab8938657b03fbdba8","665793123dafe137eff134c1","6966","stimuli/2010000.jpg","2","","prediction_practice","2","{""filepath"":""stimuli/2010000.jpg"",""ball_pos"":2,""ego_ball_visible"":true,""ego_can_infer"":true,""alter_ball_visible"":true,""alter_can_infer"":true,""collective_ball_visible"":true,""collective_can_infer"":true,""search_locations"":[2],""alter_occluders"":""010"",""ego_occluders"":""000""}","true","","","","","","","","","","","","","","","","","","",""
"","","","","","image-keyboard-response","5","183940","0.0-3.0-2.0","64876e8c1a6f7c303a92351b","665500ab8938657b03fbdba8","665793123dafe137eff134c1","2845","stimuli/20100002.jpg"," ","","practrice_feedback","2","","","","","","","","","","","","","","","","","","","","",""
"","","","","","image-keyboard-response","6","189441","0.0-3.0-3.0","64876e8c1a6f7c303a92351b","665500ab8938657b03fbdba8","665793123dafe137eff134c1","5499","stimuli/0011111.jpg","1","","prediction_practice","0","{""filepath"":""stimuli/0011111.jpg"",""ball_pos"":0,""ego_ball_visible"":false,""ego_can_infer"":false,""alter_ball_visible"":true,""alter_can_infer"":true,""collective_ball_visible"":false,""collective_can_infer"":false,""search_locations"":[0],""alter_occluders"":""011"",""ego_occluders"":""111""}","false","","","","","","","","","","","","","","","","","","",""
"","","","","","image-keyboard-response","7","191549","0.0-3.0-4.0","64876e8c1a6f7c303a92351b","665500ab8938657b03fbdba8","665793123dafe137eff134c1","2107","stimuli/00111110.jpg"," ","","practrice_feedback","0","","","","","","","","","","","","","","","","","","","","",""
"","","","","","image-keyboard-response","8","196227","0.0-3.0-5.0","64876e8c1a6f7c303a92351b","665500ab8938657b03fbdba8","665793123dafe137eff134c1","4677","stimuli/0101000.jpg","0","","prediction_practice","0","{""filepath"":""stimuli/0101000.jpg"",""ball_pos"":0,""ego_ball_visible"":true,""ego_can_infer"":true,""alter_ball_visible"":false,""alter_can_infer"":false,""collective_ball_visible"":false,""collective_can_infer"":false,""search_locations"":[2,0],""alter_occluders"":""101"",""ego_occluders"":""000""}","true","","","","","","","","","","","","","","","","","","",""
"","","","","","image-keyboard-response","9","197704","0.0-3.0-6.0","64876e8c1a6f7c303a92351b","665500ab8938657b03fbdba8","665793123dafe137eff134c1","1476","stimuli/01010000.jpg"," ","","practrice_feedback","2","","","","","","","","","","","","","","","","","","","","",""
"","","","","","image-keyboard-response","10","201080","0.0-3.0-7.0","64876e8c1a6f7c303a92351b","665500ab8938657b03fbdba8","665793123dafe137eff134c1","3375","stimuli/2011100.jpg","2","","prediction_practice","2","{""filepath"":""stimuli/2011100.jpg"",""ball_pos"":2,""ego_ball_visible"":true,""ego_can_infer"":true,""alter_ball_visible"":false,""alter_can_infer"":false,""collective_ball_visible"":false,""collective_can_infer"":false,""search_locations"":[2,1],""alter_occluders"":""011"",""ego_occluders"":""100""}","true","","","","","","","","","","","","","","","","","","",""
"","","","","","image-keyboard-response","11","202962","0.0-3.0-8.0","64876e8c1a6f7c303a92351b","665500ab8938657b03fbdba8","665793123dafe137eff134c1","1881","stimuli/20111002.jpg"," ","","practrice_feedback","2","","","","","","","","","","","","","","","","","","","","",""
"","","","","","image-keyboard-response","12","207211","0.0-3.0-9.0","64876e8c1a6f7c303a92351b","665500ab8938657b03fbdba8","665793123dafe137eff134c1","4247","stimuli/2001000.jpg","2","","prediction_practice","2","{""filepath"":""stimuli/2001000.jpg"",""ball_pos"":2,""ego_ball_visible"":true,""ego_can_infer"":true,""alter_ball_visible"":false,""alter_can_infer"":true,""collective_ball_visible"":false,""collective_can_infer"":true,""search_locations"":[2],""alter_occluders"":""001"",""ego_occluders"":""000""}","true","","","","","","","","","","","","","","","","","","",""
"","","","","","image-keyboard-response","13","209729","0.0-3.0-10.0","64876e8c1a6f7c303a92351b","665500ab8938657b03fbdba8","665793123dafe137eff134c1","2516","stimuli/20010002.jpg"," ","","practrice_feedback","2","","","","","","","","","","","","","","","","","","","","",""
"","","","","","image-keyboard-response","14","213936","0.0-3.0-11.0","64876e8c1a6f7c303a92351b","665500ab8938657b03fbdba8","665793123dafe137eff134c1","4206","stimuli/0000100.jpg","0","","prediction_practice","0","{""filepath"":""stimuli/0000100.jpg"",""ball_pos"":0,""ego_ball_visible"":false,""ego_can_infer"":true,""alter_ball_visible"":true,""alter_can_infer"":true,""collective_ball_visible"":false,""collective_can_infer"":true,""search_locations"":[0],""alter_occluders"":""000"",""ego_occluders"":""100""}","true","","","","","","","","","","","","","","","","","","",""
"","","","","","image-keyboard-response","15","215431","0.0-3.0-12.0","64876e8c1a6f7c303a92351b","665500ab8938657b03fbdba8","665793123dafe137eff134c1","1494","stimuli/00001000.jpg"," ","","practrice_feedback","0","","","","","","","","","","","","","","","","","","","","",""
"","","","","","image-keyboard-response","16","220105","0.0-3.0-13.0","64876e8c1a6f7c303a92351b","665500ab8938657b03fbdba8","665793123dafe137eff134c1","4672","stimuli/1111010.jpg","1","","prediction_practice","2","{""filepath"":""stimuli/1111010.jpg"",""ball_pos"":1,""ego_ball_visible"":false,""ego_can_infer"":true,""alter_ball_visible"":false,""alter_can_infer"":false,""collective_ball_visible"":false,""collective_can_infer"":false,""search_locations"":[1,2,0],""alter_occluders"":""111"",""ego_occluders"":""010""}","false","","","","","","","","","","","","","","","","","","",""
"","","","","","image-keyboard-response","17","221717","0.0-3.0-14.0","64876e8c1a6f7c303a92351b","665500ab8938657b03fbdba8","665793123dafe137eff134c1","1612","stimuli/11110102.jpg"," ","","practrice_feedback","1","","","","","","","","","","","","","","","","","","","","",""
"","","","","","image-keyboard-response","18","225943","0.0-3.0-15.0","64876e8c1a6f7c303a92351b","665500ab8938657b03fbdba8","665793123dafe137eff134c1","4218","stimuli/0101101.jpg","2","","prediction_practice","0","{""filepath"":""stimuli/0101101.jpg"",""ball_pos"":0,""ego_ball_visible"":false,""ego_can_infer"":false,""alter_ball_visible"":false,""alter_can_infer"":false,""collective_ball_visible"":false,""collective_can_infer"":false,""search_locations"":[0,2],""alter_occluders"":""101"",""ego_occluders"":""101""}","false","","","","","","","","","","","","","","","","","","",""
"","","","","","image-keyboard-response","19","227846","0.0-3.0-16.0","64876e8c1a6f7c303a92351b","665500ab8938657b03fbdba8","665793123dafe137eff134c1","1902","stimuli/01011010.jpg"," ","","practrice_feedback","0","","","","","","","","","","","","","","","","","","","","",""
"","","","","","image-keyboard-response","20","233934","0.0-3.0-17.0","64876e8c1a6f7c303a92351b","665500ab8938657b03fbdba8","665793123dafe137eff134c1","6086","stimuli/0111000.jpg","0","","prediction_practice","2","{""filepath"":""stimuli/0111000.jpg"",""ball_pos"":0,""ego_ball_visible"":true,""ego_can_infer"":true,""alter_ball_visible"":false,""alter_can_infer"":false,""collective_ball_visible"":false,""collective_can_infer"":false,""search_locations"":[2,0,1],""alter_occluders"":""111"",""ego_occluders"":""000""}","false","","","","","","","","","","","","","","","","","","",""
"","","","","","image-keyboard-response","21","238609","0.0-3.0-18.0","64876e8c1a6f7c303a92351b","665500ab8938657b03fbdba8","665793123dafe137eff134c1","4674","stimuli/01110002.jpg"," ","","practrice_feedback","2","","","","","","","","","","","","","","","","","","","","",""
"","","","","","image-keyboard-response","22","242087","0.0-3.0-19.0","64876e8c1a6f7c303a92351b","665500ab8938657b03fbdba8","665793123dafe137eff134c1","3477","stimuli/0100100.jpg","0","","prediction_practice","0","{""filepath"":""stimuli/0100100.jpg"",""ball_pos"":0,""ego_ball_visible"":false,""ego_can_infer"":true,""alter_ball_visible"":false,""alter_can_infer"":true,""collective_ball_visible"":false,""collective_can_infer"":true,""search_locations"":[0],""alter_occluders"":""100"",""ego_occluders"":""100""}","true","","","","","","","","","","","","","","","","","","",""
"","","","","","image-keyboard-response","23","243454","0.0-3.0-20.0","64876e8c1a6f7c303a92351b","665500ab8938657b03fbdba8","665793123dafe137eff134c1","1366","stimuli/01001000.jpg"," ","","practrice_feedback","0","","","","","","","","","","","","","","","","","","","","",""
"","","","","","html-button-response","24","249370","0.0-3.0-21.0","64876e8c1a6f7c303a92351b","665500ab8938657b03fbdba8","665793123dafe137eff134c1","5915","Now that you've had some practice, you'll be tested with a couple of easy trials. If you correctly predict Sam's choice, you'll move on to complete the experiment!","0","","","","","","","","","","","","","","","","","","","","","","","",""
"","","","","","image-keyboard-response","25","255858","0.0-3.0-22.0-0.0","64876e8c1a6f7c303a92351b","665500ab8938657b03fbdba8","665793123dafe137eff134c1","6487","stimuli/0000011.jpg","arrowleft","","comprehension_quiz","","","true","arrowleft","","","","","","","","","","","","","","","","","",""
"","","","","","image-keyboard-response","26","257268","0.0-3.0-22.0-1.0","64876e8c1a6f7c303a92351b","665500ab8938657b03fbdba8","665793123dafe137eff134c1","1409","stimuli/00000110.jpg"," ","","comprehension_quiz","","","true"," ","","","","","","","","","","","","","","","","","",""
"","","","","","image-keyboard-response","27","260252","0.0-3.0-22.0-2.0","64876e8c1a6f7c303a92351b","665500ab8938657b03fbdba8","665793123dafe137eff134c1","2982","stimuli/1010010.jpg","arrowdown","","comprehension_quiz","","","true","arrowdown","","","","","","","","","","","","","","","","","",""
"","","","","","image-keyboard-response","28","261566","0.0-3.0-22.0-3.0","64876e8c1a6f7c303a92351b","665500ab8938657b03fbdba8","665793123dafe137eff134c1","1305","stimuli/10100101.jpg"," ","","comprehension_quiz","","","true"," ","","","","","","","","","","","","","","","","","",""
"","","","","","html-button-response","29","266594","0.0-4.0","64876e8c1a6f7c303a92351b","665500ab8938657b03fbdba8","665793123dafe137eff134c1","5027","The experiment will now begin.","0","","","","","","","","","","","","","","","","","","","","","","","",""
"","","","","","image-keyboard-response","30","268943","0.0-5.0","64876e8c1a6f7c303a92351b","665500ab8938657b03fbdba8","665793123dafe137eff134c1","2349","stimuli/2000110.jpg","2","","prediction_trial","2","","true","","2","true","true","true","true","true","true","[2]","000","110","1","","","","","","",""
"","","","","","image-keyboard-response","31","270135","0.0-6.0","64876e8c1a6f7c303a92351b","665500ab8938657b03fbdba8","665793123dafe137eff134c1","1189","stimuli/20001102.jpg"," ","","feedback_trial","2","","","","","","","","","","","","","","","","","","","","",""
"","","","","","image-keyboard-response","32","274131","0.0-7.0","64876e8c1a6f7c303a92351b","665500ab8938657b03fbdba8","665793123dafe137eff134c1","3996","stimuli/2010101.jpg","0","","prediction_trial","2","","false","","2","false","false","true","true","false","false","[2]","010","101","0","","","","","","",""
"","","","","","image-keyboard-response","33","275346","0.0-8.0","64876e8c1a6f7c303a92351b","665500ab8938657b03fbdba8","665793123dafe137eff134c1","1214","stimuli/20101012.jpg"," ","","feedback_trial","2","","","","","","","","","","","","","","","","","","","","",""
"","","","","","image-keyboard-response","34","278297","0.0-9.0","64876e8c1a6f7c303a92351b","665500ab8938657b03fbdba8","665793123dafe137eff134c1","2949","stimuli/0100111.jpg","1","","prediction_trial","0","","false","","0","false","false","false","true","false","false","[0]","100","111","0","","","","","","",""
"","","","","","image-keyboard-response","35","280040","0.0-10.0","64876e8c1a6f7c303a92351b","665500ab8938657b03fbdba8","665793123dafe137eff134c1","1741","stimuli/01001110.jpg"," ","","feedback_trial","0","","","","","","","","","","","","","","","","","","","","",""
"","","","","","image-keyboard-response","36","283361","0.0-11.0","64876e8c1a6f7c303a92351b","665500ab8938657b03fbdba8","665793123dafe137eff134c1","3320","stimuli/1110001.jpg","1","","prediction_trial","0","","false","","1","true","true","false","false","false","false","[1,0]","110","001","0","","","","","","",""
"","","","","","image-keyboard-response","37","285649","0.0-12.0","64876e8c1a6f7c303a92351b","665500ab8938657b03fbdba8","665793123dafe137eff134c1","2287","stimuli/11100010.jpg"," ","","feedback_trial","1","","","","","","","","","","","","","","","","","","","","",""
"","","","","","image-keyboard-response","38","288461","0.0-13.0","64876e8c1a6f7c303a92351b","665500ab8938657b03fbdba8","665793123dafe137eff134c1","2811","stimuli/0000100.jpg","0","","prediction_trial","0","","true","","0","false","true","true","true","false","true","[0]","000","100","1","","","","","","",""
"","","","","","image-keyboard-response","39","290325","0.0-14.0","64876e8c1a6f7c303a92351b","665500ab8938657b03fbdba8","665793123dafe137eff134c1","1862","stimuli/00001000.jpg"," ","","feedback_trial","0","","","","","","","","","","","","","","","","","","","","",""
"","","","","","image-keyboard-response","40","293726","0.0-15.0","64876e8c1a6f7c303a92351b","665500ab8938657b03fbdba8","665793123dafe137eff134c1","3399","stimuli/0001110.jpg","1","","prediction_trial","0","","false","","0","false","false","true","true","false","false","[0]","001","110","0","","","","","","",""
"","","","","","image-keyboard-response","41","295066","0.0-16.0","64876e8c1a6f7c303a92351b","665500ab8938657b03fbdba8","665793123dafe137eff134c1","1339","stimuli/00011100.jpg"," ","","feedback_trial","0","","","","","","","","","","","","","","","","","","","","",""
"","","","","","image-keyboard-response","42","297804","0.0-17.0","64876e8c1a6f7c303a92351b","665500ab8938657b03fbdba8","665793123dafe137eff134c1","2737","stimuli/0110010.jpg","0","","prediction_trial","1","","false","","0","true","true","false","false","false","false","[1,0]","110","010","0","","","","","","",""
"","","","","","image-keyboard-response","43","300873","0.0-18.0","64876e8c1a6f7c303a92351b","665500ab8938657b03fbdba8","665793123dafe137eff134c1","3068","stimuli/01100101.jpg"," ","","feedback_trial","1","","","","","","","","","","","","","","","","","","","","",""
"","","","","","image-keyboard-response","44","304301","0.0-19.0","64876e8c1a6f7c303a92351b","665500ab8938657b03fbdba8","665793123dafe137eff134c1","3427","stimuli/2000010.jpg","2","","prediction_trial","2","","true","","2","true","true","true","true","true","true","[2]","000","010","1","","","","","","",""
"","","","","","image-keyboard-response","45","306131","0.0-20.0","64876e8c1a6f7c303a92351b","665500ab8938657b03fbdba8","665793123dafe137eff134c1","1830","stimuli/20000102.jpg"," ","","feedback_trial","2","","","","","","","","","","","","","","","","","","","","",""
"","","","","","image-keyboard-response","46","310040","0.0-21.0","64876e8c1a6f7c303a92351b","665500ab8938657b03fbdba8","665793123dafe137eff134c1","3907","stimuli/1111101.jpg","1","","prediction_trial","1","","true","","1","true","true","false","false","false","false","[1,2,0]","111","101","1","","","","","","",""
"","","","","","image-keyboard-response","47","311478","0.0-22.0","64876e8c1a6f7c303a92351b","665500ab8938657b03fbdba8","665793123dafe137eff134c1","1436","stimuli/11111011.jpg"," ","","feedback_trial","1","","","","","","","","","","","","","","","","","","","","",""
"","","","","","image-keyboard-response","48","313448","0.0-23.0","64876e8c1a6f7c303a92351b","665500ab8938657b03fbdba8","665793123dafe137eff134c1","1968","stimuli/1010101.jpg","1","","prediction_trial","1","","true","","1","true","true","false","true","false","true","[1]","010","101","1","","","","","","",""
"","","","","","image-keyboard-response","49","314692","0.0-24.0","64876e8c1a6f7c303a92351b","665500ab8938657b03fbdba8","665793123dafe137eff134c1","1242","stimuli/10101011.jpg"," ","","feedback_trial","1","","","","","","","","","","","","","","","","","","","","",""
"","","","","","image-keyboard-response","50","317243","0.0-25.0","64876e8c1a6f7c303a92351b","665500ab8938657b03fbdba8","665793123dafe137eff134c1","2550","stimuli/0011100.jpg","0","","prediction_trial","0","","true","","0","false","true","true","true","false","true","[0]","011","100","1","","","","","","",""
"","","","","","image-keyboard-response","51","318455","0.0-26.0","64876e8c1a6f7c303a92351b","665500ab8938657b03fbdba8","665793123dafe137eff134c1","1209","stimuli/00111000.jpg"," ","","feedback_trial","0","","","","","","","","","","","","","","","","","","","","",""
"","","","","","image-keyboard-response","52","322245","0.0-27.0","64876e8c1a6f7c303a92351b","665500ab8938657b03fbdba8","665793123dafe137eff134c1","3789","stimuli/0010101.jpg","2","","prediction_trial","0","","false","","0","false","false","true","true","false","false","[0]","010","101","0","","","","","","",""
"","","","","","image-keyboard-response","53","324084","0.0-28.0","64876e8c1a6f7c303a92351b","665500ab8938657b03fbdba8","665793123dafe137eff134c1","1837","stimuli/00101010.jpg"," ","","feedback_trial","0","","","","","","","","","","","","","","","","","","","","",""
"","","","","","image-keyboard-response","54","326426","0.0-29.0","64876e8c1a6f7c303a92351b","665500ab8938657b03fbdba8","665793123dafe137eff134c1","2340","stimuli/0111011.jpg","0","","prediction_trial","1","","false","","0","true","true","false","false","false","false","[0,2,1]","111","011","0","","","","","","",""
"","","","","","image-keyboard-response","55","329180","0.0-30.0","64876e8c1a6f7c303a92351b","665500ab8938657b03fbdba8","665793123dafe137eff134c1","2753","stimuli/01110111.jpg"," ","","feedback_trial","0","","","","","","","","","","","","","","","","","","","","",""
"","","","","","image-keyboard-response","56","332033","0.0-31.0","64876e8c1a6f7c303a92351b","665500ab8938657b03fbdba8","665793123dafe137eff134c1","2852","stimuli/1000011.jpg","2","","prediction_trial","1","","false","","1","false","false","true","true","false","false","[1]","000","011","0","","","","","","",""
"","","","","","image-keyboard-response","57","333428","0.0-32.0","64876e8c1a6f7c303a92351b","665500ab8938657b03fbdba8","665793123dafe137eff134c1","1393","stimuli/10000111.jpg"," ","","feedback_trial","1","","","","","","","","","","","","","","","","","","","","",""
"","","","","","image-keyboard-response","58","335989","0.0-33.0","64876e8c1a6f7c303a92351b","665500ab8938657b03fbdba8","665793123dafe137eff134c1","2560","stimuli/1000000.jpg","1","","prediction_trial","1","","true","","1","true","true","true","true","true","true","[1]","000","000","1","","","","","","",""
"","","","","","image-keyboard-response","59","337128","0.0-34.0","64876e8c1a6f7c303a92351b","665500ab8938657b03fbdba8","665793123dafe137eff134c1","1137","stimuli/10000001.jpg"," ","","feedback_trial","1","","","","","","","","","","","","","","","","","","","","",""
"","","","","","image-keyboard-response","60","339887","0.0-35.0","64876e8c1a6f7c303a92351b","665500ab8938657b03fbdba8","665793123dafe137eff134c1","2757","stimuli/2100011.jpg","2","","prediction_trial","2","","true","","2","false","false","true","true","false","false","[2]","100","011","1","","","","","","",""
"","","","","","image-keyboard-response","61","341451","0.0-36.0","64876e8c1a6f7c303a92351b","665500ab8938657b03fbdba8","665793123dafe137eff134c1","1563","stimuli/21000112.jpg"," ","","feedback_trial","2","","","","","","","","","","","","","","","","","","","","",""
"","","","","","image-keyboard-response","62","343705","0.0-37.0","64876e8c1a6f7c303a92351b","665500ab8938657b03fbdba8","665793123dafe137eff134c1","2252","stimuli/1001101.jpg","1","","prediction_trial","1","","true","","1","true","true","true","true","true","true","[1]","001","101","1","","","","","","",""
"","","","","","image-keyboard-response","63","345012","0.0-38.0","64876e8c1a6f7c303a92351b","665500ab8938657b03fbdba8","665793123dafe137eff134c1","1305","stimuli/10011011.jpg"," ","","feedback_trial","1","","","","","","","","","","","","","","","","","","","","",""
"","","","","","image-keyboard-response","64","348544","0.0-39.0","64876e8c1a6f7c303a92351b","665500ab8938657b03fbdba8","665793123dafe137eff134c1","3531","stimuli/0010111.jpg","0","","prediction_trial","0","","true","","0","false","false","true","true","false","false","[0]","010","111","1","","","","","","",""
"","","","","","image-keyboard-response","65","349668","0.0-40.0","64876e8c1a6f7c303a92351b","665500ab8938657b03fbdba8","665793123dafe137eff134c1","1123","stimuli/00101110.jpg"," ","","feedback_trial","0","","","","","","","","","","","","","","","","","","","","",""
"","","","","","image-keyboard-response","66","351956","0.0-41.0","64876e8c1a6f7c303a92351b","665500ab8938657b03fbdba8","665793123dafe137eff134c1","2286","stimuli/1101101.jpg","1","","prediction_trial","1","","true","","1","true","true","true","true","true","true","[1]","101","101","1","","","","","","",""
"","","","","","image-keyboard-response","67","353132","0.0-42.0","64876e8c1a6f7c303a92351b","665500ab8938657b03fbdba8","665793123dafe137eff134c1","1175","stimuli/11011011.jpg"," ","","feedback_trial","1","","","","","","","","","","","","","","","","","","","","",""
"","","","","","image-keyboard-response","68","356496","0.0-43.0","64876e8c1a6f7c303a92351b","665500ab8938657b03fbdba8","665793123dafe137eff134c1","3363","stimuli/2010001.jpg","2","","prediction_trial","2","","true","","2","false","true","true","true","false","true","[2]","010","001","1","","","","","","",""
"","","","","","image-keyboard-response","69","357916","0.0-44.0","64876e8c1a6f7c303a92351b","665500ab8938657b03fbdba8","665793123dafe137eff134c1","1418","stimuli/20100012.jpg"," ","","feedback_trial","2","","","","","","","","","","","","","","","","","","","","",""
"","","","","","image-keyboard-response","70","360962","0.0-45.0","64876e8c1a6f7c303a92351b","665500ab8938657b03fbdba8","665793123dafe137eff134c1","3044","stimuli/2011001.jpg","2","","prediction_trial","2","","true","","2","false","true","false","false","false","false","[1,2]","011","001","1","","","","","","",""
"","","","","","image-keyboard-response","71","362040","0.0-46.0","64876e8c1a6f7c303a92351b","665500ab8938657b03fbdba8","665793123dafe137eff134c1","1076","stimuli/20110012.jpg"," ","","feedback_trial","1","","","","","","","","","","","","","","","","","","","","",""
"","","","","","image-keyboard-response","72","364115","0.0-47.0","64876e8c1a6f7c303a92351b","665500ab8938657b03fbdba8","665793123dafe137eff134c1","2074","stimuli/0111001.jpg","0","","prediction_trial","1","","false","","0","true","true","false","false","false","false","[2,1,0]","111","001","0","","","","","","",""
"","","","","","image-keyboard-response","73","366933","0.0-48.0","64876e8c1a6f7c303a92351b","665500ab8938657b03fbdba8","665793123dafe137eff134c1","2817","stimuli/01110011.jpg"," ","","feedback_trial","2","","","","","","","","","","","","","","","","","","","","",""
"","","","","","image-keyboard-response","74","368662","0.0-49.0","64876e8c1a6f7c303a92351b","665500ab8938657b03fbdba8","665793123dafe137eff134c1","1727","stimuli/1010000.jpg","1","","prediction_trial","1","","true","","1","true","true","false","true","false","true","[1]","010","000","1","","","","","","",""
"","","","","","image-keyboard-response","75","370113","0.0-50.0","64876e8c1a6f7c303a92351b","665500ab8938657b03fbdba8","665793123dafe137eff134c1","1449","stimuli/10100001.jpg"," ","","feedback_trial","1","","","","","","","","","","","","","","","","","","","","",""
"","","","","","image-keyboard-response","76","372474","0.0-51.0","64876e8c1a6f7c303a92351b","665500ab8938657b03fbdba8","665793123dafe137eff134c1","2360","stimuli/2111110.jpg","2","","prediction_trial","2","","true","","2","true","true","false","false","false","false","[0,1,2]","111","110","1","","","","","","",""
"","","","","","image-keyboard-response","77","373787","0.0-52.0","64876e8c1a6f7c303a92351b","665500ab8938657b03fbdba8","665793123dafe137eff134c1","1311","stimuli/21111102.jpg"," ","","feedback_trial","0","","","","","","","","","","","","","","","","","","","","",""
"","","","","","image-keyboard-response","78","377375","0.0-53.0","64876e8c1a6f7c303a92351b","665500ab8938657b03fbdba8","665793123dafe137eff134c1","3586","stimuli/2101101.jpg","0","","prediction_trial","0","","true","","2","false","false","false","false","false","false","[2,0]","101","101","1","","","","","","",""
"","","","","","image-keyboard-response","79","378614","0.0-54.0","64876e8c1a6f7c303a92351b","665500ab8938657b03fbdba8","665793123dafe137eff134c1","1237","stimuli/21011010.jpg"," ","","feedback_trial","2","","","","","","","","","","","","","","","","","","","","",""
"","","","","","image-keyboard-response","80","380573","0.0-55.0","64876e8c1a6f7c303a92351b","665500ab8938657b03fbdba8","665793123dafe137eff134c1","1957","stimuli/0011001.jpg","0","","prediction_trial","0","","true","","0","true","true","true","true","true","true","[0]","011","001","1","","","","","","",""
"","","","","","image-keyboard-response","81","382491","0.0-56.0","64876e8c1a6f7c303a92351b","665500ab8938657b03fbdba8","665793123dafe137eff134c1","1916","stimuli/00110010.jpg"," ","","feedback_trial","0","","","","","","","","","","","","","","","","","","","","",""
"","","","","","image-keyboard-response","82","384960","0.0-57.0","64876e8c1a6f7c303a92351b","665500ab8938657b03fbdba8","665793123dafe137eff134c1","2467","stimuli/1111010.jpg","1","","prediction_trial","2","","false","","1","false","true","false","false","false","false","[1,2,0]","111","010","0","","","","","","",""
"","","","","","image-keyboard-response","83","387419","0.0-58.0","64876e8c1a6f7c303a92351b","665500ab8938657b03fbdba8","665793123dafe137eff134c1","2457","stimuli/11110102.jpg"," ","","feedback_trial","1","","","","","","","","","","","","","","","","","","","","",""
"","","","","","image-keyboard-response","84","389940","0.0-59.0","64876e8c1a6f7c303a92351b","665500ab8938657b03fbdba8","665793123dafe137eff134c1","2520","stimuli/1010011.jpg","1","","prediction_trial","1","","true","","1","false","false","false","true","false","false","[1]","010","011","1","","","","","","",""
"","","","","","image-keyboard-response","85","391607","0.0-60.0","64876e8c1a6f7c303a92351b","665500ab8938657b03fbdba8","665793123dafe137eff134c1","1666","stimuli/10100111.jpg"," ","","feedback_trial","1","","","","","","","","","","","","","","","","","","","","",""
"","","","","","image-keyboard-response","86","394149","0.0-61.0","64876e8c1a6f7c303a92351b","665500ab8938657b03fbdba8","665793123dafe137eff134c1","2540","stimuli/0011110.jpg","0","","prediction_trial","0","","true","","0","false","false","true","true","false","false","[0]","011","110","1","","","","","","",""
"","","","","","image-keyboard-response","87","395515","0.0-62.0","64876e8c1a6f7c303a92351b","665500ab8938657b03fbdba8","665793123dafe137eff134c1","1366","stimuli/00111100.jpg"," ","","feedback_trial","0","","","","","","","","","","","","","","","","","","","","",""
"","","","","","image-keyboard-response","88","397654","0.0-63.0","64876e8c1a6f7c303a92351b","665500ab8938657b03fbdba8","665793123dafe137eff134c1","2137","stimuli/1010100.jpg","1","","prediction_trial","1","","true","","1","true","true","false","true","false","true","[1]","010","100","1","","","","","","",""
"","","","","","image-keyboard-response","89","399215","0.0-64.0","64876e8c1a6f7c303a92351b","665500ab8938657b03fbdba8","665793123dafe137eff134c1","1558","stimuli/10101001.jpg"," ","","feedback_trial","1","","","","","","","","","","","","","","","","","","","","",""
"","","","","","image-keyboard-response","90","403700","0.0-65.0","64876e8c1a6f7c303a92351b","665500ab8938657b03fbdba8","665793123dafe137eff134c1","4484","stimuli/1101010.jpg","2","","prediction_trial","1","","false","","1","false","true","true","true","false","true","[1]","101","010","0","","","","","","",""
"","","","","","image-keyboard-response","91","404959","0.0-66.0","64876e8c1a6f7c303a92351b","665500ab8938657b03fbdba8","665793123dafe137eff134c1","1258","stimuli/11010101.jpg"," ","","feedback_trial","1","","","","","","","","","","","","","","","","","","","","",""
"","","","","","image-keyboard-response","92","407285","0.0-67.0","64876e8c1a6f7c303a92351b","665500ab8938657b03fbdba8","665793123dafe137eff134c1","2325","stimuli/1011100.jpg","1","","prediction_trial","2","","false","","1","true","true","false","false","false","false","[2,1]","011","100","0","","","","","","",""
"","","","","","image-keyboard-response","93","408869","0.0-68.0","64876e8c1a6f7c303a92351b","665500ab8938657b03fbdba8","665793123dafe137eff134c1","1583","stimuli/10111002.jpg"," ","","feedback_trial","2","","","","","","","","","","","","","","","","","","","","",""
"","","","","","image-keyboard-response","94","410937","0.0-69.0","64876e8c1a6f7c303a92351b","665500ab8938657b03fbdba8","665793123dafe137eff134c1","2067","stimuli/0100001.jpg","0","","prediction_trial","0","","true","","0","true","true","false","true","false","true","[0]","100","001","1","","","","","","",""
"","","","","","image-keyboard-response","95","412234","0.0-70.0","64876e8c1a6f7c303a92351b","665500ab8938657b03fbdba8","665793123dafe137eff134c1","1295","stimuli/01000010.jpg"," ","","feedback_trial","0","","","","","","","","","","","","","","","","","","","","",""
"","","","","","image-keyboard-response","96","415693","0.0-71.0","64876e8c1a6f7c303a92351b","665500ab8938657b03fbdba8","665793123dafe137eff134c1","3457","stimuli/2111010.jpg","2","","prediction_trial","0","","false","","2","true","true","false","false","false","false","[0,2,1]","111","010","0","","","","","","",""
"","","","","","image-keyboard-response","97","417076","0.0-72.0","64876e8c1a6f7c303a92351b","665500ab8938657b03fbdba8","665793123dafe137eff134c1","1381","stimuli/21110100.jpg"," ","","feedback_trial","0","","","","","","","","","","","","","","","","","","","","",""
"","","","","","image-keyboard-response","98","418994","0.0-73.0","64876e8c1a6f7c303a92351b","665500ab8938657b03fbdba8","665793123dafe137eff134c1","1917","stimuli/2110100.jpg","2","","prediction_trial","2","","true","","2","true","true","true","true","true","true","[2]","110","100","1","","","","","","",""
"","","","","","image-keyboard-response","99","420015","0.0-74.0","64876e8c1a6f7c303a92351b","665500ab8938657b03fbdba8","665793123dafe137eff134c1","1020","stimuli/21101002.jpg"," ","","feedback_trial","2","","","","","","","","","","","","","","","","","","","","",""
"","","","","","image-keyboard-response","100","425125","0.0-75.0","64876e8c1a6f7c303a92351b","665500ab8938657b03fbdba8","665793123dafe137eff134c1","5109","stimuli/0101101.jpg","1","","prediction_trial","0","","false","","0","false","false","false","false","false","false","[0,2]","101","101","0","","","","","","",""
"","","","","","image-keyboard-response","101","426119","0.0-76.0","64876e8c1a6f7c303a92351b","665500ab8938657b03fbdba8","665793123dafe137eff134c1","993","stimuli/01011010.jpg"," ","","feedback_trial","0","","","","","","","","","","","","","","","","","","","","",""
"","","","","","image-keyboard-response","102","429480","0.0-77.0","64876e8c1a6f7c303a92351b","665500ab8938657b03fbdba8","665793123dafe137eff134c1","3361","stimuli/1011011.jpg","0","","prediction_trial","1","","false","","1","false","false","false","false","false","false","[2,1]","011","011","0","","","","","","",""
"","","","","","image-keyboard-response","103","430483","0.0-78.0","64876e8c1a6f7c303a92351b","665500ab8938657b03fbdba8","665793123dafe137eff134c1","1002","stimuli/10110111.jpg"," ","","feedback_trial","2","","","","","","","","","","","","","","","","","","","","",""
"","","","","","image-keyboard-response","104","432760","0.0-79.0","64876e8c1a6f7c303a92351b","665500ab8938657b03fbdba8","665793123dafe137eff134c1","2276","stimuli/1100100.jpg","1","","prediction_trial","1","","true","","1","true","true","true","true","true","true","[1]","100","100","1","","","","","","",""
"","","","","","image-keyboard-response","105","433702","0.0-80.0","64876e8c1a6f7c303a92351b","665500ab8938657b03fbdba8","665793123dafe137eff134c1","942","stimuli/11001001.jpg"," ","","feedback_trial","1","","","","","","","","","","","","","","","","","","","","",""
"","","","","","image-keyboard-response","106","436756","0.0-81.0","64876e8c1a6f7c303a92351b","665500ab8938657b03fbdba8","665793123dafe137eff134c1","3053","stimuli/0101011.jpg","0","","prediction_trial","0","","true","","0","true","true","false","false","false","false","[0,2]","101","011","1","","","","","","",""
"","","","","","image-keyboard-response","107","437817","0.0-82.0","64876e8c1a6f7c303a92351b","665500ab8938657b03fbdba8","665793123dafe137eff134c1","1060","stimuli/01010110.jpg"," ","","feedback_trial","0","","","","","","","","","","","","","","","","","","","","",""
"","","","","","image-keyboard-response","108","440434","0.0-83.0","64876e8c1a6f7c303a92351b","665500ab8938657b03fbdba8","665793123dafe137eff134c1","2616","stimuli/0100000.jpg","0","","prediction_trial","0","","true","","0","true","true","false","true","false","true","[0]","100","000","1","","","","","","",""
"","","","","","image-keyboard-response","109","441718","0.0-84.0","64876e8c1a6f7c303a92351b","665500ab8938657b03fbdba8","665793123dafe137eff134c1","1284","stimuli/01000000.jpg"," ","","feedback_trial","0","","","","","","","","","","","","","","","","","","","","",""
"","","","","","image-keyboard-response","110","443270","0.0-85.0","64876e8c1a6f7c303a92351b","665500ab8938657b03fbdba8","665793123dafe137eff134c1","1551","stimuli/0111000.jpg","0","","prediction_trial","2","","false","","0","true","true","false","false","false","false","[2,0,1]","111","000","0","","","","","","",""
"","","","","","image-keyboard-response","111","444616","0.0-86.0","64876e8c1a6f7c303a92351b","665500ab8938657b03fbdba8","665793123dafe137eff134c1","1345","stimuli/01110002.jpg"," ","","feedback_trial","2","","","","","","","","","","","","","","","","","","","","",""
"","","","","","image-keyboard-response","112","446836","0.0-87.0","64876e8c1a6f7c303a92351b","665500ab8938657b03fbdba8","665793123dafe137eff134c1","2219","stimuli/2110011.jpg","1","","prediction_trial","2","","false","","2","false","false","true","true","false","false","[2]","110","011","0","","","","","","",""
"","","","","","image-keyboard-response","113","448000","0.0-88.0","64876e8c1a6f7c303a92351b","665500ab8938657b03fbdba8","665793123dafe137eff134c1","1164","stimuli/21100112.jpg"," ","","feedback_trial","2","","","","","","","","","","","","","","","","","","","","",""
"","","","","","image-keyboard-response","114","450499","0.0-89.0","64876e8c1a6f7c303a92351b","665500ab8938657b03fbdba8","665793123dafe137eff134c1","2498","stimuli/2111101.jpg","0","","prediction_trial","2","","false","","2","false","false","false","false","false","false","[0,2,1]","111","101","0","","","","","","",""
"","","","","","image-keyboard-response","115","451851","0.0-90.0","64876e8c1a6f7c303a92351b","665500ab8938657b03fbdba8","665793123dafe137eff134c1","1352","stimuli/21111012.jpg"," ","","feedback_trial","0","","","","","","","","","","","","","","","","","","","","",""
"","","","","","image-keyboard-response","116","454212","0.0-91.0","64876e8c1a6f7c303a92351b","665500ab8938657b03fbdba8","665793123dafe137eff134c1","2361","stimuli/1000111.jpg","1","","prediction_trial","1","","true","","1","false","false","true","true","false","false","[1]","000","111","1","","","","","","",""
"","","","","","image-keyboard-response","117","455344","0.0-92.0","64876e8c1a6f7c303a92351b","665500ab8938657b03fbdba8","665793123dafe137eff134c1","1131","stimuli/10001111.jpg"," ","","feedback_trial","1","","","","","","","","","","","","","","","","","","","","",""
"","","","","","image-keyboard-response","118","457869","0.0-93.0","64876e8c1a6f7c303a92351b","665500ab8938657b03fbdba8","665793123dafe137eff134c1","2524","stimuli/2110001.jpg","2","","prediction_trial","2","","true","","2","false","true","true","true","false","true","[2]","110","001","1","","","","","","",""
"","","","","","image-keyboard-response","119","458895","0.0-94.0","64876e8c1a6f7c303a92351b","665500ab8938657b03fbdba8","665793123dafe137eff134c1","1025","stimuli/21100012.jpg"," ","","feedback_trial","2","","","","","","","","","","","","","","","","","","","","",""
"","","","","","image-keyboard-response","120","461530","0.0-95.0","64876e8c1a6f7c303a92351b","665500ab8938657b03fbdba8","665793123dafe137eff134c1","2633","stimuli/0110000.jpg","0","","prediction_trial","1","","false","","0","true","true","false","false","false","false","[1,0]","110","000","0","","","","","","",""
"","","","","","image-keyboard-response","121","462526","0.0-96.0","64876e8c1a6f7c303a92351b","665500ab8938657b03fbdba8","665793123dafe137eff134c1","996","stimuli/01100001.jpg"," ","","feedback_trial","1","","","","","","","","","","","","","","","","","","","","",""
"","","","","","image-keyboard-response","122","464671","0.0-97.0","64876e8c1a6f7c303a92351b","665500ab8938657b03fbdba8","665793123dafe137eff134c1","2143","stimuli/0011010.jpg","0","","prediction_trial","0","","true","","0","true","true","true","true","true","true","[0]","011","010","1","","","","","","",""
"","","","","","image-keyboard-response","123","466171","0.0-98.0","64876e8c1a6f7c303a92351b","665500ab8938657b03fbdba8","665793123dafe137eff134c1","1499","stimuli/00110100.jpg"," ","","feedback_trial","0","","","","","","","","","","","","","","","","","","","","",""
"","","","","","image-keyboard-response","124","469502","0.0-99.0","64876e8c1a6f7c303a92351b","665500ab8938657b03fbdba8","665793123dafe137eff134c1","3331","stimuli/0111111.jpg","2","","prediction_trial","2","","true","","0","false","false","false","false","false","false","[2,0,1]","111","111","1","","","","","","",""
"","","","","","image-keyboard-response","125","470449","0.0-100.0","64876e8c1a6f7c303a92351b","665500ab8938657b03fbdba8","665793123dafe137eff134c1","946","stimuli/01111112.jpg"," ","","feedback_trial","2","","","","","","","","","","","","","","","","","","","","",""
"","","","","","image-keyboard-response","126","472910","0.0-101.0","64876e8c1a6f7c303a92351b","665500ab8938657b03fbdba8","665793123dafe137eff134c1","2460","stimuli/0010000.jpg","0","","prediction_trial","0","","true","","0","true","true","true","true","true","true","[0]","010","000","1","","","","","","",""
"","","","","","image-keyboard-response","127","473873","0.0-102.0","64876e8c1a6f7c303a92351b","665500ab8938657b03fbdba8","665793123dafe137eff134c1","962","stimuli/00100000.jpg"," ","","feedback_trial","0","","","","","","","","","","","","","","","","","","","","",""
"","","","","","image-keyboard-response","128","477090","0.0-103.0","64876e8c1a6f7c303a92351b","665500ab8938657b03fbdba8","665793123dafe137eff134c1","3215","stimuli/2110010.jpg","2","","prediction_trial","2","","true","","2","true","true","true","true","true","true","[2]","110","010","1","","","","","","",""
"","","","","","image-keyboard-response","129","477986","0.0-104.0","64876e8c1a6f7c303a92351b","665500ab8938657b03fbdba8","665793123dafe137eff134c1","895","stimuli/21100102.jpg"," ","","feedback_trial","2","","","","","","","","","","","","","","","","","","","","",""
"","","","","","image-keyboard-response","130","480500","0.0-105.0","64876e8c1a6f7c303a92351b","665500ab8938657b03fbdba8","665793123dafe137eff134c1","2513","stimuli/2001010.jpg","2","","prediction_trial","2","","true","","2","true","true","false","true","false","true","[2]","001","010","1","","","","","","",""
"","","","","","image-keyboard-response","131","481992","0.0-106.0","64876e8c1a6f7c303a92351b","665500ab8938657b03fbdba8","665793123dafe137eff134c1","1491","stimuli/20010102.jpg"," ","","feedback_trial","2","","","","","","","","","","","","","","","","","","","","",""
"","","","","","image-keyboard-response","132","484333","0.0-107.0","64876e8c1a6f7c303a92351b","665500ab8938657b03fbdba8","665793123dafe137eff134c1","2340","stimuli/1010111.jpg","1","","prediction_trial","1","","true","","1","false","false","false","true","false","false","[1]","010","111","1","","","","","","",""
"","","","","","image-keyboard-response","133","485358","0.0-108.0","64876e8c1a6f7c303a92351b","665500ab8938657b03fbdba8","665793123dafe137eff134c1","1025","stimuli/10101111.jpg"," ","","feedback_trial","1","","","","","","","","","","","","","","","","","","","","",""
"","","","","","image-keyboard-response","134","489846","0.0-109.0","64876e8c1a6f7c303a92351b","665500ab8938657b03fbdba8","665793123dafe137eff134c1","4487","stimuli/2000111.jpg","0","","prediction_trial","2","","false","","2","false","false","true","true","false","false","[2]","000","111","0","","","","","","",""
"","","","","","image-keyboard-response","135","490964","0.0-110.0","64876e8c1a6f7c303a92351b","665500ab8938657b03fbdba8","665793123dafe137eff134c1","1117","stimuli/20001112.jpg"," ","","feedback_trial","2","","","","","","","","","","","","","","","","","","","","",""
"","","","","","image-keyboard-response","136","494633","0.0-111.0","64876e8c1a6f7c303a92351b","665500ab8938657b03fbdba8","665793123dafe137eff134c1","3667","stimuli/1100010.jpg","0","","prediction_trial","1","","false","","1","false","true","true","true","false","true","[1]","100","010","0","","","","","","",""
"","","","","","image-keyboard-response","137","495785","0.0-112.0","64876e8c1a6f7c303a92351b","665500ab8938657b03fbdba8","665793123dafe137eff134c1","1152","stimuli/11000101.jpg"," ","","feedback_trial","1","","","","","","","","","","","","","","","","","","","","",""
"","","","","","image-keyboard-response","138","498662","0.0-113.0","64876e8c1a6f7c303a92351b","665500ab8938657b03fbdba8","665793123dafe137eff134c1","2876","stimuli/1011000.jpg","1","","prediction_trial","1","","true","","1","true","true","false","false","false","false","[1,2]","011","000","1","","","","","","",""
"","","","","","image-keyboard-response","139","499472","0.0-114.0","64876e8c1a6f7c303a92351b","665500ab8938657b03fbdba8","665793123dafe137eff134c1","809","stimuli/10110001.jpg"," ","","feedback_trial","1","","","","","","","","","","","","","","","","","","","","",""
"","","","","","image-keyboard-response","140","502906","0.0-115.0","64876e8c1a6f7c303a92351b","665500ab8938657b03fbdba8","665793123dafe137eff134c1","3434","stimuli/0111110.jpg","0","","prediction_trial","2","","false","","0","false","false","false","false","false","false","[2,1,0]","111","110","0","","","","","","",""
"","","","","","image-keyboard-response","141","503784","0.0-116.0","64876e8c1a6f7c303a92351b","665500ab8938657b03fbdba8","665793123dafe137eff134c1","876","stimuli/01111102.jpg"," ","","feedback_trial","2","","","","","","","","","","","","","","","","","","","","",""
"","","","","","image-keyboard-response","142","506136","0.0-117.0","64876e8c1a6f7c303a92351b","665500ab8938657b03fbdba8","665793123dafe137eff134c1","2351","stimuli/1000100.jpg","1","","prediction_trial","1","","true","","1","true","true","true","true","true","true","[1]","000","100","1","","","","","","",""
"","","","","","image-keyboard-response","143","506898","0.0-118.0","64876e8c1a6f7c303a92351b","665500ab8938657b03fbdba8","665793123dafe137eff134c1","762","stimuli/10001001.jpg"," ","","feedback_trial","1","","","","","","","","","","","","","","","","","","","","",""
"","","","","","image-keyboard-response","144","509213","0.0-119.0","64876e8c1a6f7c303a92351b","665500ab8938657b03fbdba8","665793123dafe137eff134c1","2314","stimuli/0100010.jpg","0","","prediction_trial","0","","true","","0","true","true","false","true","false","true","[0]","100","010","1","","","","","","",""
"","","","","","image-keyboard-response","145","510055","0.0-120.0","64876e8c1a6f7c303a92351b","665500ab8938657b03fbdba8","665793123dafe137eff134c1","841","stimuli/01000100.jpg"," ","","feedback_trial","0","","","","","","","","","","","","","","","","","","","","",""
"","","","","","image-keyboard-response","146","513193","0.0-121.0","64876e8c1a6f7c303a92351b","665500ab8938657b03fbdba8","665793123dafe137eff134c1","3137","stimuli/2101100.jpg","2","","prediction_trial","0","","false","","2","true","true","false","false","false","false","[2,0]","101","100","0","","","","","","",""
"","","","","","image-keyboard-response","147","514435","0.0-122.0","64876e8c1a6f7c303a92351b","665500ab8938657b03fbdba8","665793123dafe137eff134c1","1241","stimuli/21011000.jpg"," ","","feedback_trial","2","","","","","","","","","","","","","","","","","","","","",""
"","","","","","image-keyboard-response","148","517196","0.0-123.0","64876e8c1a6f7c303a92351b","665500ab8938657b03fbdba8","665793123dafe137eff134c1","2760","stimuli/1010110.jpg","1","","prediction_trial","1","","true","","1","false","false","false","true","false","false","[1]","010","110","1","","","","","","",""
"","","","","","image-keyboard-response","149","518054","0.0-124.0","64876e8c1a6f7c303a92351b","665500ab8938657b03fbdba8","665793123dafe137eff134c1","855","stimuli/10101101.jpg"," ","","feedback_trial","1","","","","","","","","","","","","","","","","","","","","",""
"","","","","","image-keyboard-response","150","520197","0.0-125.0","64876e8c1a6f7c303a92351b","665500ab8938657b03fbdba8","665793123dafe137eff134c1","2142","stimuli/0110110.jpg","0","","prediction_trial","1","","false","","0","false","false","false","false","false","false","[0,1]","110","110","0","","","","","","",""
"","","","","","image-keyboard-response","151","521343","0.0-126.0","64876e8c1a6f7c303a92351b","665500ab8938657b03fbdba8","665793123dafe137eff134c1","1144","stimuli/01101101.jpg"," ","","feedback_trial","0","","","","","","","","","","","","","","","","","","","","",""
"","","","","","image-keyboard-response","152","524515","0.0-127.0","64876e8c1a6f7c303a92351b","665500ab8938657b03fbdba8","665793123dafe137eff134c1","3171","stimuli/2111111.jpg","2","","prediction_trial","0","","false","","2","false","false","false","false","false","false","[1,2,0]","111","111","0","","","","","","",""
"","","","","","image-keyboard-response","153","525717","0.0-128.0","64876e8c1a6f7c303a92351b","665500ab8938657b03fbdba8","665793123dafe137eff134c1","1201","stimuli/21111110.jpg"," ","","feedback_trial","1","","","","","","","","","","","","","","","","","","","","",""
"","","","","","image-keyboard-response","154","527794","0.0-129.0","64876e8c1a6f7c303a92351b","665500ab8938657b03fbdba8","665793123dafe137eff134c1","2076","stimuli/1011110.jpg","1","","prediction_trial","2","","false","","1","false","false","false","false","false","false","[1,2]","011","110","0","","","","","","",""
"","","","","","image-keyboard-response","155","528944","0.0-130.0","64876e8c1a6f7c303a92351b","665500ab8938657b03fbdba8","665793123dafe137eff134c1","1149","stimuli/10111102.jpg"," ","","feedback_trial","1","","","","","","","","","","","","","","","","","","","","",""
"","","","","","image-keyboard-response","156","531711","0.0-131.0","64876e8c1a6f7c303a92351b","665500ab8938657b03fbdba8","665793123dafe137eff134c1","2766","stimuli/1111100.jpg","1","","prediction_trial","2","","false","","1","true","true","false","false","false","false","[0,1,2]","111","100","0","","","","","","",""
"","","","","","image-keyboard-response","157","534284","0.0-132.0","64876e8c1a6f7c303a92351b","665500ab8938657b03fbdba8","665793123dafe137eff134c1","2572","stimuli/11111002.jpg"," ","","feedback_trial","0","","","","","","","","","","","","","","","","","","","","",""
"","","","","","image-keyboard-response","158","536249","0.0-133.0","64876e8c1a6f7c303a92351b","665500ab8938657b03fbdba8","665793123dafe137eff134c1","1963","stimuli/2010111.jpg","2","","prediction_trial","2","","true","","2","false","false","true","true","false","false","[2]","010","111","1","","","","","","",""
"","","","","","image-keyboard-response","159","537282","0.0-134.0","64876e8c1a6f7c303a92351b","665500ab8938657b03fbdba8","665793123dafe137eff134c1","1031","stimuli/20101112.jpg"," ","","feedback_trial","2","","","","","","","","","","","","","","","","","","","","",""
"","","","","","image-keyboard-response","160","540357","0.0-135.0","64876e8c1a6f7c303a92351b","665500ab8938657b03fbdba8","665793123dafe137eff134c1","3073","stimuli/0101111.jpg","0","","prediction_trial","2","","false","","0","false","false","false","false","false","false","[2,0]","101","111","0","","","","","","",""
"","","","","","image-keyboard-response","161","541560","0.0-136.0","64876e8c1a6f7c303a92351b","665500ab8938657b03fbdba8","665793123dafe137eff134c1","1201","stimuli/01011112.jpg"," ","","feedback_trial","2","","","","","","","","","","","","","","","","","","","","",""
"","","","","","image-keyboard-response","162","543578","0.0-137.0","64876e8c1a6f7c303a92351b","665500ab8938657b03fbdba8","665793123dafe137eff134c1","2016","stimuli/1001111.jpg","1","","prediction_trial","1","","true","","1","false","false","true","true","false","false","[1]","001","111","1","","","","","","",""
"","","","","","image-keyboard-response","163","544498","0.0-138.0","64876e8c1a6f7c303a92351b","665500ab8938657b03fbdba8","665793123dafe137eff134c1","919","stimuli/10011111.jpg"," ","","feedback_trial","1","","","","","","","","","","","","","","","","","","","","",""
"","","","","","image-keyboard-response","164","547092","0.0-139.0","64876e8c1a6f7c303a92351b","665500ab8938657b03fbdba8","665793123dafe137eff134c1","2593","stimuli/2101000.jpg","2","","prediction_trial","2","","true","","2","true","true","false","false","false","false","[2,0]","101","000","1","","","","","","",""
"","","","","","image-keyboard-response","165","547925","0.0-140.0","64876e8c1a6f7c303a92351b","665500ab8938657b03fbdba8","665793123dafe137eff134c1","832","stimuli/21010002.jpg"," ","","feedback_trial","2","","","","","","","","","","","","","","","","","","","","",""
"","","","","","image-keyboard-response","166","551230","0.0-141.0","64876e8c1a6f7c303a92351b","665500ab8938657b03fbdba8","665793123dafe137eff134c1","3303","stimuli/1110011.jpg","1","","prediction_trial","1","","true","","1","false","false","false","false","false","false","[0,1]","110","011","1","","","","","","",""
"","","","","","image-keyboard-response","167","552157","0.0-142.0","64876e8c1a6f7c303a92351b","665500ab8938657b03fbdba8","665793123dafe137eff134c1","926","stimuli/11100111.jpg"," ","","feedback_trial","0","","","","","","","","","","","","","","","","","","","","",""
"","","","","","image-keyboard-response","168","555286","0.0-143.0","64876e8c1a6f7c303a92351b","665500ab8938657b03fbdba8","665793123dafe137eff134c1","3127","stimuli/1100110.jpg","0","","prediction_trial","1","","false","","1","false","false","true","true","false","false","[1]","100","110","0","","","","","","",""
"","","","","","image-keyboard-response","169","556481","0.0-144.0","64876e8c1a6f7c303a92351b","665500ab8938657b03fbdba8","665793123dafe137eff134c1","1195","stimuli/11001101.jpg"," ","","feedback_trial","1","","","","","","","","","","","","","","","","","","","","",""
"","","","","","image-keyboard-response","170","558832","0.0-145.0","64876e8c1a6f7c303a92351b","665500ab8938657b03fbdba8","665793123dafe137eff134c1","2350","stimuli/2110111.jpg","0","","prediction_trial","2","","false","","2","false","false","true","true","false","false","[2]","110","111","0","","","","","","",""
"","","","","","image-keyboard-response","171","560972","0.0-146.0","64876e8c1a6f7c303a92351b","665500ab8938657b03fbdba8","665793123dafe137eff134c1","2138","stimuli/21101112.jpg"," ","","feedback_trial","2","","","","","","","","","","","","","","","","","","","","",""
"","","","","","image-keyboard-response","172","564096","0.0-147.0","64876e8c1a6f7c303a92351b","665500ab8938657b03fbdba8","665793123dafe137eff134c1","3123","stimuli/0001101.jpg","0","","prediction_trial","0","","true","","0","false","false","true","true","false","false","[0]","001","101","1","","","","","","",""
"","","","","","image-keyboard-response","173","564998","0.0-148.0","64876e8c1a6f7c303a92351b","665500ab8938657b03fbdba8","665793123dafe137eff134c1","901","stimuli/00011010.jpg"," ","","feedback_trial","0","","","","","","","","","","","","","","","","","","","","",""
"","","","","","image-keyboard-response","174","566432","0.0-149.0","64876e8c1a6f7c303a92351b","665500ab8938657b03fbdba8","665793123dafe137eff134c1","1432","stimuli/0001000.jpg","0","","prediction_trial","0","","true","","0","true","true","true","true","true","true","[0]","001","000","1","","","","","","",""
"","","","","","image-keyboard-response","175","567499","0.0-150.0","64876e8c1a6f7c303a92351b","665500ab8938657b03fbdba8","665793123dafe137eff134c1","1067","stimuli/00010000.jpg"," ","","feedback_trial","0","","","","","","","","","","","","","","","","","","","","",""
"","","","","","image-keyboard-response","176","569673","0.0-151.0","64876e8c1a6f7c303a92351b","665500ab8938657b03fbdba8","665793123dafe137eff134c1","2173","stimuli/2100000.jpg","2","","prediction_trial","2","","true","","2","true","true","true","true","true","true","[2]","100","000","1","","","","","","",""
"","","","","","image-keyboard-response","177","570509","0.0-152.0","64876e8c1a6f7c303a92351b","665500ab8938657b03fbdba8","665793123dafe137eff134c1","835","stimuli/21000002.jpg"," ","","feedback_trial","2","","","","","","","","","","","","","","","","","","","","",""
"","","","","","image-keyboard-response","178","572356","0.0-153.0","64876e8c1a6f7c303a92351b","665500ab8938657b03fbdba8","665793123dafe137eff134c1","1846","stimuli/2010110.jpg","2","","prediction_trial","2","","true","","2","true","true","true","true","true","true","[2]","010","110","1","","","","","","",""
"","","","","","image-keyboard-response","179","573219","0.0-154.0","64876e8c1a6f7c303a92351b","665500ab8938657b03fbdba8","665793123dafe137eff134c1","862","stimuli/20101102.jpg"," ","","feedback_trial","2","","","","","","","","","","","","","","","","","","","","",""
"","","","","","image-keyboard-response","180","575299","0.0-155.0","64876e8c1a6f7c303a92351b","665500ab8938657b03fbdba8","665793123dafe137eff134c1","2079","stimuli/2100001.jpg","2","","prediction_trial","2","","true","","2","false","true","true","true","false","true","[2]","100","001","1","","","","","","",""
"","","","","","image-keyboard-response","181","576142","0.0-156.0","64876e8c1a6f7c303a92351b","665500ab8938657b03fbdba8","665793123dafe137eff134c1","841","stimuli/21000012.jpg"," ","","feedback_trial","2","","","","","","","","","","","","","","","","","","","","",""
"","","","","","image-keyboard-response","182","577887","0.0-157.0","64876e8c1a6f7c303a92351b","665500ab8938657b03fbdba8","665793123dafe137eff134c1","1744","stimuli/2011000.jpg","2","","prediction_trial","2","","true","","2","true","true","false","false","false","false","[2,1]","011","000","1","","","","","","",""
"","","","","","image-keyboard-response","183","578650","0.0-158.0","64876e8c1a6f7c303a92351b","665500ab8938657b03fbdba8","665793123dafe137eff134c1","762","stimuli/20110002.jpg"," ","","feedback_trial","2","","","","","","","","","","","","","","","","","","","","",""
"","","","","","image-keyboard-response","184","580794","0.0-159.0","64876e8c1a6f7c303a92351b","665500ab8938657b03fbdba8","665793123dafe137eff134c1","2143","stimuli/1010001.jpg","1","","prediction_trial","1","","true","","1","true","true","false","true","false","true","[1]","010","001","1","","","","","","",""
"","","","","","image-keyboard-response","185","581656","0.0-160.0","64876e8c1a6f7c303a92351b","665500ab8938657b03fbdba8","665793123dafe137eff134c1","860","stimuli/10100011.jpg"," ","","feedback_trial","1","","","","","","","","","","","","","","","","","","","","",""
"","","","","","image-keyboard-response","186","584362","0.0-161.0","64876e8c1a6f7c303a92351b","665500ab8938657b03fbdba8","665793123dafe137eff134c1","2705","stimuli/2100101.jpg","0","","prediction_trial","2","","false","","2","false","false","true","true","false","false","[2]","100","101","0","","","","","","",""
"","","","","","image-keyboard-response","187","585860","0.0-162.0","64876e8c1a6f7c303a92351b","665500ab8938657b03fbdba8","665793123dafe137eff134c1","1496","stimuli/21001012.jpg"," ","","feedback_trial","2","","","","","","","","","","","","","","","","","","","","",""
"","","","","","image-keyboard-response","188","589360","0.0-163.0","64876e8c1a6f7c303a92351b","665500ab8938657b03fbdba8","665793123dafe137eff134c1","3499","stimuli/1101111.jpg","1","","prediction_trial","1","","true","","1","false","false","true","true","false","false","[1]","101","111","1","","","","","","",""
"","","","","","image-keyboard-response","189","590727","0.0-164.0","64876e8c1a6f7c303a92351b","665500ab8938657b03fbdba8","665793123dafe137eff134c1","1365","stimuli/11011111.jpg"," ","","feedback_trial","1","","","","","","","","","","","","","","","","","","","","",""
"","","","","","image-keyboard-response","190","592773","0.0-165.0","64876e8c1a6f7c303a92351b","665500ab8938657b03fbdba8","665793123dafe137eff134c1","2045","stimuli/2100010.jpg","2","","prediction_trial","2","","true","","2","true","true","true","true","true","true","[2]","100","010","1","","","","","","",""
"","","","","","image-keyboard-response","191","593821","0.0-166.0","64876e8c1a6f7c303a92351b","665500ab8938657b03fbdba8","665793123dafe137eff134c1","1047","stimuli/21000102.jpg"," ","","feedback_trial","2","","","","","","","","","","","","","","","","","","","","",""
"","","","","","image-keyboard-response","192","597400","0.0-167.0","64876e8c1a6f7c303a92351b","665500ab8938657b03fbdba8","665793123dafe137eff134c1","3578","stimuli/2101111.jpg","1","","prediction_trial","0","","false","","2","false","false","false","false","false","false","[0,2]","101","111","0","","","","","","",""
"","","","","","image-keyboard-response","193","598670","0.0-168.0","64876e8c1a6f7c303a92351b","665500ab8938657b03fbdba8","665793123dafe137eff134c1","1269","stimuli/21011110.jpg"," ","","feedback_trial","0","","","","","","","","","","","","","","","","","","","","",""
"","","","","","image-keyboard-response","194","600185","0.0-169.0","64876e8c1a6f7c303a92351b","665500ab8938657b03fbdba8","665793123dafe137eff134c1","1515","stimuli/1001001.jpg","1","","prediction_trial","1","","true","","1","true","true","true","true","true","true","[1]","001","001","1","","","","","","",""
"","","","","","image-keyboard-response","195","601263","0.0-170.0","64876e8c1a6f7c303a92351b","665500ab8938657b03fbdba8","665793123dafe137eff134c1","1077","stimuli/10010011.jpg"," ","","feedback_trial","1","","","","","","","","","","","","","","","","","","","","",""
"","","","","","image-keyboard-response","196","602660","0.0-171.0","64876e8c1a6f7c303a92351b","665500ab8938657b03fbdba8","665793123dafe137eff134c1","1396","stimuli/1000001.jpg","1","","prediction_trial","1","","true","","1","true","true","true","true","true","true","[1]","000","001","1","","","","","","",""
"","","","","","image-keyboard-response","197","603721","0.0-172.0","64876e8c1a6f7c303a92351b","665500ab8938657b03fbdba8","665793123dafe137eff134c1","1060","stimuli/10000011.jpg"," ","","feedback_trial","1","","","","","","","","","","","","","","","","","","","","",""
"","","","","","image-keyboard-response","198","605043","0.0-173.0","64876e8c1a6f7c303a92351b","665500ab8938657b03fbdba8","665793123dafe137eff134c1","1321","stimuli/1001000.jpg","1","","prediction_trial","1","","true","","1","true","true","true","true","true","true","[1]","001","000","1","","","","","","",""
"","","","","","image-keyboard-response","199","606070","0.0-174.0","64876e8c1a6f7c303a92351b","665500ab8938657b03fbdba8","665793123dafe137eff134c1","1026","stimuli/10010001.jpg"," ","","feedback_trial","1","","","","","","","","","","","","","","","","","","","","",""
"","","","","","image-keyboard-response","200","609992","0.0-175.0","64876e8c1a6f7c303a92351b","665500ab8938657b03fbdba8","665793123dafe137eff134c1","3922","stimuli/0010100.jpg","0","","prediction_trial","0","","true","","0","false","true","true","true","false","true","[0]","010","100","1","","","","","","",""
"","","","","","image-keyboard-response","201","611048","0.0-176.0","64876e8c1a6f7c303a92351b","665500ab8938657b03fbdba8","665793123dafe137eff134c1","1054","stimuli/00101000.jpg"," ","","feedback_trial","0","","","","","","","","","","","","","","","","","","","","",""
"","","","","","image-keyboard-response","202","613218","0.0-177.0","64876e8c1a6f7c303a92351b","665500ab8938657b03fbdba8","665793123dafe137eff134c1","2170","stimuli/1011001.jpg","1","","prediction_trial","1","","true","","1","true","true","false","false","false","false","[2,1]","011","001","1","","","","","","",""
"","","","","","image-keyboard-response","203","614145","0.0-178.0","64876e8c1a6f7c303a92351b","665500ab8938657b03fbdba8","665793123dafe137eff134c1","926","stimuli/10110011.jpg"," ","","feedback_trial","2","","","","","","","","","","","","","","","","","","","","",""
"","","","","","image-keyboard-response","204","616452","0.0-179.0","64876e8c1a6f7c303a92351b","665500ab8938657b03fbdba8","665793123dafe137eff134c1","2306","stimuli/0011101.jpg","2","","prediction_trial","0","","false","","0","false","false","true","true","false","false","[0]","011","101","0","","","","","","",""
"","","","","","image-keyboard-response","205","618615","0.0-180.0","64876e8c1a6f7c303a92351b","665500ab8938657b03fbdba8","665793123dafe137eff134c1","2162","stimuli/00111010.jpg"," ","","feedback_trial","0","","","","","","","","","","","","","","","","","","","","",""
"","","","","","image-keyboard-response","206","620697","0.0-181.0","64876e8c1a6f7c303a92351b","665500ab8938657b03fbdba8","665793123dafe137eff134c1","2081","stimuli/1011111.jpg","1","","prediction_trial","1","","true","","1","false","false","false","false","false","false","[2,1]","011","111","1","","","","","","",""
"","","","","","image-keyboard-response","207","621705","0.0-182.0","64876e8c1a6f7c303a92351b","665500ab8938657b03fbdba8","665793123dafe137eff134c1","1007","stimuli/10111111.jpg"," ","","feedback_trial","2","","","","","","","","","","","","","","","","","","","","",""
"","","","","","image-keyboard-response","208","623787","0.0-183.0","64876e8c1a6f7c303a92351b","665500ab8938657b03fbdba8","665793123dafe137eff134c1","2081","stimuli/2001100.jpg","2","","prediction_trial","2","","true","","2","true","true","false","true","false","true","[2]","001","100","1","","","","","","",""
"","","","","","image-keyboard-response","209","624773","0.0-184.0","64876e8c1a6f7c303a92351b","665500ab8938657b03fbdba8","665793123dafe137eff134c1","985","stimuli/20011002.jpg"," ","","feedback_trial","2","","","","","","","","","","","","","","","","","","","","",""
"","","","","","image-keyboard-response","210","627748","0.0-185.0","64876e8c1a6f7c303a92351b","665500ab8938657b03fbdba8","665793123dafe137eff134c1","2975","stimuli/0110100.jpg","0","","prediction_trial","1","","false","","0","false","true","false","false","false","false","[1,0]","110","100","0","","","","","","",""
"","","","","","image-keyboard-response","211","628989","0.0-186.0","64876e8c1a6f7c303a92351b","665500ab8938657b03fbdba8","665793123dafe137eff134c1","1239","stimuli/01101001.jpg"," ","","feedback_trial","1","","","","","","","","","","","","","","","","","","","","",""
"","","","","","image-keyboard-response","212","631414","0.0-187.0","64876e8c1a6f7c303a92351b","665500ab8938657b03fbdba8","665793123dafe137eff134c1","2424","stimuli/2010000.jpg","2","","prediction_trial","2","","true","","2","true","true","true","true","true","true","[2]","010","000","1","","","","","","",""
"","","","","","image-keyboard-response","213","632115","0.0-188.0","64876e8c1a6f7c303a92351b","665500ab8938657b03fbdba8","665793123dafe137eff134c1","700","stimuli/20100002.jpg"," ","","feedback_trial","2","","","","","","","","","","","","","","","","","","","","",""
"","","","","","image-keyboard-response","214","634857","0.0-189.0","64876e8c1a6f7c303a92351b","665500ab8938657b03fbdba8","665793123dafe137eff134c1","2742","stimuli/0000000.jpg","0","","prediction_trial","0","","true","","0","true","true","true","true","true","true","[0]","000","000","1","","","","","","",""
"","","","","","image-keyboard-response","215","635893","0.0-190.0","64876e8c1a6f7c303a92351b","665500ab8938657b03fbdba8","665793123dafe137eff134c1","1035","stimuli/00000000.jpg"," ","","feedback_trial","0","","","","","","","","","","","","","","","","","","","","",""
"","","","","","image-keyboard-response","216","638442","0.0-191.0","64876e8c1a6f7c303a92351b","665500ab8938657b03fbdba8","665793123dafe137eff134c1","2548","stimuli/0000110.jpg","1","","prediction_trial","0","","false","","0","false","false","true","true","false","false","[0]","000","110","0","","","","","","",""
"","","","","","image-keyboard-response","217","639920","0.0-192.0","64876e8c1a6f7c303a92351b","665500ab8938657b03fbdba8","665793123dafe137eff134c1","1477","stimuli/00001100.jpg"," ","","feedback_trial","0","","","","","","","","","","","","","","","","","","","","",""
"","","","","","image-keyboard-response","218","641254","0.0-193.0","64876e8c1a6f7c303a92351b","665500ab8938657b03fbdba8","665793123dafe137eff134c1","1332","stimuli/1110110.jpg","1","","prediction_trial","0","","false","","1","false","false","false","false","false","false","[0,1]","110","110","0","","","","","","",""
"","","","","","image-keyboard-response","219","642531","0.0-194.0","64876e8c1a6f7c303a92351b","665500ab8938657b03fbdba8","665793123dafe137eff134c1","1276","stimuli/11101100.jpg"," ","","feedback_trial","0","","","","","","","","","","","","","","","","","","","","",""
"","","","","","image-keyboard-response","220","643693","0.0-195.0","64876e8c1a6f7c303a92351b","665500ab8938657b03fbdba8","665793123dafe137eff134c1","1161","stimuli/1100111.jpg","1","","prediction_trial","1","","true","","1","false","false","true","true","false","false","[1]","100","111","1","","","","","","",""
"","","","","","image-keyboard-response","221","644689","0.0-196.0","64876e8c1a6f7c303a92351b","665500ab8938657b03fbdba8","665793123dafe137eff134c1","996","stimuli/11001111.jpg"," ","","feedback_trial","1","","","","","","","","","","","","","","","","","","","","",""
"","","","","","image-keyboard-response","222","649143","0.0-197.0","64876e8c1a6f7c303a92351b","665500ab8938657b03fbdba8","665793123dafe137eff134c1","4454","stimuli/2100110.jpg","2","","prediction_trial","2","","true","","2","true","true","true","true","true","true","[2]","100","110","1","","","","","","",""
"","","","","","image-keyboard-response","223","650682","0.0-198.0","64876e8c1a6f7c303a92351b","665500ab8938657b03fbdba8","665793123dafe137eff134c1","1539","stimuli/21001102.jpg"," ","","feedback_trial","2","","","","","","","","","","","","","","","","","","","","",""
"","","","","","image-keyboard-response","224","653342","0.0-199.0","64876e8c1a6f7c303a92351b","665500ab8938657b03fbdba8","665793123dafe137eff134c1","2659","stimuli/2001111.jpg","2","","prediction_trial","2","","true","","2","false","false","false","true","false","false","[2]","001","111","1","","","","","","",""
"","","","","","image-keyboard-response","225","654442","0.0-200.0","64876e8c1a6f7c303a92351b","665500ab8938657b03fbdba8","665793123dafe137eff134c1","1100","stimuli/20011112.jpg"," ","","feedback_trial","2","","","","","","","","","","","","","","","","","","","","",""
"","","","","","image-keyboard-response","226","657838","0.0-201.0","64876e8c1a6f7c303a92351b","665500ab8938657b03fbdba8","665793123dafe137eff134c1","3396","stimuli/2001001.jpg","1","","prediction_trial","2","","false","","2","false","true","false","true","false","true","[2]","001","001","0","","","","","","",""
"","","","","","image-keyboard-response","227","658901","0.0-202.0","64876e8c1a6f7c303a92351b","665500ab8938657b03fbdba8","665793123dafe137eff134c1","1061","stimuli/20010012.jpg"," ","","feedback_trial","2","","","","","","","","","","","","","","","","","","","","",""
"","","","","","image-keyboard-response","228","660964","0.0-203.0","64876e8c1a6f7c303a92351b","665500ab8938657b03fbdba8","665793123dafe137eff134c1","2063","stimuli/2101011.jpg","1","","prediction_trial","2","","false","","2","false","false","false","false","false","false","[0,2]","101","011","0","","","","","","",""
"","","","","","image-keyboard-response","229","661891","0.0-204.0","64876e8c1a6f7c303a92351b","665500ab8938657b03fbdba8","665793123dafe137eff134c1","925","stimuli/21010112.jpg"," ","","feedback_trial","0","","","","","","","","","","","","","","","","","","","","",""
"","","","","","image-keyboard-response","230","664129","0.0-205.0","64876e8c1a6f7c303a92351b","665500ab8938657b03fbdba8","665793123dafe137eff134c1","2237","stimuli/0000011.jpg","0","","prediction_trial","0","","true","","0","true","true","true","true","true","true","[0]","000","011","1","","","","","","",""
"","","","","","image-keyboard-response","231","665400","0.0-206.0","64876e8c1a6f7c303a92351b","665500ab8938657b03fbdba8","665793123dafe137eff134c1","1270","stimuli/00000110.jpg"," ","","feedback_trial","0","","","","","","","","","","","","","","","","","","","","",""
"","","","","","image-keyboard-response","232","669138","0.0-207.0","64876e8c1a6f7c303a92351b","665500ab8938657b03fbdba8","665793123dafe137eff134c1","3737","stimuli/2110101.jpg","0","","prediction_trial","2","","false","","2","false","false","true","true","false","false","[2]","110","101","0","","","","","","",""
"","","","","","image-keyboard-response","233","670348","0.0-208.0","64876e8c1a6f7c303a92351b","665500ab8938657b03fbdba8","665793123dafe137eff134c1","1209","stimuli/21101012.jpg"," ","","feedback_trial","2","","","","","","","","","","","","","","","","","","","","",""
"","","","","","image-keyboard-response","234","672240","0.0-209.0","64876e8c1a6f7c303a92351b","665500ab8938657b03fbdba8","665793123dafe137eff134c1","1892","stimuli/1111110.jpg","1","","prediction_trial","2","","false","","1","false","false","false","false","false","false","[1,0,2]","111","110","0","","","","","","",""
"","","","","","image-keyboard-response","235","673305","0.0-210.0","64876e8c1a6f7c303a92351b","665500ab8938657b03fbdba8","665793123dafe137eff134c1","1064","stimuli/11111102.jpg"," ","","feedback_trial","1","","","","","","","","","","","","","","","","","","","","",""
"","","","","","image-keyboard-response","236","675166","0.0-211.0","64876e8c1a6f7c303a92351b","665500ab8938657b03fbdba8","665793123dafe137eff134c1","1860","stimuli/0111010.jpg","0","","prediction_trial","2","","false","","0","true","true","false","false","false","false","[2,0,1]","111","010","0","","","","","","",""
"","","","","","image-keyboard-response","237","676455","0.0-212.0","64876e8c1a6f7c303a92351b","665500ab8938657b03fbdba8","665793123dafe137eff134c1","1288","stimuli/01110102.jpg"," ","","feedback_trial","2","","","","","","","","","","","","","","","","","","","","",""
"","","","","","image-keyboard-response","238","678626","0.0-213.0","64876e8c1a6f7c303a92351b","665500ab8938657b03fbdba8","665793123dafe137eff134c1","2170","stimuli/1100000.jpg","1","","prediction_trial","1","","true","","1","true","true","true","true","true","true","[1]","100","000","1","","","","","","",""
"","","","","","image-keyboard-response","239","679569","0.0-214.0","64876e8c1a6f7c303a92351b","665500ab8938657b03fbdba8","665793123dafe137eff134c1","942","stimuli/11000001.jpg"," ","","feedback_trial","1","","","","","","","","","","","","","","","","","","","","",""
"","","","","","image-keyboard-response","240","681380","0.0-215.0","64876e8c1a6f7c303a92351b","665500ab8938657b03fbdba8","665793123dafe137eff134c1","1809","stimuli/0011011.jpg","0","","prediction_trial","0","","true","","0","true","true","true","true","true","true","[0]","011","011","1","","","","","","",""
"","","","","","image-keyboard-response","241","682237","0.0-216.0","64876e8c1a6f7c303a92351b","665500ab8938657b03fbdba8","665793123dafe137eff134c1","856","stimuli/00110110.jpg"," ","","feedback_trial","0","","","","","","","","","","","","","","","","","","","","",""
"","","","","","image-keyboard-response","242","683642","0.0-217.0","64876e8c1a6f7c303a92351b","665500ab8938657b03fbdba8","665793123dafe137eff134c1","1404","stimuli/0010010.jpg","0","","prediction_trial","0","","true","","0","true","true","true","true","true","true","[0]","010","010","1","","","","","","",""
"","","","","","image-keyboard-response","243","684638","0.0-218.0","64876e8c1a6f7c303a92351b","665500ab8938657b03fbdba8","665793123dafe137eff134c1","995","stimuli/00100100.jpg"," ","","feedback_trial","0","","","","","","","","","","","","","","","","","","","","",""
"","","","","","image-keyboard-response","244","687173","0.0-219.0","64876e8c1a6f7c303a92351b","665500ab8938657b03fbdba8","665793123dafe137eff134c1","2535","stimuli/1001011.jpg","2","","prediction_trial","1","","false","","1","false","false","true","true","false","false","[1]","001","011","0","","","","","","",""
"","","","","","image-keyboard-response","245","688325","0.0-220.0","64876e8c1a6f7c303a92351b","665500ab8938657b03fbdba8","665793123dafe137eff134c1","1151","stimuli/10010111.jpg"," ","","feedback_trial","1","","","","","","","","","","","","","","","","","","","","",""
"","","","","","image-keyboard-response","246","690086","0.0-221.0","64876e8c1a6f7c303a92351b","665500ab8938657b03fbdba8","665793123dafe137eff134c1","1761","stimuli/1110111.jpg","2","","prediction_trial","0","","false","","1","false","false","false","false","false","false","[0,1]","110","111","0","","","","","","",""
"","","","","","image-keyboard-response","247","691202","0.0-222.0","64876e8c1a6f7c303a92351b","665500ab8938657b03fbdba8","665793123dafe137eff134c1","1116","stimuli/11101110.jpg"," ","","feedback_trial","0","","","","","","","","","","","","","","","","","","","","",""
"","","","","","image-keyboard-response","248","692997","0.0-223.0","64876e8c1a6f7c303a92351b","665500ab8938657b03fbdba8","665793123dafe137eff134c1","1793","stimuli/2111100.jpg","2","","prediction_trial","0","","false","","2","true","true","false","false","false","false","[0,1,2]","111","100","0","","","","","","",""
"","","","","","image-keyboard-response","249","694320","0.0-224.0","64876e8c1a6f7c303a92351b","665500ab8938657b03fbdba8","665793123dafe137eff134c1","1321","stimuli/21111000.jpg"," ","","feedback_trial","0","","","","","","","","","","","","","","","","","","","","",""
"","","","","","image-keyboard-response","250","696449","0.0-225.0","64876e8c1a6f7c303a92351b","665500ab8938657b03fbdba8","665793123dafe137eff134c1","2128","stimuli/0011000.jpg","0","","prediction_trial","0","","true","","0","true","true","true","true","true","true","[0]","011","000","1","","","","","","",""
"","","","","","image-keyboard-response","251","697464","0.0-226.0","64876e8c1a6f7c303a92351b","665500ab8938657b03fbdba8","665793123dafe137eff134c1","1013","stimuli/00110000.jpg"," ","","feedback_trial","0","","","","","","","","","","","","","","","","","","","","",""
"","","","","","image-keyboard-response","252","699456","0.0-227.0","64876e8c1a6f7c303a92351b","665500ab8938657b03fbdba8","665793123dafe137eff134c1","1991","stimuli/0001001.jpg","0","","prediction_trial","0","","true","","0","true","true","true","true","true","true","[0]","001","001","1","","","","","","",""
"","","","","","image-keyboard-response","253","700315","0.0-228.0","64876e8c1a6f7c303a92351b","665500ab8938657b03fbdba8","665793123dafe137eff134c1","858","stimuli/00010010.jpg"," ","","feedback_trial","0","","","","","","","","","","","","","","","","","","","","",""
"","","","","","image-keyboard-response","254","701662","0.0-229.0","64876e8c1a6f7c303a92351b","665500ab8938657b03fbdba8","665793123dafe137eff134c1","1347","stimuli/0100100.jpg","0","","prediction_trial","0","","true","","0","false","true","false","true","false","true","[0]","100","100","1","","","","","","",""
"","","","","","image-keyboard-response","255","702655","0.0-230.0","64876e8c1a6f7c303a92351b","665500ab8938657b03fbdba8","665793123dafe137eff134c1","991","stimuli/01001000.jpg"," ","","feedback_trial","0","","","","","","","","","","","","","","","","","","","","",""
"","","","","","image-keyboard-response","256","704784","0.0-231.0","64876e8c1a6f7c303a92351b","665500ab8938657b03fbdba8","665793123dafe137eff134c1","2129","stimuli/1111111.jpg","1","","prediction_trial","0","","false","","1","false","false","false","false","false","false","[0,2,1]","111","111","0","","","","","","",""
"","","","","","image-keyboard-response","257","705890","0.0-232.0","64876e8c1a6f7c303a92351b","665500ab8938657b03fbdba8","665793123dafe137eff134c1","1106","stimuli/11111110.jpg"," ","","feedback_trial","0","","","","","","","","","","","","","","","","","","","","",""
"","","","","","image-keyboard-response","258","708685","0.0-233.0","64876e8c1a6f7c303a92351b","665500ab8938657b03fbdba8","665793123dafe137eff134c1","2794","stimuli/1101110.jpg","2","","prediction_trial","1","","false","","1","false","false","true","true","false","false","[1]","101","110","0","","","","","","",""
"","","","","","image-keyboard-response","259","709515","0.0-234.0","64876e8c1a6f7c303a92351b","665500ab8938657b03fbdba8","665793123dafe137eff134c1","829","stimuli/11011101.jpg"," ","","feedback_trial","1","","","","","","","","","","","","","","","","","","","","",""
"","","","","","image-keyboard-response","260","711993","0.0-235.0","64876e8c1a6f7c303a92351b","665500ab8938657b03fbdba8","665793123dafe137eff134c1","2477","stimuli/2111001.jpg","2","","prediction_trial","1","","false","","2","false","true","false","false","false","false","[0,2,1]","111","001","0","","","","","","",""
"","","","","","image-keyboard-response","261","712833","0.0-236.0","64876e8c1a6f7c303a92351b","665500ab8938657b03fbdba8","665793123dafe137eff134c1","839","stimuli/21110011.jpg"," ","","feedback_trial","0","","","","","","","","","","","","","","","","","","","","",""
"","","","","","image-keyboard-response","262","714563","0.0-237.0","64876e8c1a6f7c303a92351b","665500ab8938657b03fbdba8","665793123dafe137eff134c1","1728","stimuli/0101110.jpg","1","","prediction_trial","2","","false","","0","false","false","false","false","false","false","[0,2]","101","110","0","","","","","","",""
"","","","","","image-keyboard-response","263","715680","0.0-238.0","64876e8c1a6f7c303a92351b","665500ab8938657b03fbdba8","665793123dafe137eff134c1","1116","stimuli/01011102.jpg"," ","","feedback_trial","0","","","","","","","","","","","","","","","","","","","","",""
"","","","","","image-keyboard-response","264","717322","0.0-239.0","64876e8c1a6f7c303a92351b","665500ab8938657b03fbdba8","665793123dafe137eff134c1","1641","stimuli/0101010.jpg","0","","prediction_trial","2","","false","","0","true","true","false","false","false","false","[2,0]","101","010","0","","","","","","",""
"","","","","","image-keyboard-response","265","719525","0.0-240.0","64876e8c1a6f7c303a92351b","665500ab8938657b03fbdba8","665793123dafe137eff134c1","2202","stimuli/01010102.jpg"," ","","feedback_trial","2","","","","","","","","","","","","","","","","","","","","",""
"","","","","","image-keyboard-response","266","721609","0.0-241.0","64876e8c1a6f7c303a92351b","665500ab8938657b03fbdba8","665793123dafe137eff134c1","2083","stimuli/2011111.jpg","2","","prediction_trial","2","","true","","2","false","false","false","false","false","false","[1,2]","011","111","1","","","","","","",""
"","","","","","image-keyboard-response","267","722509","0.0-242.0","64876e8c1a6f7c303a92351b","665500ab8938657b03fbdba8","665793123dafe137eff134c1","899","stimuli/20111112.jpg"," ","","feedback_trial","1","","","","","","","","","","","","","","","","","","","","",""
"","","","","","image-keyboard-response","268","724275","0.0-243.0","64876e8c1a6f7c303a92351b","665500ab8938657b03fbdba8","665793123dafe137eff134c1","1765","stimuli/0010011.jpg","0","","prediction_trial","0","","true","","0","true","true","true","true","true","true","[0]","010","011","1","","","","","","",""
"","","","","","image-keyboard-response","269","725041","0.0-244.0","64876e8c1a6f7c303a92351b","665500ab8938657b03fbdba8","665793123dafe137eff134c1","763","stimuli/00100110.jpg"," ","","feedback_trial","0","","","","","","","","","","","","","","","","","","","","",""
"","","","","","image-keyboard-response","270","728194","0.0-245.0","64876e8c1a6f7c303a92351b","665500ab8938657b03fbdba8","665793123dafe137eff134c1","3152","stimuli/2000101.jpg","1","","prediction_trial","2","","false","","2","false","false","true","true","false","false","[2]","000","101","0","","","","","","",""
"","","","","","image-keyboard-response","271","729234","0.0-246.0","64876e8c1a6f7c303a92351b","665500ab8938657b03fbdba8","665793123dafe137eff134c1","1040","stimuli/20001012.jpg"," ","","feedback_trial","2","","","","","","","","","","","","","","","","","","","","",""
"","","","","","image-keyboard-response","272","730606","0.0-247.0","64876e8c1a6f7c303a92351b","665500ab8938657b03fbdba8","665793123dafe137eff134c1","1371","stimuli/0010110.jpg","1","","prediction_trial","0","","false","","0","false","false","true","true","false","false","[0]","010","110","0","","","","","","",""
"","","","","","image-keyboard-response","273","731891","0.0-248.0","64876e8c1a6f7c303a92351b","665500ab8938657b03fbdba8","665793123dafe137eff134c1","1283","stimuli/00101100.jpg"," ","","feedback_trial","0","","","","","","","","","","","","","","","","","","","","",""
"","","","","","image-keyboard-response","274","733850","0.0-249.0","64876e8c1a6f7c303a92351b","665500ab8938657b03fbdba8","665793123dafe137eff134c1","1959","stimuli/2011010.jpg","2","","prediction_trial","1","","false","","2","true","true","false","false","false","false","[1,2]","011","010","0","","","","","","",""
"","","","","","image-keyboard-response","275","734936","0.0-250.0","64876e8c1a6f7c303a92351b","665500ab8938657b03fbdba8","665793123dafe137eff134c1","1085","stimuli/20110101.jpg"," ","","feedback_trial","1","","","","","","","","","","","","","","","","","","","","",""
"","","","","","image-keyboard-response","276","736735","0.0-251.0","64876e8c1a6f7c303a92351b","665500ab8938657b03fbdba8","665793123dafe137eff134c1","1798","stimuli/2100100.jpg","2","","prediction_trial","2","","true","","2","true","true","true","true","true","true","[2]","100","100","1","","","","","","",""
"","","","","","image-keyboard-response","277","737435","0.0-252.0","64876e8c1a6f7c303a92351b","665500ab8938657b03fbdba8","665793123dafe137eff134c1","699","stimuli/21001002.jpg"," ","","feedback_trial","2","","","","","","","","","","","","","","","","","","","","",""
"","","","","","image-keyboard-response","278","739914","0.0-253.0","64876e8c1a6f7c303a92351b","665500ab8938657b03fbdba8","665793123dafe137eff134c1","2477","stimuli/0110101.jpg","1","","prediction_trial","0","","false","","0","false","false","false","false","false","false","[0,1]","110","101","0","","","","","","",""
"","","","","","image-keyboard-response","279","740972","0.0-254.0","64876e8c1a6f7c303a92351b","665500ab8938657b03fbdba8","665793123dafe137eff134c1","1056","stimuli/01101010.jpg"," ","","feedback_trial","0","","","","","","","","","","","","","","","","","","","","",""
"","","","","","image-keyboard-response","280","741883","0.0-255.0","64876e8c1a6f7c303a92351b","665500ab8938657b03fbdba8","665793123dafe137eff134c1","910","stimuli/1111011.jpg","1","","prediction_trial","1","","true","","1","false","false","false","false","false","false","[0,2,1]","111","011","1","","","","","","",""
"","","","","","image-keyboard-response","281","742758","0.0-256.0","64876e8c1a6f7c303a92351b","665500ab8938657b03fbdba8","665793123dafe137eff134c1","874","stimuli/11110111.jpg"," ","","feedback_trial","0","","","","","","","","","","","","","","","","","","","","",""
"","","","","","image-keyboard-response","282","745464","0.0-257.0","64876e8c1a6f7c303a92351b","665500ab8938657b03fbdba8","665793123dafe137eff134c1","2705","stimuli/0000001.jpg","0","","prediction_trial","0","","true","","0","true","true","true","true","true","true","[0]","000","001","1","","","","","","",""
"","","","","","image-keyboard-response","283","746120","0.0-258.0","64876e8c1a6f7c303a92351b","665500ab8938657b03fbdba8","665793123dafe137eff134c1","655","stimuli/00000010.jpg"," ","","feedback_trial","0","","","","","","","","","","","","","","","","","","","","",""
"","","","","","image-keyboard-response","284","748428","0.0-259.0","64876e8c1a6f7c303a92351b","665500ab8938657b03fbdba8","665793123dafe137eff134c1","2307","stimuli/1110000.jpg","1","","prediction_trial","0","","false","","1","true","true","false","false","false","false","[0,1]","110","000","0","","","","","","",""
"","","","","","image-keyboard-response","285","749506","0.0-260.0","64876e8c1a6f7c303a92351b","665500ab8938657b03fbdba8","665793123dafe137eff134c1","1077","stimuli/11100000.jpg"," ","","feedback_trial","0","","","","","","","","","","","","","","","","","","","","",""
"","","","","","image-keyboard-response","286","751181","0.0-261.0","64876e8c1a6f7c303a92351b","665500ab8938657b03fbdba8","665793123dafe137eff134c1","1674","stimuli/2010010.jpg","2","","prediction_trial","2","","true","","2","true","true","true","true","true","true","[2]","010","010","1","","","","","","",""
"","","","","","image-keyboard-response","287","751961","0.0-262.0","64876e8c1a6f7c303a92351b","665500ab8938657b03fbdba8","665793123dafe137eff134c1","779","stimuli/20100102.jpg"," ","","feedback_trial","2","","","","","","","","","","","","","","","","","","","","",""
"","","","","","image-keyboard-response","288","754119","0.0-263.0","64876e8c1a6f7c303a92351b","665500ab8938657b03fbdba8","665793123dafe137eff134c1","2157","stimuli/2011100.jpg","2","","prediction_trial","2","","true","","2","true","true","false","false","false","false","[2,1]","011","100","1","","","","","","",""
"","","","","","image-keyboard-response","289","754867","0.0-264.0","64876e8c1a6f7c303a92351b","665500ab8938657b03fbdba8","665793123dafe137eff134c1","746","stimuli/20111002.jpg"," ","","feedback_trial","2","","","","","","","","","","","","","","","","","","","","",""
"","","","","","image-keyboard-response","290","756705","0.0-265.0","64876e8c1a6f7c303a92351b","665500ab8938657b03fbdba8","665793123dafe137eff134c1","1836","stimuli/1001100.jpg","1","","prediction_trial","1","","true","","1","true","true","true","true","true","true","[1]","001","100","1","","","","","","",""
"","","","","","image-keyboard-response","291","757316","0.0-266.0","64876e8c1a6f7c303a92351b","665500ab8938657b03fbdba8","665793123dafe137eff134c1","610","stimuli/10011001.jpg"," ","","feedback_trial","1","","","","","","","","","","","","","","","","","","","","",""
"","","","","","image-keyboard-response","292","759208","0.0-267.0","64876e8c1a6f7c303a92351b","665500ab8938657b03fbdba8","665793123dafe137eff134c1","1892","stimuli/0100011.jpg","0","","prediction_trial","0","","true","","0","true","true","false","true","false","true","[0]","100","011","1","","","","","","",""
"","","","","","image-keyboard-response","293","760015","0.0-268.0","64876e8c1a6f7c303a92351b","665500ab8938657b03fbdba8","665793123dafe137eff134c1","805","stimuli/01000110.jpg"," ","","feedback_trial","0","","","","","","","","","","","","","","","","","","","","",""
"","","","","","image-keyboard-response","294","761835","0.0-269.0","64876e8c1a6f7c303a92351b","665500ab8938657b03fbdba8","665793123dafe137eff134c1","1818","stimuli/1111000.jpg","1","","prediction_trial","1","","true","","1","true","true","false","false","false","false","[1,0,2]","111","000","1","","","","","","",""
"","","","","","image-keyboard-response","295","762462","0.0-270.0","64876e8c1a6f7c303a92351b","665500ab8938657b03fbdba8","665793123dafe137eff134c1","626","stimuli/11110001.jpg"," ","","feedback_trial","1","","","","","","","","","","","","","","","","","","","","",""
"","","","","","image-keyboard-response","296","764362","0.0-271.0","64876e8c1a6f7c303a92351b","665500ab8938657b03fbdba8","665793123dafe137eff134c1","1899","stimuli/0100110.jpg","1","","prediction_trial","0","","false","","0","false","false","false","true","false","false","[0]","100","110","0","","","","","","",""
"","","","","","image-keyboard-response","297","765573","0.0-272.0","64876e8c1a6f7c303a92351b","665500ab8938657b03fbdba8","665793123dafe137eff134c1","1210","stimuli/01001100.jpg"," ","","feedback_trial","0","","","","","","","","","","","","","","","","","","","","",""
"","","","","","image-keyboard-response","298","766769","0.0-273.0","64876e8c1a6f7c303a92351b","665500ab8938657b03fbdba8","665793123dafe137eff134c1","1194","stimuli/1000101.jpg","1","","prediction_trial","1","","true","","1","true","true","true","true","true","true","[1]","000","101","1","","","","","","",""
"","","","","","image-keyboard-response","299","767501","0.0-274.0","64876e8c1a6f7c303a92351b","665500ab8938657b03fbdba8","665793123dafe137eff134c1","731","stimuli/10001011.jpg"," ","","feedback_trial","1","","","","","","","","","","","","","","","","","","","","",""
"","","","","","image-keyboard-response","300","769298","0.0-275.0","64876e8c1a6f7c303a92351b","665500ab8938657b03fbdba8","665793123dafe137eff134c1","1796","stimuli/2001110.jpg","2","","prediction_trial","2","","true","","2","true","true","false","true","false","true","[2]","001","110","1","","","","","","",""
"","","","","","image-keyboard-response","301","769945","0.0-276.0","64876e8c1a6f7c303a92351b","665500ab8938657b03fbdba8","665793123dafe137eff134c1","645","stimuli/20011102.jpg"," ","","feedback_trial","2","","","","","","","","","","","","","","","","","","","","",""
"","","","","","image-keyboard-response","302","771698","0.0-277.0","64876e8c1a6f7c303a92351b","665500ab8938657b03fbdba8","665793123dafe137eff134c1","1752","stimuli/0010001.jpg","0","","prediction_trial","0","","true","","0","true","true","true","true","true","true","[0]","010","001","1","","","","","","",""
"","","","","","image-keyboard-response","303","772379","0.0-278.0","64876e8c1a6f7c303a92351b","665500ab8938657b03fbdba8","665793123dafe137eff134c1","680","stimuli/00100010.jpg"," ","","feedback_trial","0","","","","","","","","","","","","","","","","","","","","",""
"","","","","","image-keyboard-response","304","774520","0.0-279.0","64876e8c1a6f7c303a92351b","665500ab8938657b03fbdba8","665793123dafe137eff134c1","2140","stimuli/2000000.jpg","2","","prediction_trial","2","","true","","2","true","true","true","true","true","true","[2]","000","000","1","","","","","","",""
"","","","","","image-keyboard-response","305","775071","0.0-280.0","64876e8c1a6f7c303a92351b","665500ab8938657b03fbdba8","665793123dafe137eff134c1","550","stimuli/20000002.jpg"," ","","feedback_trial","2","","","","","","","","","","","","","","","","","","","","",""
"","","","","","image-keyboard-response","306","776846","0.0-281.0","64876e8c1a6f7c303a92351b","665500ab8938657b03fbdba8","665793123dafe137eff134c1","1774","stimuli/0011111.jpg","1","","prediction_trial","0","","false","","0","false","false","true","true","false","false","[0]","011","111","0","","","","","","",""
"","","","","","image-keyboard-response","307","777816","0.0-282.0","64876e8c1a6f7c303a92351b","665500ab8938657b03fbdba8","665793123dafe137eff134c1","969","stimuli/00111110.jpg"," ","","feedback_trial","0","","","","","","","","","","","","","","","","","","","","",""
"","","","","","image-keyboard-response","308","778935","0.0-283.0","64876e8c1a6f7c303a92351b","665500ab8938657b03fbdba8","665793123dafe137eff134c1","1117","stimuli/1110101.jpg","1","","prediction_trial","1","","true","","1","true","true","false","false","false","false","[0,1]","110","101","1","","","","","","",""
"","","","","","image-keyboard-response","309","779700","0.0-284.0","64876e8c1a6f7c303a92351b","665500ab8938657b03fbdba8","665793123dafe137eff134c1","763","stimuli/11101011.jpg"," ","","feedback_trial","0","","","","","","","","","","","","","","","","","","","","",""
"","","","","","image-keyboard-response","310","781477","0.0-285.0","64876e8c1a6f7c303a92351b","665500ab8938657b03fbdba8","665793123dafe137eff134c1","1775","stimuli/2011110.jpg","2","","prediction_trial","2","","true","","2","true","true","false","false","false","false","[1,2]","011","110","1","","","","","","",""
"","","","","","image-keyboard-response","311","782185","0.0-286.0","64876e8c1a6f7c303a92351b","665500ab8938657b03fbdba8","665793123dafe137eff134c1","707","stimuli/20111102.jpg"," ","","feedback_trial","1","","","","","","","","","","","","","","","","","","","","",""
"","","","","","image-keyboard-response","312","783726","0.0-287.0","64876e8c1a6f7c303a92351b","665500ab8938657b03fbdba8","665793123dafe137eff134c1","1539","stimuli/2101110.jpg","2","","prediction_trial","0","","false","","2","true","true","false","false","false","false","[2,0]","101","110","0","","","","","","",""
"","","","","","image-keyboard-response","313","784942","0.0-288.0","64876e8c1a6f7c303a92351b","665500ab8938657b03fbdba8","665793123dafe137eff134c1","1214","stimuli/21011100.jpg"," ","","feedback_trial","2","","","","","","","","","","","","","","","","","","","","",""
"","","","","","image-keyboard-response","314","786859","0.0-289.0","64876e8c1a6f7c303a92351b","665500ab8938657b03fbdba8","665793123dafe137eff134c1","1915","stimuli/1011101.jpg","1","","prediction_trial","1","","true","","1","true","true","false","false","false","false","[2,1]","011","101","1","","","","","","",""
"","","","","","image-keyboard-response","315","787522","0.0-290.0","64876e8c1a6f7c303a92351b","665500ab8938657b03fbdba8","665793123dafe137eff134c1","662","stimuli/10111011.jpg"," ","","feedback_trial","2","","","","","","","","","","","","","","","","","","","","",""
"","","","","","image-keyboard-response","316","792643","0.0-291.0","64876e8c1a6f7c303a92351b","665500ab8938657b03fbdba8","665793123dafe137eff134c1","5119","stimuli/0001111.jpg","0","","prediction_trial","0","","true","","0","false","false","true","true","false","false","[0]","001","111","1","","","","","","",""
"","","","","","image-keyboard-response","317","793563","0.0-292.0","64876e8c1a6f7c303a92351b","665500ab8938657b03fbdba8","665793123dafe137eff134c1","919","stimuli/00011110.jpg"," ","","feedback_trial","0","","","","","","","","","","","","","","","","","","","","",""
"","","","","","survey-html-form","318","815316","0.0-293.0","64876e8c1a6f7c303a92351b","665500ab8938657b03fbdba8","665793123dafe137eff134c1","21750","","{""feedback"":""just random"",""age"":""71"",""gender"":""Female"",""other_gender"":"""",""race"":""White"",""other_race"":""""}","","exit_survey","","","","","","","","","","","","","","","","just random","71","","Female","White","0.6041666666666666","0.6041666666666666"
