"success","timeout","failed_images","failed_audio","failed_video","trial_type","trial_index","time_elapsed","internal_node_id","prolific_id","prolific_study_id","prolific_session_id","rt","stimulus","response","view_history","trial","character_choice","stimulus_dict","accuracy","correct_response","ball_pos","ego_ball_visible","ego_can_infer","alter_ball_visible","alter_can_infer","collective_ball_visible","collective_can_infer","search_locations","alter_occluders","ego_occluders","accuracy_bool","feedback","age","ethnicity","gender","race","overall_accuracy","bonus"
"true","false","[]","[]","[]","preload","0","5435","0.0-0.0","60a9b8f7b9748b9999090dd8","665500ab8938657b03fbdba8","665792ee4bd0152d82204b34","","","","","","","","","","","","","","","","","","","","","","","","","","",""
"true","","","","","fullscreen","1","8175","0.0-1.0","60a9b8f7b9748b9999090dd8","665500ab8938657b03fbdba8","665792ee4bd0152d82204b34","","","","","","","","","","","","","","","","","","","","","","","","","","",""
"","","","","","html-button-response","2","9723","0.0-2.0","60a9b8f7b9748b9999090dd8","665500ab8938657b03fbdba8","665792ee4bd0152d82204b34","1548","<p><b>Consent Form</b></p> <div style=""text-align:left;background-color:lightgrey; padding:20px; max-width:900px;""><p>Please consider this information carefully before deciding whether to participate in this research.</p> <p>The purpose of this research is to examine which factors influence social judgment and decision-making. You will be asked to make judgements about individuals and actions in social scenarios. We are simply interested in your judgement. The study will take less than 1 hour to complete, and you will receive less than $20 on Prolific. Your compensation and time commitment are specified in the study description. There are no anticipated risks associated with participating in this study. The effects of participating should be comparable to those you would ordinarily experience from viewing a computer monitor and using a mouse or keyboard for a similar amount of time. At the end of the study, we will provide an explanation of the questions that motivate this line of research and will describe the potential implications. </p><p> Your participation in this study is completely voluntary and you may refuse to participate or you may choose to withdraw at any time without penalty or loss of benefits to you which are otherwise entitled. Your participation in this study will remain confidential. No personally identifiable information will be associated with your data. Also, all analyses of the data will be averaged across all the participants, so your individual responses will never be specifically analyzed. </p><p> If you have questions or concerns about your participation or payment, or want to request a summary of research findings, please contact Dr. Jonathan Phillips at Jonathan.S.Phillips@dartmouth.edu. </p><p> Please save a copy of this form for your records. </p><p><b>Agreement: </b>The nature and purpose of this research have been sufficiently explained and I agree to participate in this study. I understand that I am free to withdraw at any time without incurring any penalty. Please consent by clicking the button below to continue. Otherwise, please exit the study at any time. </p>","0","","","","","","","","","","","","","","","","","","","","","","","",""
"","","","","","instructions","3","40425","0.0-3.0-0.0","60a9b8f7b9748b9999090dd8","665500ab8938657b03fbdba8","665792ee4bd0152d82204b34","30702","","","[{""page_index"":0,""viewing_time"":956},{""page_index"":1,""viewing_time"":1197},{""page_index"":2,""viewing_time"":939},{""page_index"":3,""viewing_time"":4208},{""page_index"":4,""viewing_time"":1108},{""page_index"":5,""viewing_time"":1033},{""page_index"":6,""viewing_time"":1860},{""page_index"":7,""viewing_time"":1254},{""page_index"":8,""viewing_time"":1876},{""page_index"":9,""viewing_time"":2089},{""page_index"":10,""viewing_time"":7464},{""page_index"":11,""viewing_time"":2414},{""page_index"":12,""viewing_time"":3693},{""page_index"":13,""viewing_time"":613}]","intro","","","","","","","","","","","","","","","","","","","","","",""
"","","","","","image-keyboard-response","4","44460","0.0-3.0-1.0","60a9b8f7b9748b9999090dd8","665500ab8938657b03fbdba8","665792ee4bd0152d82204b34","4033","stimuli/0000010.jpg","0","","prediction_practice","0","{""filepath"":""stimuli/0000010.jpg"",""ball_pos"":0,""ego_ball_visible"":true,""ego_can_infer"":true,""alter_ball_visible"":true,""alter_can_infer"":true,""collective_ball_visible"":true,""collective_can_infer"":true,""search_locations"":[0],""alter_occluders"":""000"",""ego_occluders"":""010""}","true","","","","","","","","","","","","","","","","","","",""
"","","","","","image-keyboard-response","5","45445","0.0-3.0-2.0","60a9b8f7b9748b9999090dd8","665500ab8938657b03fbdba8","665792ee4bd0152d82204b34","985","stimuli/00000100.jpg"," ","","practrice_feedback","0","","","","","","","","","","","","","","","","","","","","",""
"","","","","","image-keyboard-response","6","47974","0.0-3.0-3.0","60a9b8f7b9748b9999090dd8","665500ab8938657b03fbdba8","665792ee4bd0152d82204b34","2529","stimuli/2111101.jpg","0","","prediction_practice","2","{""filepath"":""stimuli/2111101.jpg"",""ball_pos"":2,""ego_ball_visible"":false,""ego_can_infer"":false,""alter_ball_visible"":false,""alter_can_infer"":false,""collective_ball_visible"":false,""collective_can_infer"":false,""search_locations"":[2,1,0],""alter_occluders"":""111"",""ego_occluders"":""101""}","false","","","","","","","","","","","","","","","","","","",""
"","","","","","image-keyboard-response","7","48660","0.0-3.0-4.0","60a9b8f7b9748b9999090dd8","665500ab8938657b03fbdba8","665792ee4bd0152d82204b34","686","stimuli/21111012.jpg"," ","","practrice_feedback","2","","","","","","","","","","","","","","","","","","","","",""
"","","","","","image-keyboard-response","8","49317","0.0-3.0-5.0","60a9b8f7b9748b9999090dd8","665500ab8938657b03fbdba8","665792ee4bd0152d82204b34","657","stimuli/2100010.jpg","2","","prediction_practice","2","{""filepath"":""stimuli/2100010.jpg"",""ball_pos"":2,""ego_ball_visible"":true,""ego_can_infer"":true,""alter_ball_visible"":true,""alter_can_infer"":true,""collective_ball_visible"":true,""collective_can_infer"":true,""search_locations"":[2],""alter_occluders"":""100"",""ego_occluders"":""010""}","true","","","","","","","","","","","","","","","","","","",""
"","","","","","image-keyboard-response","9","49917","0.0-3.0-6.0","60a9b8f7b9748b9999090dd8","665500ab8938657b03fbdba8","665792ee4bd0152d82204b34","600","stimuli/21000102.jpg"," ","","practrice_feedback","2","","","","","","","","","","","","","","","","","","","","",""
"","","","","","image-keyboard-response","10","51922","0.0-3.0-7.0","60a9b8f7b9748b9999090dd8","665500ab8938657b03fbdba8","665792ee4bd0152d82204b34","2004","stimuli/0110111.jpg","1","","prediction_practice","1","{""filepath"":""stimuli/0110111.jpg"",""ball_pos"":0,""ego_ball_visible"":false,""ego_can_infer"":false,""alter_ball_visible"":false,""alter_can_infer"":false,""collective_ball_visible"":false,""collective_can_infer"":false,""search_locations"":[1,0],""alter_occluders"":""110"",""ego_occluders"":""111""}","true","","","","","","","","","","","","","","","","","","",""
"","","","","","image-keyboard-response","11","52486","0.0-3.0-8.0","60a9b8f7b9748b9999090dd8","665500ab8938657b03fbdba8","665792ee4bd0152d82204b34","564","stimuli/01101111.jpg"," ","","practrice_feedback","1","","","","","","","","","","","","","","","","","","","","",""
"","","","","","image-keyboard-response","12","54257","0.0-3.0-9.0","60a9b8f7b9748b9999090dd8","665500ab8938657b03fbdba8","665792ee4bd0152d82204b34","1771","stimuli/1100110.jpg","0","","prediction_practice","1","{""filepath"":""stimuli/1100110.jpg"",""ball_pos"":1,""ego_ball_visible"":false,""ego_can_infer"":false,""alter_ball_visible"":true,""alter_can_infer"":true,""collective_ball_visible"":false,""collective_can_infer"":false,""search_locations"":[1],""alter_occluders"":""100"",""ego_occluders"":""110""}","false","","","","","","","","","","","","","","","","","","",""
"","","","","","image-keyboard-response","13","54806","0.0-3.0-10.0","60a9b8f7b9748b9999090dd8","665500ab8938657b03fbdba8","665792ee4bd0152d82204b34","549","stimuli/11001101.jpg"," ","","practrice_feedback","1","","","","","","","","","","","","","","","","","","","","",""
"","","","","","image-keyboard-response","14","55882","0.0-3.0-11.0","60a9b8f7b9748b9999090dd8","665500ab8938657b03fbdba8","665792ee4bd0152d82204b34","1076","stimuli/2101011.jpg","1","","prediction_practice","0","{""filepath"":""stimuli/2101011.jpg"",""ball_pos"":2,""ego_ball_visible"":false,""ego_can_infer"":false,""alter_ball_visible"":false,""alter_can_infer"":false,""collective_ball_visible"":false,""collective_can_infer"":false,""search_locations"":[0,2],""alter_occluders"":""101"",""ego_occluders"":""011""}","false","","","","","","","","","","","","","","","","","","",""
"","","","","","image-keyboard-response","15","59535","0.0-3.0-12.0","60a9b8f7b9748b9999090dd8","665500ab8938657b03fbdba8","665792ee4bd0152d82204b34","3653","stimuli/21010110.jpg"," ","","practrice_feedback","0","","","","","","","","","","","","","","","","","","","","",""
"","","","","","image-keyboard-response","16","60300","0.0-3.0-13.0","60a9b8f7b9748b9999090dd8","665500ab8938657b03fbdba8","665792ee4bd0152d82204b34","765","stimuli/0011010.jpg","0","","prediction_practice","0","{""filepath"":""stimuli/0011010.jpg"",""ball_pos"":0,""ego_ball_visible"":true,""ego_can_infer"":true,""alter_ball_visible"":true,""alter_can_infer"":true,""collective_ball_visible"":true,""collective_can_infer"":true,""search_locations"":[0],""alter_occluders"":""011"",""ego_occluders"":""010""}","true","","","","","","","","","","","","","","","","","","",""
"","","","","","image-keyboard-response","17","60829","0.0-3.0-14.0","60a9b8f7b9748b9999090dd8","665500ab8938657b03fbdba8","665792ee4bd0152d82204b34","529","stimuli/00110100.jpg"," ","","practrice_feedback","0","","","","","","","","","","","","","","","","","","","","",""
"","","","","","image-keyboard-response","18","62217","0.0-3.0-15.0","60a9b8f7b9748b9999090dd8","665500ab8938657b03fbdba8","665792ee4bd0152d82204b34","1388","stimuli/1100111.jpg","0","","prediction_practice","1","{""filepath"":""stimuli/1100111.jpg"",""ball_pos"":1,""ego_ball_visible"":false,""ego_can_infer"":false,""alter_ball_visible"":true,""alter_can_infer"":true,""collective_ball_visible"":false,""collective_can_infer"":false,""search_locations"":[1],""alter_occluders"":""100"",""ego_occluders"":""111""}","false","","","","","","","","","","","","","","","","","","",""
"","","","","","image-keyboard-response","19","62908","0.0-3.0-16.0","60a9b8f7b9748b9999090dd8","665500ab8938657b03fbdba8","665792ee4bd0152d82204b34","691","stimuli/11001111.jpg"," ","","practrice_feedback","1","","","","","","","","","","","","","","","","","","","","",""
"","","","","","image-keyboard-response","20","63737","0.0-3.0-17.0","60a9b8f7b9748b9999090dd8","665500ab8938657b03fbdba8","665792ee4bd0152d82204b34","829","stimuli/2111100.jpg","1","","prediction_practice","1","{""filepath"":""stimuli/2111100.jpg"",""ball_pos"":2,""ego_ball_visible"":true,""ego_can_infer"":true,""alter_ball_visible"":false,""alter_can_infer"":false,""collective_ball_visible"":false,""collective_can_infer"":false,""search_locations"":[1,2,0],""alter_occluders"":""111"",""ego_occluders"":""100""}","true","","","","","","","","","","","","","","","","","","",""
"","","","","","image-keyboard-response","21","66754","0.0-3.0-18.0","60a9b8f7b9748b9999090dd8","665500ab8938657b03fbdba8","665792ee4bd0152d82204b34","3017","stimuli/21111001.jpg"," ","","practrice_feedback","1","","","","","","","","","","","","","","","","","","","","",""
"","","","","","image-keyboard-response","22","68932","0.0-3.0-19.0","60a9b8f7b9748b9999090dd8","665500ab8938657b03fbdba8","665792ee4bd0152d82204b34","2177","stimuli/0010100.jpg","0","","prediction_practice","0","{""filepath"":""stimuli/0010100.jpg"",""ball_pos"":0,""ego_ball_visible"":false,""ego_can_infer"":true,""alter_ball_visible"":true,""alter_can_infer"":true,""collective_ball_visible"":false,""collective_can_infer"":true,""search_locations"":[0],""alter_occluders"":""010"",""ego_occluders"":""100""}","true","","","","","","","","","","","","","","","","","","",""
"","","","","","image-keyboard-response","23","69609","0.0-3.0-20.0","60a9b8f7b9748b9999090dd8","665500ab8938657b03fbdba8","665792ee4bd0152d82204b34","677","stimuli/00101000.jpg"," ","","practrice_feedback","0","","","","","","","","","","","","","","","","","","","","",""
"","","","","","html-button-response","24","73892","0.0-3.0-21.0","60a9b8f7b9748b9999090dd8","665500ab8938657b03fbdba8","665792ee4bd0152d82204b34","4282","Now that you've had some practice, you'll be tested with a couple of easy trials. If you correctly predict Sam's choice, you'll move on to complete the experiment!","0","","","","","","","","","","","","","","","","","","","","","","","",""
"","","","","","image-keyboard-response","25","75978","0.0-3.0-22.0-0.0","60a9b8f7b9748b9999090dd8","665500ab8938657b03fbdba8","665792ee4bd0152d82204b34","2086","stimuli/0000011.jpg","arrowleft","","comprehension_quiz","","","true","arrowleft","","","","","","","","","","","","","","","","","",""
"","","","","","image-keyboard-response","26","76397","0.0-3.0-22.0-1.0","60a9b8f7b9748b9999090dd8","665500ab8938657b03fbdba8","665792ee4bd0152d82204b34","418","stimuli/00000110.jpg"," ","","comprehension_quiz","","","true"," ","","","","","","","","","","","","","","","","","",""
"","","","","","image-keyboard-response","27","78169","0.0-3.0-22.0-2.0","60a9b8f7b9748b9999090dd8","665500ab8938657b03fbdba8","665792ee4bd0152d82204b34","1772","stimuli/1010010.jpg","arrowdown","","comprehension_quiz","","","true","arrowdown","","","","","","","","","","","","","","","","","",""
"","","","","","image-keyboard-response","28","78656","0.0-3.0-22.0-3.0","60a9b8f7b9748b9999090dd8","665500ab8938657b03fbdba8","665792ee4bd0152d82204b34","487","stimuli/10100101.jpg"," ","","comprehension_quiz","","","true"," ","","","","","","","","","","","","","","","","","",""
"","","","","","html-button-response","29","81555","0.0-4.0","60a9b8f7b9748b9999090dd8","665500ab8938657b03fbdba8","665792ee4bd0152d82204b34","2897","The experiment will now begin.","0","","","","","","","","","","","","","","","","","","","","","","","",""
"","","","","","image-keyboard-response","30","83274","0.0-5.0","60a9b8f7b9748b9999090dd8","665500ab8938657b03fbdba8","665792ee4bd0152d82204b34","1720","stimuli/0001011.jpg","0","","prediction_trial","0","","true","","0","true","true","true","true","true","true","[0]","001","011","1","","","","","","",""
"","","","","","image-keyboard-response","31","83579","0.0-6.0","60a9b8f7b9748b9999090dd8","665500ab8938657b03fbdba8","665792ee4bd0152d82204b34","305","stimuli/00010110.jpg"," ","","feedback_trial","0","","","","","","","","","","","","","","","","","","","","",""
"","","","","","image-keyboard-response","32","85711","0.0-7.0","60a9b8f7b9748b9999090dd8","665500ab8938657b03fbdba8","665792ee4bd0152d82204b34","2132","stimuli/0100110.jpg","1","","prediction_trial","0","","false","","0","false","false","false","true","false","false","[0]","100","110","0","","","","","","",""
"","","","","","image-keyboard-response","33","86268","0.0-8.0","60a9b8f7b9748b9999090dd8","665500ab8938657b03fbdba8","665792ee4bd0152d82204b34","557","stimuli/01001100.jpg"," ","","feedback_trial","0","","","","","","","","","","","","","","","","","","","","",""
"","","","","","image-keyboard-response","34","86819","0.0-9.0","60a9b8f7b9748b9999090dd8","665500ab8938657b03fbdba8","665792ee4bd0152d82204b34","551","stimuli/0000011.jpg","0","","prediction_trial","0","","true","","0","true","true","true","true","true","true","[0]","000","011","1","","","","","","",""
"","","","","","image-keyboard-response","35","87144","0.0-10.0","60a9b8f7b9748b9999090dd8","665500ab8938657b03fbdba8","665792ee4bd0152d82204b34","325","stimuli/00000110.jpg"," ","","feedback_trial","0","","","","","","","","","","","","","","","","","","","","",""
"","","","","","image-keyboard-response","36","87639","0.0-11.0","60a9b8f7b9748b9999090dd8","665500ab8938657b03fbdba8","665792ee4bd0152d82204b34","495","stimuli/2000000.jpg","2","","prediction_trial","2","","true","","2","true","true","true","true","true","true","[2]","000","000","1","","","","","","",""
"","","","","","image-keyboard-response","37","87922","0.0-12.0","60a9b8f7b9748b9999090dd8","665500ab8938657b03fbdba8","665792ee4bd0152d82204b34","283","stimuli/20000002.jpg"," ","","feedback_trial","2","","","","","","","","","","","","","","","","","","","","",""
"","","","","","image-keyboard-response","38","91120","0.0-13.0","60a9b8f7b9748b9999090dd8","665500ab8938657b03fbdba8","665792ee4bd0152d82204b34","3197","stimuli/0101010.jpg","0","","prediction_trial","2","","false","","0","true","true","false","false","false","false","[2,0]","101","010","0","","","","","","",""
"","","","","","image-keyboard-response","39","91584","0.0-14.0","60a9b8f7b9748b9999090dd8","665500ab8938657b03fbdba8","665792ee4bd0152d82204b34","465","stimuli/01010102.jpg"," ","","feedback_trial","2","","","","","","","","","","","","","","","","","","","","",""
"","","","","","image-keyboard-response","40","93401","0.0-15.0","60a9b8f7b9748b9999090dd8","665500ab8938657b03fbdba8","665792ee4bd0152d82204b34","1817","stimuli/2100101.jpg","2","","prediction_trial","2","","true","","2","false","false","true","true","false","false","[2]","100","101","1","","","","","","",""
"","","","","","image-keyboard-response","41","93836","0.0-16.0","60a9b8f7b9748b9999090dd8","665500ab8938657b03fbdba8","665792ee4bd0152d82204b34","435","stimuli/21001012.jpg"," ","","feedback_trial","2","","","","","","","","","","","","","","","","","","","","",""
"","","","","","image-keyboard-response","42","95634","0.0-17.0","60a9b8f7b9748b9999090dd8","665500ab8938657b03fbdba8","665792ee4bd0152d82204b34","1798","stimuli/2011100.jpg","2","","prediction_trial","1","","false","","2","true","true","false","false","false","false","[2,1]","011","100","0","","","","","","",""
"","","","","","image-keyboard-response","43","96014","0.0-18.0","60a9b8f7b9748b9999090dd8","665500ab8938657b03fbdba8","665792ee4bd0152d82204b34","380","stimuli/20111001.jpg"," ","","feedback_trial","2","","","","","","","","","","","","","","","","","","","","",""
"","","","","","image-keyboard-response","44","97775","0.0-19.0","60a9b8f7b9748b9999090dd8","665500ab8938657b03fbdba8","665792ee4bd0152d82204b34","1761","stimuli/0001101.jpg","0","","prediction_trial","0","","true","","0","false","false","true","true","false","false","[0]","001","101","1","","","","","","",""
"","","","","","image-keyboard-response","45","98235","0.0-20.0","60a9b8f7b9748b9999090dd8","665500ab8938657b03fbdba8","665792ee4bd0152d82204b34","460","stimuli/00011010.jpg"," ","","feedback_trial","0","","","","","","","","","","","","","","","","","","","","",""
"","","","","","image-keyboard-response","46","98750","0.0-21.0","60a9b8f7b9748b9999090dd8","665500ab8938657b03fbdba8","665792ee4bd0152d82204b34","515","stimuli/0011000.jpg","0","","prediction_trial","0","","true","","0","true","true","true","true","true","true","[0]","011","000","1","","","","","","",""
"","","","","","image-keyboard-response","47","99186","0.0-22.0","60a9b8f7b9748b9999090dd8","665500ab8938657b03fbdba8","665792ee4bd0152d82204b34","436","stimuli/00110000.jpg"," ","","feedback_trial","0","","","","","","","","","","","","","","","","","","","","",""
"","","","","","image-keyboard-response","48","100794","0.0-23.0","60a9b8f7b9748b9999090dd8","665500ab8938657b03fbdba8","665792ee4bd0152d82204b34","1608","stimuli/1010010.jpg","1","","prediction_trial","1","","true","","1","false","true","false","true","false","true","[1]","010","010","1","","","","","","",""
"","","","","","image-keyboard-response","49","101054","0.0-24.0","60a9b8f7b9748b9999090dd8","665500ab8938657b03fbdba8","665792ee4bd0152d82204b34","260","stimuli/10100101.jpg"," ","","feedback_trial","1","","","","","","","","","","","","","","","","","","","","",""
"","","","","","image-keyboard-response","50","102431","0.0-25.0","60a9b8f7b9748b9999090dd8","665500ab8938657b03fbdba8","665792ee4bd0152d82204b34","1376","stimuli/2110101.jpg","2","","prediction_trial","2","","true","","2","false","false","true","true","false","false","[2]","110","101","1","","","","","","",""
"","","","","","image-keyboard-response","51","102774","0.0-26.0","60a9b8f7b9748b9999090dd8","665500ab8938657b03fbdba8","665792ee4bd0152d82204b34","344","stimuli/21101012.jpg"," ","","feedback_trial","2","","","","","","","","","","","","","","","","","","","","",""
"","","","","","image-keyboard-response","52","104419","0.0-27.0","60a9b8f7b9748b9999090dd8","665500ab8938657b03fbdba8","665792ee4bd0152d82204b34","1640","stimuli/1000110.jpg","1","","prediction_trial","1","","true","","1","false","false","true","true","false","false","[1]","000","110","1","","","","","","",""
"","","","","","image-keyboard-response","53","104713","0.0-28.0","60a9b8f7b9748b9999090dd8","665500ab8938657b03fbdba8","665792ee4bd0152d82204b34","294","stimuli/10001101.jpg"," ","","feedback_trial","1","","","","","","","","","","","","","","","","","","","","",""
"","","","","","image-keyboard-response","54","105890","0.0-29.0","60a9b8f7b9748b9999090dd8","665500ab8938657b03fbdba8","665792ee4bd0152d82204b34","1176","stimuli/0100101.jpg","2","","prediction_trial","0","","false","","0","false","false","false","true","false","false","[0]","100","101","0","","","","","","",""
"","","","","","image-keyboard-response","55","106302","0.0-30.0","60a9b8f7b9748b9999090dd8","665500ab8938657b03fbdba8","665792ee4bd0152d82204b34","413","stimuli/01001010.jpg"," ","","feedback_trial","0","","","","","","","","","","","","","","","","","","","","",""
"","","","","","image-keyboard-response","56","106898","0.0-31.0","60a9b8f7b9748b9999090dd8","665500ab8938657b03fbdba8","665792ee4bd0152d82204b34","596","stimuli/1110111.jpg","2","","prediction_trial","1","","false","","1","false","false","false","false","false","false","[1,0]","110","111","0","","","","","","",""
"","","","","","image-keyboard-response","57","107395","0.0-32.0","60a9b8f7b9748b9999090dd8","665500ab8938657b03fbdba8","665792ee4bd0152d82204b34","496","stimuli/11101111.jpg"," ","","feedback_trial","1","","","","","","","","","","","","","","","","","","","","",""
"","","","","","image-keyboard-response","58","107893","0.0-33.0","60a9b8f7b9748b9999090dd8","665500ab8938657b03fbdba8","665792ee4bd0152d82204b34","499","stimuli/1101001.jpg","1","","prediction_trial","1","","true","","1","true","true","true","true","true","true","[1]","101","001","1","","","","","","",""
"","","","","","image-keyboard-response","59","108217","0.0-34.0","60a9b8f7b9748b9999090dd8","665500ab8938657b03fbdba8","665792ee4bd0152d82204b34","323","stimuli/11010011.jpg"," ","","feedback_trial","1","","","","","","","","","","","","","","","","","","","","",""
"","","","","","image-keyboard-response","60","110009","0.0-35.0","60a9b8f7b9748b9999090dd8","665500ab8938657b03fbdba8","665792ee4bd0152d82204b34","1793","stimuli/1110010.jpg","1","","prediction_trial","0","","false","","1","false","true","false","false","false","false","[1,0]","110","010","0","","","","","","",""
"","","","","","image-keyboard-response","61","110417","0.0-36.0","60a9b8f7b9748b9999090dd8","665500ab8938657b03fbdba8","665792ee4bd0152d82204b34","408","stimuli/11100100.jpg"," ","","feedback_trial","1","","","","","","","","","","","","","","","","","","","","",""
"","","","","","image-keyboard-response","62","111513","0.0-37.0","60a9b8f7b9748b9999090dd8","665500ab8938657b03fbdba8","665792ee4bd0152d82204b34","1096","stimuli/0111111.jpg","1","","prediction_trial","0","","false","","0","false","false","false","false","false","false","[2,0,1]","111","111","0","","","","","","",""
"","","","","","image-keyboard-response","63","111832","0.0-38.0","60a9b8f7b9748b9999090dd8","665500ab8938657b03fbdba8","665792ee4bd0152d82204b34","319","stimuli/01111110.jpg"," ","","feedback_trial","2","","","","","","","","","","","","","","","","","","","","",""
"","","","","","image-keyboard-response","64","113314","0.0-39.0","60a9b8f7b9748b9999090dd8","665500ab8938657b03fbdba8","665792ee4bd0152d82204b34","1481","stimuli/2101100.jpg","2","","prediction_trial","0","","false","","2","true","true","false","false","false","false","[0,2]","101","100","0","","","","","","",""
"","","","","","image-keyboard-response","65","113636","0.0-40.0","60a9b8f7b9748b9999090dd8","665500ab8938657b03fbdba8","665792ee4bd0152d82204b34","322","stimuli/21011000.jpg"," ","","feedback_trial","0","","","","","","","","","","","","","","","","","","","","",""
"","","","","","image-keyboard-response","66","114138","0.0-41.0","60a9b8f7b9748b9999090dd8","665500ab8938657b03fbdba8","665792ee4bd0152d82204b34","502","stimuli/0011011.jpg","0","","prediction_trial","0","","true","","0","true","true","true","true","true","true","[0]","011","011","1","","","","","","",""
"","","","","","image-keyboard-response","67","114375","0.0-42.0","60a9b8f7b9748b9999090dd8","665500ab8938657b03fbdba8","665792ee4bd0152d82204b34","237","stimuli/00110110.jpg"," ","","feedback_trial","0","","","","","","","","","","","","","","","","","","","","",""
"","","","","","image-keyboard-response","68","115231","0.0-43.0","60a9b8f7b9748b9999090dd8","665500ab8938657b03fbdba8","665792ee4bd0152d82204b34","856","stimuli/2111101.jpg","2","","prediction_trial","0","","false","","2","false","false","false","false","false","false","[2,1,0]","111","101","0","","","","","","",""
"","","","","","image-keyboard-response","69","115544","0.0-44.0","60a9b8f7b9748b9999090dd8","665500ab8938657b03fbdba8","665792ee4bd0152d82204b34","313","stimuli/21111010.jpg"," ","","feedback_trial","2","","","","","","","","","","","","","","","","","","","","",""
"","","","","","image-keyboard-response","70","116556","0.0-45.0","60a9b8f7b9748b9999090dd8","665500ab8938657b03fbdba8","665792ee4bd0152d82204b34","1012","stimuli/2111110.jpg","2","","prediction_trial","0","","false","","2","true","true","false","false","false","false","[0,2,1]","111","110","0","","","","","","",""
"","","","","","image-keyboard-response","71","116849","0.0-46.0","60a9b8f7b9748b9999090dd8","665500ab8938657b03fbdba8","665792ee4bd0152d82204b34","289","stimuli/21111100.jpg"," ","","feedback_trial","0","","","","","","","","","","","","","","","","","","","","",""
"","","","","","image-keyboard-response","72","118817","0.0-47.0","60a9b8f7b9748b9999090dd8","665500ab8938657b03fbdba8","665792ee4bd0152d82204b34","1968","stimuli/2101011.jpg","1","","prediction_trial","0","","false","","2","false","false","false","false","false","false","[0,2]","101","011","0","","","","","","",""
"","","","","","image-keyboard-response","73","119417","0.0-48.0","60a9b8f7b9748b9999090dd8","665500ab8938657b03fbdba8","665792ee4bd0152d82204b34","600","stimuli/21010110.jpg"," ","","feedback_trial","0","","","","","","","","","","","","","","","","","","","","",""
"","","","","","image-keyboard-response","74","120799","0.0-49.0","60a9b8f7b9748b9999090dd8","665500ab8938657b03fbdba8","665792ee4bd0152d82204b34","1382","stimuli/2001110.jpg","2","","prediction_trial","2","","true","","2","true","true","false","true","false","true","[2]","001","110","1","","","","","","",""
"","","","","","image-keyboard-response","75","121012","0.0-50.0","60a9b8f7b9748b9999090dd8","665500ab8938657b03fbdba8","665792ee4bd0152d82204b34","213","stimuli/20011102.jpg"," ","","feedback_trial","2","","","","","","","","","","","","","","","","","","","","",""
"","","","","","image-keyboard-response","76","123507","0.0-51.0","60a9b8f7b9748b9999090dd8","665500ab8938657b03fbdba8","665792ee4bd0152d82204b34","2494","stimuli/2111001.jpg","2","","prediction_trial","1","","false","","2","false","true","false","false","false","false","[1,0,2]","111","001","0","","","","","","",""
"","","","","","image-keyboard-response","77","123874","0.0-52.0","60a9b8f7b9748b9999090dd8","665500ab8938657b03fbdba8","665792ee4bd0152d82204b34","368","stimuli/21110011.jpg"," ","","feedback_trial","1","","","","","","","","","","","","","","","","","","","","",""
"","","","","","image-keyboard-response","78","124488","0.0-53.0","60a9b8f7b9748b9999090dd8","665500ab8938657b03fbdba8","665792ee4bd0152d82204b34","614","stimuli/2110000.jpg","2","","prediction_trial","2","","true","","2","true","true","true","true","true","true","[2]","110","000","1","","","","","","",""
"","","","","","image-keyboard-response","79","124720","0.0-54.0","60a9b8f7b9748b9999090dd8","665500ab8938657b03fbdba8","665792ee4bd0152d82204b34","232","stimuli/21100002.jpg"," ","","feedback_trial","2","","","","","","","","","","","","","","","","","","","","",""
"","","","","","image-keyboard-response","80","125664","0.0-55.0","60a9b8f7b9748b9999090dd8","665500ab8938657b03fbdba8","665792ee4bd0152d82204b34","944","stimuli/1100111.jpg","1","","prediction_trial","1","","true","","1","false","false","true","true","false","false","[1]","100","111","1","","","","","","",""
"","","","","","image-keyboard-response","81","125910","0.0-56.0","60a9b8f7b9748b9999090dd8","665500ab8938657b03fbdba8","665792ee4bd0152d82204b34","246","stimuli/11001111.jpg"," ","","feedback_trial","1","","","","","","","","","","","","","","","","","","","","",""
"","","","","","image-keyboard-response","82","127404","0.0-57.0","60a9b8f7b9748b9999090dd8","665500ab8938657b03fbdba8","665792ee4bd0152d82204b34","1494","stimuli/1110100.jpg","1","","prediction_trial","0","","false","","1","true","true","false","false","false","false","[1,0]","110","100","0","","","","","","",""
"","","","","","image-keyboard-response","83","127685","0.0-58.0","60a9b8f7b9748b9999090dd8","665500ab8938657b03fbdba8","665792ee4bd0152d82204b34","281","stimuli/11101000.jpg"," ","","feedback_trial","1","","","","","","","","","","","","","","","","","","","","",""
"","","","","","image-keyboard-response","84","130710","0.0-59.0","60a9b8f7b9748b9999090dd8","665500ab8938657b03fbdba8","665792ee4bd0152d82204b34","3025","stimuli/0111010.jpg","0","","prediction_trial","2","","false","","0","true","true","false","false","false","false","[1,0,2]","111","010","0","","","","","","",""
"","","","","","image-keyboard-response","85","131347","0.0-60.0","60a9b8f7b9748b9999090dd8","665500ab8938657b03fbdba8","665792ee4bd0152d82204b34","637","stimuli/01110102.jpg"," ","","feedback_trial","1","","","","","","","","","","","","","","","","","","","","",""
"","","","","","image-keyboard-response","86","132291","0.0-61.0","60a9b8f7b9748b9999090dd8","665500ab8938657b03fbdba8","665792ee4bd0152d82204b34","940","stimuli/2001101.jpg","0","","prediction_trial","2","","false","","2","false","false","false","true","false","false","[2]","001","101","0","","","","","","",""
"","","","","","image-keyboard-response","87","132693","0.0-62.0","60a9b8f7b9748b9999090dd8","665500ab8938657b03fbdba8","665792ee4bd0152d82204b34","402","stimuli/20011012.jpg"," ","","feedback_trial","2","","","","","","","","","","","","","","","","","","","","",""
"","","","","","image-keyboard-response","88","133642","0.0-63.0","60a9b8f7b9748b9999090dd8","665500ab8938657b03fbdba8","665792ee4bd0152d82204b34","948","stimuli/0011101.jpg","0","","prediction_trial","0","","true","","0","false","false","true","true","false","false","[0]","011","101","1","","","","","","",""
"","","","","","image-keyboard-response","89","133976","0.0-64.0","60a9b8f7b9748b9999090dd8","665500ab8938657b03fbdba8","665792ee4bd0152d82204b34","335","stimuli/00111010.jpg"," ","","feedback_trial","0","","","","","","","","","","","","","","","","","","","","",""
"","","","","","image-keyboard-response","90","135318","0.0-65.0","60a9b8f7b9748b9999090dd8","665500ab8938657b03fbdba8","665792ee4bd0152d82204b34","1342","stimuli/0011111.jpg","0","","prediction_trial","0","","true","","0","false","false","true","true","false","false","[0]","011","111","1","","","","","","",""
"","","","","","image-keyboard-response","91","135624","0.0-66.0","60a9b8f7b9748b9999090dd8","665500ab8938657b03fbdba8","665792ee4bd0152d82204b34","306","stimuli/00111110.jpg"," ","","feedback_trial","0","","","","","","","","","","","","","","","","","","","","",""
"","","","","","image-keyboard-response","92","136391","0.0-67.0","60a9b8f7b9748b9999090dd8","665500ab8938657b03fbdba8","665792ee4bd0152d82204b34","767","stimuli/2000110.jpg","2","","prediction_trial","2","","true","","2","true","true","true","true","true","true","[2]","000","110","1","","","","","","",""
"","","","","","image-keyboard-response","93","136599","0.0-68.0","60a9b8f7b9748b9999090dd8","665500ab8938657b03fbdba8","665792ee4bd0152d82204b34","208","stimuli/20001102.jpg"," ","","feedback_trial","2","","","","","","","","","","","","","","","","","","","","",""
"","","","","","image-keyboard-response","94","138423","0.0-69.0","60a9b8f7b9748b9999090dd8","665500ab8938657b03fbdba8","665792ee4bd0152d82204b34","1824","stimuli/0000110.jpg","1","","prediction_trial","0","","false","","0","false","false","true","true","false","false","[0]","000","110","0","","","","","","",""
"","","","","","image-keyboard-response","95","138854","0.0-70.0","60a9b8f7b9748b9999090dd8","665500ab8938657b03fbdba8","665792ee4bd0152d82204b34","431","stimuli/00001100.jpg"," ","","feedback_trial","0","","","","","","","","","","","","","","","","","","","","",""
"","","","","","image-keyboard-response","96","139581","0.0-71.0","60a9b8f7b9748b9999090dd8","665500ab8938657b03fbdba8","665792ee4bd0152d82204b34","727","stimuli/1011110.jpg","0","","prediction_trial","2","","false","","1","false","false","false","false","false","false","[2,1]","011","110","0","","","","","","",""
"","","","","","image-keyboard-response","97","139951","0.0-72.0","60a9b8f7b9748b9999090dd8","665500ab8938657b03fbdba8","665792ee4bd0152d82204b34","370","stimuli/10111102.jpg"," ","","feedback_trial","2","","","","","","","","","","","","","","","","","","","","",""
"","","","","","image-keyboard-response","98","145567","0.0-73.0","60a9b8f7b9748b9999090dd8","665500ab8938657b03fbdba8","665792ee4bd0152d82204b34","5611","stimuli/0000000.jpg","0","","prediction_trial","0","","true","","0","true","true","true","true","true","true","[0]","000","000","1","","","","","","",""
"","","","","","image-keyboard-response","99","145815","0.0-74.0","60a9b8f7b9748b9999090dd8","665500ab8938657b03fbdba8","665792ee4bd0152d82204b34","248","stimuli/00000000.jpg"," ","","feedback_trial","0","","","","","","","","","","","","","","","","","","","","",""
"","","","","","image-keyboard-response","100","146726","0.0-75.0","60a9b8f7b9748b9999090dd8","665500ab8938657b03fbdba8","665792ee4bd0152d82204b34","911","stimuli/0111000.jpg","0","","prediction_trial","1","","false","","0","true","true","false","false","false","false","[2,1,0]","111","000","0","","","","","","",""
"","","","","","image-keyboard-response","101","147045","0.0-76.0","60a9b8f7b9748b9999090dd8","665500ab8938657b03fbdba8","665792ee4bd0152d82204b34","319","stimuli/01110001.jpg"," ","","feedback_trial","2","","","","","","","","","","","","","","","","","","","","",""
"","","","","","image-keyboard-response","102","148501","0.0-77.0","60a9b8f7b9748b9999090dd8","665500ab8938657b03fbdba8","665792ee4bd0152d82204b34","1456","stimuli/1101010.jpg","1","","prediction_trial","1","","true","","1","false","true","true","true","false","true","[1]","101","010","1","","","","","","",""
"","","","","","image-keyboard-response","103","148766","0.0-78.0","60a9b8f7b9748b9999090dd8","665500ab8938657b03fbdba8","665792ee4bd0152d82204b34","265","stimuli/11010101.jpg"," ","","feedback_trial","1","","","","","","","","","","","","","","","","","","","","",""
"","","","","","image-keyboard-response","104","149846","0.0-79.0","60a9b8f7b9748b9999090dd8","665500ab8938657b03fbdba8","665792ee4bd0152d82204b34","1080","stimuli/0110101.jpg","2","","prediction_trial","0","","false","","0","false","false","false","false","false","false","[1,0]","110","101","0","","","","","","",""
"","","","","","image-keyboard-response","105","150198","0.0-80.0","60a9b8f7b9748b9999090dd8","665500ab8938657b03fbdba8","665792ee4bd0152d82204b34","352","stimuli/01101010.jpg"," ","","feedback_trial","1","","","","","","","","","","","","","","","","","","","","",""
"","","","","","image-keyboard-response","106","151881","0.0-81.0","60a9b8f7b9748b9999090dd8","665500ab8938657b03fbdba8","665792ee4bd0152d82204b34","1679","stimuli/1111000.jpg","0","","prediction_trial","1","","false","","1","true","true","false","false","false","false","[0,1,2]","111","000","0","","","","","","",""
"","","","","","image-keyboard-response","107","152348","0.0-82.0","60a9b8f7b9748b9999090dd8","665500ab8938657b03fbdba8","665792ee4bd0152d82204b34","467","stimuli/11110001.jpg"," ","","feedback_trial","0","","","","","","","","","","","","","","","","","","","","",""
"","","","","","image-keyboard-response","108","152999","0.0-83.0","60a9b8f7b9748b9999090dd8","665500ab8938657b03fbdba8","665792ee4bd0152d82204b34","651","stimuli/1000000.jpg","1","","prediction_trial","1","","true","","1","true","true","true","true","true","true","[1]","000","000","1","","","","","","",""
"","","","","","image-keyboard-response","109","153255","0.0-84.0","60a9b8f7b9748b9999090dd8","665500ab8938657b03fbdba8","665792ee4bd0152d82204b34","256","stimuli/10000001.jpg"," ","","feedback_trial","1","","","","","","","","","","","","","","","","","","","","",""
"","","","","","image-keyboard-response","110","154344","0.0-85.0","60a9b8f7b9748b9999090dd8","665500ab8938657b03fbdba8","665792ee4bd0152d82204b34","1089","stimuli/1111001.jpg","0","","prediction_trial","1","","false","","1","true","true","false","false","false","false","[2,1,0]","111","001","0","","","","","","",""
"","","","","","image-keyboard-response","111","154760","0.0-86.0","60a9b8f7b9748b9999090dd8","665500ab8938657b03fbdba8","665792ee4bd0152d82204b34","416","stimuli/11110011.jpg"," ","","feedback_trial","2","","","","","","","","","","","","","","","","","","","","",""
"","","","","","image-keyboard-response","112","155588","0.0-87.0","60a9b8f7b9748b9999090dd8","665500ab8938657b03fbdba8","665792ee4bd0152d82204b34","825","stimuli/2010101.jpg","0","","prediction_trial","2","","false","","2","false","false","true","true","false","false","[2]","010","101","0","","","","","","",""
"","","","","","image-keyboard-response","113","156202","0.0-88.0","60a9b8f7b9748b9999090dd8","665500ab8938657b03fbdba8","665792ee4bd0152d82204b34","614","stimuli/20101012.jpg"," ","","feedback_trial","2","","","","","","","","","","","","","","","","","","","","",""
"","","","","","image-keyboard-response","114","157106","0.0-89.0","60a9b8f7b9748b9999090dd8","665500ab8938657b03fbdba8","665792ee4bd0152d82204b34","904","stimuli/0001000.jpg","0","","prediction_trial","0","","true","","0","true","true","true","true","true","true","[0]","001","000","1","","","","","","",""
"","","","","","image-keyboard-response","115","157303","0.0-90.0","60a9b8f7b9748b9999090dd8","665500ab8938657b03fbdba8","665792ee4bd0152d82204b34","197","stimuli/00010000.jpg"," ","","feedback_trial","0","","","","","","","","","","","","","","","","","","","","",""
"","","","","","image-keyboard-response","116","157907","0.0-91.0","60a9b8f7b9748b9999090dd8","665500ab8938657b03fbdba8","665792ee4bd0152d82204b34","604","stimuli/1000101.jpg","1","","prediction_trial","1","","true","","1","true","true","true","true","true","true","[1]","000","101","1","","","","","","",""
"","","","","","image-keyboard-response","117","158138","0.0-92.0","60a9b8f7b9748b9999090dd8","665500ab8938657b03fbdba8","665792ee4bd0152d82204b34","231","stimuli/10001011.jpg"," ","","feedback_trial","1","","","","","","","","","","","","","","","","","","","","",""
"","","","","","image-keyboard-response","118","158787","0.0-93.0","60a9b8f7b9748b9999090dd8","665500ab8938657b03fbdba8","665792ee4bd0152d82204b34","649","stimuli/0000101.jpg","1","","prediction_trial","0","","false","","0","false","false","true","true","false","false","[0]","000","101","0","","","","","","",""
"","","","","","image-keyboard-response","119","159080","0.0-94.0","60a9b8f7b9748b9999090dd8","665500ab8938657b03fbdba8","665792ee4bd0152d82204b34","293","stimuli/00001010.jpg"," ","","feedback_trial","0","","","","","","","","","","","","","","","","","","","","",""
"","","","","","image-keyboard-response","120","162945","0.0-95.0","60a9b8f7b9748b9999090dd8","665500ab8938657b03fbdba8","665792ee4bd0152d82204b34","3865","stimuli/1000010.jpg","1","","prediction_trial","1","","true","","1","false","true","true","true","false","true","[1]","000","010","1","","","","","","",""
"","","","","","image-keyboard-response","121","163184","0.0-96.0","60a9b8f7b9748b9999090dd8","665500ab8938657b03fbdba8","665792ee4bd0152d82204b34","239","stimuli/10000101.jpg"," ","","feedback_trial","1","","","","","","","","","","","","","","","","","","","","",""
"","","","","","image-keyboard-response","122","164383","0.0-97.0","60a9b8f7b9748b9999090dd8","665500ab8938657b03fbdba8","665792ee4bd0152d82204b34","1199","stimuli/1000011.jpg","1","","prediction_trial","1","","true","","1","false","false","true","true","false","false","[1]","000","011","1","","","","","","",""
"","","","","","image-keyboard-response","123","164677","0.0-98.0","60a9b8f7b9748b9999090dd8","665500ab8938657b03fbdba8","665792ee4bd0152d82204b34","294","stimuli/10000111.jpg"," ","","feedback_trial","1","","","","","","","","","","","","","","","","","","","","",""
"","","","","","image-keyboard-response","124","165463","0.0-99.0","60a9b8f7b9748b9999090dd8","665500ab8938657b03fbdba8","665792ee4bd0152d82204b34","786","stimuli/0100111.jpg","1","","prediction_trial","0","","false","","0","false","false","false","true","false","false","[0]","100","111","0","","","","","","",""
"","","","","","image-keyboard-response","125","165873","0.0-100.0","60a9b8f7b9748b9999090dd8","665500ab8938657b03fbdba8","665792ee4bd0152d82204b34","410","stimuli/01001110.jpg"," ","","feedback_trial","0","","","","","","","","","","","","","","","","","","","","",""
"","","","","","image-keyboard-response","126","167175","0.0-101.0","60a9b8f7b9748b9999090dd8","665500ab8938657b03fbdba8","665792ee4bd0152d82204b34","1302","stimuli/2001111.jpg","1","","prediction_trial","2","","false","","2","false","false","false","true","false","false","[2]","001","111","0","","","","","","",""
"","","","","","image-keyboard-response","127","167537","0.0-102.0","60a9b8f7b9748b9999090dd8","665500ab8938657b03fbdba8","665792ee4bd0152d82204b34","362","stimuli/20011112.jpg"," ","","feedback_trial","2","","","","","","","","","","","","","","","","","","","","",""
"","","","","","image-keyboard-response","128","170101","0.0-103.0","60a9b8f7b9748b9999090dd8","665500ab8938657b03fbdba8","665792ee4bd0152d82204b34","2564","stimuli/2111011.jpg","1","","prediction_trial","2","","false","","2","false","false","false","false","false","false","[0,2,1]","111","011","0","","","","","","",""
"","","","","","image-keyboard-response","129","170448","0.0-104.0","60a9b8f7b9748b9999090dd8","665500ab8938657b03fbdba8","665792ee4bd0152d82204b34","347","stimuli/21110112.jpg"," ","","feedback_trial","0","","","","","","","","","","","","","","","","","","","","",""
"","","","","","image-keyboard-response","130","171974","0.0-105.0","60a9b8f7b9748b9999090dd8","665500ab8938657b03fbdba8","665792ee4bd0152d82204b34","1526","stimuli/2111100.jpg","0","","prediction_trial","1","","false","","2","true","true","false","false","false","false","[1,2,0]","111","100","0","","","","","","",""
"","","","","","image-keyboard-response","131","172322","0.0-106.0","60a9b8f7b9748b9999090dd8","665500ab8938657b03fbdba8","665792ee4bd0152d82204b34","348","stimuli/21111001.jpg"," ","","feedback_trial","1","","","","","","","","","","","","","","","","","","","","",""
"","","","","","image-keyboard-response","132","172911","0.0-107.0","60a9b8f7b9748b9999090dd8","665500ab8938657b03fbdba8","665792ee4bd0152d82204b34","589","stimuli/0010011.jpg","0","","prediction_trial","0","","true","","0","true","true","true","true","true","true","[0]","010","011","1","","","","","","",""
"","","","","","image-keyboard-response","133","173180","0.0-108.0","60a9b8f7b9748b9999090dd8","665500ab8938657b03fbdba8","665792ee4bd0152d82204b34","269","stimuli/00100110.jpg"," ","","feedback_trial","0","","","","","","","","","","","","","","","","","","","","",""
"","","","","","image-keyboard-response","134","174521","0.0-109.0","60a9b8f7b9748b9999090dd8","665500ab8938657b03fbdba8","665792ee4bd0152d82204b34","1341","stimuli/1011100.jpg","1","","prediction_trial","2","","false","","1","true","true","false","false","false","false","[1,2]","011","100","0","","","","","","",""
"","","","","","image-keyboard-response","135","174812","0.0-110.0","60a9b8f7b9748b9999090dd8","665500ab8938657b03fbdba8","665792ee4bd0152d82204b34","291","stimuli/10111002.jpg"," ","","feedback_trial","1","","","","","","","","","","","","","","","","","","","","",""
"","","","","","image-keyboard-response","136","175995","0.0-111.0","60a9b8f7b9748b9999090dd8","665500ab8938657b03fbdba8","665792ee4bd0152d82204b34","1179","stimuli/2111010.jpg","2","","prediction_trial","1","","false","","2","true","true","false","false","false","false","[1,2,0]","111","010","0","","","","","","",""
"","","","","","image-keyboard-response","137","176352","0.0-112.0","60a9b8f7b9748b9999090dd8","665500ab8938657b03fbdba8","665792ee4bd0152d82204b34","357","stimuli/21110101.jpg"," ","","feedback_trial","1","","","","","","","","","","","","","","","","","","","","",""
"","","","","","image-keyboard-response","138","177702","0.0-113.0","60a9b8f7b9748b9999090dd8","665500ab8938657b03fbdba8","665792ee4bd0152d82204b34","1350","stimuli/0111100.jpg","1","","prediction_trial","2","","false","","0","false","true","false","false","false","false","[2,1,0]","111","100","0","","","","","","",""
"","","","","","image-keyboard-response","139","178170","0.0-114.0","60a9b8f7b9748b9999090dd8","665500ab8938657b03fbdba8","665792ee4bd0152d82204b34","468","stimuli/01111002.jpg"," ","","feedback_trial","2","","","","","","","","","","","","","","","","","","","","",""
"","","","","","image-keyboard-response","140","178775","0.0-115.0","60a9b8f7b9748b9999090dd8","665500ab8938657b03fbdba8","665792ee4bd0152d82204b34","605","stimuli/0101101.jpg","1","","prediction_trial","0","","false","","0","false","false","false","false","false","false","[0,2]","101","101","0","","","","","","",""
"","","","","","image-keyboard-response","141","179111","0.0-116.0","60a9b8f7b9748b9999090dd8","665500ab8938657b03fbdba8","665792ee4bd0152d82204b34","336","stimuli/01011010.jpg"," ","","feedback_trial","0","","","","","","","","","","","","","","","","","","","","",""
"","","","","","image-keyboard-response","142","179931","0.0-117.0","60a9b8f7b9748b9999090dd8","665500ab8938657b03fbdba8","665792ee4bd0152d82204b34","820","stimuli/2001011.jpg","1","","prediction_trial","2","","false","","2","false","false","false","true","false","false","[2]","001","011","0","","","","","","",""
"","","","","","image-keyboard-response","143","180344","0.0-118.0","60a9b8f7b9748b9999090dd8","665500ab8938657b03fbdba8","665792ee4bd0152d82204b34","413","stimuli/20010112.jpg"," ","","feedback_trial","2","","","","","","","","","","","","","","","","","","","","",""
"","","","","","image-keyboard-response","144","181461","0.0-119.0","60a9b8f7b9748b9999090dd8","665500ab8938657b03fbdba8","665792ee4bd0152d82204b34","1117","stimuli/2110011.jpg","2","","prediction_trial","2","","true","","2","false","false","true","true","false","false","[2]","110","011","1","","","","","","",""
"","","","","","image-keyboard-response","145","181792","0.0-120.0","60a9b8f7b9748b9999090dd8","665500ab8938657b03fbdba8","665792ee4bd0152d82204b34","331","stimuli/21100112.jpg"," ","","feedback_trial","2","","","","","","","","","","","","","","","","","","","","",""
"","","","","","image-keyboard-response","146","183434","0.0-121.0","60a9b8f7b9748b9999090dd8","665500ab8938657b03fbdba8","665792ee4bd0152d82204b34","1642","stimuli/1010100.jpg","1","","prediction_trial","1","","true","","1","true","true","false","true","false","true","[1]","010","100","1","","","","","","",""
"","","","","","image-keyboard-response","147","183697","0.0-122.0","60a9b8f7b9748b9999090dd8","665500ab8938657b03fbdba8","665792ee4bd0152d82204b34","263","stimuli/10101001.jpg"," ","","feedback_trial","1","","","","","","","","","","","","","","","","","","","","",""
"","","","","","image-keyboard-response","148","185021","0.0-123.0","60a9b8f7b9748b9999090dd8","665500ab8938657b03fbdba8","665792ee4bd0152d82204b34","1324","stimuli/2001001.jpg","2","","prediction_trial","2","","true","","2","false","true","false","true","false","true","[2]","001","001","1","","","","","","",""
"","","","","","image-keyboard-response","149","185248","0.0-124.0","60a9b8f7b9748b9999090dd8","665500ab8938657b03fbdba8","665792ee4bd0152d82204b34","227","stimuli/20010012.jpg"," ","","feedback_trial","2","","","","","","","","","","","","","","","","","","","","",""
"","","","","","image-keyboard-response","150","185810","0.0-125.0","60a9b8f7b9748b9999090dd8","665500ab8938657b03fbdba8","665792ee4bd0152d82204b34","562","stimuli/1001100.jpg","1","","prediction_trial","1","","true","","1","true","true","true","true","true","true","[1]","001","100","1","","","","","","",""
"","","","","","image-keyboard-response","151","185993","0.0-126.0","60a9b8f7b9748b9999090dd8","665500ab8938657b03fbdba8","665792ee4bd0152d82204b34","183","stimuli/10011001.jpg"," ","","feedback_trial","1","","","","","","","","","","","","","","","","","","","","",""
"","","","","","image-keyboard-response","152","187430","0.0-127.0","60a9b8f7b9748b9999090dd8","665500ab8938657b03fbdba8","665792ee4bd0152d82204b34","1437","stimuli/2011110.jpg","2","","prediction_trial","1","","false","","2","true","true","false","false","false","false","[2,1]","011","110","0","","","","","","",""
"","","","","","image-keyboard-response","153","187833","0.0-128.0","60a9b8f7b9748b9999090dd8","665500ab8938657b03fbdba8","665792ee4bd0152d82204b34","403","stimuli/20111101.jpg"," ","","feedback_trial","2","","","","","","","","","","","","","","","","","","","","",""
"","","","","","image-keyboard-response","154","189452","0.0-129.0","60a9b8f7b9748b9999090dd8","665500ab8938657b03fbdba8","665792ee4bd0152d82204b34","1619","stimuli/1110101.jpg","1","","prediction_trial","1","","true","","1","true","true","false","false","false","false","[0,1]","110","101","1","","","","","","",""
"","","","","","image-keyboard-response","155","189761","0.0-130.0","60a9b8f7b9748b9999090dd8","665500ab8938657b03fbdba8","665792ee4bd0152d82204b34","309","stimuli/11101011.jpg"," ","","feedback_trial","0","","","","","","","","","","","","","","","","","","","","",""
"","","","","","image-keyboard-response","156","191507","0.0-131.0","60a9b8f7b9748b9999090dd8","665500ab8938657b03fbdba8","665792ee4bd0152d82204b34","1746","stimuli/0110000.jpg","0","","prediction_trial","1","","false","","0","true","true","false","false","false","false","[1,0]","110","000","0","","","","","","",""
"","","","","","image-keyboard-response","157","191888","0.0-132.0","60a9b8f7b9748b9999090dd8","665500ab8938657b03fbdba8","665792ee4bd0152d82204b34","381","stimuli/01100001.jpg"," ","","feedback_trial","1","","","","","","","","","","","","","","","","","","","","",""
"","","","","","image-keyboard-response","158","193441","0.0-133.0","60a9b8f7b9748b9999090dd8","665500ab8938657b03fbdba8","665792ee4bd0152d82204b34","1553","stimuli/1111011.jpg","1","","prediction_trial","0","","false","","1","false","false","false","false","false","false","[1,2,0]","111","011","0","","","","","","",""
"","","","","","image-keyboard-response","159","193843","0.0-134.0","60a9b8f7b9748b9999090dd8","665500ab8938657b03fbdba8","665792ee4bd0152d82204b34","402","stimuli/11110110.jpg"," ","","feedback_trial","1","","","","","","","","","","","","","","","","","","","","",""
"","","","","","image-keyboard-response","160","197202","0.0-135.0","60a9b8f7b9748b9999090dd8","665500ab8938657b03fbdba8","665792ee4bd0152d82204b34","3358","stimuli/2111111.jpg","0","","prediction_trial","1","","false","","2","false","false","false","false","false","false","[0,1,2]","111","111","0","","","","","","",""
"","","","","","image-keyboard-response","161","197684","0.0-136.0","60a9b8f7b9748b9999090dd8","665500ab8938657b03fbdba8","665792ee4bd0152d82204b34","482","stimuli/21111111.jpg"," ","","feedback_trial","0","","","","","","","","","","","","","","","","","","","","",""
"","","","","","image-keyboard-response","162","198236","0.0-137.0","60a9b8f7b9748b9999090dd8","665500ab8938657b03fbdba8","665792ee4bd0152d82204b34","551","stimuli/1000001.jpg","1","","prediction_trial","1","","true","","1","true","true","true","true","true","true","[1]","000","001","1","","","","","","",""
"","","","","","image-keyboard-response","163","198423","0.0-138.0","60a9b8f7b9748b9999090dd8","665500ab8938657b03fbdba8","665792ee4bd0152d82204b34","187","stimuli/10000011.jpg"," ","","feedback_trial","1","","","","","","","","","","","","","","","","","","","","",""
"","","","","","image-keyboard-response","164","199227","0.0-139.0","60a9b8f7b9748b9999090dd8","665500ab8938657b03fbdba8","665792ee4bd0152d82204b34","804","stimuli/2010111.jpg","2","","prediction_trial","2","","true","","2","false","false","true","true","false","false","[2]","010","111","1","","","","","","",""
"","","","","","image-keyboard-response","165","199509","0.0-140.0","60a9b8f7b9748b9999090dd8","665500ab8938657b03fbdba8","665792ee4bd0152d82204b34","282","stimuli/20101112.jpg"," ","","feedback_trial","2","","","","","","","","","","","","","","","","","","","","",""
"","","","","","image-keyboard-response","166","200661","0.0-141.0","60a9b8f7b9748b9999090dd8","665500ab8938657b03fbdba8","665792ee4bd0152d82204b34","1152","stimuli/1110110.jpg","1","","prediction_trial","1","","true","","1","false","false","false","false","false","false","[0,1]","110","110","1","","","","","","",""
"","","","","","image-keyboard-response","167","200938","0.0-142.0","60a9b8f7b9748b9999090dd8","665500ab8938657b03fbdba8","665792ee4bd0152d82204b34","277","stimuli/11101101.jpg"," ","","feedback_trial","0","","","","","","","","","","","","","","","","","","","","",""
"","","","","","image-keyboard-response","168","202646","0.0-143.0","60a9b8f7b9748b9999090dd8","665500ab8938657b03fbdba8","665792ee4bd0152d82204b34","1708","stimuli/2110111.jpg","2","","prediction_trial","2","","true","","2","false","false","true","true","false","false","[2]","110","111","1","","","","","","",""
"","","","","","image-keyboard-response","169","202998","0.0-144.0","60a9b8f7b9748b9999090dd8","665500ab8938657b03fbdba8","665792ee4bd0152d82204b34","351","stimuli/21101112.jpg"," ","","feedback_trial","2","","","","","","","","","","","","","","","","","","","","",""
"","","","","","image-keyboard-response","170","204007","0.0-145.0","60a9b8f7b9748b9999090dd8","665500ab8938657b03fbdba8","665792ee4bd0152d82204b34","1009","stimuli/1011011.jpg","1","","prediction_trial","2","","false","","1","false","false","false","false","false","false","[2,1]","011","011","0","","","","","","",""
"","","","","","image-keyboard-response","171","204337","0.0-146.0","60a9b8f7b9748b9999090dd8","665500ab8938657b03fbdba8","665792ee4bd0152d82204b34","330","stimuli/10110112.jpg"," ","","feedback_trial","2","","","","","","","","","","","","","","","","","","","","",""
"","","","","","image-keyboard-response","172","205041","0.0-147.0","60a9b8f7b9748b9999090dd8","665500ab8938657b03fbdba8","665792ee4bd0152d82204b34","700","stimuli/0010010.jpg","0","","prediction_trial","0","","true","","0","true","true","true","true","true","true","[0]","010","010","1","","","","","","",""
"","","","","","image-keyboard-response","173","205347","0.0-148.0","60a9b8f7b9748b9999090dd8","665500ab8938657b03fbdba8","665792ee4bd0152d82204b34","306","stimuli/00100100.jpg"," ","","feedback_trial","0","","","","","","","","","","","","","","","","","","","","",""
"","","","","","image-keyboard-response","174","206534","0.0-149.0","60a9b8f7b9748b9999090dd8","665500ab8938657b03fbdba8","665792ee4bd0152d82204b34","1187","stimuli/1011101.jpg","1","","prediction_trial","2","","false","","1","true","true","false","false","false","false","[1,2]","011","101","0","","","","","","",""
"","","","","","image-keyboard-response","175","206862","0.0-150.0","60a9b8f7b9748b9999090dd8","665500ab8938657b03fbdba8","665792ee4bd0152d82204b34","328","stimuli/10111012.jpg"," ","","feedback_trial","1","","","","","","","","","","","","","","","","","","","","",""
"","","","","","image-keyboard-response","176","208515","0.0-151.0","60a9b8f7b9748b9999090dd8","665500ab8938657b03fbdba8","665792ee4bd0152d82204b34","1653","stimuli/2101110.jpg","1","","prediction_trial","2","","false","","2","true","true","false","false","false","false","[2,0]","101","110","0","","","","","","",""
"","","","","","image-keyboard-response","177","209795","0.0-152.0","60a9b8f7b9748b9999090dd8","665500ab8938657b03fbdba8","665792ee4bd0152d82204b34","1280","stimuli/21011102.jpg"," ","","feedback_trial","2","","","","","","","","","","","","","","","","","","","","",""
"","","","","","image-keyboard-response","178","210479","0.0-153.0","60a9b8f7b9748b9999090dd8","665500ab8938657b03fbdba8","665792ee4bd0152d82204b34","683","stimuli/0000001.jpg","0","","prediction_trial","0","","true","","0","true","true","true","true","true","true","[0]","000","001","1","","","","","","",""
"","","","","","image-keyboard-response","179","210797","0.0-154.0","60a9b8f7b9748b9999090dd8","665500ab8938657b03fbdba8","665792ee4bd0152d82204b34","318","stimuli/00000010.jpg"," ","","feedback_trial","0","","","","","","","","","","","","","","","","","","","","",""
"","","","","","image-keyboard-response","180","211446","0.0-155.0","60a9b8f7b9748b9999090dd8","665500ab8938657b03fbdba8","665792ee4bd0152d82204b34","649","stimuli/0010111.jpg","0","","prediction_trial","0","","true","","0","false","false","true","true","false","false","[0]","010","111","1","","","","","","",""
"","","","","","image-keyboard-response","181","211748","0.0-156.0","60a9b8f7b9748b9999090dd8","665500ab8938657b03fbdba8","665792ee4bd0152d82204b34","302","stimuli/00101110.jpg"," ","","feedback_trial","0","","","","","","","","","","","","","","","","","","","","",""
"","","","","","image-keyboard-response","182","212806","0.0-157.0","60a9b8f7b9748b9999090dd8","665500ab8938657b03fbdba8","665792ee4bd0152d82204b34","1058","stimuli/0110110.jpg","1","","prediction_trial","0","","false","","0","false","false","false","false","false","false","[1,0]","110","110","0","","","","","","",""
"","","","","","image-keyboard-response","183","213131","0.0-158.0","60a9b8f7b9748b9999090dd8","665500ab8938657b03fbdba8","665792ee4bd0152d82204b34","325","stimuli/01101100.jpg"," ","","feedback_trial","1","","","","","","","","","","","","","","","","","","","","",""
"","","","","","image-keyboard-response","184","213759","0.0-159.0","60a9b8f7b9748b9999090dd8","665500ab8938657b03fbdba8","665792ee4bd0152d82204b34","628","stimuli/1100001.jpg","1","","prediction_trial","1","","true","","1","true","true","true","true","true","true","[1]","100","001","1","","","","","","",""
"","","","","","image-keyboard-response","185","213988","0.0-160.0","60a9b8f7b9748b9999090dd8","665500ab8938657b03fbdba8","665792ee4bd0152d82204b34","229","stimuli/11000011.jpg"," ","","feedback_trial","1","","","","","","","","","","","","","","","","","","","","",""
"","","","","","image-keyboard-response","186","215090","0.0-161.0","60a9b8f7b9748b9999090dd8","665500ab8938657b03fbdba8","665792ee4bd0152d82204b34","1102","stimuli/2101001.jpg","2","","prediction_trial","2","","true","","2","false","true","false","false","false","false","[2,0]","101","001","1","","","","","","",""
"","","","","","image-keyboard-response","187","215372","0.0-162.0","60a9b8f7b9748b9999090dd8","665500ab8938657b03fbdba8","665792ee4bd0152d82204b34","282","stimuli/21010012.jpg"," ","","feedback_trial","2","","","","","","","","","","","","","","","","","","","","",""
"","","","","","image-keyboard-response","188","216259","0.0-163.0","60a9b8f7b9748b9999090dd8","665500ab8938657b03fbdba8","665792ee4bd0152d82204b34","886","stimuli/0001100.jpg","0","","prediction_trial","0","","true","","0","false","true","true","true","false","true","[0]","001","100","1","","","","","","",""
"","","","","","image-keyboard-response","189","216495","0.0-164.0","60a9b8f7b9748b9999090dd8","665500ab8938657b03fbdba8","665792ee4bd0152d82204b34","236","stimuli/00011000.jpg"," ","","feedback_trial","0","","","","","","","","","","","","","","","","","","","","",""
"","","","","","image-keyboard-response","190","218964","0.0-165.0","60a9b8f7b9748b9999090dd8","665500ab8938657b03fbdba8","665792ee4bd0152d82204b34","2469","stimuli/1001110.jpg","1","","prediction_trial","1","","true","","1","false","false","true","true","false","false","[1]","001","110","1","","","","","","",""
"","","","","","image-keyboard-response","191","219343","0.0-166.0","60a9b8f7b9748b9999090dd8","665500ab8938657b03fbdba8","665792ee4bd0152d82204b34","379","stimuli/10011101.jpg"," ","","feedback_trial","1","","","","","","","","","","","","","","","","","","","","",""
"","","","","","image-keyboard-response","192","221031","0.0-167.0","60a9b8f7b9748b9999090dd8","665500ab8938657b03fbdba8","665792ee4bd0152d82204b34","1688","stimuli/1100011.jpg","2","","prediction_trial","1","","false","","1","false","false","true","true","false","false","[1]","100","011","0","","","","","","",""
"","","","","","image-keyboard-response","193","221415","0.0-168.0","60a9b8f7b9748b9999090dd8","665500ab8938657b03fbdba8","665792ee4bd0152d82204b34","384","stimuli/11000111.jpg"," ","","feedback_trial","1","","","","","","","","","","","","","","","","","","","","",""
"","","","","","image-keyboard-response","194","222357","0.0-169.0","60a9b8f7b9748b9999090dd8","665500ab8938657b03fbdba8","665792ee4bd0152d82204b34","942","stimuli/1111100.jpg","1","","prediction_trial","2","","false","","1","true","true","false","false","false","false","[2,1,0]","111","100","0","","","","","","",""
"","","","","","image-keyboard-response","195","222737","0.0-170.0","60a9b8f7b9748b9999090dd8","665500ab8938657b03fbdba8","665792ee4bd0152d82204b34","380","stimuli/11111002.jpg"," ","","feedback_trial","2","","","","","","","","","","","","","","","","","","","","",""
"","","","","","image-keyboard-response","196","223377","0.0-171.0","60a9b8f7b9748b9999090dd8","665500ab8938657b03fbdba8","665792ee4bd0152d82204b34","640","stimuli/1101111.jpg","1","","prediction_trial","1","","true","","1","false","false","true","true","false","false","[1]","101","111","1","","","","","","",""
"","","","","","image-keyboard-response","197","223714","0.0-172.0","60a9b8f7b9748b9999090dd8","665500ab8938657b03fbdba8","665792ee4bd0152d82204b34","337","stimuli/11011111.jpg"," ","","feedback_trial","1","","","","","","","","","","","","","","","","","","","","",""
"","","","","","image-keyboard-response","198","224236","0.0-173.0","60a9b8f7b9748b9999090dd8","665500ab8938657b03fbdba8","665792ee4bd0152d82204b34","522","stimuli/1001000.jpg","1","","prediction_trial","1","","true","","1","true","true","true","true","true","true","[1]","001","000","1","","","","","","",""
"","","","","","image-keyboard-response","199","224540","0.0-174.0","60a9b8f7b9748b9999090dd8","665500ab8938657b03fbdba8","665792ee4bd0152d82204b34","304","stimuli/10010001.jpg"," ","","feedback_trial","1","","","","","","","","","","","","","","","","","","","","",""
"","","","","","image-keyboard-response","200","225187","0.0-175.0","60a9b8f7b9748b9999090dd8","665500ab8938657b03fbdba8","665792ee4bd0152d82204b34","647","stimuli/1100110.jpg","1","","prediction_trial","1","","true","","1","false","false","true","true","false","false","[1]","100","110","1","","","","","","",""
"","","","","","image-keyboard-response","201","225454","0.0-176.0","60a9b8f7b9748b9999090dd8","665500ab8938657b03fbdba8","665792ee4bd0152d82204b34","267","stimuli/11001101.jpg"," ","","feedback_trial","1","","","","","","","","","","","","","","","","","","","","",""
"","","","","","image-keyboard-response","202","225918","0.0-177.0","60a9b8f7b9748b9999090dd8","665500ab8938657b03fbdba8","665792ee4bd0152d82204b34","464","stimuli/1100000.jpg","1","","prediction_trial","1","","true","","1","true","true","true","true","true","true","[1]","100","000","1","","","","","","",""
"","","","","","image-keyboard-response","203","226213","0.0-178.0","60a9b8f7b9748b9999090dd8","665500ab8938657b03fbdba8","665792ee4bd0152d82204b34","295","stimuli/11000001.jpg"," ","","feedback_trial","1","","","","","","","","","","","","","","","","","","","","",""
"","","","","","image-keyboard-response","204","226710","0.0-179.0","60a9b8f7b9748b9999090dd8","665500ab8938657b03fbdba8","665792ee4bd0152d82204b34","497","stimuli/0001001.jpg","0","","prediction_trial","0","","true","","0","true","true","true","true","true","true","[0]","001","001","1","","","","","","",""
"","","","","","image-keyboard-response","205","226929","0.0-180.0","60a9b8f7b9748b9999090dd8","665500ab8938657b03fbdba8","665792ee4bd0152d82204b34","219","stimuli/00010010.jpg"," ","","feedback_trial","0","","","","","","","","","","","","","","","","","","","","",""
"","","","","","image-keyboard-response","206","227619","0.0-181.0","60a9b8f7b9748b9999090dd8","665500ab8938657b03fbdba8","665792ee4bd0152d82204b34","690","stimuli/2100011.jpg","2","","prediction_trial","2","","true","","2","false","false","true","true","false","false","[2]","100","011","1","","","","","","",""
"","","","","","image-keyboard-response","207","227835","0.0-182.0","60a9b8f7b9748b9999090dd8","665500ab8938657b03fbdba8","665792ee4bd0152d82204b34","216","stimuli/21000112.jpg"," ","","feedback_trial","2","","","","","","","","","","","","","","","","","","","","",""
"","","","","","image-keyboard-response","208","228933","0.0-183.0","60a9b8f7b9748b9999090dd8","665500ab8938657b03fbdba8","665792ee4bd0152d82204b34","1098","stimuli/2011011.jpg","1","","prediction_trial","2","","false","","2","false","false","false","false","false","false","[2,1]","011","011","0","","","","","","",""
"","","","","","image-keyboard-response","209","229270","0.0-184.0","60a9b8f7b9748b9999090dd8","665500ab8938657b03fbdba8","665792ee4bd0152d82204b34","337","stimuli/20110112.jpg"," ","","feedback_trial","2","","","","","","","","","","","","","","","","","","","","",""
"","","","","","image-keyboard-response","210","230444","0.0-185.0","60a9b8f7b9748b9999090dd8","665500ab8938657b03fbdba8","665792ee4bd0152d82204b34","1174","stimuli/0100000.jpg","1","","prediction_trial","0","","false","","0","true","true","false","true","false","true","[0]","100","000","0","","","","","","",""
"","","","","","image-keyboard-response","211","231180","0.0-186.0","60a9b8f7b9748b9999090dd8","665500ab8938657b03fbdba8","665792ee4bd0152d82204b34","736","stimuli/01000000.jpg"," ","","feedback_trial","0","","","","","","","","","","","","","","","","","","","","",""
"","","","","","image-keyboard-response","212","233061","0.0-187.0","60a9b8f7b9748b9999090dd8","665500ab8938657b03fbdba8","665792ee4bd0152d82204b34","1877","stimuli/0111011.jpg","2","","prediction_trial","0","","false","","0","true","true","false","false","false","false","[2,1,0]","111","011","0","","","","","","",""
"","","","","","image-keyboard-response","213","233521","0.0-188.0","60a9b8f7b9748b9999090dd8","665500ab8938657b03fbdba8","665792ee4bd0152d82204b34","459","stimuli/01110110.jpg"," ","","feedback_trial","2","","","","","","","","","","","","","","","","","","","","",""
"","","","","","image-keyboard-response","214","234729","0.0-189.0","60a9b8f7b9748b9999090dd8","665500ab8938657b03fbdba8","665792ee4bd0152d82204b34","1207","stimuli/2000011.jpg","1","","prediction_trial","2","","false","","2","false","false","true","true","false","false","[2]","000","011","0","","","","","","",""
"","","","","","image-keyboard-response","215","235067","0.0-190.0","60a9b8f7b9748b9999090dd8","665500ab8938657b03fbdba8","665792ee4bd0152d82204b34","338","stimuli/20000112.jpg"," ","","feedback_trial","2","","","","","","","","","","","","","","","","","","","","",""
"","","","","","image-keyboard-response","216","235625","0.0-191.0","60a9b8f7b9748b9999090dd8","665500ab8938657b03fbdba8","665792ee4bd0152d82204b34","558","stimuli/2000111.jpg","1","","prediction_trial","2","","false","","2","false","false","true","true","false","false","[2]","000","111","0","","","","","","",""
"","","","","","image-keyboard-response","217","235947","0.0-192.0","60a9b8f7b9748b9999090dd8","665500ab8938657b03fbdba8","665792ee4bd0152d82204b34","322","stimuli/20001112.jpg"," ","","feedback_trial","2","","","","","","","","","","","","","","","","","","","","",""
"","","","","","image-keyboard-response","218","237063","0.0-193.0","60a9b8f7b9748b9999090dd8","665500ab8938657b03fbdba8","665792ee4bd0152d82204b34","1116","stimuli/2011111.jpg","0","","prediction_trial","1","","false","","2","false","false","false","false","false","false","[2,1]","011","111","0","","","","","","",""
"","","","","","image-keyboard-response","219","237445","0.0-194.0","60a9b8f7b9748b9999090dd8","665500ab8938657b03fbdba8","665792ee4bd0152d82204b34","382","stimuli/20111111.jpg"," ","","feedback_trial","2","","","","","","","","","","","","","","","","","","","","",""
"","","","","","image-keyboard-response","220","238125","0.0-195.0","60a9b8f7b9748b9999090dd8","665500ab8938657b03fbdba8","665792ee4bd0152d82204b34","676","stimuli/0010001.jpg","0","","prediction_trial","0","","true","","0","true","true","true","true","true","true","[0]","010","001","1","","","","","","",""
"","","","","","image-keyboard-response","221","238366","0.0-196.0","60a9b8f7b9748b9999090dd8","665500ab8938657b03fbdba8","665792ee4bd0152d82204b34","241","stimuli/00100010.jpg"," ","","feedback_trial","0","","","","","","","","","","","","","","","","","","","","",""
"","","","","","image-keyboard-response","222","239416","0.0-197.0","60a9b8f7b9748b9999090dd8","665500ab8938657b03fbdba8","665792ee4bd0152d82204b34","1050","stimuli/1100010.jpg","1","","prediction_trial","1","","true","","1","false","true","true","true","false","true","[1]","100","010","1","","","","","","",""
"","","","","","image-keyboard-response","223","239504","0.0-198.0","60a9b8f7b9748b9999090dd8","665500ab8938657b03fbdba8","665792ee4bd0152d82204b34","87","stimuli/11000101.jpg"," ","","feedback_trial","1","","","","","","","","","","","","","","","","","","","","",""
"","","","","","image-keyboard-response","224","240208","0.0-199.0","60a9b8f7b9748b9999090dd8","665500ab8938657b03fbdba8","665792ee4bd0152d82204b34","704","stimuli/1101100.jpg","1","","prediction_trial","1","","true","","1","true","true","true","true","true","true","[1]","101","100","1","","","","","","",""
"","","","","","image-keyboard-response","225","240313","0.0-200.0","60a9b8f7b9748b9999090dd8","665500ab8938657b03fbdba8","665792ee4bd0152d82204b34","105","stimuli/11011001.jpg"," ","","feedback_trial","1","","","","","","","","","","","","","","","","","","","","",""
"","","","","","image-keyboard-response","226","241299","0.0-201.0","60a9b8f7b9748b9999090dd8","665500ab8938657b03fbdba8","665792ee4bd0152d82204b34","986","stimuli/0010110.jpg","0","","prediction_trial","0","","true","","0","false","false","true","true","false","false","[0]","010","110","1","","","","","","",""
"","","","","","image-keyboard-response","227","241489","0.0-202.0","60a9b8f7b9748b9999090dd8","665500ab8938657b03fbdba8","665792ee4bd0152d82204b34","190","stimuli/00101100.jpg"," ","","feedback_trial","0","","","","","","","","","","","","","","","","","","","","",""
"","","","","","image-keyboard-response","228","242068","0.0-203.0","60a9b8f7b9748b9999090dd8","665500ab8938657b03fbdba8","665792ee4bd0152d82204b34","579","stimuli/1100100.jpg","1","","prediction_trial","1","","true","","1","true","true","true","true","true","true","[1]","100","100","1","","","","","","",""
"","","","","","image-keyboard-response","229","242209","0.0-204.0","60a9b8f7b9748b9999090dd8","665500ab8938657b03fbdba8","665792ee4bd0152d82204b34","141","stimuli/11001001.jpg"," ","","feedback_trial","1","","","","","","","","","","","","","","","","","","","","",""
"","","","","","image-keyboard-response","230","243670","0.0-205.0","60a9b8f7b9748b9999090dd8","665500ab8938657b03fbdba8","665792ee4bd0152d82204b34","1458","stimuli/2010011.jpg","2","","prediction_trial","2","","true","","2","false","false","true","true","false","false","[2]","010","011","1","","","","","","",""
"","","","","","image-keyboard-response","231","244049","0.0-206.0","60a9b8f7b9748b9999090dd8","665500ab8938657b03fbdba8","665792ee4bd0152d82204b34","378","stimuli/20100112.jpg"," ","","feedback_trial","2","","","","","","","","","","","","","","","","","","","","",""
"","","","","","image-keyboard-response","232","246782","0.0-207.0","60a9b8f7b9748b9999090dd8","665500ab8938657b03fbdba8","665792ee4bd0152d82204b34","2733","stimuli/2011001.jpg","2","","prediction_trial","2","","true","","2","false","true","false","false","false","false","[1,2]","011","001","1","","","","","","",""
"","","","","","image-keyboard-response","233","247105","0.0-208.0","60a9b8f7b9748b9999090dd8","665500ab8938657b03fbdba8","665792ee4bd0152d82204b34","323","stimuli/20110012.jpg"," ","","feedback_trial","1","","","","","","","","","","","","","","","","","","","","",""
"","","","","","image-keyboard-response","234","249132","0.0-209.0","60a9b8f7b9748b9999090dd8","665500ab8938657b03fbdba8","665792ee4bd0152d82204b34","2027","stimuli/2011101.jpg","0","","prediction_trial","1","","false","","2","false","false","false","false","false","false","[1,2]","011","101","0","","","","","","",""
"","","","","","image-keyboard-response","235","249504","0.0-210.0","60a9b8f7b9748b9999090dd8","665500ab8938657b03fbdba8","665792ee4bd0152d82204b34","372","stimuli/20111011.jpg"," ","","feedback_trial","1","","","","","","","","","","","","","","","","","","","","",""
"","","","","","image-keyboard-response","236","250652","0.0-211.0","60a9b8f7b9748b9999090dd8","665500ab8938657b03fbdba8","665792ee4bd0152d82204b34","1148","stimuli/1010000.jpg","1","","prediction_trial","1","","true","","1","true","true","false","true","false","true","[1]","010","000","1","","","","","","",""
"","","","","","image-keyboard-response","237","250886","0.0-212.0","60a9b8f7b9748b9999090dd8","665500ab8938657b03fbdba8","665792ee4bd0152d82204b34","234","stimuli/10100001.jpg"," ","","feedback_trial","1","","","","","","","","","","","","","","","","","","","","",""
"","","","","","image-keyboard-response","238","251307","0.0-213.0","60a9b8f7b9748b9999090dd8","665500ab8938657b03fbdba8","665792ee4bd0152d82204b34","421","stimuli/1001001.jpg","1","","prediction_trial","1","","true","","1","true","true","true","true","true","true","[1]","001","001","1","","","","","","",""
"","","","","","image-keyboard-response","239","251538","0.0-214.0","60a9b8f7b9748b9999090dd8","665500ab8938657b03fbdba8","665792ee4bd0152d82204b34","230","stimuli/10010011.jpg"," ","","feedback_trial","1","","","","","","","","","","","","","","","","","","","","",""
"","","","","","image-keyboard-response","240","252198","0.0-215.0","60a9b8f7b9748b9999090dd8","665500ab8938657b03fbdba8","665792ee4bd0152d82204b34","660","stimuli/1001010.jpg","1","","prediction_trial","1","","true","","1","false","true","true","true","false","true","[1]","001","010","1","","","","","","",""
"","","","","","image-keyboard-response","241","252374","0.0-216.0","60a9b8f7b9748b9999090dd8","665500ab8938657b03fbdba8","665792ee4bd0152d82204b34","176","stimuli/10010101.jpg"," ","","feedback_trial","1","","","","","","","","","","","","","","","","","","","","",""
"","","","","","image-keyboard-response","242","253699","0.0-217.0","60a9b8f7b9748b9999090dd8","665500ab8938657b03fbdba8","665792ee4bd0152d82204b34","1325","stimuli/0110001.jpg","0","","prediction_trial","0","","true","","0","true","true","false","false","false","false","[1,0]","110","001","1","","","","","","",""
"","","","","","image-keyboard-response","243","253924","0.0-218.0","60a9b8f7b9748b9999090dd8","665500ab8938657b03fbdba8","665792ee4bd0152d82204b34","225","stimuli/01100010.jpg"," ","","feedback_trial","1","","","","","","","","","","","","","","","","","","","","",""
"","","","","","image-keyboard-response","244","254655","0.0-219.0","60a9b8f7b9748b9999090dd8","665500ab8938657b03fbdba8","665792ee4bd0152d82204b34","731","stimuli/1110001.jpg","1","","prediction_trial","1","","true","","1","true","true","false","false","false","false","[1,0]","110","001","1","","","","","","",""
"","","","","","image-keyboard-response","245","254868","0.0-220.0","60a9b8f7b9748b9999090dd8","665500ab8938657b03fbdba8","665792ee4bd0152d82204b34","212","stimuli/11100011.jpg"," ","","feedback_trial","1","","","","","","","","","","","","","","","","","","","","",""
"","","","","","image-keyboard-response","246","255374","0.0-221.0","60a9b8f7b9748b9999090dd8","665500ab8938657b03fbdba8","665792ee4bd0152d82204b34","506","stimuli/1101101.jpg","1","","prediction_trial","1","","true","","1","true","true","true","true","true","true","[1]","101","101","1","","","","","","",""
"","","","","","image-keyboard-response","247","255510","0.0-222.0","60a9b8f7b9748b9999090dd8","665500ab8938657b03fbdba8","665792ee4bd0152d82204b34","135","stimuli/11011011.jpg"," ","","feedback_trial","1","","","","","","","","","","","","","","","","","","","","",""
"","","","","","image-keyboard-response","248","256113","0.0-223.0","60a9b8f7b9748b9999090dd8","665500ab8938657b03fbdba8","665792ee4bd0152d82204b34","603","stimuli/0111001.jpg","0","","prediction_trial","1","","false","","0","true","true","false","false","false","false","[1,0,2]","111","001","0","","","","","","",""
"","","","","","image-keyboard-response","249","256211","0.0-224.0","60a9b8f7b9748b9999090dd8","665500ab8938657b03fbdba8","665792ee4bd0152d82204b34","98","stimuli/01110011.jpg"," ","","feedback_trial","1","","","","","","","","","","","","","","","","","","","","",""
"","","","","","image-keyboard-response","250","256845","0.0-225.0","60a9b8f7b9748b9999090dd8","665500ab8938657b03fbdba8","665792ee4bd0152d82204b34","634","stimuli/0001010.jpg","0","","prediction_trial","0","","true","","0","true","true","true","true","true","true","[0]","001","010","1","","","","","","",""
"","","","","","image-keyboard-response","251","256964","0.0-226.0","60a9b8f7b9748b9999090dd8","665500ab8938657b03fbdba8","665792ee4bd0152d82204b34","118","stimuli/00010100.jpg"," ","","feedback_trial","0","","","","","","","","","","","","","","","","","","","","",""
"","","","","","image-keyboard-response","252","257523","0.0-227.0","60a9b8f7b9748b9999090dd8","665500ab8938657b03fbdba8","665792ee4bd0152d82204b34","559","stimuli/2110100.jpg","2","","prediction_trial","2","","true","","2","true","true","true","true","true","true","[2]","110","100","1","","","","","","",""
"","","","","","image-keyboard-response","253","257643","0.0-228.0","60a9b8f7b9748b9999090dd8","665500ab8938657b03fbdba8","665792ee4bd0152d82204b34","120","stimuli/21101002.jpg"," ","","feedback_trial","2","","","","","","","","","","","","","","","","","","","","",""
"","","","","","image-keyboard-response","254","258908","0.0-229.0","60a9b8f7b9748b9999090dd8","665500ab8938657b03fbdba8","665792ee4bd0152d82204b34","1265","stimuli/2001000.jpg","2","","prediction_trial","2","","true","","2","true","true","false","true","false","true","[2]","001","000","1","","","","","","",""
"","","","","","image-keyboard-response","255","259016","0.0-230.0","60a9b8f7b9748b9999090dd8","665500ab8938657b03fbdba8","665792ee4bd0152d82204b34","108","stimuli/20010002.jpg"," ","","feedback_trial","2","","","","","","","","","","","","","","","","","","","","",""
"","","","","","image-keyboard-response","256","259799","0.0-231.0","60a9b8f7b9748b9999090dd8","665500ab8938657b03fbdba8","665792ee4bd0152d82204b34","783","stimuli/1001111.jpg","1","","prediction_trial","1","","true","","1","false","false","true","true","false","false","[1]","001","111","1","","","","","","",""
"","","","","","image-keyboard-response","257","259880","0.0-232.0","60a9b8f7b9748b9999090dd8","665500ab8938657b03fbdba8","665792ee4bd0152d82204b34","81","stimuli/10011111.jpg"," ","","feedback_trial","1","","","","","","","","","","","","","","","","","","","","",""
"","","","","","image-keyboard-response","258","261235","0.0-233.0","60a9b8f7b9748b9999090dd8","665500ab8938657b03fbdba8","665792ee4bd0152d82204b34","1355","stimuli/2001010.jpg","2","","prediction_trial","2","","true","","2","true","true","false","true","false","true","[2]","001","010","1","","","","","","",""
"","","","","","image-keyboard-response","259","261313","0.0-234.0","60a9b8f7b9748b9999090dd8","665500ab8938657b03fbdba8","665792ee4bd0152d82204b34","78","stimuli/20010102.jpg"," ","","feedback_trial","2","","","","","","","","","","","","","","","","","","","","",""
"","","","","","image-keyboard-response","260","262161","0.0-235.0","60a9b8f7b9748b9999090dd8","665500ab8938657b03fbdba8","665792ee4bd0152d82204b34","848","stimuli/1010011.jpg","2","","prediction_trial","1","","false","","1","false","false","false","true","false","false","[1]","010","011","0","","","","","","",""
"","","","","","image-keyboard-response","261","262254","0.0-236.0","60a9b8f7b9748b9999090dd8","665500ab8938657b03fbdba8","665792ee4bd0152d82204b34","93","stimuli/10100111.jpg"," ","","feedback_trial","1","","","","","","","","","","","","","","","","","","","","",""
"","","","","","image-keyboard-response","262","263229","0.0-237.0","60a9b8f7b9748b9999090dd8","665500ab8938657b03fbdba8","665792ee4bd0152d82204b34","974","stimuli/0100001.jpg","0","","prediction_trial","0","","true","","0","true","true","false","true","false","true","[0]","100","001","1","","","","","","",""
"","","","","","image-keyboard-response","263","263301","0.0-238.0","60a9b8f7b9748b9999090dd8","665500ab8938657b03fbdba8","665792ee4bd0152d82204b34","72","stimuli/01000010.jpg"," ","","feedback_trial","0","","","","","","","","","","","","","","","","","","","","",""
"","","","","","image-keyboard-response","264","264101","0.0-239.0","60a9b8f7b9748b9999090dd8","665500ab8938657b03fbdba8","665792ee4bd0152d82204b34","800","stimuli/1000100.jpg","2","","prediction_trial","1","","false","","1","true","true","true","true","true","true","[1]","000","100","0","","","","","","",""
"","","","","","image-keyboard-response","265","264172","0.0-240.0","60a9b8f7b9748b9999090dd8","665500ab8938657b03fbdba8","665792ee4bd0152d82204b34","71","stimuli/10001001.jpg"," ","","feedback_trial","1","","","","","","","","","","","","","","","","","","","","",""
"","","","","","image-keyboard-response","266","266110","0.0-241.0","60a9b8f7b9748b9999090dd8","665500ab8938657b03fbdba8","665792ee4bd0152d82204b34","1938","stimuli/1101110.jpg","2","","prediction_trial","1","","false","","1","false","false","true","true","false","false","[1]","101","110","0","","","","","","",""
"","","","","","image-keyboard-response","267","266194","0.0-242.0","60a9b8f7b9748b9999090dd8","665500ab8938657b03fbdba8","665792ee4bd0152d82204b34","84","stimuli/11011101.jpg"," ","","feedback_trial","1","","","","","","","","","","","","","","","","","","","","",""
"","","","","","image-keyboard-response","268","267731","0.0-243.0","60a9b8f7b9748b9999090dd8","665500ab8938657b03fbdba8","665792ee4bd0152d82204b34","1537","stimuli/2101010.jpg","2","","prediction_trial","2","","true","","2","true","true","false","false","false","false","[0,2]","101","010","1","","","","","","",""
"","","","","","image-keyboard-response","269","267942","0.0-244.0","60a9b8f7b9748b9999090dd8","665500ab8938657b03fbdba8","665792ee4bd0152d82204b34","211","stimuli/21010102.jpg"," ","","feedback_trial","0","","","","","","","","","","","","","","","","","","","","",""
"","","","","","image-keyboard-response","270","268518","0.0-245.0","60a9b8f7b9748b9999090dd8","665500ab8938657b03fbdba8","665792ee4bd0152d82204b34","576","stimuli/2110110.jpg","2","","prediction_trial","2","","true","","2","true","true","true","true","true","true","[2]","110","110","1","","","","","","",""
"","","","","","image-keyboard-response","271","268628","0.0-246.0","60a9b8f7b9748b9999090dd8","665500ab8938657b03fbdba8","665792ee4bd0152d82204b34","110","stimuli/21101102.jpg"," ","","feedback_trial","2","","","","","","","","","","","","","","","","","","","","",""
"","","","","","image-keyboard-response","272","269571","0.0-247.0","60a9b8f7b9748b9999090dd8","665500ab8938657b03fbdba8","665792ee4bd0152d82204b34","942","stimuli/1111010.jpg","1","","prediction_trial","1","","true","","1","false","true","false","false","false","false","[1,2,0]","111","010","1","","","","","","",""
"","","","","","image-keyboard-response","273","269657","0.0-248.0","60a9b8f7b9748b9999090dd8","665500ab8938657b03fbdba8","665792ee4bd0152d82204b34","87","stimuli/11110101.jpg"," ","","feedback_trial","1","","","","","","","","","","","","","","","","","","","","",""
"","","","","","image-keyboard-response","274","270209","0.0-249.0","60a9b8f7b9748b9999090dd8","665500ab8938657b03fbdba8","665792ee4bd0152d82204b34","551","stimuli/1011000.jpg","1","","prediction_trial","1","","true","","1","true","true","false","false","false","false","[2,1]","011","000","1","","","","","","",""
"","","","","","image-keyboard-response","275","270287","0.0-250.0","60a9b8f7b9748b9999090dd8","665500ab8938657b03fbdba8","665792ee4bd0152d82204b34","78","stimuli/10110001.jpg"," ","","feedback_trial","2","","","","","","","","","","","","","","","","","","","","",""
"","","","","","image-keyboard-response","276","270871","0.0-251.0","60a9b8f7b9748b9999090dd8","665500ab8938657b03fbdba8","665792ee4bd0152d82204b34","584","stimuli/2010000.jpg","2","","prediction_trial","2","","true","","2","true","true","true","true","true","true","[2]","010","000","1","","","","","","",""
"","","","","","image-keyboard-response","277","270967","0.0-252.0","60a9b8f7b9748b9999090dd8","665500ab8938657b03fbdba8","665792ee4bd0152d82204b34","97","stimuli/20100002.jpg"," ","","feedback_trial","2","","","","","","","","","","","","","","","","","","","","",""
"","","","","","image-keyboard-response","278","271642","0.0-253.0","60a9b8f7b9748b9999090dd8","665500ab8938657b03fbdba8","665792ee4bd0152d82204b34","674","stimuli/2100100.jpg","2","","prediction_trial","2","","true","","2","true","true","true","true","true","true","[2]","100","100","1","","","","","","",""
"","","","","","image-keyboard-response","279","271742","0.0-254.0","60a9b8f7b9748b9999090dd8","665500ab8938657b03fbdba8","665792ee4bd0152d82204b34","100","stimuli/21001002.jpg"," ","","feedback_trial","2","","","","","","","","","","","","","","","","","","","","",""
"","","","","","image-keyboard-response","280","272782","0.0-255.0","60a9b8f7b9748b9999090dd8","665500ab8938657b03fbdba8","665792ee4bd0152d82204b34","1039","stimuli/0010100.jpg","0","","prediction_trial","0","","true","","0","false","true","true","true","false","true","[0]","010","100","1","","","","","","",""
"","","","","","image-keyboard-response","281","272813","0.0-256.0","60a9b8f7b9748b9999090dd8","665500ab8938657b03fbdba8","665792ee4bd0152d82204b34","32","stimuli/00101000.jpg"," ","","feedback_trial","0","","","","","","","","","","","","","","","","","","","","",""
"","","","","","image-keyboard-response","282","274156","0.0-257.0","60a9b8f7b9748b9999090dd8","665500ab8938657b03fbdba8","665792ee4bd0152d82204b34","1342","stimuli/0010000.jpg","0","","prediction_trial","0","","true","","0","true","true","true","true","true","true","[0]","010","000","1","","","","","","",""
"","","","","","image-keyboard-response","283","274246","0.0-258.0","60a9b8f7b9748b9999090dd8","665500ab8938657b03fbdba8","665792ee4bd0152d82204b34","90","stimuli/00100000.jpg"," ","","feedback_trial","0","","","","","","","","","","","","","","","","","","","","",""
"","","","","","image-keyboard-response","284","274855","0.0-259.0","60a9b8f7b9748b9999090dd8","665500ab8938657b03fbdba8","665792ee4bd0152d82204b34","609","stimuli/2010110.jpg","2","","prediction_trial","2","","true","","2","true","true","true","true","true","true","[2]","010","110","1","","","","","","",""
"","","","","","image-keyboard-response","285","275112","0.0-260.0","60a9b8f7b9748b9999090dd8","665500ab8938657b03fbdba8","665792ee4bd0152d82204b34","257","stimuli/20101102.jpg"," ","","feedback_trial","2","","","","","","","","","","","","","","","","","","","","",""
"","","","","","image-keyboard-response","286","275542","0.0-261.0","60a9b8f7b9748b9999090dd8","665500ab8938657b03fbdba8","665792ee4bd0152d82204b34","430","stimuli/2100110.jpg","2","","prediction_trial","2","","true","","2","true","true","true","true","true","true","[2]","100","110","1","","","","","","",""
"","","","","","image-keyboard-response","287","275622","0.0-262.0","60a9b8f7b9748b9999090dd8","665500ab8938657b03fbdba8","665792ee4bd0152d82204b34","80","stimuli/21001102.jpg"," ","","feedback_trial","2","","","","","","","","","","","","","","","","","","","","",""
"","","","","","image-keyboard-response","288","276835","0.0-263.0","60a9b8f7b9748b9999090dd8","665500ab8938657b03fbdba8","665792ee4bd0152d82204b34","1213","stimuli/2110001.jpg","2","","prediction_trial","2","","true","","2","false","true","true","true","false","true","[2]","110","001","1","","","","","","",""
"","","","","","image-keyboard-response","289","276920","0.0-264.0","60a9b8f7b9748b9999090dd8","665500ab8938657b03fbdba8","665792ee4bd0152d82204b34","85","stimuli/21100012.jpg"," ","","feedback_trial","2","","","","","","","","","","","","","","","","","","","","",""
"","","","","","image-keyboard-response","290","277822","0.0-265.0","60a9b8f7b9748b9999090dd8","665500ab8938657b03fbdba8","665792ee4bd0152d82204b34","902","stimuli/0111110.jpg","1","","prediction_trial","1","","true","","0","false","false","false","false","false","false","[0,1,2]","111","110","1","","","","","","",""
"","","","","","image-keyboard-response","291","277879","0.0-266.0","60a9b8f7b9748b9999090dd8","665500ab8938657b03fbdba8","665792ee4bd0152d82204b34","57","stimuli/01111101.jpg"," ","","feedback_trial","0","","","","","","","","","","","","","","","","","","","","",""
"","","","","","image-keyboard-response","292","278770","0.0-267.0","60a9b8f7b9748b9999090dd8","665500ab8938657b03fbdba8","665792ee4bd0152d82204b34","891","stimuli/0110010.jpg","0","","prediction_trial","0","","true","","0","true","true","false","false","false","false","[1,0]","110","010","1","","","","","","",""
"","","","","","image-keyboard-response","293","278837","0.0-268.0","60a9b8f7b9748b9999090dd8","665500ab8938657b03fbdba8","665792ee4bd0152d82204b34","67","stimuli/01100100.jpg"," ","","feedback_trial","1","","","","","","","","","","","","","","","","","","","","",""
"","","","","","image-keyboard-response","294","279411","0.0-269.0","60a9b8f7b9748b9999090dd8","665500ab8938657b03fbdba8","665792ee4bd0152d82204b34","570","stimuli/0101001.jpg","0","","prediction_trial","2","","false","","0","true","true","false","false","false","false","[2,0]","101","001","0","","","","","","",""
"","","","","","image-keyboard-response","295","279495","0.0-270.0","60a9b8f7b9748b9999090dd8","665500ab8938657b03fbdba8","665792ee4bd0152d82204b34","84","stimuli/01010012.jpg"," ","","feedback_trial","2","","","","","","","","","","","","","","","","","","","","",""
"","","","","","image-keyboard-response","296","281328","0.0-271.0","60a9b8f7b9748b9999090dd8","665500ab8938657b03fbdba8","665792ee4bd0152d82204b34","1833","stimuli/1101011.jpg","1","","prediction_trial","1","","true","","1","false","false","true","true","false","false","[1]","101","011","1","","","","","","",""
"","","","","","image-keyboard-response","297","281375","0.0-272.0","60a9b8f7b9748b9999090dd8","665500ab8938657b03fbdba8","665792ee4bd0152d82204b34","47","stimuli/11010111.jpg"," ","","feedback_trial","1","","","","","","","","","","","","","","","","","","","","",""
"","","","","","image-keyboard-response","298","282404","0.0-273.0","60a9b8f7b9748b9999090dd8","665500ab8938657b03fbdba8","665792ee4bd0152d82204b34","1029","stimuli/0110100.jpg","0","","prediction_trial","0","","true","","0","false","true","false","false","false","false","[0,1]","110","100","1","","","","","","",""
"","","","","","image-keyboard-response","299","282416","0.0-274.0","60a9b8f7b9748b9999090dd8","665500ab8938657b03fbdba8","665792ee4bd0152d82204b34","13","stimuli/01101000.jpg"," ","","feedback_trial","0","","","","","","","","","","","","","","","","","","","","",""
"","","","","","image-keyboard-response","300","283466","0.0-275.0","60a9b8f7b9748b9999090dd8","665500ab8938657b03fbdba8","665792ee4bd0152d82204b34","1049","stimuli/2000001.jpg","2","","prediction_trial","2","","true","","2","false","true","true","true","false","true","[2]","000","001","1","","","","","","",""
"","","","","","image-keyboard-response","301","283498","0.0-276.0","60a9b8f7b9748b9999090dd8","665500ab8938657b03fbdba8","665792ee4bd0152d82204b34","28","stimuli/20000012.jpg"," ","","feedback_trial","2","","","","","","","","","","","","","","","","","","","","",""
"","","","","","image-keyboard-response","302","284046","0.0-277.0","60a9b8f7b9748b9999090dd8","665500ab8938657b03fbdba8","665792ee4bd0152d82204b34","548","stimuli/1001101.jpg","2","","prediction_trial","1","","false","","1","true","true","true","true","true","true","[1]","001","101","0","","","","","","",""
"","","","","","image-keyboard-response","303","284079","0.0-278.0","60a9b8f7b9748b9999090dd8","665500ab8938657b03fbdba8","665792ee4bd0152d82204b34","33","stimuli/10011011.jpg"," ","","feedback_trial","1","","","","","","","","","","","","","","","","","","","","",""
"","","","","","image-keyboard-response","304","285185","0.0-279.0","60a9b8f7b9748b9999090dd8","665500ab8938657b03fbdba8","665792ee4bd0152d82204b34","1106","stimuli/2000100.jpg","2","","prediction_trial","2","","true","","2","true","true","true","true","true","true","[2]","000","100","1","","","","","","",""
"","","","","","image-keyboard-response","305","285230","0.0-280.0","60a9b8f7b9748b9999090dd8","665500ab8938657b03fbdba8","665792ee4bd0152d82204b34","45","stimuli/20001002.jpg"," ","","feedback_trial","2","","","","","","","","","","","","","","","","","","","","",""
"","","","","","image-keyboard-response","306","285698","0.0-281.0","60a9b8f7b9748b9999090dd8","665500ab8938657b03fbdba8","665792ee4bd0152d82204b34","468","stimuli/2100000.jpg","2","","prediction_trial","2","","true","","2","true","true","true","true","true","true","[2]","100","000","1","","","","","","",""
"","","","","","image-keyboard-response","307","285773","0.0-282.0","60a9b8f7b9748b9999090dd8","665500ab8938657b03fbdba8","665792ee4bd0152d82204b34","75","stimuli/21000002.jpg"," ","","feedback_trial","2","","","","","","","","","","","","","","","","","","","","",""
"","","","","","image-keyboard-response","308","286705","0.0-283.0","60a9b8f7b9748b9999090dd8","665500ab8938657b03fbdba8","665792ee4bd0152d82204b34","932","stimuli/1010001.jpg","1","","prediction_trial","1","","true","","1","true","true","false","true","false","true","[1]","010","001","1","","","","","","",""
"","","","","","image-keyboard-response","309","286733","0.0-284.0","60a9b8f7b9748b9999090dd8","665500ab8938657b03fbdba8","665792ee4bd0152d82204b34","28","stimuli/10100011.jpg"," ","","feedback_trial","1","","","","","","","","","","","","","","","","","","","","",""
"","","","","","image-keyboard-response","310","287222","0.0-285.0","60a9b8f7b9748b9999090dd8","665500ab8938657b03fbdba8","665792ee4bd0152d82204b34","489","stimuli/1101000.jpg","1","","prediction_trial","1","","true","","1","true","true","true","true","true","true","[1]","101","000","1","","","","","","",""
"","","","","","image-keyboard-response","311","287249","0.0-286.0","60a9b8f7b9748b9999090dd8","665500ab8938657b03fbdba8","665792ee4bd0152d82204b34","26","stimuli/11010001.jpg"," ","","feedback_trial","1","","","","","","","","","","","","","","","","","","","","",""
"","","","","","image-keyboard-response","312","288260","0.0-287.0","60a9b8f7b9748b9999090dd8","665500ab8938657b03fbdba8","665792ee4bd0152d82204b34","1011","stimuli/2000101.jpg","0","","prediction_trial","2","","false","","2","false","false","true","true","false","false","[2]","000","101","0","","","","","","",""
"","","","","","image-keyboard-response","313","288281","0.0-288.0","60a9b8f7b9748b9999090dd8","665500ab8938657b03fbdba8","665792ee4bd0152d82204b34","18","stimuli/20001012.jpg"," ","","feedback_trial","2","","","","","","","","","","","","","","","","","","","","",""
"","","","","","image-keyboard-response","314","289947","0.0-289.0","60a9b8f7b9748b9999090dd8","665500ab8938657b03fbdba8","665792ee4bd0152d82204b34","1665","stimuli/0100100.jpg","0","","prediction_trial","0","","true","","0","false","true","false","true","false","true","[0]","100","100","1","","","","","","",""
"","","","","","image-keyboard-response","315","290011","0.0-290.0","60a9b8f7b9748b9999090dd8","665500ab8938657b03fbdba8","665792ee4bd0152d82204b34","64","stimuli/01001000.jpg"," ","","feedback_trial","0","","","","","","","","","","","","","","","","","","","","",""
"","","","","","image-keyboard-response","316","291450","0.0-291.0","60a9b8f7b9748b9999090dd8","665500ab8938657b03fbdba8","665792ee4bd0152d82204b34","1439","stimuli/2011010.jpg","2","","prediction_trial","2","","true","","2","true","true","false","false","false","false","[2,1]","011","010","1","","","","","","",""
"","","","","","image-keyboard-response","317","291502","0.0-292.0","60a9b8f7b9748b9999090dd8","665500ab8938657b03fbdba8","665792ee4bd0152d82204b34","52","stimuli/20110102.jpg"," ","","feedback_trial","2","","","","","","","","","","","","","","","","","","","","",""
"","","","","","survey-html-form","318","300260","0.0-293.0","60a9b8f7b9748b9999090dd8","665500ab8938657b03fbdba8","665792ee4bd0152d82204b34","8757","","{""feedback"":"""",""age"":""22"",""gender"":""Male"",""other_gender"":"""",""race"":""White"",""other_race"":"""",""ethnicity"":""Non-Hispanic""}","","exit_survey","","","","","","","","","","","","","","","","","22","Non-Hispanic","Male","White","0.6111111111111112","0.6111111111111112"
