"success","timeout","failed_images","failed_audio","failed_video","trial_type","trial_index","time_elapsed","internal_node_id","prolific_id","prolific_study_id","prolific_session_id","rt","stimulus","response","view_history","trial","character_choice","stimulus_dict","accuracy","correct_response","ball_pos","ego_ball_visible","ego_can_infer","alter_ball_visible","alter_can_infer","collective_ball_visible","collective_can_infer","search_locations","alter_occluders","ego_occluders","accuracy_bool","feedback","age","ethnicity","gender","race","overall_accuracy","bonus"
"true","false","[]","[]","[]","preload","0","2759","0.0-0.0","5fc5ab0e7bad151445fc8594","665500ab8938657b03fbdba8","665789539ae495e94c1fe00f","","","","","","","","","","","","","","","","","","","","","","","","","","",""
"true","","","","","fullscreen","1","5144","0.0-1.0","5fc5ab0e7bad151445fc8594","665500ab8938657b03fbdba8","665789539ae495e94c1fe00f","","","","","","","","","","","","","","","","","","","","","","","","","","",""
"","","","","","html-button-response","2","6855","0.0-2.0","5fc5ab0e7bad151445fc8594","665500ab8938657b03fbdba8","665789539ae495e94c1fe00f","1709","<p><b>Consent Form</b></p> <div style=""text-align:left;background-color:lightgrey; padding:20px; max-width:900px;""><p>Please consider this information carefully before deciding whether to participate in this research.</p> <p>The purpose of this research is to examine which factors influence social judgment and decision-making. You will be asked to make judgements about individuals and actions in social scenarios. We are simply interested in your judgement. The study will take less than 1 hour to complete, and you will receive less than $20 on Prolific. Your compensation and time commitment are specified in the study description. There are no anticipated risks associated with participating in this study. The effects of participating should be comparable to those you would ordinarily experience from viewing a computer monitor and using a mouse or keyboard for a similar amount of time. At the end of the study, we will provide an explanation of the questions that motivate this line of research and will describe the potential implications. </p><p> Your participation in this study is completely voluntary and you may refuse to participate or you may choose to withdraw at any time without penalty or loss of benefits to you which are otherwise entitled. Your participation in this study will remain confidential. No personally identifiable information will be associated with your data. Also, all analyses of the data will be averaged across all the participants, so your individual responses will never be specifically analyzed. </p><p> If you have questions or concerns about your participation or payment, or want to request a summary of research findings, please contact Dr. Jonathan Phillips at Jonathan.S.Phillips@dartmouth.edu. </p><p> Please save a copy of this form for your records. </p><p><b>Agreement: </b>The nature and purpose of this research have been sufficiently explained and I agree to participate in this study. I understand that I am free to withdraw at any time without incurring any penalty. Please consent by clicking the button below to continue. Otherwise, please exit the study at any time. </p>","0","","","","","","","","","","","","","","","","","","","","","","","",""
"","","","","","instructions","3","41337","0.0-3.0-0.0","5fc5ab0e7bad151445fc8594","665500ab8938657b03fbdba8","665789539ae495e94c1fe00f","34471","","","[{""page_index"":0,""viewing_time"":1263},{""page_index"":1,""viewing_time"":1056},{""page_index"":2,""viewing_time"":1696},{""page_index"":3,""viewing_time"":2264},{""page_index"":4,""viewing_time"":3088},{""page_index"":5,""viewing_time"":1496},{""page_index"":6,""viewing_time"":4152},{""page_index"":7,""viewing_time"":1432},{""page_index"":8,""viewing_time"":1416},{""page_index"":9,""viewing_time"":1520},{""page_index"":10,""viewing_time"":8112},{""page_index"":11,""viewing_time"":3976},{""page_index"":12,""viewing_time"":2224},{""page_index"":13,""viewing_time"":776}]","intro","","","","","","","","","","","","","","","","","","","","","",""
"","","","","","image-keyboard-response","4","42905","0.0-3.0-1.0","5fc5ab0e7bad151445fc8594","665500ab8938657b03fbdba8","665789539ae495e94c1fe00f","1566","stimuli/2000011.jpg","1","","prediction_practice","2","{""filepath"":""stimuli/2000011.jpg"",""ball_pos"":2,""ego_ball_visible"":false,""ego_can_infer"":false,""alter_ball_visible"":true,""alter_can_infer"":true,""collective_ball_visible"":false,""collective_can_infer"":false,""search_locations"":[2],""alter_occluders"":""000"",""ego_occluders"":""011""}","false","","","","","","","","","","","","","","","","","","",""
"","","","","","image-keyboard-response","5","43776","0.0-3.0-2.0","5fc5ab0e7bad151445fc8594","665500ab8938657b03fbdba8","665789539ae495e94c1fe00f","871","stimuli/20000112.jpg"," ","","practrice_feedback","2","","","","","","","","","","","","","","","","","","","","",""
"","","","","","image-keyboard-response","6","45336","0.0-3.0-3.0","5fc5ab0e7bad151445fc8594","665500ab8938657b03fbdba8","665789539ae495e94c1fe00f","1559","stimuli/1001111.jpg","1","","prediction_practice","1","{""filepath"":""stimuli/1001111.jpg"",""ball_pos"":1,""ego_ball_visible"":false,""ego_can_infer"":false,""alter_ball_visible"":true,""alter_can_infer"":true,""collective_ball_visible"":false,""collective_can_infer"":false,""search_locations"":[1],""alter_occluders"":""001"",""ego_occluders"":""111""}","true","","","","","","","","","","","","","","","","","","",""
"","","","","","image-keyboard-response","7","46088","0.0-3.0-4.0","5fc5ab0e7bad151445fc8594","665500ab8938657b03fbdba8","665789539ae495e94c1fe00f","751","stimuli/10011111.jpg"," ","","practrice_feedback","1","","","","","","","","","","","","","","","","","","","","",""
"","","","","","image-keyboard-response","8","47984","0.0-3.0-5.0","5fc5ab0e7bad151445fc8594","665500ab8938657b03fbdba8","665789539ae495e94c1fe00f","1895","stimuli/2110011.jpg","2","","prediction_practice","2","{""filepath"":""stimuli/2110011.jpg"",""ball_pos"":2,""ego_ball_visible"":false,""ego_can_infer"":false,""alter_ball_visible"":true,""alter_can_infer"":true,""collective_ball_visible"":false,""collective_can_infer"":false,""search_locations"":[2],""alter_occluders"":""110"",""ego_occluders"":""011""}","true","","","","","","","","","","","","","","","","","","",""
"","","","","","image-keyboard-response","9","49248","0.0-3.0-6.0","5fc5ab0e7bad151445fc8594","665500ab8938657b03fbdba8","665789539ae495e94c1fe00f","1263","stimuli/21100112.jpg"," ","","practrice_feedback","2","","","","","","","","","","","","","","","","","","","","",""
"","","","","","image-keyboard-response","10","51704","0.0-3.0-7.0","5fc5ab0e7bad151445fc8594","665500ab8938657b03fbdba8","665789539ae495e94c1fe00f","2455","stimuli/2101100.jpg","0","","prediction_practice","0","{""filepath"":""stimuli/2101100.jpg"",""ball_pos"":2,""ego_ball_visible"":true,""ego_can_infer"":true,""alter_ball_visible"":false,""alter_can_infer"":false,""collective_ball_visible"":false,""collective_can_infer"":false,""search_locations"":[2,0],""alter_occluders"":""101"",""ego_occluders"":""100""}","true","","","","","","","","","","","","","","","","","","",""
"","","","","","image-keyboard-response","11","52328","0.0-3.0-8.0","5fc5ab0e7bad151445fc8594","665500ab8938657b03fbdba8","665789539ae495e94c1fe00f","623","stimuli/21011000.jpg"," ","","practrice_feedback","2","","","","","","","","","","","","","","","","","","","","",""
"","","","","","image-keyboard-response","12","52856","0.0-3.0-9.0","5fc5ab0e7bad151445fc8594","665500ab8938657b03fbdba8","665789539ae495e94c1fe00f","527","stimuli/0101100.jpg","0","","prediction_practice","2","{""filepath"":""stimuli/0101100.jpg"",""ball_pos"":0,""ego_ball_visible"":false,""ego_can_infer"":true,""alter_ball_visible"":false,""alter_can_infer"":false,""collective_ball_visible"":false,""collective_can_infer"":false,""search_locations"":[2,0],""alter_occluders"":""101"",""ego_occluders"":""100""}","false","","","","","","","","","","","","","","","","","","",""
"","","","","","image-keyboard-response","13","53352","0.0-3.0-10.0","5fc5ab0e7bad151445fc8594","665500ab8938657b03fbdba8","665789539ae495e94c1fe00f","495","stimuli/01011002.jpg"," ","","practrice_feedback","2","","","","","","","","","","","","","","","","","","","","",""
"","","","","","image-keyboard-response","14","53792","0.0-3.0-11.0","5fc5ab0e7bad151445fc8594","665500ab8938657b03fbdba8","665789539ae495e94c1fe00f","439","stimuli/2111100.jpg","0","","prediction_practice","1","{""filepath"":""stimuli/2111100.jpg"",""ball_pos"":2,""ego_ball_visible"":true,""ego_can_infer"":true,""alter_ball_visible"":false,""alter_can_infer"":false,""collective_ball_visible"":false,""collective_can_infer"":false,""search_locations"":[1,0,2],""alter_occluders"":""111"",""ego_occluders"":""100""}","false","","","","","","","","","","","","","","","","","","",""
"","","","","","image-keyboard-response","15","54296","0.0-3.0-12.0","5fc5ab0e7bad151445fc8594","665500ab8938657b03fbdba8","665789539ae495e94c1fe00f","503","stimuli/21111001.jpg"," ","","practrice_feedback","1","","","","","","","","","","","","","","","","","","","","",""
"","","","","","image-keyboard-response","16","57208","0.0-3.0-13.0","5fc5ab0e7bad151445fc8594","665500ab8938657b03fbdba8","665789539ae495e94c1fe00f","2912","stimuli/0011101.jpg","0","","prediction_practice","0","{""filepath"":""stimuli/0011101.jpg"",""ball_pos"":0,""ego_ball_visible"":false,""ego_can_infer"":false,""alter_ball_visible"":true,""alter_can_infer"":true,""collective_ball_visible"":false,""collective_can_infer"":false,""search_locations"":[0],""alter_occluders"":""011"",""ego_occluders"":""101""}","true","","","","","","","","","","","","","","","","","","",""
"","","","","","image-keyboard-response","17","57936","0.0-3.0-14.0","5fc5ab0e7bad151445fc8594","665500ab8938657b03fbdba8","665789539ae495e94c1fe00f","727","stimuli/00111010.jpg"," ","","practrice_feedback","0","","","","","","","","","","","","","","","","","","","","",""
"","","","","","image-keyboard-response","18","59680","0.0-3.0-15.0","5fc5ab0e7bad151445fc8594","665500ab8938657b03fbdba8","665789539ae495e94c1fe00f","1743","stimuli/1001101.jpg","0","","prediction_practice","1","{""filepath"":""stimuli/1001101.jpg"",""ball_pos"":1,""ego_ball_visible"":true,""ego_can_infer"":true,""alter_ball_visible"":true,""alter_can_infer"":true,""collective_ball_visible"":true,""collective_can_infer"":true,""search_locations"":[1],""alter_occluders"":""001"",""ego_occluders"":""101""}","false","","","","","","","","","","","","","","","","","","",""
"","","","","","image-keyboard-response","19","60160","0.0-3.0-16.0","5fc5ab0e7bad151445fc8594","665500ab8938657b03fbdba8","665789539ae495e94c1fe00f","479","stimuli/10011011.jpg"," ","","practrice_feedback","1","","","","","","","","","","","","","","","","","","","","",""
"","","","","","image-keyboard-response","20","60856","0.0-3.0-17.0","5fc5ab0e7bad151445fc8594","665500ab8938657b03fbdba8","665789539ae495e94c1fe00f","695","stimuli/1111010.jpg","0","","prediction_practice","2","{""filepath"":""stimuli/1111010.jpg"",""ball_pos"":1,""ego_ball_visible"":false,""ego_can_infer"":true,""alter_ball_visible"":false,""alter_can_infer"":false,""collective_ball_visible"":false,""collective_can_infer"":false,""search_locations"":[2,1,0],""alter_occluders"":""111"",""ego_occluders"":""010""}","false","","","","","","","","","","","","","","","","","","",""
"","","","","","image-keyboard-response","21","61288","0.0-3.0-18.0","5fc5ab0e7bad151445fc8594","665500ab8938657b03fbdba8","665789539ae495e94c1fe00f","431","stimuli/11110102.jpg"," ","","practrice_feedback","2","","","","","","","","","","","","","","","","","","","","",""
"","","","","","image-keyboard-response","22","61624","0.0-3.0-19.0","5fc5ab0e7bad151445fc8594","665500ab8938657b03fbdba8","665789539ae495e94c1fe00f","335","stimuli/0101000.jpg","0","","prediction_practice","0","{""filepath"":""stimuli/0101000.jpg"",""ball_pos"":0,""ego_ball_visible"":true,""ego_can_infer"":true,""alter_ball_visible"":false,""alter_can_infer"":false,""collective_ball_visible"":false,""collective_can_infer"":false,""search_locations"":[0,2],""alter_occluders"":""101"",""ego_occluders"":""000""}","true","","","","","","","","","","","","","","","","","","",""
"","","","","","image-keyboard-response","23","62416","0.0-3.0-20.0","5fc5ab0e7bad151445fc8594","665500ab8938657b03fbdba8","665789539ae495e94c1fe00f","791","stimuli/01010000.jpg"," ","","practrice_feedback","0","","","","","","","","","","","","","","","","","","","","",""
"","","","","","html-button-response","24","66265","0.0-3.0-21.0","5fc5ab0e7bad151445fc8594","665500ab8938657b03fbdba8","665789539ae495e94c1fe00f","3848","Now that you've had some practice, you'll be tested with a couple of easy trials. If you correctly predict Sam's choice, you'll move on to complete the experiment!","0","","","","","","","","","","","","","","","","","","","","","","","",""
"","","","","","image-keyboard-response","25","67688","0.0-3.0-22.0-0.0","5fc5ab0e7bad151445fc8594","665500ab8938657b03fbdba8","665789539ae495e94c1fe00f","1423","stimuli/0000011.jpg","arrowleft","","comprehension_quiz","","","true","arrowleft","","","","","","","","","","","","","","","","","",""
"","","","","","image-keyboard-response","26","68240","0.0-3.0-22.0-1.0","5fc5ab0e7bad151445fc8594","665500ab8938657b03fbdba8","665789539ae495e94c1fe00f","550","stimuli/00000110.jpg"," ","","comprehension_quiz","","","true"," ","","","","","","","","","","","","","","","","","",""
"","","","","","image-keyboard-response","27","69496","0.0-3.0-22.0-2.0","5fc5ab0e7bad151445fc8594","665500ab8938657b03fbdba8","665789539ae495e94c1fe00f","1255","stimuli/1010010.jpg","arrowdown","","comprehension_quiz","","","true","arrowdown","","","","","","","","","","","","","","","","","",""
"","","","","","image-keyboard-response","28","285249","0.0-3.0-22.0-3.0","5fc5ab0e7bad151445fc8594","665500ab8938657b03fbdba8","665789539ae495e94c1fe00f","215751","stimuli/10100101.jpg"," ","","comprehension_quiz","","","true"," ","","","","","","","","","","","","","","","","","",""
"","","","","","html-button-response","29","287289","0.0-4.0","5fc5ab0e7bad151445fc8594","665500ab8938657b03fbdba8","665789539ae495e94c1fe00f","2038","The experiment will now begin.","0","","","","","","","","","","","","","","","","","","","","","","","",""
"","","","","","image-keyboard-response","30","288473","0.0-5.0","5fc5ab0e7bad151445fc8594","665500ab8938657b03fbdba8","665789539ae495e94c1fe00f","1182","stimuli/0111101.jpg","2","","prediction_trial","2","","true","","0","false","false","false","false","false","false","[0,1,2]","111","101","1","","","","","","",""
"","","","","","image-keyboard-response","31","289065","0.0-6.0","5fc5ab0e7bad151445fc8594","665500ab8938657b03fbdba8","665789539ae495e94c1fe00f","591","stimuli/01111012.jpg"," ","","feedback_trial","0","","","","","","","","","","","","","","","","","","","","",""
"","","","","","image-keyboard-response","32","290401","0.0-7.0","5fc5ab0e7bad151445fc8594","665500ab8938657b03fbdba8","665789539ae495e94c1fe00f","1335","stimuli/0010011.jpg","2","","prediction_trial","0","","false","","0","true","true","true","true","true","true","[0]","010","011","0","","","","","","",""
"","","","","","image-keyboard-response","33","291465","0.0-8.0","5fc5ab0e7bad151445fc8594","665500ab8938657b03fbdba8","665789539ae495e94c1fe00f","1063","stimuli/00100110.jpg"," ","","feedback_trial","0","","","","","","","","","","","","","","","","","","","","",""
"","","","","","image-keyboard-response","34","292073","0.0-9.0","5fc5ab0e7bad151445fc8594","665500ab8938657b03fbdba8","665789539ae495e94c1fe00f","608","stimuli/0001000.jpg","0","","prediction_trial","0","","true","","0","true","true","true","true","true","true","[0]","001","000","1","","","","","","",""
"","","","","","image-keyboard-response","35","292457","0.0-10.0","5fc5ab0e7bad151445fc8594","665500ab8938657b03fbdba8","665789539ae495e94c1fe00f","383","stimuli/00010000.jpg"," ","","feedback_trial","0","","","","","","","","","","","","","","","","","","","","",""
"","","","","","image-keyboard-response","36","293521","0.0-11.0","5fc5ab0e7bad151445fc8594","665500ab8938657b03fbdba8","665789539ae495e94c1fe00f","1064","stimuli/1110010.jpg","0","","prediction_trial","1","","false","","1","false","true","false","false","false","false","[1,0]","110","010","0","","","","","","",""
"","","","","","image-keyboard-response","37","293921","0.0-12.0","5fc5ab0e7bad151445fc8594","665500ab8938657b03fbdba8","665789539ae495e94c1fe00f","399","stimuli/11100101.jpg"," ","","feedback_trial","1","","","","","","","","","","","","","","","","","","","","",""
"","","","","","image-keyboard-response","38","294649","0.0-13.0","5fc5ab0e7bad151445fc8594","665500ab8938657b03fbdba8","665789539ae495e94c1fe00f","728","stimuli/2001100.jpg","2","","prediction_trial","2","","true","","2","true","true","false","true","false","true","[2]","001","100","1","","","","","","",""
"","","","","","image-keyboard-response","39","295281","0.0-14.0","5fc5ab0e7bad151445fc8594","665500ab8938657b03fbdba8","665789539ae495e94c1fe00f","631","stimuli/20011002.jpg"," ","","feedback_trial","2","","","","","","","","","","","","","","","","","","","","",""
"","","","","","image-keyboard-response","40","296529","0.0-15.0","5fc5ab0e7bad151445fc8594","665500ab8938657b03fbdba8","665789539ae495e94c1fe00f","1248","stimuli/1100011.jpg","2","","prediction_trial","1","","false","","1","false","false","true","true","false","false","[1]","100","011","0","","","","","","",""
"","","","","","image-keyboard-response","41","296945","0.0-16.0","5fc5ab0e7bad151445fc8594","665500ab8938657b03fbdba8","665789539ae495e94c1fe00f","415","stimuli/11000111.jpg"," ","","feedback_trial","1","","","","","","","","","","","","","","","","","","","","",""
"","","","","","image-keyboard-response","42","298121","0.0-17.0","5fc5ab0e7bad151445fc8594","665500ab8938657b03fbdba8","665789539ae495e94c1fe00f","1176","stimuli/1100100.jpg","1","","prediction_trial","1","","true","","1","true","true","true","true","true","true","[1]","100","100","1","","","","","","",""
"","","","","","image-keyboard-response","43","298481","0.0-18.0","5fc5ab0e7bad151445fc8594","665500ab8938657b03fbdba8","665789539ae495e94c1fe00f","359","stimuli/11001001.jpg"," ","","feedback_trial","1","","","","","","","","","","","","","","","","","","","","",""
"","","","","","image-keyboard-response","44","299225","0.0-19.0","5fc5ab0e7bad151445fc8594","665500ab8938657b03fbdba8","665789539ae495e94c1fe00f","744","stimuli/1111111.jpg","1","","prediction_trial","2","","false","","1","false","false","false","false","false","false","[1,0,2]","111","111","0","","","","","","",""
"","","","","","image-keyboard-response","45","299529","0.0-20.0","5fc5ab0e7bad151445fc8594","665500ab8938657b03fbdba8","665789539ae495e94c1fe00f","303","stimuli/11111112.jpg"," ","","feedback_trial","1","","","","","","","","","","","","","","","","","","","","",""
"","","","","","image-keyboard-response","46","300193","0.0-21.0","5fc5ab0e7bad151445fc8594","665500ab8938657b03fbdba8","665789539ae495e94c1fe00f","663","stimuli/1000001.jpg","1","","prediction_trial","1","","true","","1","true","true","true","true","true","true","[1]","000","001","1","","","","","","",""
"","","","","","image-keyboard-response","47","300441","0.0-22.0","5fc5ab0e7bad151445fc8594","665500ab8938657b03fbdba8","665789539ae495e94c1fe00f","247","stimuli/10000011.jpg"," ","","feedback_trial","1","","","","","","","","","","","","","","","","","","","","",""
"","","","","","image-keyboard-response","48","301273","0.0-23.0","5fc5ab0e7bad151445fc8594","665500ab8938657b03fbdba8","665789539ae495e94c1fe00f","831","stimuli/2010111.jpg","1","","prediction_trial","2","","false","","2","false","false","true","true","false","false","[2]","010","111","0","","","","","","",""
"","","","","","image-keyboard-response","49","301585","0.0-24.0","5fc5ab0e7bad151445fc8594","665500ab8938657b03fbdba8","665789539ae495e94c1fe00f","311","stimuli/20101112.jpg"," ","","feedback_trial","2","","","","","","","","","","","","","","","","","","","","",""
"","","","","","image-keyboard-response","50","302089","0.0-25.0","5fc5ab0e7bad151445fc8594","665500ab8938657b03fbdba8","665789539ae495e94c1fe00f","503","stimuli/1111101.jpg","1","","prediction_trial","0","","false","","1","true","true","false","false","false","false","[1,2,0]","111","101","0","","","","","","",""
"","","","","","image-keyboard-response","51","302841","0.0-26.0","5fc5ab0e7bad151445fc8594","665500ab8938657b03fbdba8","665789539ae495e94c1fe00f","751","stimuli/11111010.jpg"," ","","feedback_trial","1","","","","","","","","","","","","","","","","","","","","",""
"","","","","","image-keyboard-response","52","303337","0.0-27.0","5fc5ab0e7bad151445fc8594","665500ab8938657b03fbdba8","665789539ae495e94c1fe00f","496","stimuli/2100011.jpg","1","","prediction_trial","2","","false","","2","false","false","true","true","false","false","[2]","100","011","0","","","","","","",""
"","","","","","image-keyboard-response","53","303793","0.0-28.0","5fc5ab0e7bad151445fc8594","665500ab8938657b03fbdba8","665789539ae495e94c1fe00f","455","stimuli/21000112.jpg"," ","","feedback_trial","2","","","","","","","","","","","","","","","","","","","","",""
"","","","","","image-keyboard-response","54","304193","0.0-29.0","5fc5ab0e7bad151445fc8594","665500ab8938657b03fbdba8","665789539ae495e94c1fe00f","399","stimuli/1011100.jpg","1","","prediction_trial","2","","false","","1","true","true","false","false","false","false","[1,2]","011","100","0","","","","","","",""
"","","","","","image-keyboard-response","55","304641","0.0-30.0","5fc5ab0e7bad151445fc8594","665500ab8938657b03fbdba8","665789539ae495e94c1fe00f","447","stimuli/10111002.jpg"," ","","feedback_trial","1","","","","","","","","","","","","","","","","","","","","",""
"","","","","","image-keyboard-response","56","305185","0.0-31.0","5fc5ab0e7bad151445fc8594","665500ab8938657b03fbdba8","665789539ae495e94c1fe00f","544","stimuli/0001111.jpg","1","","prediction_trial","0","","false","","0","false","false","true","true","false","false","[0]","001","111","0","","","","","","",""
"","","","","","image-keyboard-response","57","305561","0.0-32.0","5fc5ab0e7bad151445fc8594","665500ab8938657b03fbdba8","665789539ae495e94c1fe00f","375","stimuli/00011110.jpg"," ","","feedback_trial","0","","","","","","","","","","","","","","","","","","","","",""
"","","","","","image-keyboard-response","58","306593","0.0-33.0","5fc5ab0e7bad151445fc8594","665500ab8938657b03fbdba8","665789539ae495e94c1fe00f","1031","stimuli/2110000.jpg","2","","prediction_trial","2","","true","","2","true","true","true","true","true","true","[2]","110","000","1","","","","","","",""
"","","","","","image-keyboard-response","59","306937","0.0-34.0","5fc5ab0e7bad151445fc8594","665500ab8938657b03fbdba8","665789539ae495e94c1fe00f","343","stimuli/21100002.jpg"," ","","feedback_trial","2","","","","","","","","","","","","","","","","","","","","",""
"","","","","","image-keyboard-response","60","307801","0.0-35.0","5fc5ab0e7bad151445fc8594","665500ab8938657b03fbdba8","665789539ae495e94c1fe00f","859","stimuli/1001101.jpg","1","","prediction_trial","1","","true","","1","true","true","true","true","true","true","[1]","001","101","1","","","","","","",""
"","","","","","image-keyboard-response","61","308665","0.0-36.0","5fc5ab0e7bad151445fc8594","665500ab8938657b03fbdba8","665789539ae495e94c1fe00f","863","stimuli/10011011.jpg"," ","","feedback_trial","1","","","","","","","","","","","","","","","","","","","","",""
"","","","","","image-keyboard-response","62","309601","0.0-37.0","5fc5ab0e7bad151445fc8594","665500ab8938657b03fbdba8","665789539ae495e94c1fe00f","935","stimuli/2101110.jpg","1","","prediction_trial","0","","false","","2","true","true","false","false","false","false","[2,0]","101","110","0","","","","","","",""
"","","","","","image-keyboard-response","63","309993","0.0-38.0","5fc5ab0e7bad151445fc8594","665500ab8938657b03fbdba8","665789539ae495e94c1fe00f","391","stimuli/21011100.jpg"," ","","feedback_trial","2","","","","","","","","","","","","","","","","","","","","",""
"","","","","","image-keyboard-response","64","310793","0.0-39.0","5fc5ab0e7bad151445fc8594","665500ab8938657b03fbdba8","665789539ae495e94c1fe00f","800","stimuli/1011110.jpg","1","","prediction_trial","1","","true","","1","false","false","false","false","false","false","[1,2]","011","110","1","","","","","","",""
"","","","","","image-keyboard-response","65","311289","0.0-40.0","5fc5ab0e7bad151445fc8594","665500ab8938657b03fbdba8","665789539ae495e94c1fe00f","495","stimuli/10111101.jpg"," ","","feedback_trial","1","","","","","","","","","","","","","","","","","","","","",""
"","","","","","image-keyboard-response","66","313281","0.0-41.0","5fc5ab0e7bad151445fc8594","665500ab8938657b03fbdba8","665789539ae495e94c1fe00f","1991","stimuli/2101111.jpg","1","","prediction_trial","0","","false","","2","false","false","false","false","false","false","[0,2]","101","111","0","","","","","","",""
"","","","","","image-keyboard-response","67","313737","0.0-42.0","5fc5ab0e7bad151445fc8594","665500ab8938657b03fbdba8","665789539ae495e94c1fe00f","455","stimuli/21011110.jpg"," ","","feedback_trial","0","","","","","","","","","","","","","","","","","","","","",""
"","","","","","image-keyboard-response","68","315241","0.0-43.0","5fc5ab0e7bad151445fc8594","665500ab8938657b03fbdba8","665789539ae495e94c1fe00f","1503","stimuli/2101010.jpg","1","","prediction_trial","0","","false","","2","true","true","false","false","false","false","[2,0]","101","010","0","","","","","","",""
"","","","","","image-keyboard-response","69","315497","0.0-44.0","5fc5ab0e7bad151445fc8594","665500ab8938657b03fbdba8","665789539ae495e94c1fe00f","255","stimuli/21010100.jpg"," ","","feedback_trial","2","","","","","","","","","","","","","","","","","","","","",""
"","","","","","image-keyboard-response","70","317529","0.0-45.0","5fc5ab0e7bad151445fc8594","665500ab8938657b03fbdba8","665789539ae495e94c1fe00f","2032","stimuli/1011101.jpg","2","","prediction_trial","1","","false","","1","true","true","false","false","false","false","[1,2]","011","101","0","","","","","","",""
"","","","","","image-keyboard-response","71","317929","0.0-46.0","5fc5ab0e7bad151445fc8594","665500ab8938657b03fbdba8","665789539ae495e94c1fe00f","399","stimuli/10111011.jpg"," ","","feedback_trial","1","","","","","","","","","","","","","","","","","","","","",""
"","","","","","image-keyboard-response","72","318329","0.0-47.0","5fc5ab0e7bad151445fc8594","665500ab8938657b03fbdba8","665789539ae495e94c1fe00f","399","stimuli/1110110.jpg","1","","prediction_trial","0","","false","","1","false","false","false","false","false","false","[0,1]","110","110","0","","","","","","",""
"","","","","","image-keyboard-response","73","318673","0.0-48.0","5fc5ab0e7bad151445fc8594","665500ab8938657b03fbdba8","665789539ae495e94c1fe00f","343","stimuli/11101100.jpg"," ","","feedback_trial","0","","","","","","","","","","","","","","","","","","","","",""
"","","","","","image-keyboard-response","74","320369","0.0-49.0","5fc5ab0e7bad151445fc8594","665500ab8938657b03fbdba8","665789539ae495e94c1fe00f","1695","stimuli/2001001.jpg","2","","prediction_trial","2","","true","","2","false","true","false","true","false","true","[2]","001","001","1","","","","","","",""
"","","","","","image-keyboard-response","75","320705","0.0-50.0","5fc5ab0e7bad151445fc8594","665500ab8938657b03fbdba8","665789539ae495e94c1fe00f","335","stimuli/20010012.jpg"," ","","feedback_trial","2","","","","","","","","","","","","","","","","","","","","",""
"","","","","","image-keyboard-response","76","321721","0.0-51.0","5fc5ab0e7bad151445fc8594","665500ab8938657b03fbdba8","665789539ae495e94c1fe00f","1016","stimuli/1010101.jpg","2","","prediction_trial","1","","false","","1","true","true","false","true","false","true","[1]","010","101","0","","","","","","",""
"","","","","","image-keyboard-response","77","322121","0.0-52.0","5fc5ab0e7bad151445fc8594","665500ab8938657b03fbdba8","665789539ae495e94c1fe00f","399","stimuli/10101011.jpg"," ","","feedback_trial","1","","","","","","","","","","","","","","","","","","","","",""
"","","","","","image-keyboard-response","78","323225","0.0-53.0","5fc5ab0e7bad151445fc8594","665500ab8938657b03fbdba8","665789539ae495e94c1fe00f","1104","stimuli/1101001.jpg","1","","prediction_trial","1","","true","","1","true","true","true","true","true","true","[1]","101","001","1","","","","","","",""
"","","","","","image-keyboard-response","79","323513","0.0-54.0","5fc5ab0e7bad151445fc8594","665500ab8938657b03fbdba8","665789539ae495e94c1fe00f","287","stimuli/11010011.jpg"," ","","feedback_trial","1","","","","","","","","","","","","","","","","","","","","",""
"","","","","","image-keyboard-response","80","325281","0.0-55.0","5fc5ab0e7bad151445fc8594","665500ab8938657b03fbdba8","665789539ae495e94c1fe00f","1767","stimuli/1011010.jpg","1","","prediction_trial","2","","false","","1","false","true","false","false","false","false","[1,2]","011","010","0","","","","","","",""
"","","","","","image-keyboard-response","81","520570","0.0-56.0","5fc5ab0e7bad151445fc8594","665500ab8938657b03fbdba8","665789539ae495e94c1fe00f","195287","stimuli/10110102.jpg"," ","","feedback_trial","1","","","","","","","","","","","","","","","","","","","","",""
"","","","","","image-keyboard-response","82","521658","0.0-57.0","5fc5ab0e7bad151445fc8594","665500ab8938657b03fbdba8","665789539ae495e94c1fe00f","1087","stimuli/2111110.jpg","0","","prediction_trial","1","","false","","2","true","true","false","false","false","false","[0,2,1]","111","110","0","","","","","","",""
"","","","","","image-keyboard-response","83","522018","0.0-58.0","5fc5ab0e7bad151445fc8594","665500ab8938657b03fbdba8","665789539ae495e94c1fe00f","359","stimuli/21111101.jpg"," ","","feedback_trial","0","","","","","","","","","","","","","","","","","","","","",""
"","","","","","image-keyboard-response","84","523610","0.0-59.0","5fc5ab0e7bad151445fc8594","665500ab8938657b03fbdba8","665789539ae495e94c1fe00f","1591","stimuli/2001110.jpg","1","","prediction_trial","2","","false","","2","true","true","false","true","false","true","[2]","001","110","0","","","","","","",""
"","","","","","image-keyboard-response","85","523962","0.0-60.0","5fc5ab0e7bad151445fc8594","665500ab8938657b03fbdba8","665789539ae495e94c1fe00f","351","stimuli/20011102.jpg"," ","","feedback_trial","2","","","","","","","","","","","","","","","","","","","","",""
"","","","","","image-keyboard-response","86","525898","0.0-61.0","5fc5ab0e7bad151445fc8594","665500ab8938657b03fbdba8","665789539ae495e94c1fe00f","1935","stimuli/0101000.jpg","2","","prediction_trial","0","","false","","0","true","true","false","false","false","false","[0,2]","101","000","0","","","","","","",""
"","","","","","image-keyboard-response","87","526410","0.0-62.0","5fc5ab0e7bad151445fc8594","665500ab8938657b03fbdba8","665789539ae495e94c1fe00f","511","stimuli/01010000.jpg"," ","","feedback_trial","0","","","","","","","","","","","","","","","","","","","","",""
"","","","","","image-keyboard-response","88","527619","0.0-63.0","5fc5ab0e7bad151445fc8594","665500ab8938657b03fbdba8","665789539ae495e94c1fe00f","1207","stimuli/1010110.jpg","0","","prediction_trial","1","","false","","1","false","false","false","true","false","false","[1]","010","110","0","","","","","","",""
"","","","","","image-keyboard-response","89","528106","0.0-64.0","5fc5ab0e7bad151445fc8594","665500ab8938657b03fbdba8","665789539ae495e94c1fe00f","487","stimuli/10101101.jpg"," ","","feedback_trial","1","","","","","","","","","","","","","","","","","","","","",""
"","","","","","image-keyboard-response","90","530092","0.0-65.0","5fc5ab0e7bad151445fc8594","665500ab8938657b03fbdba8","665789539ae495e94c1fe00f","1985","stimuli/1110011.jpg","2","","prediction_trial","1","","false","","1","false","false","false","false","false","false","[0,1]","110","011","0","","","","","","",""
"","","","","","image-keyboard-response","91","530578","0.0-66.0","5fc5ab0e7bad151445fc8594","665500ab8938657b03fbdba8","665789539ae495e94c1fe00f","486","stimuli/11100111.jpg"," ","","feedback_trial","0","","","","","","","","","","","","","","","","","","","","",""
"","","","","","image-keyboard-response","92","532218","0.0-67.0","5fc5ab0e7bad151445fc8594","665500ab8938657b03fbdba8","665789539ae495e94c1fe00f","1636","stimuli/0100101.jpg","2","","prediction_trial","0","","false","","0","false","false","false","true","false","false","[0]","100","101","0","","","","","","",""
"","","","","","image-keyboard-response","93","532770","0.0-68.0","5fc5ab0e7bad151445fc8594","665500ab8938657b03fbdba8","665789539ae495e94c1fe00f","551","stimuli/01001010.jpg"," ","","feedback_trial","0","","","","","","","","","","","","","","","","","","","","",""
"","","","","","image-keyboard-response","94","533218","0.0-69.0","5fc5ab0e7bad151445fc8594","665500ab8938657b03fbdba8","665789539ae495e94c1fe00f","447","stimuli/2011111.jpg","2","","prediction_trial","2","","true","","2","false","false","false","false","false","false","[2,1]","011","111","1","","","","","","",""
"","","","","","image-keyboard-response","95","533754","0.0-70.0","5fc5ab0e7bad151445fc8594","665500ab8938657b03fbdba8","665789539ae495e94c1fe00f","535","stimuli/20111112.jpg"," ","","feedback_trial","2","","","","","","","","","","","","","","","","","","","","",""
"","","","","","image-keyboard-response","96","534874","0.0-71.0","5fc5ab0e7bad151445fc8594","665500ab8938657b03fbdba8","665789539ae495e94c1fe00f","1119","stimuli/0011010.jpg","0","","prediction_trial","0","","true","","0","true","true","true","true","true","true","[0]","011","010","1","","","","","","",""
"","","","","","image-keyboard-response","97","535146","0.0-72.0","5fc5ab0e7bad151445fc8594","665500ab8938657b03fbdba8","665789539ae495e94c1fe00f","271","stimuli/00110100.jpg"," ","","feedback_trial","0","","","","","","","","","","","","","","","","","","","","",""
"","","","","","image-keyboard-response","98","536170","0.0-73.0","5fc5ab0e7bad151445fc8594","665500ab8938657b03fbdba8","665789539ae495e94c1fe00f","1023","stimuli/1101111.jpg","0","","prediction_trial","1","","false","","1","false","false","true","true","false","false","[1]","101","111","0","","","","","","",""
"","","","","","image-keyboard-response","99","536466","0.0-74.0","5fc5ab0e7bad151445fc8594","665500ab8938657b03fbdba8","665789539ae495e94c1fe00f","295","stimuli/11011111.jpg"," ","","feedback_trial","1","","","","","","","","","","","","","","","","","","","","",""
"","","","","","image-keyboard-response","100","537282","0.0-75.0","5fc5ab0e7bad151445fc8594","665500ab8938657b03fbdba8","665789539ae495e94c1fe00f","815","stimuli/1000110.jpg","0","","prediction_trial","1","","false","","1","false","false","true","true","false","false","[1]","000","110","0","","","","","","",""
"","","","","","image-keyboard-response","101","537578","0.0-76.0","5fc5ab0e7bad151445fc8594","665500ab8938657b03fbdba8","665789539ae495e94c1fe00f","295","stimuli/10001101.jpg"," ","","feedback_trial","1","","","","","","","","","","","","","","","","","","","","",""
"","","","","","image-keyboard-response","102","538610","0.0-77.0","5fc5ab0e7bad151445fc8594","665500ab8938657b03fbdba8","665789539ae495e94c1fe00f","1031","stimuli/0000001.jpg","0","","prediction_trial","0","","true","","0","true","true","true","true","true","true","[0]","000","001","1","","","","","","",""
"","","","","","image-keyboard-response","103","538818","0.0-78.0","5fc5ab0e7bad151445fc8594","665500ab8938657b03fbdba8","665789539ae495e94c1fe00f","206","stimuli/00000010.jpg"," ","","feedback_trial","0","","","","","","","","","","","","","","","","","","","","",""
"","","","","","image-keyboard-response","104","539890","0.0-79.0","5fc5ab0e7bad151445fc8594","665500ab8938657b03fbdba8","665789539ae495e94c1fe00f","1071","stimuli/1100110.jpg","1","","prediction_trial","1","","true","","1","false","false","true","true","false","false","[1]","100","110","1","","","","","","",""
"","","","","","image-keyboard-response","105","540234","0.0-80.0","5fc5ab0e7bad151445fc8594","665500ab8938657b03fbdba8","665789539ae495e94c1fe00f","343","stimuli/11001101.jpg"," ","","feedback_trial","1","","","","","","","","","","","","","","","","","","","","",""
"","","","","","image-keyboard-response","106","541826","0.0-81.0","5fc5ab0e7bad151445fc8594","665500ab8938657b03fbdba8","665789539ae495e94c1fe00f","1591","stimuli/0101001.jpg","2","","prediction_trial","0","","false","","0","true","true","false","false","false","false","[0,2]","101","001","0","","","","","","",""
"","","","","","image-keyboard-response","107","542338","0.0-82.0","5fc5ab0e7bad151445fc8594","665500ab8938657b03fbdba8","665789539ae495e94c1fe00f","511","stimuli/01010010.jpg"," ","","feedback_trial","0","","","","","","","","","","","","","","","","","","","","",""
"","","","","","image-keyboard-response","108","543234","0.0-83.0","5fc5ab0e7bad151445fc8594","665500ab8938657b03fbdba8","665789539ae495e94c1fe00f","895","stimuli/1000100.jpg","1","","prediction_trial","1","","true","","1","true","true","true","true","true","true","[1]","000","100","1","","","","","","",""
"","","","","","image-keyboard-response","109","543426","0.0-84.0","5fc5ab0e7bad151445fc8594","665500ab8938657b03fbdba8","665789539ae495e94c1fe00f","191","stimuli/10001001.jpg"," ","","feedback_trial","1","","","","","","","","","","","","","","","","","","","","",""
"","","","","","image-keyboard-response","110","544322","0.0-85.0","5fc5ab0e7bad151445fc8594","665500ab8938657b03fbdba8","665789539ae495e94c1fe00f","895","stimuli/2000111.jpg","2","","prediction_trial","2","","true","","2","false","false","true","true","false","false","[2]","000","111","1","","","","","","",""
"","","","","","image-keyboard-response","111","544554","0.0-86.0","5fc5ab0e7bad151445fc8594","665500ab8938657b03fbdba8","665789539ae495e94c1fe00f","231","stimuli/20001112.jpg"," ","","feedback_trial","2","","","","","","","","","","","","","","","","","","","","",""
"","","","","","image-keyboard-response","112","545442","0.0-87.0","5fc5ab0e7bad151445fc8594","665500ab8938657b03fbdba8","665789539ae495e94c1fe00f","887","stimuli/0011101.jpg","2","","prediction_trial","0","","false","","0","false","false","true","true","false","false","[0]","011","101","0","","","","","","",""
"","","","","","image-keyboard-response","113","545594","0.0-88.0","5fc5ab0e7bad151445fc8594","665500ab8938657b03fbdba8","665789539ae495e94c1fe00f","151","stimuli/00111010.jpg"," ","","feedback_trial","0","","","","","","","","","","","","","","","","","","","","",""
"","","","","","image-keyboard-response","114","546178","0.0-89.0","5fc5ab0e7bad151445fc8594","665500ab8938657b03fbdba8","665789539ae495e94c1fe00f","580","stimuli/0111111.jpg","2","","prediction_trial","1","","false","","0","false","false","false","false","false","false","[0,2,1]","111","111","0","","","","","","",""
"","","","","","image-keyboard-response","115","546386","0.0-90.0","5fc5ab0e7bad151445fc8594","665500ab8938657b03fbdba8","665789539ae495e94c1fe00f","207","stimuli/01111111.jpg"," ","","feedback_trial","0","","","","","","","","","","","","","","","","","","","","",""
"","","","","","image-keyboard-response","116","546922","0.0-91.0","5fc5ab0e7bad151445fc8594","665500ab8938657b03fbdba8","665789539ae495e94c1fe00f","535","stimuli/0100011.jpg","0","","prediction_trial","0","","true","","0","true","true","false","true","false","true","[0]","100","011","1","","","","","","",""
"","","","","","image-keyboard-response","117","547506","0.0-92.0","5fc5ab0e7bad151445fc8594","665500ab8938657b03fbdba8","665789539ae495e94c1fe00f","583","stimuli/01000110.jpg"," ","","feedback_trial","0","","","","","","","","","","","","","","","","","","","","",""
"","","","","","image-keyboard-response","118","547906","0.0-93.0","5fc5ab0e7bad151445fc8594","665500ab8938657b03fbdba8","665789539ae495e94c1fe00f","399","stimuli/0000110.jpg","0","","prediction_trial","0","","true","","0","false","false","true","true","false","false","[0]","000","110","1","","","","","","",""
"","","","","","image-keyboard-response","119","548162","0.0-94.0","5fc5ab0e7bad151445fc8594","665500ab8938657b03fbdba8","665789539ae495e94c1fe00f","255","stimuli/00001100.jpg"," ","","feedback_trial","0","","","","","","","","","","","","","","","","","","","","",""
"","","","","","image-keyboard-response","120","548602","0.0-95.0","5fc5ab0e7bad151445fc8594","665500ab8938657b03fbdba8","665789539ae495e94c1fe00f","439","stimuli/1010001.jpg","1","","prediction_trial","1","","true","","1","true","true","false","true","false","true","[1]","010","001","1","","","","","","",""
"","","","","","image-keyboard-response","121","549146","0.0-96.0","5fc5ab0e7bad151445fc8594","665500ab8938657b03fbdba8","665789539ae495e94c1fe00f","543","stimuli/10100011.jpg"," ","","feedback_trial","1","","","","","","","","","","","","","","","","","","","","",""
"","","","","","image-keyboard-response","122","549482","0.0-97.0","5fc5ab0e7bad151445fc8594","665500ab8938657b03fbdba8","665789539ae495e94c1fe00f","335","stimuli/2000101.jpg","0","","prediction_trial","2","","false","","2","false","false","true","true","false","false","[2]","000","101","0","","","","","","",""
"","","","","","image-keyboard-response","123","549850","0.0-98.0","5fc5ab0e7bad151445fc8594","665500ab8938657b03fbdba8","665789539ae495e94c1fe00f","367","stimuli/20001012.jpg"," ","","feedback_trial","2","","","","","","","","","","","","","","","","","","","","",""
"","","","","","image-keyboard-response","124","550354","0.0-99.0","5fc5ab0e7bad151445fc8594","665500ab8938657b03fbdba8","665789539ae495e94c1fe00f","503","stimuli/2010001.jpg","0","","prediction_trial","2","","false","","2","false","true","true","true","false","true","[2]","010","001","0","","","","","","",""
"","","","","","image-keyboard-response","125","551074","0.0-100.0","5fc5ab0e7bad151445fc8594","665500ab8938657b03fbdba8","665789539ae495e94c1fe00f","719","stimuli/20100012.jpg"," ","","feedback_trial","2","","","","","","","","","","","","","","","","","","","","",""
"","","","","","image-keyboard-response","126","552122","0.0-101.0","5fc5ab0e7bad151445fc8594","665500ab8938657b03fbdba8","665789539ae495e94c1fe00f","1047","stimuli/2100001.jpg","0","","prediction_trial","2","","false","","2","false","true","true","true","false","true","[2]","100","001","0","","","","","","",""
"","","","","","image-keyboard-response","127","552802","0.0-102.0","5fc5ab0e7bad151445fc8594","665500ab8938657b03fbdba8","665789539ae495e94c1fe00f","679","stimuli/21000012.jpg"," ","","feedback_trial","2","","","","","","","","","","","","","","","","","","","","",""
"","","","","","image-keyboard-response","128","555682","0.0-103.0","5fc5ab0e7bad151445fc8594","665500ab8938657b03fbdba8","665789539ae495e94c1fe00f","2880","stimuli/2011000.jpg","2","","prediction_trial","2","","true","","2","true","true","false","false","false","false","[2,1]","011","000","1","","","","","","",""
"","","","","","image-keyboard-response","129","556018","0.0-104.0","5fc5ab0e7bad151445fc8594","665500ab8938657b03fbdba8","665789539ae495e94c1fe00f","335","stimuli/20110002.jpg"," ","","feedback_trial","2","","","","","","","","","","","","","","","","","","","","",""
"","","","","","image-keyboard-response","130","557003","0.0-105.0","5fc5ab0e7bad151445fc8594","665500ab8938657b03fbdba8","665789539ae495e94c1fe00f","984","stimuli/0001101.jpg","0","","prediction_trial","0","","true","","0","false","false","true","true","false","false","[0]","001","101","1","","","","","","",""
"","","","","","image-keyboard-response","131","557594","0.0-106.0","5fc5ab0e7bad151445fc8594","665500ab8938657b03fbdba8","665789539ae495e94c1fe00f","591","stimuli/00011010.jpg"," ","","feedback_trial","0","","","","","","","","","","","","","","","","","","","","",""
"","","","","","image-keyboard-response","132","558426","0.0-107.0","5fc5ab0e7bad151445fc8594","665500ab8938657b03fbdba8","665789539ae495e94c1fe00f","831","stimuli/0000010.jpg","0","","prediction_trial","0","","true","","0","true","true","true","true","true","true","[0]","000","010","1","","","","","","",""
"","","","","","image-keyboard-response","133","558602","0.0-108.0","5fc5ab0e7bad151445fc8594","665500ab8938657b03fbdba8","665789539ae495e94c1fe00f","175","stimuli/00000100.jpg"," ","","feedback_trial","0","","","","","","","","","","","","","","","","","","","","",""
"","","","","","image-keyboard-response","134","559394","0.0-109.0","5fc5ab0e7bad151445fc8594","665500ab8938657b03fbdba8","665789539ae495e94c1fe00f","791","stimuli/2111001.jpg","0","","prediction_trial","1","","false","","2","false","true","false","false","false","false","[0,1,2]","111","001","0","","","","","","",""
"","","","","","image-keyboard-response","135","559522","0.0-110.0","5fc5ab0e7bad151445fc8594","665500ab8938657b03fbdba8","665789539ae495e94c1fe00f","127","stimuli/21110011.jpg"," ","","feedback_trial","0","","","","","","","","","","","","","","","","","","","","",""
"","","","","","image-keyboard-response","136","560290","0.0-111.0","5fc5ab0e7bad151445fc8594","665500ab8938657b03fbdba8","665789539ae495e94c1fe00f","767","stimuli/1111010.jpg","0","","prediction_trial","0","","true","","1","false","true","false","false","false","false","[2,1,0]","111","010","1","","","","","","",""
"","","","","","image-keyboard-response","137","560466","0.0-112.0","5fc5ab0e7bad151445fc8594","665500ab8938657b03fbdba8","665789539ae495e94c1fe00f","175","stimuli/11110100.jpg"," ","","feedback_trial","2","","","","","","","","","","","","","","","","","","","","",""
"","","","","","image-keyboard-response","138","562026","0.0-113.0","5fc5ab0e7bad151445fc8594","665500ab8938657b03fbdba8","665789539ae495e94c1fe00f","1559","stimuli/2011110.jpg","0","","prediction_trial","2","","false","","2","true","true","false","false","false","false","[2,1]","011","110","0","","","","","","",""
"","","","","","image-keyboard-response","139","562210","0.0-114.0","5fc5ab0e7bad151445fc8594","665500ab8938657b03fbdba8","665789539ae495e94c1fe00f","183","stimuli/20111102.jpg"," ","","feedback_trial","2","","","","","","","","","","","","","","","","","","","","",""
"","","","","","image-keyboard-response","140","562978","0.0-115.0","5fc5ab0e7bad151445fc8594","665500ab8938657b03fbdba8","665789539ae495e94c1fe00f","767","stimuli/1101100.jpg","1","","prediction_trial","1","","true","","1","true","true","true","true","true","true","[1]","101","100","1","","","","","","",""
"","","","","","image-keyboard-response","141","563170","0.0-116.0","5fc5ab0e7bad151445fc8594","665500ab8938657b03fbdba8","665789539ae495e94c1fe00f","191","stimuli/11011001.jpg"," ","","feedback_trial","1","","","","","","","","","","","","","","","","","","","","",""
"","","","","","image-keyboard-response","142","563986","0.0-117.0","5fc5ab0e7bad151445fc8594","665500ab8938657b03fbdba8","665789539ae495e94c1fe00f","815","stimuli/1001110.jpg","1","","prediction_trial","1","","true","","1","false","false","true","true","false","false","[1]","001","110","1","","","","","","",""
"","","","","","image-keyboard-response","143","564306","0.0-118.0","5fc5ab0e7bad151445fc8594","665500ab8938657b03fbdba8","665789539ae495e94c1fe00f","319","stimuli/10011101.jpg"," ","","feedback_trial","1","","","","","","","","","","","","","","","","","","","","",""
"","","","","","image-keyboard-response","144","564834","0.0-119.0","5fc5ab0e7bad151445fc8594","665500ab8938657b03fbdba8","665789539ae495e94c1fe00f","527","stimuli/2010010.jpg","2","","prediction_trial","2","","true","","2","true","true","true","true","true","true","[2]","010","010","1","","","","","","",""
"","","","","","image-keyboard-response","145","565242","0.0-120.0","5fc5ab0e7bad151445fc8594","665500ab8938657b03fbdba8","665789539ae495e94c1fe00f","407","stimuli/20100102.jpg"," ","","feedback_trial","2","","","","","","","","","","","","","","","","","","","","",""
"","","","","","image-keyboard-response","146","617755","0.0-121.0","5fc5ab0e7bad151445fc8594","665500ab8938657b03fbdba8","665789539ae495e94c1fe00f","52512","stimuli/1011111.jpg","0","","prediction_trial","1","","false","","1","false","false","false","false","false","false","[1,2]","011","111","0","","","","","","",""
"","","","","","image-keyboard-response","147","617963","0.0-122.0","5fc5ab0e7bad151445fc8594","665500ab8938657b03fbdba8","665789539ae495e94c1fe00f","206","stimuli/10111111.jpg"," ","","feedback_trial","1","","","","","","","","","","","","","","","","","","","","",""
"","","","","","image-keyboard-response","148","618603","0.0-123.0","5fc5ab0e7bad151445fc8594","665500ab8938657b03fbdba8","665789539ae495e94c1fe00f","639","stimuli/2000110.jpg","2","","prediction_trial","2","","true","","2","true","true","true","true","true","true","[2]","000","110","1","","","","","","",""
"","","","","","image-keyboard-response","149","618763","0.0-124.0","5fc5ab0e7bad151445fc8594","665500ab8938657b03fbdba8","665789539ae495e94c1fe00f","159","stimuli/20001102.jpg"," ","","feedback_trial","2","","","","","","","","","","","","","","","","","","","","",""
"","","","","","image-keyboard-response","150","619291","0.0-125.0","5fc5ab0e7bad151445fc8594","665500ab8938657b03fbdba8","665789539ae495e94c1fe00f","527","stimuli/1000000.jpg","1","","prediction_trial","1","","true","","1","true","true","true","true","true","true","[1]","000","000","1","","","","","","",""
"","","","","","image-keyboard-response","151","619411","0.0-126.0","5fc5ab0e7bad151445fc8594","665500ab8938657b03fbdba8","665789539ae495e94c1fe00f","120","stimuli/10000001.jpg"," ","","feedback_trial","1","","","","","","","","","","","","","","","","","","","","",""
"","","","","","image-keyboard-response","152","620251","0.0-127.0","5fc5ab0e7bad151445fc8594","665500ab8938657b03fbdba8","665789539ae495e94c1fe00f","839","stimuli/2110011.jpg","0","","prediction_trial","2","","false","","2","false","false","true","true","false","false","[2]","110","011","0","","","","","","",""
"","","","","","image-keyboard-response","153","620419","0.0-128.0","5fc5ab0e7bad151445fc8594","665500ab8938657b03fbdba8","665789539ae495e94c1fe00f","167","stimuli/21100112.jpg"," ","","feedback_trial","2","","","","","","","","","","","","","","","","","","","","",""
"","","","","","image-keyboard-response","154","621195","0.0-129.0","5fc5ab0e7bad151445fc8594","665500ab8938657b03fbdba8","665789539ae495e94c1fe00f","776","stimuli/1111000.jpg","1","","prediction_trial","1","","true","","1","true","true","false","false","false","false","[2,0,1]","111","000","1","","","","","","",""
"","","","","","image-keyboard-response","155","621547","0.0-130.0","5fc5ab0e7bad151445fc8594","665500ab8938657b03fbdba8","665789539ae495e94c1fe00f","351","stimuli/11110001.jpg"," ","","feedback_trial","2","","","","","","","","","","","","","","","","","","","","",""
"","","","","","image-keyboard-response","156","621907","0.0-131.0","5fc5ab0e7bad151445fc8594","665500ab8938657b03fbdba8","665789539ae495e94c1fe00f","360","stimuli/0110011.jpg","1","","prediction_trial","1","","true","","0","true","true","false","false","false","false","[0,1]","110","011","1","","","","","","",""
"","","","","","image-keyboard-response","157","622099","0.0-132.0","5fc5ab0e7bad151445fc8594","665500ab8938657b03fbdba8","665789539ae495e94c1fe00f","191","stimuli/01100111.jpg"," ","","feedback_trial","0","","","","","","","","","","","","","","","","","","","","",""
"","","","","","image-keyboard-response","158","622659","0.0-133.0","5fc5ab0e7bad151445fc8594","665500ab8938657b03fbdba8","665789539ae495e94c1fe00f","556","stimuli/1010010.jpg","0","","prediction_trial","1","","false","","1","false","true","false","true","false","true","[1]","010","010","0","","","","","","",""
"","","","","","image-keyboard-response","159","622947","0.0-134.0","5fc5ab0e7bad151445fc8594","665500ab8938657b03fbdba8","665789539ae495e94c1fe00f","287","stimuli/10100101.jpg"," ","","feedback_trial","1","","","","","","","","","","","","","","","","","","","","",""
"","","","","","image-keyboard-response","160","623667","0.0-135.0","5fc5ab0e7bad151445fc8594","665500ab8938657b03fbdba8","665789539ae495e94c1fe00f","719","stimuli/1111011.jpg","0","","prediction_trial","1","","false","","1","false","false","false","false","false","false","[2,1,0]","111","011","0","","","","","","",""
"","","","","","image-keyboard-response","161","623835","0.0-136.0","5fc5ab0e7bad151445fc8594","665500ab8938657b03fbdba8","665789539ae495e94c1fe00f","167","stimuli/11110111.jpg"," ","","feedback_trial","2","","","","","","","","","","","","","","","","","","","","",""
"","","","","","image-keyboard-response","162","624523","0.0-137.0","5fc5ab0e7bad151445fc8594","665500ab8938657b03fbdba8","665789539ae495e94c1fe00f","687","stimuli/2110101.jpg","0","","prediction_trial","2","","false","","2","false","false","true","true","false","false","[2]","110","101","0","","","","","","",""
"","","","","","image-keyboard-response","163","624651","0.0-138.0","5fc5ab0e7bad151445fc8594","665500ab8938657b03fbdba8","665789539ae495e94c1fe00f","127","stimuli/21101012.jpg"," ","","feedback_trial","2","","","","","","","","","","","","","","","","","","","","",""
"","","","","","image-keyboard-response","164","625515","0.0-139.0","5fc5ab0e7bad151445fc8594","665500ab8938657b03fbdba8","665789539ae495e94c1fe00f","863","stimuli/2100101.jpg","0","","prediction_trial","2","","false","","2","false","false","true","true","false","false","[2]","100","101","0","","","","","","",""
"","","","","","image-keyboard-response","165","625835","0.0-140.0","5fc5ab0e7bad151445fc8594","665500ab8938657b03fbdba8","665789539ae495e94c1fe00f","319","stimuli/21001012.jpg"," ","","feedback_trial","2","","","","","","","","","","","","","","","","","","","","",""
"","","","","","image-keyboard-response","166","626699","0.0-141.0","5fc5ab0e7bad151445fc8594","665500ab8938657b03fbdba8","665789539ae495e94c1fe00f","864","stimuli/0001100.jpg","0","","prediction_trial","0","","true","","0","false","true","true","true","false","true","[0]","001","100","1","","","","","","",""
"","","","","","image-keyboard-response","167","627019","0.0-142.0","5fc5ab0e7bad151445fc8594","665500ab8938657b03fbdba8","665789539ae495e94c1fe00f","319","stimuli/00011000.jpg"," ","","feedback_trial","0","","","","","","","","","","","","","","","","","","","","",""
"","","","","","image-keyboard-response","168","628186","0.0-143.0","5fc5ab0e7bad151445fc8594","665500ab8938657b03fbdba8","665789539ae495e94c1fe00f","1167","stimuli/1100010.jpg","1","","prediction_trial","1","","true","","1","false","true","true","true","false","true","[1]","100","010","1","","","","","","",""
"","","","","","image-keyboard-response","169","628539","0.0-144.0","5fc5ab0e7bad151445fc8594","665500ab8938657b03fbdba8","665789539ae495e94c1fe00f","351","stimuli/11000101.jpg"," ","","feedback_trial","1","","","","","","","","","","","","","","","","","","","","",""
"","","","","","image-keyboard-response","170","629595","0.0-145.0","5fc5ab0e7bad151445fc8594","665500ab8938657b03fbdba8","665789539ae495e94c1fe00f","1055","stimuli/2001101.jpg","2","","prediction_trial","2","","true","","2","false","false","false","true","false","false","[2]","001","101","1","","","","","","",""
"","","","","","image-keyboard-response","171","629939","0.0-146.0","5fc5ab0e7bad151445fc8594","665500ab8938657b03fbdba8","665789539ae495e94c1fe00f","343","stimuli/20011012.jpg"," ","","feedback_trial","2","","","","","","","","","","","","","","","","","","","","",""
"","","","","","image-keyboard-response","172","630651","0.0-147.0","5fc5ab0e7bad151445fc8594","665500ab8938657b03fbdba8","665789539ae495e94c1fe00f","711","stimuli/0000011.jpg","2","","prediction_trial","0","","false","","0","true","true","true","true","true","true","[0]","000","011","0","","","","","","",""
"","","","","","image-keyboard-response","173","631339","0.0-148.0","5fc5ab0e7bad151445fc8594","665500ab8938657b03fbdba8","665789539ae495e94c1fe00f","687","stimuli/00000110.jpg"," ","","feedback_trial","0","","","","","","","","","","","","","","","","","","","","",""
"","","","","","image-keyboard-response","174","632027","0.0-149.0","5fc5ab0e7bad151445fc8594","665500ab8938657b03fbdba8","665789539ae495e94c1fe00f","687","stimuli/0000000.jpg","0","","prediction_trial","0","","true","","0","true","true","true","true","true","true","[0]","000","000","1","","","","","","",""
"","","","","","image-keyboard-response","175","632347","0.0-150.0","5fc5ab0e7bad151445fc8594","665500ab8938657b03fbdba8","665789539ae495e94c1fe00f","319","stimuli/00000000.jpg"," ","","feedback_trial","0","","","","","","","","","","","","","","","","","","","","",""
"","","","","","image-keyboard-response","176","633011","0.0-151.0","5fc5ab0e7bad151445fc8594","665500ab8938657b03fbdba8","665789539ae495e94c1fe00f","663","stimuli/2110110.jpg","2","","prediction_trial","2","","true","","2","true","true","true","true","true","true","[2]","110","110","1","","","","","","",""
"","","","","","image-keyboard-response","177","633187","0.0-152.0","5fc5ab0e7bad151445fc8594","665500ab8938657b03fbdba8","665789539ae495e94c1fe00f","175","stimuli/21101102.jpg"," ","","feedback_trial","2","","","","","","","","","","","","","","","","","","","","",""
"","","","","","image-keyboard-response","178","633875","0.0-153.0","5fc5ab0e7bad151445fc8594","665500ab8938657b03fbdba8","665789539ae495e94c1fe00f","687","stimuli/1001111.jpg","0","","prediction_trial","1","","false","","1","false","false","true","true","false","false","[1]","001","111","0","","","","","","",""
"","","","","","image-keyboard-response","179","634131","0.0-154.0","5fc5ab0e7bad151445fc8594","665500ab8938657b03fbdba8","665789539ae495e94c1fe00f","255","stimuli/10011111.jpg"," ","","feedback_trial","1","","","","","","","","","","","","","","","","","","","","",""
"","","","","","image-keyboard-response","180","634979","0.0-155.0","5fc5ab0e7bad151445fc8594","665500ab8938657b03fbdba8","665789539ae495e94c1fe00f","847","stimuli/0101011.jpg","1","","prediction_trial","0","","false","","0","true","true","false","false","false","false","[2,0]","101","011","0","","","","","","",""
"","","","","","image-keyboard-response","181","635203","0.0-156.0","5fc5ab0e7bad151445fc8594","665500ab8938657b03fbdba8","665789539ae495e94c1fe00f","223","stimuli/01010110.jpg"," ","","feedback_trial","2","","","","","","","","","","","","","","","","","","","","",""
"","","","","","image-keyboard-response","182","635779","0.0-157.0","5fc5ab0e7bad151445fc8594","665500ab8938657b03fbdba8","665789539ae495e94c1fe00f","575","stimuli/1111110.jpg","2","","prediction_trial","1","","false","","1","false","false","false","false","false","false","[0,1,2]","111","110","0","","","","","","",""
"","","","","","image-keyboard-response","183","635979","0.0-158.0","5fc5ab0e7bad151445fc8594","665500ab8938657b03fbdba8","665789539ae495e94c1fe00f","199","stimuli/11111101.jpg"," ","","feedback_trial","0","","","","","","","","","","","","","","","","","","","","",""
"","","","","","image-keyboard-response","184","636363","0.0-159.0","5fc5ab0e7bad151445fc8594","665500ab8938657b03fbdba8","665789539ae495e94c1fe00f","383","stimuli/0110101.jpg","2","","prediction_trial","1","","false","","0","false","false","false","false","false","false","[0,1]","110","101","0","","","","","","",""
"","","","","","image-keyboard-response","185","636555","0.0-160.0","5fc5ab0e7bad151445fc8594","665500ab8938657b03fbdba8","665789539ae495e94c1fe00f","191","stimuli/01101011.jpg"," ","","feedback_trial","0","","","","","","","","","","","","","","","","","","","","",""
"","","","","","image-keyboard-response","186","637067","0.0-161.0","5fc5ab0e7bad151445fc8594","665500ab8938657b03fbdba8","665789539ae495e94c1fe00f","511","stimuli/2010011.jpg","2","","prediction_trial","2","","true","","2","false","false","true","true","false","false","[2]","010","011","1","","","","","","",""
"","","","","","image-keyboard-response","187","637235","0.0-162.0","5fc5ab0e7bad151445fc8594","665500ab8938657b03fbdba8","665789539ae495e94c1fe00f","167","stimuli/20100112.jpg"," ","","feedback_trial","2","","","","","","","","","","","","","","","","","","","","",""
"","","","","","image-keyboard-response","188","638458","0.0-163.0","5fc5ab0e7bad151445fc8594","665500ab8938657b03fbdba8","665789539ae495e94c1fe00f","1223","stimuli/1111001.jpg","2","","prediction_trial","1","","false","","1","true","true","false","false","false","false","[0,1,2]","111","001","0","","","","","","",""
"","","","","","image-keyboard-response","189","638627","0.0-164.0","5fc5ab0e7bad151445fc8594","665500ab8938657b03fbdba8","665789539ae495e94c1fe00f","168","stimuli/11110011.jpg"," ","","feedback_trial","0","","","","","","","","","","","","","","","","","","","","",""
"","","","","","image-keyboard-response","190","639363","0.0-165.0","5fc5ab0e7bad151445fc8594","665500ab8938657b03fbdba8","665789539ae495e94c1fe00f","735","stimuli/2000000.jpg","2","","prediction_trial","2","","true","","2","true","true","true","true","true","true","[2]","000","000","1","","","","","","",""
"","","","","","image-keyboard-response","191","639507","0.0-166.0","5fc5ab0e7bad151445fc8594","665500ab8938657b03fbdba8","665789539ae495e94c1fe00f","143","stimuli/20000002.jpg"," ","","feedback_trial","2","","","","","","","","","","","","","","","","","","","","",""
"","","","","","image-keyboard-response","192","640195","0.0-167.0","5fc5ab0e7bad151445fc8594","665500ab8938657b03fbdba8","665789539ae495e94c1fe00f","687","stimuli/2100100.jpg","2","","prediction_trial","2","","true","","2","true","true","true","true","true","true","[2]","100","100","1","","","","","","",""
"","","","","","image-keyboard-response","193","640410","0.0-168.0","5fc5ab0e7bad151445fc8594","665500ab8938657b03fbdba8","665789539ae495e94c1fe00f","215","stimuli/21001002.jpg"," ","","feedback_trial","2","","","","","","","","","","","","","","","","","","","","",""
"","","","","","image-keyboard-response","194","641035","0.0-169.0","5fc5ab0e7bad151445fc8594","665500ab8938657b03fbdba8","665789539ae495e94c1fe00f","624","stimuli/1001100.jpg","1","","prediction_trial","1","","true","","1","true","true","true","true","true","true","[1]","001","100","1","","","","","","",""
"","","","","","image-keyboard-response","195","641235","0.0-170.0","5fc5ab0e7bad151445fc8594","665500ab8938657b03fbdba8","665789539ae495e94c1fe00f","199","stimuli/10011001.jpg"," ","","feedback_trial","1","","","","","","","","","","","","","","","","","","","","",""
"","","","","","image-keyboard-response","196","641739","0.0-171.0","5fc5ab0e7bad151445fc8594","665500ab8938657b03fbdba8","665789539ae495e94c1fe00f","503","stimuli/1001001.jpg","1","","prediction_trial","1","","true","","1","true","true","true","true","true","true","[1]","001","001","1","","","","","","",""
"","","","","","image-keyboard-response","197","641891","0.0-172.0","5fc5ab0e7bad151445fc8594","665500ab8938657b03fbdba8","665789539ae495e94c1fe00f","151","stimuli/10010011.jpg"," ","","feedback_trial","1","","","","","","","","","","","","","","","","","","","","",""
"","","","","","image-keyboard-response","198","642835","0.0-173.0","5fc5ab0e7bad151445fc8594","665500ab8938657b03fbdba8","665789539ae495e94c1fe00f","943","stimuli/1111100.jpg","2","","prediction_trial","0","","false","","1","true","true","false","false","false","false","[0,2,1]","111","100","0","","","","","","",""
"","","","","","image-keyboard-response","199","643003","0.0-174.0","5fc5ab0e7bad151445fc8594","665500ab8938657b03fbdba8","665789539ae495e94c1fe00f","167","stimuli/11111000.jpg"," ","","feedback_trial","0","","","","","","","","","","","","","","","","","","","","",""
"","","","","","image-keyboard-response","200","644227","0.0-175.0","5fc5ab0e7bad151445fc8594","665500ab8938657b03fbdba8","665789539ae495e94c1fe00f","1223","stimuli/1010100.jpg","2","","prediction_trial","1","","false","","1","true","true","false","true","false","true","[1]","010","100","0","","","","","","",""
"","","","","","image-keyboard-response","201","644779","0.0-176.0","5fc5ab0e7bad151445fc8594","665500ab8938657b03fbdba8","665789539ae495e94c1fe00f","551","stimuli/10101001.jpg"," ","","feedback_trial","1","","","","","","","","","","","","","","","","","","","","",""
"","","","","","image-keyboard-response","202","645307","0.0-177.0","5fc5ab0e7bad151445fc8594","665500ab8938657b03fbdba8","665789539ae495e94c1fe00f","527","stimuli/0110111.jpg","1","","prediction_trial","0","","false","","0","false","false","false","false","false","false","[0,1]","110","111","0","","","","","","",""
"","","","","","image-keyboard-response","203","645698","0.0-178.0","5fc5ab0e7bad151445fc8594","665500ab8938657b03fbdba8","665789539ae495e94c1fe00f","391","stimuli/01101110.jpg"," ","","feedback_trial","0","","","","","","","","","","","","","","","","","","","","",""
"","","","","","image-keyboard-response","204","646243","0.0-179.0","5fc5ab0e7bad151445fc8594","665500ab8938657b03fbdba8","665789539ae495e94c1fe00f","544","stimuli/0011111.jpg","1","","prediction_trial","0","","false","","0","false","false","true","true","false","false","[0]","011","111","0","","","","","","",""
"","","","","","image-keyboard-response","205","646531","0.0-180.0","5fc5ab0e7bad151445fc8594","665500ab8938657b03fbdba8","665789539ae495e94c1fe00f","287","stimuli/00111110.jpg"," ","","feedback_trial","0","","","","","","","","","","","","","","","","","","","","",""
"","","","","","image-keyboard-response","206","647099","0.0-181.0","5fc5ab0e7bad151445fc8594","665500ab8938657b03fbdba8","665789539ae495e94c1fe00f","567","stimuli/1000010.jpg","1","","prediction_trial","1","","true","","1","false","true","true","true","false","true","[1]","000","010","1","","","","","","",""
"","","","","","image-keyboard-response","207","647979","0.0-182.0","5fc5ab0e7bad151445fc8594","665500ab8938657b03fbdba8","665789539ae495e94c1fe00f","879","stimuli/10000101.jpg"," ","","feedback_trial","1","","","","","","","","","","","","","","","","","","","","",""
"","","","","","image-keyboard-response","208","649083","0.0-183.0","5fc5ab0e7bad151445fc8594","665500ab8938657b03fbdba8","665789539ae495e94c1fe00f","1103","stimuli/1001000.jpg","1","","prediction_trial","1","","true","","1","true","true","true","true","true","true","[1]","001","000","1","","","","","","",""
"","","","","","image-keyboard-response","209","649362","0.0-184.0","5fc5ab0e7bad151445fc8594","665500ab8938657b03fbdba8","665789539ae495e94c1fe00f","279","stimuli/10010001.jpg"," ","","feedback_trial","1","","","","","","","","","","","","","","","","","","","","",""
"","","","","","image-keyboard-response","210","650595","0.0-185.0","5fc5ab0e7bad151445fc8594","665500ab8938657b03fbdba8","665789539ae495e94c1fe00f","1232","stimuli/0110110.jpg","0","","prediction_trial","0","","true","","0","false","false","false","false","false","false","[0,1]","110","110","1","","","","","","",""
"","","","","","image-keyboard-response","211","651027","0.0-186.0","5fc5ab0e7bad151445fc8594","665500ab8938657b03fbdba8","665789539ae495e94c1fe00f","431","stimuli/01101100.jpg"," ","","feedback_trial","0","","","","","","","","","","","","","","","","","","","","",""
"","","","","","image-keyboard-response","212","651635","0.0-187.0","5fc5ab0e7bad151445fc8594","665500ab8938657b03fbdba8","665789539ae495e94c1fe00f","607","stimuli/2111101.jpg","0","","prediction_trial","0","","true","","2","false","false","false","false","false","false","[1,2,0]","111","101","1","","","","","","",""
"","","","","","image-keyboard-response","213","651971","0.0-188.0","5fc5ab0e7bad151445fc8594","665500ab8938657b03fbdba8","665789539ae495e94c1fe00f","335","stimuli/21111010.jpg"," ","","feedback_trial","1","","","","","","","","","","","","","","","","","","","","",""
"","","","","","image-keyboard-response","214","653019","0.0-189.0","5fc5ab0e7bad151445fc8594","665500ab8938657b03fbdba8","665789539ae495e94c1fe00f","1047","stimuli/0100010.jpg","1","","prediction_trial","0","","false","","0","true","true","false","true","false","true","[0]","100","010","0","","","","","","",""
"","","","","","image-keyboard-response","215","653483","0.0-190.0","5fc5ab0e7bad151445fc8594","665500ab8938657b03fbdba8","665789539ae495e94c1fe00f","463","stimuli/01000100.jpg"," ","","feedback_trial","0","","","","","","","","","","","","","","","","","","","","",""
"","","","","","image-keyboard-response","216","654379","0.0-191.0","5fc5ab0e7bad151445fc8594","665500ab8938657b03fbdba8","665789539ae495e94c1fe00f","895","stimuli/2001111.jpg","2","","prediction_trial","2","","true","","2","false","false","false","true","false","false","[2]","001","111","1","","","","","","",""
"","","","","","image-keyboard-response","217","654843","0.0-192.0","5fc5ab0e7bad151445fc8594","665500ab8938657b03fbdba8","665789539ae495e94c1fe00f","463","stimuli/20011112.jpg"," ","","feedback_trial","2","","","","","","","","","","","","","","","","","","","","",""
"","","","","","image-keyboard-response","218","655483","0.0-193.0","5fc5ab0e7bad151445fc8594","665500ab8938657b03fbdba8","665789539ae495e94c1fe00f","639","stimuli/0010111.jpg","2","","prediction_trial","0","","false","","0","false","false","true","true","false","false","[0]","010","111","0","","","","","","",""
"","","","","","image-keyboard-response","219","661059","0.0-194.0","5fc5ab0e7bad151445fc8594","665500ab8938657b03fbdba8","665789539ae495e94c1fe00f","5575","stimuli/00101110.jpg"," ","","feedback_trial","0","","","","","","","","","","","","","","","","","","","","",""
"","","","","","image-keyboard-response","220","662323","0.0-195.0","5fc5ab0e7bad151445fc8594","665500ab8938657b03fbdba8","665789539ae495e94c1fe00f","1263","stimuli/2110001.jpg","0","","prediction_trial","2","","false","","2","false","true","true","true","false","true","[2]","110","001","0","","","","","","",""
"","","","","","image-keyboard-response","221","662419","0.0-196.0","5fc5ab0e7bad151445fc8594","665500ab8938657b03fbdba8","665789539ae495e94c1fe00f","95","stimuli/21100012.jpg"," ","","feedback_trial","2","","","","","","","","","","","","","","","","","","","","",""
"","","","","","image-keyboard-response","222","662595","0.0-197.0","5fc5ab0e7bad151445fc8594","665500ab8938657b03fbdba8","665789539ae495e94c1fe00f","175","stimuli/0011110.jpg","1","","prediction_trial","0","","false","","0","false","false","true","true","false","false","[0]","011","110","0","","","","","","",""
"","","","","","image-keyboard-response","223","662755","0.0-198.0","5fc5ab0e7bad151445fc8594","665500ab8938657b03fbdba8","665789539ae495e94c1fe00f","159","stimuli/00111100.jpg"," ","","feedback_trial","0","","","","","","","","","","","","","","","","","","","","",""
"","","","","","image-keyboard-response","224","663019","0.0-199.0","5fc5ab0e7bad151445fc8594","665500ab8938657b03fbdba8","665789539ae495e94c1fe00f","263","stimuli/0000101.jpg","2","","prediction_trial","0","","false","","0","false","false","true","true","false","false","[0]","000","101","0","","","","","","",""
"","","","","","image-keyboard-response","225","663275","0.0-200.0","5fc5ab0e7bad151445fc8594","665500ab8938657b03fbdba8","665789539ae495e94c1fe00f","255","stimuli/00001010.jpg"," ","","feedback_trial","0","","","","","","","","","","","","","","","","","","","","",""
"","","","","","image-keyboard-response","226","663723","0.0-201.0","5fc5ab0e7bad151445fc8594","665500ab8938657b03fbdba8","665789539ae495e94c1fe00f","447","stimuli/1001011.jpg","2","","prediction_trial","1","","false","","1","false","false","true","true","false","false","[1]","001","011","0","","","","","","",""
"","","","","","image-keyboard-response","227","663891","0.0-202.0","5fc5ab0e7bad151445fc8594","665500ab8938657b03fbdba8","665789539ae495e94c1fe00f","167","stimuli/10010111.jpg"," ","","feedback_trial","1","","","","","","","","","","","","","","","","","","","","",""
"","","","","","image-keyboard-response","228","664675","0.0-203.0","5fc5ab0e7bad151445fc8594","665500ab8938657b03fbdba8","665789539ae495e94c1fe00f","783","stimuli/0100100.jpg","0","","prediction_trial","0","","true","","0","false","true","false","true","false","true","[0]","100","100","1","","","","","","",""
"","","","","","image-keyboard-response","229","664859","0.0-204.0","5fc5ab0e7bad151445fc8594","665500ab8938657b03fbdba8","665789539ae495e94c1fe00f","183","stimuli/01001000.jpg"," ","","feedback_trial","0","","","","","","","","","","","","","","","","","","","","",""
"","","","","","image-keyboard-response","230","665667","0.0-205.0","5fc5ab0e7bad151445fc8594","665500ab8938657b03fbdba8","665789539ae495e94c1fe00f","808","stimuli/1000101.jpg","1","","prediction_trial","1","","true","","1","true","true","true","true","true","true","[1]","000","101","1","","","","","","",""
"","","","","","image-keyboard-response","231","665827","0.0-206.0","5fc5ab0e7bad151445fc8594","665500ab8938657b03fbdba8","665789539ae495e94c1fe00f","159","stimuli/10001011.jpg"," ","","feedback_trial","1","","","","","","","","","","","","","","","","","","","","",""
"","","","","","image-keyboard-response","232","666411","0.0-207.0","5fc5ab0e7bad151445fc8594","665500ab8938657b03fbdba8","665789539ae495e94c1fe00f","583","stimuli/2000010.jpg","2","","prediction_trial","2","","true","","2","true","true","true","true","true","true","[2]","000","010","1","","","","","","",""
"","","","","","image-keyboard-response","233","666579","0.0-208.0","5fc5ab0e7bad151445fc8594","665500ab8938657b03fbdba8","665789539ae495e94c1fe00f","167","stimuli/20000102.jpg"," ","","feedback_trial","2","","","","","","","","","","","","","","","","","","","","",""
"","","","","","image-keyboard-response","234","667147","0.0-209.0","5fc5ab0e7bad151445fc8594","665500ab8938657b03fbdba8","665789539ae495e94c1fe00f","567","stimuli/0001010.jpg","0","","prediction_trial","0","","true","","0","true","true","true","true","true","true","[0]","001","010","1","","","","","","",""
"","","","","","image-keyboard-response","235","667323","0.0-210.0","5fc5ab0e7bad151445fc8594","665500ab8938657b03fbdba8","665789539ae495e94c1fe00f","175","stimuli/00010100.jpg"," ","","feedback_trial","0","","","","","","","","","","","","","","","","","","","","",""
"","","","","","image-keyboard-response","236","668035","0.0-211.0","5fc5ab0e7bad151445fc8594","665500ab8938657b03fbdba8","665789539ae495e94c1fe00f","711","stimuli/1101011.jpg","0","","prediction_trial","1","","false","","1","false","false","true","true","false","false","[1]","101","011","0","","","","","","",""
"","","","","","image-keyboard-response","237","668211","0.0-212.0","5fc5ab0e7bad151445fc8594","665500ab8938657b03fbdba8","665789539ae495e94c1fe00f","175","stimuli/11010111.jpg"," ","","feedback_trial","1","","","","","","","","","","","","","","","","","","","","",""
"","","","","","image-keyboard-response","238","668707","0.0-213.0","5fc5ab0e7bad151445fc8594","665500ab8938657b03fbdba8","665789539ae495e94c1fe00f","495","stimuli/2010101.jpg","0","","prediction_trial","2","","false","","2","false","false","true","true","false","false","[2]","010","101","0","","","","","","",""
"","","","","","image-keyboard-response","239","668883","0.0-214.0","5fc5ab0e7bad151445fc8594","665500ab8938657b03fbdba8","665789539ae495e94c1fe00f","175","stimuli/20101012.jpg"," ","","feedback_trial","2","","","","","","","","","","","","","","","","","","","","",""
"","","","","","image-keyboard-response","240","669283","0.0-215.0","5fc5ab0e7bad151445fc8594","665500ab8938657b03fbdba8","665789539ae495e94c1fe00f","399","stimuli/2101101.jpg","0","","prediction_trial","2","","false","","2","false","false","false","false","false","false","[0,2]","101","101","0","","","","","","",""
"","","","","","image-keyboard-response","241","669426","0.0-216.0","5fc5ab0e7bad151445fc8594","665500ab8938657b03fbdba8","665789539ae495e94c1fe00f","143","stimuli/21011012.jpg"," ","","feedback_trial","0","","","","","","","","","","","","","","","","","","","","",""
"","","","","","image-keyboard-response","242","670179","0.0-217.0","5fc5ab0e7bad151445fc8594","665500ab8938657b03fbdba8","665789539ae495e94c1fe00f","752","stimuli/0011011.jpg","0","","prediction_trial","0","","true","","0","true","true","true","true","true","true","[0]","011","011","1","","","","","","",""
"","","","","","image-keyboard-response","243","670339","0.0-218.0","5fc5ab0e7bad151445fc8594","665500ab8938657b03fbdba8","665789539ae495e94c1fe00f","159","stimuli/00110110.jpg"," ","","feedback_trial","0","","","","","","","","","","","","","","","","","","","","",""
"","","","","","image-keyboard-response","244","671187","0.0-219.0","5fc5ab0e7bad151445fc8594","665500ab8938657b03fbdba8","665789539ae495e94c1fe00f","847","stimuli/2111010.jpg","2","","prediction_trial","1","","false","","2","true","true","false","false","false","false","[1,0,2]","111","010","0","","","","","","",""
"","","","","","image-keyboard-response","245","671403","0.0-220.0","5fc5ab0e7bad151445fc8594","665500ab8938657b03fbdba8","665789539ae495e94c1fe00f","215","stimuli/21110101.jpg"," ","","feedback_trial","1","","","","","","","","","","","","","","","","","","","","",""
"","","","","","image-keyboard-response","246","672659","0.0-221.0","5fc5ab0e7bad151445fc8594","665500ab8938657b03fbdba8","665789539ae495e94c1fe00f","1252","stimuli/1110100.jpg","1","","prediction_trial","1","","true","","1","true","true","false","false","false","false","[0,1]","110","100","1","","","","","","",""
"","","","","","image-keyboard-response","247","672959","0.0-222.0","5fc5ab0e7bad151445fc8594","665500ab8938657b03fbdba8","665789539ae495e94c1fe00f","303","stimuli/11101001.jpg"," ","","feedback_trial","0","","","","","","","","","","","","","","","","","","","","",""
"","","","","","image-keyboard-response","248","673727","0.0-223.0","5fc5ab0e7bad151445fc8594","665500ab8938657b03fbdba8","665789539ae495e94c1fe00f","767","stimuli/1101110.jpg","2","","prediction_trial","1","","false","","1","false","false","true","true","false","false","[1]","101","110","0","","","","","","",""
"","","","","","image-keyboard-response","249","673967","0.0-224.0","5fc5ab0e7bad151445fc8594","665500ab8938657b03fbdba8","665789539ae495e94c1fe00f","239","stimuli/11011101.jpg"," ","","feedback_trial","1","","","","","","","","","","","","","","","","","","","","",""
"","","","","","image-keyboard-response","250","675167","0.0-225.0","5fc5ab0e7bad151445fc8594","665500ab8938657b03fbdba8","665789539ae495e94c1fe00f","1199","stimuli/0010100.jpg","0","","prediction_trial","0","","true","","0","false","true","true","true","false","true","[0]","010","100","1","","","","","","",""
"","","","","","image-keyboard-response","251","675439","0.0-226.0","5fc5ab0e7bad151445fc8594","665500ab8938657b03fbdba8","665789539ae495e94c1fe00f","271","stimuli/00101000.jpg"," ","","feedback_trial","0","","","","","","","","","","","","","","","","","","","","",""
"","","","","","image-keyboard-response","252","676007","0.0-227.0","5fc5ab0e7bad151445fc8594","665500ab8938657b03fbdba8","665789539ae495e94c1fe00f","568","stimuli/2100010.jpg","0","","prediction_trial","2","","false","","2","true","true","true","true","true","true","[2]","100","010","0","","","","","","",""
"","","","","","image-keyboard-response","253","676247","0.0-228.0","5fc5ab0e7bad151445fc8594","665500ab8938657b03fbdba8","665789539ae495e94c1fe00f","239","stimuli/21000102.jpg"," ","","feedback_trial","2","","","","","","","","","","","","","","","","","","","","",""
"","","","","","image-keyboard-response","254","677038","0.0-229.0","5fc5ab0e7bad151445fc8594","665500ab8938657b03fbdba8","665789539ae495e94c1fe00f","791","stimuli/0001110.jpg","1","","prediction_trial","0","","false","","0","false","false","true","true","false","false","[0]","001","110","0","","","","","","",""
"","","","","","image-keyboard-response","255","677230","0.0-230.0","5fc5ab0e7bad151445fc8594","665500ab8938657b03fbdba8","665789539ae495e94c1fe00f","191","stimuli/00011100.jpg"," ","","feedback_trial","0","","","","","","","","","","","","","","","","","","","","",""
"","","","","","image-keyboard-response","256","677951","0.0-231.0","5fc5ab0e7bad151445fc8594","665500ab8938657b03fbdba8","665789539ae495e94c1fe00f","719","stimuli/2100000.jpg","2","","prediction_trial","2","","true","","2","true","true","true","true","true","true","[2]","100","000","1","","","","","","",""
"","","","","","image-keyboard-response","257","678191","0.0-232.0","5fc5ab0e7bad151445fc8594","665500ab8938657b03fbdba8","665789539ae495e94c1fe00f","239","stimuli/21000002.jpg"," ","","feedback_trial","2","","","","","","","","","","","","","","","","","","","","",""
"","","","","","image-keyboard-response","258","678775","0.0-233.0","5fc5ab0e7bad151445fc8594","665500ab8938657b03fbdba8","665789539ae495e94c1fe00f","583","stimuli/0011001.jpg","0","","prediction_trial","0","","true","","0","true","true","true","true","true","true","[0]","011","001","1","","","","","","",""
"","","","","","image-keyboard-response","259","679039","0.0-234.0","5fc5ab0e7bad151445fc8594","665500ab8938657b03fbdba8","665789539ae495e94c1fe00f","263","stimuli/00110010.jpg"," ","","feedback_trial","0","","","","","","","","","","","","","","","","","","","","",""
"","","","","","image-keyboard-response","260","679607","0.0-235.0","5fc5ab0e7bad151445fc8594","665500ab8938657b03fbdba8","665789539ae495e94c1fe00f","567","stimuli/1100000.jpg","1","","prediction_trial","1","","true","","1","true","true","true","true","true","true","[1]","100","000","1","","","","","","",""
"","","","","","image-keyboard-response","261","679839","0.0-236.0","5fc5ab0e7bad151445fc8594","665500ab8938657b03fbdba8","665789539ae495e94c1fe00f","231","stimuli/11000001.jpg"," ","","feedback_trial","1","","","","","","","","","","","","","","","","","","","","",""
"","","","","","image-keyboard-response","262","680351","0.0-237.0","5fc5ab0e7bad151445fc8594","665500ab8938657b03fbdba8","665789539ae495e94c1fe00f","511","stimuli/2010110.jpg","2","","prediction_trial","2","","true","","2","true","true","true","true","true","true","[2]","010","110","1","","","","","","",""
"","","","","","image-keyboard-response","263","680591","0.0-238.0","5fc5ab0e7bad151445fc8594","665500ab8938657b03fbdba8","665789539ae495e94c1fe00f","239","stimuli/20101102.jpg"," ","","feedback_trial","2","","","","","","","","","","","","","","","","","","","","",""
"","","","","","image-keyboard-response","264","681527","0.0-239.0","5fc5ab0e7bad151445fc8594","665500ab8938657b03fbdba8","665789539ae495e94c1fe00f","935","stimuli/0100001.jpg","0","","prediction_trial","0","","true","","0","true","true","false","true","false","true","[0]","100","001","1","","","","","","",""
"","","","","","image-keyboard-response","265","682023","0.0-240.0","5fc5ab0e7bad151445fc8594","665500ab8938657b03fbdba8","665789539ae495e94c1fe00f","495","stimuli/01000010.jpg"," ","","feedback_trial","0","","","","","","","","","","","","","","","","","","","","",""
"","","","","","image-keyboard-response","266","682926","0.0-241.0","5fc5ab0e7bad151445fc8594","665500ab8938657b03fbdba8","665789539ae495e94c1fe00f","903","stimuli/0010010.jpg","0","","prediction_trial","0","","true","","0","true","true","true","true","true","true","[0]","010","010","1","","","","","","",""
"","","","","","image-keyboard-response","267","683159","0.0-242.0","5fc5ab0e7bad151445fc8594","665500ab8938657b03fbdba8","665789539ae495e94c1fe00f","231","stimuli/00100100.jpg"," ","","feedback_trial","0","","","","","","","","","","","","","","","","","","","","",""
"","","","","","image-keyboard-response","268","683935","0.0-243.0","5fc5ab0e7bad151445fc8594","665500ab8938657b03fbdba8","665789539ae495e94c1fe00f","772","stimuli/2010000.jpg","2","","prediction_trial","2","","true","","2","true","true","true","true","true","true","[2]","010","000","1","","","","","","",""
"","","","","","image-keyboard-response","269","684135","0.0-244.0","5fc5ab0e7bad151445fc8594","665500ab8938657b03fbdba8","665789539ae495e94c1fe00f","199","stimuli/20100002.jpg"," ","","feedback_trial","2","","","","","","","","","","","","","","","","","","","","",""
"","","","","","image-keyboard-response","270","684886","0.0-245.0","5fc5ab0e7bad151445fc8594","665500ab8938657b03fbdba8","665789539ae495e94c1fe00f","751","stimuli/1100111.jpg","0","","prediction_trial","1","","false","","1","false","false","true","true","false","false","[1]","100","111","0","","","","","","",""
"","","","","","image-keyboard-response","271","685511","0.0-246.0","5fc5ab0e7bad151445fc8594","665500ab8938657b03fbdba8","665789539ae495e94c1fe00f","623","stimuli/11001111.jpg"," ","","feedback_trial","1","","","","","","","","","","","","","","","","","","","","",""
"","","","","","image-keyboard-response","272","686575","0.0-247.0","5fc5ab0e7bad151445fc8594","665500ab8938657b03fbdba8","665789539ae495e94c1fe00f","1064","stimuli/2000001.jpg","2","","prediction_trial","2","","true","","2","false","true","true","true","false","true","[2]","000","001","1","","","","","","",""
"","","","","","image-keyboard-response","273","686823","0.0-248.0","5fc5ab0e7bad151445fc8594","665500ab8938657b03fbdba8","665789539ae495e94c1fe00f","247","stimuli/20000012.jpg"," ","","feedback_trial","2","","","","","","","","","","","","","","","","","","","","",""
"","","","","","image-keyboard-response","274","687615","0.0-249.0","5fc5ab0e7bad151445fc8594","665500ab8938657b03fbdba8","665789539ae495e94c1fe00f","791","stimuli/0101110.jpg","2","","prediction_trial","2","","true","","0","false","false","false","false","false","false","[2,0]","101","110","1","","","","","","",""
"","","","","","image-keyboard-response","275","687831","0.0-250.0","5fc5ab0e7bad151445fc8594","665500ab8938657b03fbdba8","665789539ae495e94c1fe00f","215","stimuli/01011102.jpg"," ","","feedback_trial","2","","","","","","","","","","","","","","","","","","","","",""
"","","","","","image-keyboard-response","276","688647","0.0-251.0","5fc5ab0e7bad151445fc8594","665500ab8938657b03fbdba8","665789539ae495e94c1fe00f","815","stimuli/2110100.jpg","2","","prediction_trial","2","","true","","2","true","true","true","true","true","true","[2]","110","100","1","","","","","","",""
"","","","","","image-keyboard-response","277","688887","0.0-252.0","5fc5ab0e7bad151445fc8594","665500ab8938657b03fbdba8","665789539ae495e94c1fe00f","239","stimuli/21101002.jpg"," ","","feedback_trial","2","","","","","","","","","","","","","","","","","","","","",""
"","","","","","image-keyboard-response","278","689534","0.0-253.0","5fc5ab0e7bad151445fc8594","665500ab8938657b03fbdba8","665789539ae495e94c1fe00f","647","stimuli/0101111.jpg","2","","prediction_trial","0","","false","","0","false","false","false","false","false","false","[0,2]","101","111","0","","","","","","",""
"","","","","","image-keyboard-response","279","689822","0.0-254.0","5fc5ab0e7bad151445fc8594","665500ab8938657b03fbdba8","665789539ae495e94c1fe00f","287","stimuli/01011110.jpg"," ","","feedback_trial","0","","","","","","","","","","","","","","","","","","","","",""
"","","","","","image-keyboard-response","280","690415","0.0-255.0","5fc5ab0e7bad151445fc8594","665500ab8938657b03fbdba8","665789539ae495e94c1fe00f","592","stimuli/0111100.jpg","1","","prediction_trial","1","","true","","0","false","true","false","false","false","false","[1,2,0]","111","100","1","","","","","","",""
"","","","","","image-keyboard-response","281","690694","0.0-256.0","5fc5ab0e7bad151445fc8594","665500ab8938657b03fbdba8","665789539ae495e94c1fe00f","279","stimuli/01111001.jpg"," ","","feedback_trial","1","","","","","","","","","","","","","","","","","","","","",""
"","","","","","image-keyboard-response","282","691343","0.0-257.0","5fc5ab0e7bad151445fc8594","665500ab8938657b03fbdba8","665789539ae495e94c1fe00f","648","stimuli/1110101.jpg","1","","prediction_trial","0","","false","","1","true","true","false","false","false","false","[1,0]","110","101","0","","","","","","",""
"","","","","","image-keyboard-response","283","691599","0.0-258.0","5fc5ab0e7bad151445fc8594","665500ab8938657b03fbdba8","665789539ae495e94c1fe00f","255","stimuli/11101010.jpg"," ","","feedback_trial","1","","","","","","","","","","","","","","","","","","","","",""
"","","","","","image-keyboard-response","284","692255","0.0-259.0","5fc5ab0e7bad151445fc8594","665500ab8938657b03fbdba8","665789539ae495e94c1fe00f","655","stimuli/0011000.jpg","0","","prediction_trial","0","","true","","0","true","true","true","true","true","true","[0]","011","000","1","","","","","","",""
"","","","","","image-keyboard-response","285","692535","0.0-260.0","5fc5ab0e7bad151445fc8594","665500ab8938657b03fbdba8","665789539ae495e94c1fe00f","279","stimuli/00110000.jpg"," ","","feedback_trial","0","","","","","","","","","","","","","","","","","","","","",""
"","","","","","image-keyboard-response","286","693167","0.0-261.0","5fc5ab0e7bad151445fc8594","665500ab8938657b03fbdba8","665789539ae495e94c1fe00f","631","stimuli/1110001.jpg","1","","prediction_trial","1","","true","","1","true","true","false","false","false","false","[0,1]","110","001","1","","","","","","",""
"","","","","","image-keyboard-response","287","693462","0.0-262.0","5fc5ab0e7bad151445fc8594","665500ab8938657b03fbdba8","665789539ae495e94c1fe00f","295","stimuli/11100011.jpg"," ","","feedback_trial","0","","","","","","","","","","","","","","","","","","","","",""
"","","","","","image-keyboard-response","288","694119","0.0-263.0","5fc5ab0e7bad151445fc8594","665500ab8938657b03fbdba8","665789539ae495e94c1fe00f","655","stimuli/0010101.jpg","1","","prediction_trial","0","","false","","0","false","false","true","true","false","false","[0]","010","101","0","","","","","","",""
"","","","","","image-keyboard-response","289","694391","0.0-264.0","5fc5ab0e7bad151445fc8594","665500ab8938657b03fbdba8","665789539ae495e94c1fe00f","271","stimuli/00101010.jpg"," ","","feedback_trial","0","","","","","","","","","","","","","","","","","","","","",""
"","","","","","image-keyboard-response","290","695095","0.0-265.0","5fc5ab0e7bad151445fc8594","665500ab8938657b03fbdba8","665789539ae495e94c1fe00f","700","stimuli/1100001.jpg","1","","prediction_trial","1","","true","","1","true","true","true","true","true","true","[1]","100","001","1","","","","","","",""
"","","","","","image-keyboard-response","291","695663","0.0-266.0","5fc5ab0e7bad151445fc8594","665500ab8938657b03fbdba8","665789539ae495e94c1fe00f","567","stimuli/11000011.jpg"," ","","feedback_trial","1","","","","","","","","","","","","","","","","","","","","",""
"","","","","","image-keyboard-response","292","696382","0.0-267.0","5fc5ab0e7bad151445fc8594","665500ab8938657b03fbdba8","665789539ae495e94c1fe00f","719","stimuli/2001011.jpg","2","","prediction_trial","2","","true","","2","false","false","false","true","false","false","[2]","001","011","1","","","","","","",""
"","","","","","image-keyboard-response","293","696615","0.0-268.0","5fc5ab0e7bad151445fc8594","665500ab8938657b03fbdba8","665789539ae495e94c1fe00f","232","stimuli/20010112.jpg"," ","","feedback_trial","2","","","","","","","","","","","","","","","","","","","","",""
"","","","","","image-keyboard-response","294","697431","0.0-269.0","5fc5ab0e7bad151445fc8594","665500ab8938657b03fbdba8","665789539ae495e94c1fe00f","815","stimuli/0111010.jpg","0","","prediction_trial","2","","false","","0","true","true","false","false","false","false","[0,1,2]","111","010","0","","","","","","",""
"","","","","","image-keyboard-response","295","697583","0.0-270.0","5fc5ab0e7bad151445fc8594","665500ab8938657b03fbdba8","665789539ae495e94c1fe00f","151","stimuli/01110102.jpg"," ","","feedback_trial","0","","","","","","","","","","","","","","","","","","","","",""
"","","","","","image-keyboard-response","296","697983","0.0-271.0","5fc5ab0e7bad151445fc8594","665500ab8938657b03fbdba8","665789539ae495e94c1fe00f","399","stimuli/2001010.jpg","0","","prediction_trial","2","","false","","2","true","true","false","true","false","true","[2]","001","010","0","","","","","","",""
"","","","","","image-keyboard-response","297","699399","0.0-272.0","5fc5ab0e7bad151445fc8594","665500ab8938657b03fbdba8","665789539ae495e94c1fe00f","1415","stimuli/20010102.jpg"," ","","feedback_trial","2","","","","","","","","","","","","","","","","","","","","",""
"","","","","","image-keyboard-response","298","700535","0.0-273.0","5fc5ab0e7bad151445fc8594","665500ab8938657b03fbdba8","665789539ae495e94c1fe00f","1135","stimuli/0110001.jpg","1","","prediction_trial","1","","true","","0","true","true","false","false","false","false","[1,0]","110","001","1","","","","","","",""
"","","","","","image-keyboard-response","299","700831","0.0-274.0","5fc5ab0e7bad151445fc8594","665500ab8938657b03fbdba8","665789539ae495e94c1fe00f","295","stimuli/01100011.jpg"," ","","feedback_trial","1","","","","","","","","","","","","","","","","","","","","",""
"","","","","","image-keyboard-response","300","701575","0.0-275.0","5fc5ab0e7bad151445fc8594","665500ab8938657b03fbdba8","665789539ae495e94c1fe00f","743","stimuli/1010000.jpg","1","","prediction_trial","1","","true","","1","true","true","false","true","false","true","[1]","010","000","1","","","","","","",""
"","","","","","image-keyboard-response","301","701999","0.0-276.0","5fc5ab0e7bad151445fc8594","665500ab8938657b03fbdba8","665789539ae495e94c1fe00f","423","stimuli/10100001.jpg"," ","","feedback_trial","1","","","","","","","","","","","","","","","","","","","","",""
"","","","","","image-keyboard-response","302","702807","0.0-277.0","5fc5ab0e7bad151445fc8594","665500ab8938657b03fbdba8","665789539ae495e94c1fe00f","807","stimuli/2010100.jpg","2","","prediction_trial","2","","true","","2","true","true","true","true","true","true","[2]","010","100","1","","","","","","",""
"","","","","","image-keyboard-response","303","702999","0.0-278.0","5fc5ab0e7bad151445fc8594","665500ab8938657b03fbdba8","665789539ae495e94c1fe00f","191","stimuli/20101002.jpg"," ","","feedback_trial","2","","","","","","","","","","","","","","","","","","","","",""
"","","","","","image-keyboard-response","304","703671","0.0-279.0","5fc5ab0e7bad151445fc8594","665500ab8938657b03fbdba8","665789539ae495e94c1fe00f","671","stimuli/2111100.jpg","2","","prediction_trial","0","","false","","2","true","true","false","false","false","false","[1,0,2]","111","100","0","","","","","","",""
"","","","","","image-keyboard-response","305","704039","0.0-280.0","5fc5ab0e7bad151445fc8594","665500ab8938657b03fbdba8","665789539ae495e94c1fe00f","367","stimuli/21111000.jpg"," ","","feedback_trial","1","","","","","","","","","","","","","","","","","","","","",""
"","","","","","image-keyboard-response","306","704463","0.0-281.0","5fc5ab0e7bad151445fc8594","665500ab8938657b03fbdba8","665789539ae495e94c1fe00f","423","stimuli/0000111.jpg","1","","prediction_trial","0","","false","","0","false","false","true","true","false","false","[0]","000","111","0","","","","","","",""
"","","","","","image-keyboard-response","307","704727","0.0-282.0","5fc5ab0e7bad151445fc8594","665500ab8938657b03fbdba8","665789539ae495e94c1fe00f","263","stimuli/00001110.jpg"," ","","feedback_trial","0","","","","","","","","","","","","","","","","","","","","",""
"","","","","","image-keyboard-response","308","705071","0.0-283.0","5fc5ab0e7bad151445fc8594","665500ab8938657b03fbdba8","665789539ae495e94c1fe00f","343","stimuli/1011011.jpg","1","","prediction_trial","2","","false","","1","false","false","false","false","false","false","[2,1]","011","011","0","","","","","","",""
"","","","","","image-keyboard-response","309","705287","0.0-284.0","5fc5ab0e7bad151445fc8594","665500ab8938657b03fbdba8","665789539ae495e94c1fe00f","215","stimuli/10110112.jpg"," ","","feedback_trial","2","","","","","","","","","","","","","","","","","","","","",""
"","","","","","image-keyboard-response","310","706119","0.0-285.0","5fc5ab0e7bad151445fc8594","665500ab8938657b03fbdba8","665789539ae495e94c1fe00f","831","stimuli/2101100.jpg","2","","prediction_trial","0","","false","","2","true","true","false","false","false","false","[2,0]","101","100","0","","","","","","",""
"","","","","","image-keyboard-response","311","706367","0.0-286.0","5fc5ab0e7bad151445fc8594","665500ab8938657b03fbdba8","665789539ae495e94c1fe00f","247","stimuli/21011000.jpg"," ","","feedback_trial","2","","","","","","","","","","","","","","","","","","","","",""
"","","","","","image-keyboard-response","312","707247","0.0-287.0","5fc5ab0e7bad151445fc8594","665500ab8938657b03fbdba8","665789539ae495e94c1fe00f","876","stimuli/2011001.jpg","1","","prediction_trial","2","","false","","2","false","true","false","false","false","false","[2,1]","011","001","0","","","","","","",""
"","","","","","image-keyboard-response","313","707575","0.0-288.0","5fc5ab0e7bad151445fc8594","665500ab8938657b03fbdba8","665789539ae495e94c1fe00f","327","stimuli/20110012.jpg"," ","","feedback_trial","2","","","","","","","","","","","","","","","","","","","","",""
"","","","","","image-keyboard-response","314","708382","0.0-289.0","5fc5ab0e7bad151445fc8594","665500ab8938657b03fbdba8","665789539ae495e94c1fe00f","807","stimuli/0111000.jpg","1","","prediction_trial","0","","false","","0","true","true","false","false","false","false","[2,0,1]","111","000","0","","","","","","",""
"","","","","","image-keyboard-response","315","708670","0.0-290.0","5fc5ab0e7bad151445fc8594","665500ab8938657b03fbdba8","665789539ae495e94c1fe00f","287","stimuli/01110000.jpg"," ","","feedback_trial","2","","","","","","","","","","","","","","","","","","","","",""
"","","","","","image-keyboard-response","316","709367","0.0-291.0","5fc5ab0e7bad151445fc8594","665500ab8938657b03fbdba8","665789539ae495e94c1fe00f","696","stimuli/1101000.jpg","1","","prediction_trial","1","","true","","1","true","true","true","true","true","true","[1]","101","000","1","","","","","","",""
"","","","","","image-keyboard-response","317","709695","0.0-292.0","5fc5ab0e7bad151445fc8594","665500ab8938657b03fbdba8","665789539ae495e94c1fe00f","327","stimuli/11010001.jpg"," ","","feedback_trial","1","","","","","","","","","","","","","","","","","","","","",""
"","","","","","survey-html-form","318","737540","0.0-293.0","5fc5ab0e7bad151445fc8594","665500ab8938657b03fbdba8","665789539ae495e94c1fe00f","27840","","{""feedback"":""If it was hidden I just guessed"",""age"":""32"",""gender"":""Male"",""other_gender"":"""",""race"":""White"",""other_race"":"""",""ethnicity"":""Non-Hispanic""}","","exit_survey","","","","","","","","","","","","","","","","If it was hidden I just guessed","32","Non-Hispanic","Male","White","0.4930555555555556","0.4930555555555556"
