"success","timeout","failed_images","failed_audio","failed_video","trial_type","trial_index","time_elapsed","internal_node_id","prolific_id","prolific_study_id","prolific_session_id","rt","stimulus","response","view_history","trial","character_choice","stimulus_dict","accuracy","correct_response","ball_pos","ego_ball_visible","ego_can_infer","alter_ball_visible","alter_can_infer","collective_ball_visible","collective_can_infer","search_locations","alter_occluders","ego_occluders","accuracy_bool","feedback","age","ethnicity","gender","race","overall_accuracy","bonus"
"true","false","[]","[]","[]","preload","0","4045","0.0-0.0","5834a80a106ee1000120abd3","665500ab8938657b03fbdba8","66577efee2ba9ae37d367378","","","","","","","","","","","","","","","","","","","","","","","","","","",""
"true","","","","","fullscreen","1","33336","0.0-1.0","5834a80a106ee1000120abd3","665500ab8938657b03fbdba8","66577efee2ba9ae37d367378","","","","","","","","","","","","","","","","","","","","","","","","","","",""
"","","","","","html-button-response","2","62119","0.0-2.0","5834a80a106ee1000120abd3","665500ab8938657b03fbdba8","66577efee2ba9ae37d367378","28779","<p><b>Consent Form</b></p> <div style=""text-align:left;background-color:lightgrey; padding:20px; max-width:900px;""><p>Please consider this information carefully before deciding whether to participate in this research.</p> <p>The purpose of this research is to examine which factors influence social judgment and decision-making. You will be asked to make judgements about individuals and actions in social scenarios. We are simply interested in your judgement. The study will take less than 1 hour to complete, and you will receive less than $20 on Prolific. Your compensation and time commitment are specified in the study description. There are no anticipated risks associated with participating in this study. The effects of participating should be comparable to those you would ordinarily experience from viewing a computer monitor and using a mouse or keyboard for a similar amount of time. At the end of the study, we will provide an explanation of the questions that motivate this line of research and will describe the potential implications. </p><p> Your participation in this study is completely voluntary and you may refuse to participate or you may choose to withdraw at any time without penalty or loss of benefits to you which are otherwise entitled. Your participation in this study will remain confidential. No personally identifiable information will be associated with your data. Also, all analyses of the data will be averaged across all the participants, so your individual responses will never be specifically analyzed. </p><p> If you have questions or concerns about your participation or payment, or want to request a summary of research findings, please contact Dr. Jonathan Phillips at Jonathan.S.Phillips@dartmouth.edu. </p><p> Please save a copy of this form for your records. </p><p><b>Agreement: </b>The nature and purpose of this research have been sufficiently explained and I agree to participate in this study. I understand that I am free to withdraw at any time without incurring any penalty. Please consent by clicking the button below to continue. Otherwise, please exit the study at any time. </p>","0","","","","","","","","","","","","","","","","","","","","","","","",""
"","","","","","instructions","3","133509","0.0-3.0-0.0","5834a80a106ee1000120abd3","665500ab8938657b03fbdba8","66577efee2ba9ae37d367378","71389","","","[{""page_index"":0,""viewing_time"":3328},{""page_index"":1,""viewing_time"":3674},{""page_index"":2,""viewing_time"":3588},{""page_index"":3,""viewing_time"":8942},{""page_index"":4,""viewing_time"":4998},{""page_index"":5,""viewing_time"":3432},{""page_index"":6,""viewing_time"":5782},{""page_index"":7,""viewing_time"":3892},{""page_index"":8,""viewing_time"":4848},{""page_index"":9,""viewing_time"":3752},{""page_index"":10,""viewing_time"":11666},{""page_index"":11,""viewing_time"":6818},{""page_index"":12,""viewing_time"":4878},{""page_index"":13,""viewing_time"":1790}]","intro","","","","","","","","","","","","","","","","","","","","","",""
"","","","","","image-keyboard-response","4","137353","0.0-3.0-1.0","5834a80a106ee1000120abd3","665500ab8938657b03fbdba8","66577efee2ba9ae37d367378","3842","stimuli/0100010.jpg","1","","prediction_practice","0","{""filepath"":""stimuli/0100010.jpg"",""ball_pos"":0,""ego_ball_visible"":true,""ego_can_infer"":true,""alter_ball_visible"":false,""alter_can_infer"":true,""collective_ball_visible"":false,""collective_can_infer"":true,""search_locations"":[0],""alter_occluders"":""100"",""ego_occluders"":""010""}","false","","","","","","","","","","","","","","","","","","",""
"","","","","","image-keyboard-response","5","142242","0.0-3.0-2.0","5834a80a106ee1000120abd3","665500ab8938657b03fbdba8","66577efee2ba9ae37d367378","4886","stimuli/01000100.jpg"," ","","practrice_feedback","0","","","","","","","","","","","","","","","","","","","","",""
"","","","","","image-keyboard-response","6","144881","0.0-3.0-3.0","5834a80a106ee1000120abd3","665500ab8938657b03fbdba8","66577efee2ba9ae37d367378","2635","stimuli/0010000.jpg","0","","prediction_practice","0","{""filepath"":""stimuli/0010000.jpg"",""ball_pos"":0,""ego_ball_visible"":true,""ego_can_infer"":true,""alter_ball_visible"":true,""alter_can_infer"":true,""collective_ball_visible"":true,""collective_can_infer"":true,""search_locations"":[0],""alter_occluders"":""010"",""ego_occluders"":""000""}","true","","","","","","","","","","","","","","","","","","",""
"","","","","","image-keyboard-response","7","146561","0.0-3.0-4.0","5834a80a106ee1000120abd3","665500ab8938657b03fbdba8","66577efee2ba9ae37d367378","1679","stimuli/00100000.jpg"," ","","practrice_feedback","0","","","","","","","","","","","","","","","","","","","","",""
"","","","","","image-keyboard-response","8","149067","0.0-3.0-5.0","5834a80a106ee1000120abd3","665500ab8938657b03fbdba8","66577efee2ba9ae37d367378","2503","stimuli/0010100.jpg","0","","prediction_practice","0","{""filepath"":""stimuli/0010100.jpg"",""ball_pos"":0,""ego_ball_visible"":false,""ego_can_infer"":true,""alter_ball_visible"":true,""alter_can_infer"":true,""collective_ball_visible"":false,""collective_can_infer"":true,""search_locations"":[0],""alter_occluders"":""010"",""ego_occluders"":""100""}","true","","","","","","","","","","","","","","","","","","",""
"","","","","","image-keyboard-response","9","150840","0.0-3.0-6.0","5834a80a106ee1000120abd3","665500ab8938657b03fbdba8","66577efee2ba9ae37d367378","1772","stimuli/00101000.jpg"," ","","practrice_feedback","0","","","","","","","","","","","","","","","","","","","","",""
"","","","","","image-keyboard-response","10","153554","0.0-3.0-7.0","5834a80a106ee1000120abd3","665500ab8938657b03fbdba8","66577efee2ba9ae37d367378","2711","stimuli/1111010.jpg","1","","prediction_practice","0","{""filepath"":""stimuli/1111010.jpg"",""ball_pos"":1,""ego_ball_visible"":false,""ego_can_infer"":true,""alter_ball_visible"":false,""alter_can_infer"":false,""collective_ball_visible"":false,""collective_can_infer"":false,""search_locations"":[1,0,2],""alter_occluders"":""111"",""ego_occluders"":""010""}","false","","","","","","","","","","","","","","","","","","",""
"","","","","","image-keyboard-response","11","157801","0.0-3.0-8.0","5834a80a106ee1000120abd3","665500ab8938657b03fbdba8","66577efee2ba9ae37d367378","4246","stimuli/11110100.jpg"," ","","practrice_feedback","1","","","","","","","","","","","","","","","","","","","","",""
"","","","","","image-keyboard-response","12","163353","0.0-3.0-9.0","5834a80a106ee1000120abd3","665500ab8938657b03fbdba8","66577efee2ba9ae37d367378","5549","stimuli/0110111.jpg","1","","prediction_practice","1","{""filepath"":""stimuli/0110111.jpg"",""ball_pos"":0,""ego_ball_visible"":false,""ego_can_infer"":false,""alter_ball_visible"":false,""alter_can_infer"":false,""collective_ball_visible"":false,""collective_can_infer"":false,""search_locations"":[0,1],""alter_occluders"":""110"",""ego_occluders"":""111""}","true","","","","","","","","","","","","","","","","","","",""
"","","","","","image-keyboard-response","13","168842","0.0-3.0-10.0","5834a80a106ee1000120abd3","665500ab8938657b03fbdba8","66577efee2ba9ae37d367378","5486","stimuli/01101111.jpg"," ","","practrice_feedback","0","","","","","","","","","","","","","","","","","","","","",""
"","","","","","image-keyboard-response","14","175088","0.0-3.0-11.0","5834a80a106ee1000120abd3","665500ab8938657b03fbdba8","66577efee2ba9ae37d367378","6244","stimuli/1001110.jpg","1","","prediction_practice","1","{""filepath"":""stimuli/1001110.jpg"",""ball_pos"":1,""ego_ball_visible"":false,""ego_can_infer"":false,""alter_ball_visible"":true,""alter_can_infer"":true,""collective_ball_visible"":false,""collective_can_infer"":false,""search_locations"":[1],""alter_occluders"":""001"",""ego_occluders"":""110""}","true","","","","","","","","","","","","","","","","","","",""
"","","","","","image-keyboard-response","15","177745","0.0-3.0-12.0","5834a80a106ee1000120abd3","665500ab8938657b03fbdba8","66577efee2ba9ae37d367378","2655","stimuli/10011101.jpg"," ","","practrice_feedback","1","","","","","","","","","","","","","","","","","","","","",""
"","","","","","image-keyboard-response","16","185825","0.0-3.0-13.0","5834a80a106ee1000120abd3","665500ab8938657b03fbdba8","66577efee2ba9ae37d367378","8042","stimuli/2000101.jpg","2","","prediction_practice","2","{""filepath"":""stimuli/2000101.jpg"",""ball_pos"":2,""ego_ball_visible"":false,""ego_can_infer"":false,""alter_ball_visible"":true,""alter_can_infer"":true,""collective_ball_visible"":false,""collective_can_infer"":false,""search_locations"":[2],""alter_occluders"":""000"",""ego_occluders"":""101""}","true","","","","","","","","","","","","","","","","","","",""
"","","","","","image-keyboard-response","17","187849","0.0-3.0-14.0","5834a80a106ee1000120abd3","665500ab8938657b03fbdba8","66577efee2ba9ae37d367378","2023","stimuli/20001012.jpg"," ","","practrice_feedback","2","","","","","","","","","","","","","","","","","","","","",""
"","","","","","image-keyboard-response","18","189553","0.0-3.0-15.0","5834a80a106ee1000120abd3","665500ab8938657b03fbdba8","66577efee2ba9ae37d367378","1702","stimuli/1011101.jpg","1","","prediction_practice","2","{""filepath"":""stimuli/1011101.jpg"",""ball_pos"":1,""ego_ball_visible"":true,""ego_can_infer"":true,""alter_ball_visible"":false,""alter_can_infer"":false,""collective_ball_visible"":false,""collective_can_infer"":false,""search_locations"":[2,1],""alter_occluders"":""011"",""ego_occluders"":""101""}","false","","","","","","","","","","","","","","","","","","",""
"","","","","","image-keyboard-response","19","191673","0.0-3.0-16.0","5834a80a106ee1000120abd3","665500ab8938657b03fbdba8","66577efee2ba9ae37d367378","2119","stimuli/10111012.jpg"," ","","practrice_feedback","2","","","","","","","","","","","","","","","","","","","","",""
"","","","","","image-keyboard-response","20","195559","0.0-3.0-17.0","5834a80a106ee1000120abd3","665500ab8938657b03fbdba8","66577efee2ba9ae37d367378","3884","stimuli/0100101.jpg","0","","prediction_practice","0","{""filepath"":""stimuli/0100101.jpg"",""ball_pos"":0,""ego_ball_visible"":false,""ego_can_infer"":false,""alter_ball_visible"":false,""alter_can_infer"":true,""collective_ball_visible"":false,""collective_can_infer"":false,""search_locations"":[0],""alter_occluders"":""100"",""ego_occluders"":""101""}","true","","","","","","","","","","","","","","","","","","",""
"","","","","","image-keyboard-response","21","197744","0.0-3.0-18.0","5834a80a106ee1000120abd3","665500ab8938657b03fbdba8","66577efee2ba9ae37d367378","2184","stimuli/01001010.jpg"," ","","practrice_feedback","0","","","","","","","","","","","","","","","","","","","","",""
"","","","","","image-keyboard-response","22","200145","0.0-3.0-19.0","5834a80a106ee1000120abd3","665500ab8938657b03fbdba8","66577efee2ba9ae37d367378","2399","stimuli/1100111.jpg","0","","prediction_practice","1","{""filepath"":""stimuli/1100111.jpg"",""ball_pos"":1,""ego_ball_visible"":false,""ego_can_infer"":false,""alter_ball_visible"":true,""alter_can_infer"":true,""collective_ball_visible"":false,""collective_can_infer"":false,""search_locations"":[1],""alter_occluders"":""100"",""ego_occluders"":""111""}","false","","","","","","","","","","","","","","","","","","",""
"","","","","","image-keyboard-response","23","204857","0.0-3.0-20.0","5834a80a106ee1000120abd3","665500ab8938657b03fbdba8","66577efee2ba9ae37d367378","4710","stimuli/11001111.jpg"," ","","practrice_feedback","1","","","","","","","","","","","","","","","","","","","","",""
"","","","","","html-button-response","24","214140","0.0-3.0-21.0","5834a80a106ee1000120abd3","665500ab8938657b03fbdba8","66577efee2ba9ae37d367378","9282","Now that you've had some practice, you'll be tested with a couple of easy trials. If you correctly predict Sam's choice, you'll move on to complete the experiment!","0","","","","","","","","","","","","","","","","","","","","","","","",""
"","","","","","image-keyboard-response","25","218184","0.0-3.0-22.0-0.0","5834a80a106ee1000120abd3","665500ab8938657b03fbdba8","66577efee2ba9ae37d367378","4031","stimuli/0000011.jpg","arrowleft","","comprehension_quiz","","","true","arrowleft","","","","","","","","","","","","","","","","","",""
"","","","","","image-keyboard-response","26","219505","0.0-3.0-22.0-1.0","5834a80a106ee1000120abd3","665500ab8938657b03fbdba8","66577efee2ba9ae37d367378","1319","stimuli/00000110.jpg"," ","","comprehension_quiz","","","true"," ","","","","","","","","","","","","","","","","","",""
"","","","","","image-keyboard-response","27","222640","0.0-3.0-22.0-2.0","5834a80a106ee1000120abd3","665500ab8938657b03fbdba8","66577efee2ba9ae37d367378","3134","stimuli/1010010.jpg","arrowdown","","comprehension_quiz","","","true","arrowdown","","","","","","","","","","","","","","","","","",""
"","","","","","image-keyboard-response","28","224049","0.0-3.0-22.0-3.0","5834a80a106ee1000120abd3","665500ab8938657b03fbdba8","66577efee2ba9ae37d367378","1406","stimuli/10100101.jpg"," ","","comprehension_quiz","","","true"," ","","","","","","","","","","","","","","","","","",""
"","","","","","html-button-response","29","226568","0.0-4.0","5834a80a106ee1000120abd3","665500ab8938657b03fbdba8","66577efee2ba9ae37d367378","2515","The experiment will now begin.","0","","","","","","","","","","","","","","","","","","","","","","","",""
"","","","","","image-keyboard-response","30","231464","0.0-5.0","5834a80a106ee1000120abd3","665500ab8938657b03fbdba8","66577efee2ba9ae37d367378","4894","stimuli/2001010.jpg","2","","prediction_trial","2","","true","","2","true","true","false","true","false","true","[2]","001","010","1","","","","","","",""
"","","","","","image-keyboard-response","31","233321","0.0-6.0","5834a80a106ee1000120abd3","665500ab8938657b03fbdba8","66577efee2ba9ae37d367378","1855","stimuli/20010102.jpg"," ","","feedback_trial","2","","","","","","","","","","","","","","","","","","","","",""
"","","","","","image-keyboard-response","32","240425","0.0-7.0","5834a80a106ee1000120abd3","665500ab8938657b03fbdba8","66577efee2ba9ae37d367378","7102","stimuli/1100010.jpg","1","","prediction_trial","1","","true","","1","false","true","true","true","false","true","[1]","100","010","1","","","","","","",""
"","","","","","image-keyboard-response","33","241825","0.0-8.0","5834a80a106ee1000120abd3","665500ab8938657b03fbdba8","66577efee2ba9ae37d367378","1397","stimuli/11000101.jpg"," ","","feedback_trial","1","","","","","","","","","","","","","","","","","","","","",""
"","","","","","image-keyboard-response","34","246225","0.0-9.0","5834a80a106ee1000120abd3","665500ab8938657b03fbdba8","66577efee2ba9ae37d367378","4362","stimuli/2001001.jpg","2","","prediction_trial","2","","true","","2","false","true","false","true","false","true","[2]","001","001","1","","","","","","",""
"","","","","","image-keyboard-response","35","247641","0.0-10.0","5834a80a106ee1000120abd3","665500ab8938657b03fbdba8","66577efee2ba9ae37d367378","1413","stimuli/20010012.jpg"," ","","feedback_trial","2","","","","","","","","","","","","","","","","","","","","",""
"","","","","","image-keyboard-response","36","250585","0.0-11.0","5834a80a106ee1000120abd3","665500ab8938657b03fbdba8","66577efee2ba9ae37d367378","2942","stimuli/0110001.jpg","0","","prediction_trial","0","","true","","0","true","true","false","false","false","false","[0,1]","110","001","1","","","","","","",""
"","","","","","image-keyboard-response","37","251992","0.0-12.0","5834a80a106ee1000120abd3","665500ab8938657b03fbdba8","66577efee2ba9ae37d367378","1405","stimuli/01100010.jpg"," ","","feedback_trial","0","","","","","","","","","","","","","","","","","","","","",""
"","","","","","image-keyboard-response","38","265202","0.0-13.0","5834a80a106ee1000120abd3","665500ab8938657b03fbdba8","66577efee2ba9ae37d367378","13208","stimuli/1001011.jpg","1","","prediction_trial","1","","true","","1","false","false","true","true","false","false","[1]","001","011","1","","","","","","",""
"","","","","","image-keyboard-response","39","266648","0.0-14.0","5834a80a106ee1000120abd3","665500ab8938657b03fbdba8","66577efee2ba9ae37d367378","1445","stimuli/10010111.jpg"," ","","feedback_trial","1","","","","","","","","","","","","","","","","","","","","",""
"","","","","","image-keyboard-response","40","269352","0.0-15.0","5834a80a106ee1000120abd3","665500ab8938657b03fbdba8","66577efee2ba9ae37d367378","2702","stimuli/0000100.jpg","0","","prediction_trial","0","","true","","0","false","true","true","true","false","true","[0]","000","100","1","","","","","","",""
"","","","","","image-keyboard-response","41","270808","0.0-16.0","5834a80a106ee1000120abd3","665500ab8938657b03fbdba8","66577efee2ba9ae37d367378","1455","stimuli/00001000.jpg"," ","","feedback_trial","0","","","","","","","","","","","","","","","","","","","","",""
"","","","","","image-keyboard-response","42","276777","0.0-17.0","5834a80a106ee1000120abd3","665500ab8938657b03fbdba8","66577efee2ba9ae37d367378","5954","stimuli/0111101.jpg","0","","prediction_trial","2","","false","","0","false","false","false","false","false","false","[1,2,0]","111","101","0","","","","","","",""
"","","","","","image-keyboard-response","43","279457","0.0-18.0","5834a80a106ee1000120abd3","665500ab8938657b03fbdba8","66577efee2ba9ae37d367378","2677","stimuli/01111012.jpg"," ","","feedback_trial","1","","","","","","","","","","","","","","","","","","","","",""
"","","","","","image-keyboard-response","44","280889","0.0-19.0","5834a80a106ee1000120abd3","665500ab8938657b03fbdba8","66577efee2ba9ae37d367378","1430","stimuli/2011010.jpg","2","","prediction_trial","2","","true","","2","true","true","false","false","false","false","[2,1]","011","010","1","","","","","","",""
"","","","","","image-keyboard-response","45","282401","0.0-20.0","5834a80a106ee1000120abd3","665500ab8938657b03fbdba8","66577efee2ba9ae37d367378","1510","stimuli/20110102.jpg"," ","","feedback_trial","2","","","","","","","","","","","","","","","","","","","","",""
"","","","","","image-keyboard-response","46","283833","0.0-21.0","5834a80a106ee1000120abd3","665500ab8938657b03fbdba8","66577efee2ba9ae37d367378","1430","stimuli/1100000.jpg","1","","prediction_trial","1","","true","","1","true","true","true","true","true","true","[1]","100","000","1","","","","","","",""
"","","","","","image-keyboard-response","47","285089","0.0-22.0","5834a80a106ee1000120abd3","665500ab8938657b03fbdba8","66577efee2ba9ae37d367378","1254","stimuli/11000001.jpg"," ","","feedback_trial","1","","","","","","","","","","","","","","","","","","","","",""
"","","","","","image-keyboard-response","48","289265","0.0-23.0","5834a80a106ee1000120abd3","665500ab8938657b03fbdba8","66577efee2ba9ae37d367378","4174","stimuli/0001110.jpg","1","","prediction_trial","0","","false","","0","false","false","true","true","false","false","[0]","001","110","0","","","","","","",""
"","","","","","image-keyboard-response","49","291033","0.0-24.0","5834a80a106ee1000120abd3","665500ab8938657b03fbdba8","66577efee2ba9ae37d367378","1765","stimuli/00011100.jpg"," ","","feedback_trial","0","","","","","","","","","","","","","","","","","","","","",""
"","","","","","image-keyboard-response","50","292304","0.0-25.0","5834a80a106ee1000120abd3","665500ab8938657b03fbdba8","66577efee2ba9ae37d367378","1236","stimuli/0101000.jpg","0","","prediction_trial","0","","true","","0","true","true","false","false","false","false","[2,0]","101","000","1","","","","","","",""
"","","","","","image-keyboard-response","51","293713","0.0-26.0","5834a80a106ee1000120abd3","665500ab8938657b03fbdba8","66577efee2ba9ae37d367378","1408","stimuli/01010000.jpg"," ","","feedback_trial","2","","","","","","","","","","","","","","","","","","","","",""
"","","","","","image-keyboard-response","52","295465","0.0-27.0","5834a80a106ee1000120abd3","665500ab8938657b03fbdba8","66577efee2ba9ae37d367378","1750","stimuli/1101010.jpg","1","","prediction_trial","1","","true","","1","false","true","true","true","false","true","[1]","101","010","1","","","","","","",""
"","","","","","image-keyboard-response","53","297040","0.0-28.0","5834a80a106ee1000120abd3","665500ab8938657b03fbdba8","66577efee2ba9ae37d367378","1574","stimuli/11010101.jpg"," ","","feedback_trial","1","","","","","","","","","","","","","","","","","","","","",""
"","","","","","image-keyboard-response","54","299097","0.0-29.0","5834a80a106ee1000120abd3","665500ab8938657b03fbdba8","66577efee2ba9ae37d367378","2055","stimuli/1110001.jpg","1","","prediction_trial","1","","true","","1","true","true","false","false","false","false","[0,1]","110","001","1","","","","","","",""
"","","","","","image-keyboard-response","55","300257","0.0-30.0","5834a80a106ee1000120abd3","665500ab8938657b03fbdba8","66577efee2ba9ae37d367378","1158","stimuli/11100011.jpg"," ","","feedback_trial","0","","","","","","","","","","","","","","","","","","","","",""
"","","","","","image-keyboard-response","56","301393","0.0-31.0","5834a80a106ee1000120abd3","665500ab8938657b03fbdba8","66577efee2ba9ae37d367378","1134","stimuli/2111001.jpg","2","","prediction_trial","2","","true","","2","false","true","false","false","false","false","[0,2,1]","111","001","1","","","","","","",""
"","","","","","image-keyboard-response","57","302905","0.0-32.0","5834a80a106ee1000120abd3","665500ab8938657b03fbdba8","66577efee2ba9ae37d367378","1510","stimuli/21110012.jpg"," ","","feedback_trial","0","","","","","","","","","","","","","","","","","","","","",""
"","","","","","image-keyboard-response","58","304768","0.0-33.0","5834a80a106ee1000120abd3","665500ab8938657b03fbdba8","66577efee2ba9ae37d367378","1825","stimuli/0100100.jpg","0","","prediction_trial","0","","true","","0","false","true","false","true","false","true","[0]","100","100","1","","","","","","",""
"","","","","","image-keyboard-response","59","306073","0.0-34.0","5834a80a106ee1000120abd3","665500ab8938657b03fbdba8","66577efee2ba9ae37d367378","1304","stimuli/01001000.jpg"," ","","feedback_trial","0","","","","","","","","","","","","","","","","","","","","",""
"","","","","","image-keyboard-response","60","307937","0.0-35.0","5834a80a106ee1000120abd3","665500ab8938657b03fbdba8","66577efee2ba9ae37d367378","1862","stimuli/0101111.jpg","0","","prediction_trial","2","","false","","0","false","false","false","false","false","false","[0,2]","101","111","0","","","","","","",""
"","","","","","image-keyboard-response","61","309888","0.0-36.0","5834a80a106ee1000120abd3","665500ab8938657b03fbdba8","66577efee2ba9ae37d367378","1949","stimuli/01011112.jpg"," ","","feedback_trial","0","","","","","","","","","","","","","","","","","","","","",""
"","","","","","image-keyboard-response","62","310929","0.0-37.0","5834a80a106ee1000120abd3","665500ab8938657b03fbdba8","66577efee2ba9ae37d367378","1040","stimuli/0100001.jpg","0","","prediction_trial","0","","true","","0","true","true","false","true","false","true","[0]","100","001","1","","","","","","",""
"","","","","","image-keyboard-response","63","312809","0.0-38.0","5834a80a106ee1000120abd3","665500ab8938657b03fbdba8","66577efee2ba9ae37d367378","1878","stimuli/01000010.jpg"," ","","feedback_trial","0","","","","","","","","","","","","","","","","","","","","",""
"","","","","","image-keyboard-response","64","315825","0.0-39.0","5834a80a106ee1000120abd3","665500ab8938657b03fbdba8","66577efee2ba9ae37d367378","3014","stimuli/1011111.jpg","0","","prediction_trial","2","","false","","1","false","false","false","false","false","false","[2,1]","011","111","0","","","","","","",""
"","","","","","image-keyboard-response","65","318065","0.0-40.0","5834a80a106ee1000120abd3","665500ab8938657b03fbdba8","66577efee2ba9ae37d367378","2237","stimuli/10111112.jpg"," ","","feedback_trial","2","","","","","","","","","","","","","","","","","","","","",""
"","","","","","image-keyboard-response","66","323161","0.0-41.0","5834a80a106ee1000120abd3","665500ab8938657b03fbdba8","66577efee2ba9ae37d367378","5070","stimuli/0001111.jpg","2","","prediction_trial","0","","false","","0","false","false","true","true","false","false","[0]","001","111","0","","","","","","",""
"","","","","","image-keyboard-response","67","324960","0.0-42.0","5834a80a106ee1000120abd3","665500ab8938657b03fbdba8","66577efee2ba9ae37d367378","1797","stimuli/00011110.jpg"," ","","feedback_trial","0","","","","","","","","","","","","","","","","","","","","",""
"","","","","","image-keyboard-response","68","327168","0.0-43.0","5834a80a106ee1000120abd3","665500ab8938657b03fbdba8","66577efee2ba9ae37d367378","2206","stimuli/1100111.jpg","1","","prediction_trial","1","","true","","1","false","false","true","true","false","false","[1]","100","111","1","","","","","","",""
"","","","","","image-keyboard-response","69","328545","0.0-44.0","5834a80a106ee1000120abd3","665500ab8938657b03fbdba8","66577efee2ba9ae37d367378","1376","stimuli/11001111.jpg"," ","","feedback_trial","1","","","","","","","","","","","","","","","","","","","","",""
"","","","","","image-keyboard-response","70","330361","0.0-45.0","5834a80a106ee1000120abd3","665500ab8938657b03fbdba8","66577efee2ba9ae37d367378","1813","stimuli/0011010.jpg","0","","prediction_trial","0","","true","","0","true","true","true","true","true","true","[0]","011","010","1","","","","","","",""
"","","","","","image-keyboard-response","71","331745","0.0-46.0","5834a80a106ee1000120abd3","665500ab8938657b03fbdba8","66577efee2ba9ae37d367378","1382","stimuli/00110100.jpg"," ","","feedback_trial","0","","","","","","","","","","","","","","","","","","","","",""
"","","","","","image-keyboard-response","72","335273","0.0-47.0","5834a80a106ee1000120abd3","665500ab8938657b03fbdba8","66577efee2ba9ae37d367378","3525","stimuli/0111100.jpg","0","","prediction_trial","2","","false","","0","false","true","false","false","false","false","[1,2,0]","111","100","0","","","","","","",""
"","","","","","image-keyboard-response","73","336657","0.0-48.0","5834a80a106ee1000120abd3","665500ab8938657b03fbdba8","66577efee2ba9ae37d367378","1383","stimuli/01111002.jpg"," ","","feedback_trial","1","","","","","","","","","","","","","","","","","","","","",""
"","","","","","image-keyboard-response","74","337608","0.0-49.0","5834a80a106ee1000120abd3","665500ab8938657b03fbdba8","66577efee2ba9ae37d367378","915","stimuli/0010001.jpg","0","","prediction_trial","0","","true","","0","true","true","true","true","true","true","[0]","010","001","1","","","","","","",""
"","","","","","image-keyboard-response","75","338993","0.0-50.0","5834a80a106ee1000120abd3","665500ab8938657b03fbdba8","66577efee2ba9ae37d367378","1383","stimuli/00100010.jpg"," ","","feedback_trial","0","","","","","","","","","","","","","","","","","","","","",""
"","","","","","image-keyboard-response","76","340825","0.0-51.0","5834a80a106ee1000120abd3","665500ab8938657b03fbdba8","66577efee2ba9ae37d367378","1830","stimuli/2010010.jpg","2","","prediction_trial","2","","true","","2","true","true","true","true","true","true","[2]","010","010","1","","","","","","",""
"","","","","","image-keyboard-response","77","342249","0.0-52.0","5834a80a106ee1000120abd3","665500ab8938657b03fbdba8","66577efee2ba9ae37d367378","1422","stimuli/20100102.jpg"," ","","feedback_trial","2","","","","","","","","","","","","","","","","","","","","",""
"","","","","","image-keyboard-response","78","343569","0.0-53.0","5834a80a106ee1000120abd3","665500ab8938657b03fbdba8","66577efee2ba9ae37d367378","1318","stimuli/2110010.jpg","2","","prediction_trial","2","","true","","2","true","true","true","true","true","true","[2]","110","010","1","","","","","","",""
"","","","","","image-keyboard-response","79","345025","0.0-54.0","5834a80a106ee1000120abd3","665500ab8938657b03fbdba8","66577efee2ba9ae37d367378","1454","stimuli/21100102.jpg"," ","","feedback_trial","2","","","","","","","","","","","","","","","","","","","","",""
"","","","","","image-keyboard-response","80","347737","0.0-55.0","5834a80a106ee1000120abd3","665500ab8938657b03fbdba8","66577efee2ba9ae37d367378","2710","stimuli/1110010.jpg","1","","prediction_trial","0","","false","","1","false","true","false","false","false","false","[1,0]","110","010","0","","","","","","",""
"","","","","","image-keyboard-response","81","349465","0.0-56.0","5834a80a106ee1000120abd3","665500ab8938657b03fbdba8","66577efee2ba9ae37d367378","1726","stimuli/11100100.jpg"," ","","feedback_trial","1","","","","","","","","","","","","","","","","","","","","",""
"","","","","","image-keyboard-response","82","350753","0.0-57.0","5834a80a106ee1000120abd3","665500ab8938657b03fbdba8","66577efee2ba9ae37d367378","1251","stimuli/0111010.jpg","0","","prediction_trial","1","","false","","0","true","true","false","false","false","false","[0,2,1]","111","010","0","","","","","","",""
"","","","","","image-keyboard-response","83","353585","0.0-58.0","5834a80a106ee1000120abd3","665500ab8938657b03fbdba8","66577efee2ba9ae37d367378","2830","stimuli/01110101.jpg"," ","","feedback_trial","0","","","","","","","","","","","","","","","","","","","","",""
"","","","","","image-keyboard-response","84","354659","0.0-59.0","5834a80a106ee1000120abd3","665500ab8938657b03fbdba8","66577efee2ba9ae37d367378","1072","stimuli/2101110.jpg","2","","prediction_trial","0","","false","","2","true","true","false","false","false","false","[0,2]","101","110","0","","","","","","",""
"","","","","","image-keyboard-response","85","357201","0.0-60.0","5834a80a106ee1000120abd3","665500ab8938657b03fbdba8","66577efee2ba9ae37d367378","2541","stimuli/21011100.jpg"," ","","feedback_trial","0","","","","","","","","","","","","","","","","","","","","",""
"","","","","","image-keyboard-response","86","366201","0.0-61.0","5834a80a106ee1000120abd3","665500ab8938657b03fbdba8","66577efee2ba9ae37d367378","8998","stimuli/0110101.jpg","2","","prediction_trial","1","","false","","0","false","false","false","false","false","false","[1,0]","110","101","0","","","","","","",""
"","","","","","image-keyboard-response","87","367897","0.0-62.0","5834a80a106ee1000120abd3","665500ab8938657b03fbdba8","66577efee2ba9ae37d367378","1694","stimuli/01101011.jpg"," ","","feedback_trial","1","","","","","","","","","","","","","","","","","","","","",""
"","","","","","image-keyboard-response","88","369844","0.0-63.0","5834a80a106ee1000120abd3","665500ab8938657b03fbdba8","66577efee2ba9ae37d367378","1945","stimuli/0101100.jpg","2","","prediction_trial","2","","true","","0","false","true","false","false","false","false","[0,2]","101","100","1","","","","","","",""
"","","","","","image-keyboard-response","89","371177","0.0-64.0","5834a80a106ee1000120abd3","665500ab8938657b03fbdba8","66577efee2ba9ae37d367378","1331","stimuli/01011002.jpg"," ","","feedback_trial","0","","","","","","","","","","","","","","","","","","","","",""
"","","","","","image-keyboard-response","90","372064","0.0-65.0","5834a80a106ee1000120abd3","665500ab8938657b03fbdba8","66577efee2ba9ae37d367378","845","stimuli/0011011.jpg","0","","prediction_trial","0","","true","","0","true","true","true","true","true","true","[0]","011","011","1","","","","","","",""
"","","","","","image-keyboard-response","91","374337","0.0-66.0","5834a80a106ee1000120abd3","665500ab8938657b03fbdba8","66577efee2ba9ae37d367378","2271","stimuli/00110110.jpg"," ","","feedback_trial","0","","","","","","","","","","","","","","","","","","","","",""
"","","","","","image-keyboard-response","92","375417","0.0-67.0","5834a80a106ee1000120abd3","665500ab8938657b03fbdba8","66577efee2ba9ae37d367378","1078","stimuli/2010000.jpg","2","","prediction_trial","2","","true","","2","true","true","true","true","true","true","[2]","010","000","1","","","","","","",""
"","","","","","image-keyboard-response","93","376673","0.0-68.0","5834a80a106ee1000120abd3","665500ab8938657b03fbdba8","66577efee2ba9ae37d367378","1254","stimuli/20100002.jpg"," ","","feedback_trial","2","","","","","","","","","","","","","","","","","","","","",""
"","","","","","image-keyboard-response","94","378009","0.0-69.0","5834a80a106ee1000120abd3","665500ab8938657b03fbdba8","66577efee2ba9ae37d367378","1333","stimuli/1110111.jpg","1","","prediction_trial","1","","true","","1","false","false","false","false","false","false","[1,0]","110","111","1","","","","","","",""
"","","","","","image-keyboard-response","95","379297","0.0-70.0","5834a80a106ee1000120abd3","665500ab8938657b03fbdba8","66577efee2ba9ae37d367378","1286","stimuli/11101111.jpg"," ","","feedback_trial","1","","","","","","","","","","","","","","","","","","","","",""
"","","","","","image-keyboard-response","96","381344","0.0-71.0","5834a80a106ee1000120abd3","665500ab8938657b03fbdba8","66577efee2ba9ae37d367378","2046","stimuli/1111110.jpg","2","","prediction_trial","2","","true","","1","false","false","false","false","false","false","[2,0,1]","111","110","1","","","","","","",""
"","","","","","image-keyboard-response","97","382385","0.0-72.0","5834a80a106ee1000120abd3","665500ab8938657b03fbdba8","66577efee2ba9ae37d367378","1038","stimuli/11111102.jpg"," ","","feedback_trial","2","","","","","","","","","","","","","","","","","","","","",""
"","","","","","image-keyboard-response","98","385025","0.0-73.0","5834a80a106ee1000120abd3","665500ab8938657b03fbdba8","66577efee2ba9ae37d367378","2607","stimuli/2100011.jpg","0","","prediction_trial","2","","false","","2","false","false","true","true","false","false","[2]","100","011","0","","","","","","",""
"","","","","","image-keyboard-response","99","387264","0.0-74.0","5834a80a106ee1000120abd3","665500ab8938657b03fbdba8","66577efee2ba9ae37d367378","2237","stimuli/21000112.jpg"," ","","feedback_trial","2","","","","","","","","","","","","","","","","","","","","",""
"","","","","","image-keyboard-response","100","388352","0.0-75.0","5834a80a106ee1000120abd3","665500ab8938657b03fbdba8","66577efee2ba9ae37d367378","1086","stimuli/0100011.jpg","0","","prediction_trial","0","","true","","0","true","true","false","true","false","true","[0]","100","011","1","","","","","","",""
"","","","","","image-keyboard-response","101","389576","0.0-76.0","5834a80a106ee1000120abd3","665500ab8938657b03fbdba8","66577efee2ba9ae37d367378","1223","stimuli/01000110.jpg"," ","","feedback_trial","0","","","","","","","","","","","","","","","","","","","","",""
"","","","","","image-keyboard-response","102","390544","0.0-77.0","5834a80a106ee1000120abd3","665500ab8938657b03fbdba8","66577efee2ba9ae37d367378","966","stimuli/2100110.jpg","2","","prediction_trial","2","","true","","2","true","true","true","true","true","true","[2]","100","110","1","","","","","","",""
"","","","","","image-keyboard-response","103","391568","0.0-78.0","5834a80a106ee1000120abd3","665500ab8938657b03fbdba8","66577efee2ba9ae37d367378","1022","stimuli/21001102.jpg"," ","","feedback_trial","2","","","","","","","","","","","","","","","","","","","","",""
"","","","","","image-keyboard-response","104","397697","0.0-79.0","5834a80a106ee1000120abd3","665500ab8938657b03fbdba8","66577efee2ba9ae37d367378","6127","stimuli/2001111.jpg","2","","prediction_trial","2","","true","","2","false","false","false","true","false","false","[2]","001","111","1","","","","","","",""
"","","","","","image-keyboard-response","105","398920","0.0-80.0","5834a80a106ee1000120abd3","665500ab8938657b03fbdba8","66577efee2ba9ae37d367378","1221","stimuli/20011112.jpg"," ","","feedback_trial","2","","","","","","","","","","","","","","","","","","","","",""
"","","","","","image-keyboard-response","106","402216","0.0-81.0","5834a80a106ee1000120abd3","665500ab8938657b03fbdba8","66577efee2ba9ae37d367378","3266","stimuli/0111000.jpg","0","","prediction_trial","2","","false","","0","true","true","false","false","false","false","[2,0,1]","111","000","0","","","","","","",""
"","","","","","image-keyboard-response","107","403505","0.0-82.0","5834a80a106ee1000120abd3","665500ab8938657b03fbdba8","66577efee2ba9ae37d367378","1287","stimuli/01110002.jpg"," ","","feedback_trial","2","","","","","","","","","","","","","","","","","","","","",""
"","","","","","image-keyboard-response","108","406896","0.0-83.0","5834a80a106ee1000120abd3","665500ab8938657b03fbdba8","66577efee2ba9ae37d367378","3390","stimuli/0100101.jpg","2","","prediction_trial","0","","false","","0","false","false","false","true","false","false","[0]","100","101","0","","","","","","",""
"","","","","","image-keyboard-response","109","408225","0.0-84.0","5834a80a106ee1000120abd3","665500ab8938657b03fbdba8","66577efee2ba9ae37d367378","1327","stimuli/01001010.jpg"," ","","feedback_trial","0","","","","","","","","","","","","","","","","","","","","",""
"","","","","","image-keyboard-response","110","409288","0.0-85.0","5834a80a106ee1000120abd3","665500ab8938657b03fbdba8","66577efee2ba9ae37d367378","1061","stimuli/2000000.jpg","2","","prediction_trial","2","","true","","2","true","true","true","true","true","true","[2]","000","000","1","","","","","","",""
"","","","","","image-keyboard-response","111","410816","0.0-86.0","5834a80a106ee1000120abd3","665500ab8938657b03fbdba8","66577efee2ba9ae37d367378","1525","stimuli/20000002.jpg"," ","","feedback_trial","2","","","","","","","","","","","","","","","","","","","","",""
"","","","","","image-keyboard-response","112","417320","0.0-87.0","5834a80a106ee1000120abd3","665500ab8938657b03fbdba8","66577efee2ba9ae37d367378","6503","stimuli/2010011.jpg","2","","prediction_trial","2","","true","","2","false","false","true","true","false","false","[2]","010","011","1","","","","","","",""
"","","","","","image-keyboard-response","113","418473","0.0-88.0","5834a80a106ee1000120abd3","665500ab8938657b03fbdba8","66577efee2ba9ae37d367378","1151","stimuli/20100112.jpg"," ","","feedback_trial","2","","","","","","","","","","","","","","","","","","","","",""
"","","","","","image-keyboard-response","114","421008","0.0-89.0","5834a80a106ee1000120abd3","665500ab8938657b03fbdba8","66577efee2ba9ae37d367378","2502","stimuli/0101001.jpg","0","","prediction_trial","2","","false","","0","true","true","false","false","false","false","[2,0]","101","001","0","","","","","","",""
"","","","","","image-keyboard-response","115","422136","0.0-90.0","5834a80a106ee1000120abd3","665500ab8938657b03fbdba8","66577efee2ba9ae37d367378","1125","stimuli/01010012.jpg"," ","","feedback_trial","2","","","","","","","","","","","","","","","","","","","","",""
"","","","","","image-keyboard-response","116","423327","0.0-91.0","5834a80a106ee1000120abd3","665500ab8938657b03fbdba8","66577efee2ba9ae37d367378","1190","stimuli/1001100.jpg","1","","prediction_trial","1","","true","","1","true","true","true","true","true","true","[1]","001","100","1","","","","","","",""
"","","","","","image-keyboard-response","117","424384","0.0-92.0","5834a80a106ee1000120abd3","665500ab8938657b03fbdba8","66577efee2ba9ae37d367378","1056","stimuli/10011001.jpg"," ","","feedback_trial","1","","","","","","","","","","","","","","","","","","","","",""
"","","","","","image-keyboard-response","118","428585","0.0-93.0","5834a80a106ee1000120abd3","665500ab8938657b03fbdba8","66577efee2ba9ae37d367378","4198","stimuli/1110000.jpg","1","","prediction_trial","1","","true","","1","true","true","false","false","false","false","[0,1]","110","000","1","","","","","","",""
"","","","","","image-keyboard-response","119","429735","0.0-94.0","5834a80a106ee1000120abd3","665500ab8938657b03fbdba8","66577efee2ba9ae37d367378","1149","stimuli/11100001.jpg"," ","","feedback_trial","0","","","","","","","","","","","","","","","","","","","","",""
"","","","","","image-keyboard-response","120","431887","0.0-95.0","5834a80a106ee1000120abd3","665500ab8938657b03fbdba8","66577efee2ba9ae37d367378","2151","stimuli/1001110.jpg","1","","prediction_trial","1","","true","","1","false","false","true","true","false","false","[1]","001","110","1","","","","","","",""
"","","","","","image-keyboard-response","121","433360","0.0-96.0","5834a80a106ee1000120abd3","665500ab8938657b03fbdba8","66577efee2ba9ae37d367378","1472","stimuli/10011101.jpg"," ","","feedback_trial","1","","","","","","","","","","","","","","","","","","","","",""
"","","","","","image-keyboard-response","122","436529","0.0-97.0","5834a80a106ee1000120abd3","665500ab8938657b03fbdba8","66577efee2ba9ae37d367378","3135","stimuli/2011110.jpg","1","","prediction_trial","1","","true","","2","true","true","false","false","false","false","[1,2]","011","110","1","","","","","","",""
"","","","","","image-keyboard-response","123","437737","0.0-98.0","5834a80a106ee1000120abd3","665500ab8938657b03fbdba8","66577efee2ba9ae37d367378","1205","stimuli/20111101.jpg"," ","","feedback_trial","1","","","","","","","","","","","","","","","","","","","","",""
"","","","","","image-keyboard-response","124","443474","0.0-99.0","5834a80a106ee1000120abd3","665500ab8938657b03fbdba8","66577efee2ba9ae37d367378","5735","stimuli/0111111.jpg","1","","prediction_trial","1","","true","","0","false","false","false","false","false","false","[0,1,2]","111","111","1","","","","","","",""
"","","","","","image-keyboard-response","125","444904","0.0-100.0","5834a80a106ee1000120abd3","665500ab8938657b03fbdba8","66577efee2ba9ae37d367378","1428","stimuli/01111111.jpg"," ","","feedback_trial","0","","","","","","","","","","","","","","","","","","","","",""
"","","","","","image-keyboard-response","126","451313","0.0-101.0","5834a80a106ee1000120abd3","665500ab8938657b03fbdba8","66577efee2ba9ae37d367378","6408","stimuli/2001110.jpg","1","","prediction_trial","2","","false","","2","true","true","false","true","false","true","[2]","001","110","0","","","","","","",""
"","","","","","image-keyboard-response","127","452817","0.0-102.0","5834a80a106ee1000120abd3","665500ab8938657b03fbdba8","66577efee2ba9ae37d367378","1501","stimuli/20011102.jpg"," ","","feedback_trial","2","","","","","","","","","","","","","","","","","","","","",""
"","","","","","image-keyboard-response","128","454633","0.0-103.0","5834a80a106ee1000120abd3","665500ab8938657b03fbdba8","66577efee2ba9ae37d367378","1814","stimuli/1000111.jpg","2","","prediction_trial","1","","false","","1","false","false","true","true","false","false","[1]","000","111","0","","","","","","",""
"","","","","","image-keyboard-response","129","456097","0.0-104.0","5834a80a106ee1000120abd3","665500ab8938657b03fbdba8","66577efee2ba9ae37d367378","1463","stimuli/10001111.jpg"," ","","feedback_trial","1","","","","","","","","","","","","","","","","","","","","",""
"","","","","","image-keyboard-response","130","460937","0.0-105.0","5834a80a106ee1000120abd3","665500ab8938657b03fbdba8","66577efee2ba9ae37d367378","4808","stimuli/1000110.jpg","0","","prediction_trial","1","","false","","1","false","false","true","true","false","false","[1]","000","110","0","","","","","","",""
"","","","","","image-keyboard-response","131","462160","0.0-106.0","5834a80a106ee1000120abd3","665500ab8938657b03fbdba8","66577efee2ba9ae37d367378","1220","stimuli/10001101.jpg"," ","","feedback_trial","1","","","","","","","","","","","","","","","","","","","","",""
"","","","","","image-keyboard-response","132","464600","0.0-107.0","5834a80a106ee1000120abd3","665500ab8938657b03fbdba8","66577efee2ba9ae37d367378","2438","stimuli/0011110.jpg","1","","prediction_trial","0","","false","","0","false","false","true","true","false","false","[0]","011","110","0","","","","","","",""
"","","","","","image-keyboard-response","133","466889","0.0-108.0","5834a80a106ee1000120abd3","665500ab8938657b03fbdba8","66577efee2ba9ae37d367378","2288","stimuli/00111100.jpg"," ","","feedback_trial","0","","","","","","","","","","","","","","","","","","","","",""
"","","","","","image-keyboard-response","134","468368","0.0-109.0","5834a80a106ee1000120abd3","665500ab8938657b03fbdba8","66577efee2ba9ae37d367378","1476","stimuli/0110100.jpg","0","","prediction_trial","1","","false","","0","false","true","false","false","false","false","[1,0]","110","100","0","","","","","","",""
"","","","","","image-keyboard-response","135","469817","0.0-110.0","5834a80a106ee1000120abd3","665500ab8938657b03fbdba8","66577efee2ba9ae37d367378","1448","stimuli/01101001.jpg"," ","","feedback_trial","1","","","","","","","","","","","","","","","","","","","","",""
"","","","","","image-keyboard-response","136","470857","0.0-111.0","5834a80a106ee1000120abd3","665500ab8938657b03fbdba8","66577efee2ba9ae37d367378","1038","stimuli/2110100.jpg","2","","prediction_trial","2","","true","","2","true","true","true","true","true","true","[2]","110","100","1","","","","","","",""
"","","","","","image-keyboard-response","137","471977","0.0-112.0","5834a80a106ee1000120abd3","665500ab8938657b03fbdba8","66577efee2ba9ae37d367378","1117","stimuli/21101002.jpg"," ","","feedback_trial","2","","","","","","","","","","","","","","","","","","","","",""
"","","","","","image-keyboard-response","138","474113","0.0-113.0","5834a80a106ee1000120abd3","665500ab8938657b03fbdba8","66577efee2ba9ae37d367378","2093","stimuli/0001100.jpg","0","","prediction_trial","0","","true","","0","false","true","true","true","false","true","[0]","001","100","1","","","","","","",""
"","","","","","image-keyboard-response","139","476793","0.0-114.0","5834a80a106ee1000120abd3","665500ab8938657b03fbdba8","66577efee2ba9ae37d367378","2678","stimuli/00011000.jpg"," ","","feedback_trial","0","","","","","","","","","","","","","","","","","","","","",""
"","","","","","image-keyboard-response","140","478393","0.0-115.0","5834a80a106ee1000120abd3","665500ab8938657b03fbdba8","66577efee2ba9ae37d367378","1598","stimuli/0010101.jpg","0","","prediction_trial","0","","true","","0","false","false","true","true","false","false","[0]","010","101","1","","","","","","",""
"","","","","","image-keyboard-response","141","479585","0.0-116.0","5834a80a106ee1000120abd3","665500ab8938657b03fbdba8","66577efee2ba9ae37d367378","1189","stimuli/00101010.jpg"," ","","feedback_trial","0","","","","","","","","","","","","","","","","","","","","",""
"","","","","","image-keyboard-response","142","480561","0.0-117.0","5834a80a106ee1000120abd3","665500ab8938657b03fbdba8","66577efee2ba9ae37d367378","974","stimuli/0001011.jpg","0","","prediction_trial","0","","true","","0","true","true","true","true","true","true","[0]","001","011","1","","","","","","",""
"","","","","","image-keyboard-response","143","481377","0.0-118.0","5834a80a106ee1000120abd3","665500ab8938657b03fbdba8","66577efee2ba9ae37d367378","813","stimuli/00010110.jpg"," ","","feedback_trial","0","","","","","","","","","","","","","","","","","","","","",""
"","","","","","image-keyboard-response","144","482623","0.0-119.0","5834a80a106ee1000120abd3","665500ab8938657b03fbdba8","66577efee2ba9ae37d367378","1245","stimuli/0101101.jpg","0","","prediction_trial","0","","true","","0","false","false","false","false","false","false","[0,2]","101","101","1","","","","","","",""
"","","","","","image-keyboard-response","145","483633","0.0-120.0","5834a80a106ee1000120abd3","665500ab8938657b03fbdba8","66577efee2ba9ae37d367378","1008","stimuli/01011010.jpg"," ","","feedback_trial","0","","","","","","","","","","","","","","","","","","","","",""
"","","","","","image-keyboard-response","146","485000","0.0-121.0","5834a80a106ee1000120abd3","665500ab8938657b03fbdba8","66577efee2ba9ae37d367378","1334","stimuli/2111110.jpg","0","","prediction_trial","1","","false","","2","true","true","false","false","false","false","[0,2,1]","111","110","0","","","","","","",""
"","","","","","image-keyboard-response","147","487112","0.0-122.0","5834a80a106ee1000120abd3","665500ab8938657b03fbdba8","66577efee2ba9ae37d367378","2111","stimuli/21111101.jpg"," ","","feedback_trial","0","","","","","","","","","","","","","","","","","","","","",""
"","","","","","image-keyboard-response","148","489608","0.0-123.0","5834a80a106ee1000120abd3","665500ab8938657b03fbdba8","66577efee2ba9ae37d367378","2495","stimuli/2000111.jpg","1","","prediction_trial","2","","false","","2","false","false","true","true","false","false","[2]","000","111","0","","","","","","",""
"","","","","","image-keyboard-response","149","491049","0.0-124.0","5834a80a106ee1000120abd3","665500ab8938657b03fbdba8","66577efee2ba9ae37d367378","1438","stimuli/20001112.jpg"," ","","feedback_trial","2","","","","","","","","","","","","","","","","","","","","",""
"","","","","","image-keyboard-response","150","492913","0.0-125.0","5834a80a106ee1000120abd3","665500ab8938657b03fbdba8","66577efee2ba9ae37d367378","1862","stimuli/1111010.jpg","1","","prediction_trial","2","","false","","1","false","true","false","false","false","false","[1,0,2]","111","010","0","","","","","","",""
"","","","","","image-keyboard-response","151","494065","0.0-126.0","5834a80a106ee1000120abd3","665500ab8938657b03fbdba8","66577efee2ba9ae37d367378","1150","stimuli/11110102.jpg"," ","","feedback_trial","1","","","","","","","","","","","","","","","","","","","","",""
"","","","","","image-keyboard-response","152","498767","0.0-127.0","5834a80a106ee1000120abd3","665500ab8938657b03fbdba8","66577efee2ba9ae37d367378","4701","stimuli/1111111.jpg","0","","prediction_trial","2","","false","","1","false","false","false","false","false","false","[1,0,2]","111","111","0","","","","","","",""
"","","","","","image-keyboard-response","153","500328","0.0-128.0","5834a80a106ee1000120abd3","665500ab8938657b03fbdba8","66577efee2ba9ae37d367378","1560","stimuli/11111112.jpg"," ","","feedback_trial","1","","","","","","","","","","","","","","","","","","","","",""
"","","","","","image-keyboard-response","154","502048","0.0-129.0","5834a80a106ee1000120abd3","665500ab8938657b03fbdba8","66577efee2ba9ae37d367378","1691","stimuli/1101101.jpg","1","","prediction_trial","1","","true","","1","true","true","true","true","true","true","[1]","101","101","1","","","","","","",""
"","","","","","image-keyboard-response","155","503016","0.0-130.0","5834a80a106ee1000120abd3","665500ab8938657b03fbdba8","66577efee2ba9ae37d367378","965","stimuli/11011011.jpg"," ","","feedback_trial","1","","","","","","","","","","","","","","","","","","","","",""
"","","","","","image-keyboard-response","156","504248","0.0-131.0","5834a80a106ee1000120abd3","665500ab8938657b03fbdba8","66577efee2ba9ae37d367378","1231","stimuli/1100011.jpg","1","","prediction_trial","1","","true","","1","false","false","true","true","false","false","[1]","100","011","1","","","","","","",""
"","","","","","image-keyboard-response","157","505247","0.0-132.0","5834a80a106ee1000120abd3","665500ab8938657b03fbdba8","66577efee2ba9ae37d367378","997","stimuli/11000111.jpg"," ","","feedback_trial","1","","","","","","","","","","","","","","","","","","","","",""
"","","","","","image-keyboard-response","158","507153","0.0-133.0","5834a80a106ee1000120abd3","665500ab8938657b03fbdba8","66577efee2ba9ae37d367378","1904","stimuli/1110101.jpg","1","","prediction_trial","1","","true","","1","true","true","false","false","false","false","[0,1]","110","101","1","","","","","","",""
"","","","","","image-keyboard-response","159","508088","0.0-134.0","5834a80a106ee1000120abd3","665500ab8938657b03fbdba8","66577efee2ba9ae37d367378","933","stimuli/11101011.jpg"," ","","feedback_trial","0","","","","","","","","","","","","","","","","","","","","",""
"","","","","","image-keyboard-response","160","509288","0.0-135.0","5834a80a106ee1000120abd3","665500ab8938657b03fbdba8","66577efee2ba9ae37d367378","1197","stimuli/1001111.jpg","1","","prediction_trial","1","","true","","1","false","false","true","true","false","false","[1]","001","111","1","","","","","","",""
"","","","","","image-keyboard-response","161","510295","0.0-136.0","5834a80a106ee1000120abd3","665500ab8938657b03fbdba8","66577efee2ba9ae37d367378","1004","stimuli/10011111.jpg"," ","","feedback_trial","1","","","","","","","","","","","","","","","","","","","","",""
"","","","","","image-keyboard-response","162","511321","0.0-137.0","5834a80a106ee1000120abd3","665500ab8938657b03fbdba8","66577efee2ba9ae37d367378","989","stimuli/1001000.jpg","1","","prediction_trial","1","","true","","1","true","true","true","true","true","true","[1]","001","000","1","","","","","","",""
"","","","","","image-keyboard-response","163","512168","0.0-138.0","5834a80a106ee1000120abd3","665500ab8938657b03fbdba8","66577efee2ba9ae37d367378","846","stimuli/10010001.jpg"," ","","feedback_trial","1","","","","","","","","","","","","","","","","","","","","",""
"","","","","","image-keyboard-response","164","513913","0.0-139.0","5834a80a106ee1000120abd3","665500ab8938657b03fbdba8","66577efee2ba9ae37d367378","1742","stimuli/1010101.jpg","1","","prediction_trial","1","","true","","1","true","true","false","true","false","true","[1]","010","101","1","","","","","","",""
"","","","","","image-keyboard-response","165","515040","0.0-140.0","5834a80a106ee1000120abd3","665500ab8938657b03fbdba8","66577efee2ba9ae37d367378","1124","stimuli/10101011.jpg"," ","","feedback_trial","1","","","","","","","","","","","","","","","","","","","","",""
"","","","","","image-keyboard-response","166","516856","0.0-141.0","5834a80a106ee1000120abd3","665500ab8938657b03fbdba8","66577efee2ba9ae37d367378","1814","stimuli/1000010.jpg","1","","prediction_trial","1","","true","","1","false","true","true","true","false","true","[1]","000","010","1","","","","","","",""
"","","","","","image-keyboard-response","167","517952","0.0-142.0","5834a80a106ee1000120abd3","665500ab8938657b03fbdba8","66577efee2ba9ae37d367378","1093","stimuli/10000101.jpg"," ","","feedback_trial","1","","","","","","","","","","","","","","","","","","","","",""
"","","","","","image-keyboard-response","168","519296","0.0-143.0","5834a80a106ee1000120abd3","665500ab8938657b03fbdba8","66577efee2ba9ae37d367378","1342","stimuli/2011101.jpg","1","","prediction_trial","1","","true","","2","false","false","false","false","false","false","[1,2]","011","101","1","","","","","","",""
"","","","","","image-keyboard-response","169","520432","0.0-144.0","5834a80a106ee1000120abd3","665500ab8938657b03fbdba8","66577efee2ba9ae37d367378","1132","stimuli/20111011.jpg"," ","","feedback_trial","1","","","","","","","","","","","","","","","","","","","","",""
"","","","","","image-keyboard-response","170","521425","0.0-145.0","5834a80a106ee1000120abd3","665500ab8938657b03fbdba8","66577efee2ba9ae37d367378","977","stimuli/0011001.jpg","0","","prediction_trial","0","","true","","0","true","true","true","true","true","true","[0]","011","001","1","","","","","","",""
"","","","","","image-keyboard-response","171","522593","0.0-146.0","5834a80a106ee1000120abd3","665500ab8938657b03fbdba8","66577efee2ba9ae37d367378","1165","stimuli/00110010.jpg"," ","","feedback_trial","0","","","","","","","","","","","","","","","","","","","","",""
"","","","","","image-keyboard-response","172","523776","0.0-147.0","5834a80a106ee1000120abd3","665500ab8938657b03fbdba8","66577efee2ba9ae37d367378","1181","stimuli/1100110.jpg","0","","prediction_trial","1","","false","","1","false","false","true","true","false","false","[1]","100","110","0","","","","","","",""
"","","","","","image-keyboard-response","173","526528","0.0-148.0","5834a80a106ee1000120abd3","665500ab8938657b03fbdba8","66577efee2ba9ae37d367378","2750","stimuli/11001101.jpg"," ","","feedback_trial","1","","","","","","","","","","","","","","","","","","","","",""
"","","","","","image-keyboard-response","174","527984","0.0-149.0","5834a80a106ee1000120abd3","665500ab8938657b03fbdba8","66577efee2ba9ae37d367378","1454","stimuli/2100001.jpg","2","","prediction_trial","2","","true","","2","false","true","true","true","false","true","[2]","100","001","1","","","","","","",""
"","","","","","image-keyboard-response","175","529153","0.0-150.0","5834a80a106ee1000120abd3","665500ab8938657b03fbdba8","66577efee2ba9ae37d367378","1166","stimuli/21000012.jpg"," ","","feedback_trial","2","","","","","","","","","","","","","","","","","","","","",""
"","","","","","image-keyboard-response","176","531745","0.0-151.0","5834a80a106ee1000120abd3","665500ab8938657b03fbdba8","66577efee2ba9ae37d367378","2590","stimuli/2011011.jpg","2","","prediction_trial","2","","true","","2","false","false","false","false","false","false","[2,1]","011","011","1","","","","","","",""
"","","","","","image-keyboard-response","177","532831","0.0-152.0","5834a80a106ee1000120abd3","665500ab8938657b03fbdba8","66577efee2ba9ae37d367378","1084","stimuli/20110112.jpg"," ","","feedback_trial","2","","","","","","","","","","","","","","","","","","","","",""
"","","","","","image-keyboard-response","178","534912","0.0-153.0","5834a80a106ee1000120abd3","665500ab8938657b03fbdba8","66577efee2ba9ae37d367378","2066","stimuli/2001101.jpg","2","","prediction_trial","2","","true","","2","false","false","false","true","false","false","[2]","001","101","1","","","","","","",""
"","","","","","image-keyboard-response","179","535976","0.0-154.0","5834a80a106ee1000120abd3","665500ab8938657b03fbdba8","66577efee2ba9ae37d367378","1062","stimuli/20011012.jpg"," ","","feedback_trial","2","","","","","","","","","","","","","","","","","","","","",""
"","","","","","image-keyboard-response","180","540728","0.0-155.0","5834a80a106ee1000120abd3","665500ab8938657b03fbdba8","66577efee2ba9ae37d367378","4751","stimuli/0000110.jpg","1","","prediction_trial","0","","false","","0","false","false","true","true","false","false","[0]","000","110","0","","","","","","",""
"","","","","","image-keyboard-response","181","541831","0.0-156.0","5834a80a106ee1000120abd3","665500ab8938657b03fbdba8","66577efee2ba9ae37d367378","1101","stimuli/00001100.jpg"," ","","feedback_trial","0","","","","","","","","","","","","","","","","","","","","",""
"","","","","","image-keyboard-response","182","544496","0.0-157.0","5834a80a106ee1000120abd3","665500ab8938657b03fbdba8","66577efee2ba9ae37d367378","2664","stimuli/1000011.jpg","1","","prediction_trial","1","","true","","1","false","false","true","true","false","false","[1]","000","011","1","","","","","","",""
"","","","","","image-keyboard-response","183","545736","0.0-158.0","5834a80a106ee1000120abd3","665500ab8938657b03fbdba8","66577efee2ba9ae37d367378","1239","stimuli/10000111.jpg"," ","","feedback_trial","1","","","","","","","","","","","","","","","","","","","","",""
"","","","","","image-keyboard-response","184","547040","0.0-159.0","5834a80a106ee1000120abd3","665500ab8938657b03fbdba8","66577efee2ba9ae37d367378","1302","stimuli/2000001.jpg","2","","prediction_trial","2","","true","","2","false","true","true","true","false","true","[2]","000","001","1","","","","","","",""
"","","","","","image-keyboard-response","185","548225","0.0-160.0","5834a80a106ee1000120abd3","665500ab8938657b03fbdba8","66577efee2ba9ae37d367378","1182","stimuli/20000012.jpg"," ","","feedback_trial","2","","","","","","","","","","","","","","","","","","","","",""
"","","","","","image-keyboard-response","186","550280","0.0-161.0","5834a80a106ee1000120abd3","665500ab8938657b03fbdba8","66577efee2ba9ae37d367378","2022","stimuli/2101101.jpg","0","","prediction_trial","2","","false","","2","false","false","false","false","false","false","[2,0]","101","101","0","","","","","","",""
"","","","","","image-keyboard-response","187","551568","0.0-162.0","5834a80a106ee1000120abd3","665500ab8938657b03fbdba8","66577efee2ba9ae37d367378","1287","stimuli/21011012.jpg"," ","","feedback_trial","2","","","","","","","","","","","","","","","","","","","","",""
"","","","","","image-keyboard-response","188","552577","0.0-163.0","5834a80a106ee1000120abd3","665500ab8938657b03fbdba8","66577efee2ba9ae37d367378","1006","stimuli/2100000.jpg","2","","prediction_trial","2","","true","","2","true","true","true","true","true","true","[2]","100","000","1","","","","","","",""
"","","","","","image-keyboard-response","189","553472","0.0-164.0","5834a80a106ee1000120abd3","665500ab8938657b03fbdba8","66577efee2ba9ae37d367378","894","stimuli/21000002.jpg"," ","","feedback_trial","2","","","","","","","","","","","","","","","","","","","","",""
"","","","","","image-keyboard-response","190","554512","0.0-165.0","5834a80a106ee1000120abd3","665500ab8938657b03fbdba8","66577efee2ba9ae37d367378","1037","stimuli/2010110.jpg","2","","prediction_trial","2","","true","","2","true","true","true","true","true","true","[2]","010","110","1","","","","","","",""
"","","","","","image-keyboard-response","191","555152","0.0-166.0","5834a80a106ee1000120abd3","665500ab8938657b03fbdba8","66577efee2ba9ae37d367378","637","stimuli/20101102.jpg"," ","","feedback_trial","2","","","","","","","","","","","","","","","","","","","","",""
"","","","","","image-keyboard-response","192","556704","0.0-167.0","5834a80a106ee1000120abd3","665500ab8938657b03fbdba8","66577efee2ba9ae37d367378","1549","stimuli/2000101.jpg","2","","prediction_trial","2","","true","","2","false","false","true","true","false","false","[2]","000","101","1","","","","","","",""
"","","","","","image-keyboard-response","193","557592","0.0-168.0","5834a80a106ee1000120abd3","665500ab8938657b03fbdba8","66577efee2ba9ae37d367378","887","stimuli/20001012.jpg"," ","","feedback_trial","2","","","","","","","","","","","","","","","","","","","","",""
"","","","","","image-keyboard-response","194","560401","0.0-169.0","5834a80a106ee1000120abd3","665500ab8938657b03fbdba8","66577efee2ba9ae37d367378","2784","stimuli/0101011.jpg","2","","prediction_trial","2","","true","","0","true","true","false","false","false","false","[2,0]","101","011","1","","","","","","",""
"","","","","","image-keyboard-response","195","561545","0.0-170.0","5834a80a106ee1000120abd3","665500ab8938657b03fbdba8","66577efee2ba9ae37d367378","1142","stimuli/01010112.jpg"," ","","feedback_trial","2","","","","","","","","","","","","","","","","","","","","",""
"","","","","","image-keyboard-response","196","562423","0.0-171.0","5834a80a106ee1000120abd3","665500ab8938657b03fbdba8","66577efee2ba9ae37d367378","876","stimuli/2110000.jpg","2","","prediction_trial","2","","true","","2","true","true","true","true","true","true","[2]","110","000","1","","","","","","",""
"","","","","","image-keyboard-response","197","563216","0.0-172.0","5834a80a106ee1000120abd3","665500ab8938657b03fbdba8","66577efee2ba9ae37d367378","792","stimuli/21100002.jpg"," ","","feedback_trial","2","","","","","","","","","","","","","","","","","","","","",""
"","","","","","image-keyboard-response","198","569120","0.0-173.0","5834a80a106ee1000120abd3","665500ab8938657b03fbdba8","66577efee2ba9ae37d367378","5902","stimuli/1110100.jpg","0","","prediction_trial","0","","true","","1","true","true","false","false","false","false","[0,1]","110","100","1","","","","","","",""
"","","","","","image-keyboard-response","199","570192","0.0-174.0","5834a80a106ee1000120abd3","665500ab8938657b03fbdba8","66577efee2ba9ae37d367378","1071","stimuli/11101000.jpg"," ","","feedback_trial","0","","","","","","","","","","","","","","","","","","","","",""
"","","","","","image-keyboard-response","200","571456","0.0-175.0","5834a80a106ee1000120abd3","665500ab8938657b03fbdba8","66577efee2ba9ae37d367378","1263","stimuli/1001101.jpg","1","","prediction_trial","1","","true","","1","true","true","true","true","true","true","[1]","001","101","1","","","","","","",""
"","","","","","image-keyboard-response","201","572352","0.0-176.0","5834a80a106ee1000120abd3","665500ab8938657b03fbdba8","66577efee2ba9ae37d367378","894","stimuli/10011011.jpg"," ","","feedback_trial","1","","","","","","","","","","","","","","","","","","","","",""
"","","","","","image-keyboard-response","202","573753","0.0-177.0","5834a80a106ee1000120abd3","665500ab8938657b03fbdba8","66577efee2ba9ae37d367378","1361","stimuli/0001010.jpg","0","","prediction_trial","0","","true","","0","true","true","true","true","true","true","[0]","001","010","1","","","","","","",""
"","","","","","image-keyboard-response","203","574353","0.0-178.0","5834a80a106ee1000120abd3","665500ab8938657b03fbdba8","66577efee2ba9ae37d367378","597","stimuli/00010100.jpg"," ","","feedback_trial","0","","","","","","","","","","","","","","","","","","","","",""
"","","","","","image-keyboard-response","204","576128","0.0-179.0","5834a80a106ee1000120abd3","665500ab8938657b03fbdba8","66577efee2ba9ae37d367378","1773","stimuli/0110011.jpg","0","","prediction_trial","1","","false","","0","true","true","false","false","false","false","[1,0]","110","011","0","","","","","","",""
"","","","","","image-keyboard-response","205","577553","0.0-180.0","5834a80a106ee1000120abd3","665500ab8938657b03fbdba8","66577efee2ba9ae37d367378","1424","stimuli/01100111.jpg"," ","","feedback_trial","1","","","","","","","","","","","","","","","","","","","","",""
"","","","","","image-keyboard-response","206","581423","0.0-181.0","5834a80a106ee1000120abd3","665500ab8938657b03fbdba8","66577efee2ba9ae37d367378","3869","stimuli/2101000.jpg","2","","prediction_trial","2","","true","","2","true","true","false","false","false","false","[0,2]","101","000","1","","","","","","",""
"","","","","","image-keyboard-response","207","582449","0.0-182.0","5834a80a106ee1000120abd3","665500ab8938657b03fbdba8","66577efee2ba9ae37d367378","1024","stimuli/21010002.jpg"," ","","feedback_trial","0","","","","","","","","","","","","","","","","","","","","",""
"","","","","","image-keyboard-response","208","586177","0.0-183.0","5834a80a106ee1000120abd3","665500ab8938657b03fbdba8","66577efee2ba9ae37d367378","3725","stimuli/1110110.jpg","0","","prediction_trial","1","","false","","1","false","false","false","false","false","false","[1,0]","110","110","0","","","","","","",""
"","","","","","image-keyboard-response","209","587391","0.0-184.0","5834a80a106ee1000120abd3","665500ab8938657b03fbdba8","66577efee2ba9ae37d367378","1212","stimuli/11101101.jpg"," ","","feedback_trial","1","","","","","","","","","","","","","","","","","","","","",""
"","","","","","image-keyboard-response","210","589240","0.0-185.0","5834a80a106ee1000120abd3","665500ab8938657b03fbdba8","66577efee2ba9ae37d367378","1834","stimuli/1111101.jpg","1","","prediction_trial","0","","false","","1","true","true","false","false","false","false","[2,0,1]","111","101","0","","","","","","",""
"","","","","","image-keyboard-response","211","590552","0.0-186.0","5834a80a106ee1000120abd3","665500ab8938657b03fbdba8","66577efee2ba9ae37d367378","1311","stimuli/11111010.jpg"," ","","feedback_trial","2","","","","","","","","","","","","","","","","","","","","",""
"","","","","","image-keyboard-response","212","591327","0.0-187.0","5834a80a106ee1000120abd3","665500ab8938657b03fbdba8","66577efee2ba9ae37d367378","773","stimuli/0010010.jpg","0","","prediction_trial","0","","true","","0","true","true","true","true","true","true","[0]","010","010","1","","","","","","",""
"","","","","","image-keyboard-response","213","591993","0.0-188.0","5834a80a106ee1000120abd3","665500ab8938657b03fbdba8","66577efee2ba9ae37d367378","664","stimuli/00100100.jpg"," ","","feedback_trial","0","","","","","","","","","","","","","","","","","","","","",""
"","","","","","image-keyboard-response","214","593120","0.0-189.0","5834a80a106ee1000120abd3","665500ab8938657b03fbdba8","66577efee2ba9ae37d367378","1126","stimuli/1101001.jpg","1","","prediction_trial","1","","true","","1","true","true","true","true","true","true","[1]","101","001","1","","","","","","",""
"","","","","","image-keyboard-response","215","593655","0.0-190.0","5834a80a106ee1000120abd3","665500ab8938657b03fbdba8","66577efee2ba9ae37d367378","533","stimuli/11010011.jpg"," ","","feedback_trial","1","","","","","","","","","","","","","","","","","","","","",""
"","","","","","image-keyboard-response","216","594721","0.0-191.0","5834a80a106ee1000120abd3","665500ab8938657b03fbdba8","66577efee2ba9ae37d367378","1064","stimuli/2010100.jpg","2","","prediction_trial","2","","true","","2","true","true","true","true","true","true","[2]","010","100","1","","","","","","",""
"","","","","","image-keyboard-response","217","595241","0.0-192.0","5834a80a106ee1000120abd3","665500ab8938657b03fbdba8","66577efee2ba9ae37d367378","517","stimuli/20101002.jpg"," ","","feedback_trial","2","","","","","","","","","","","","","","","","","","","","",""
"","","","","","image-keyboard-response","218","597511","0.0-193.0","5834a80a106ee1000120abd3","665500ab8938657b03fbdba8","66577efee2ba9ae37d367378","2238","stimuli/1111000.jpg","0","","prediction_trial","0","","true","","1","true","true","false","false","false","false","[1,0,2]","111","000","1","","","","","","",""
"","","","","","image-keyboard-response","219","598569","0.0-194.0","5834a80a106ee1000120abd3","665500ab8938657b03fbdba8","66577efee2ba9ae37d367378","1056","stimuli/11110000.jpg"," ","","feedback_trial","1","","","","","","","","","","","","","","","","","","","","",""
"","","","","","image-keyboard-response","220","599801","0.0-195.0","5834a80a106ee1000120abd3","665500ab8938657b03fbdba8","66577efee2ba9ae37d367378","1230","stimuli/0010011.jpg","0","","prediction_trial","0","","true","","0","true","true","true","true","true","true","[0]","010","011","1","","","","","","",""
"","","","","","image-keyboard-response","221","600328","0.0-196.0","5834a80a106ee1000120abd3","665500ab8938657b03fbdba8","66577efee2ba9ae37d367378","525","stimuli/00100110.jpg"," ","","feedback_trial","0","","","","","","","","","","","","","","","","","","","","",""
"","","","","","image-keyboard-response","222","602896","0.0-197.0","5834a80a106ee1000120abd3","665500ab8938657b03fbdba8","66577efee2ba9ae37d367378","2567","stimuli/0101110.jpg","0","","prediction_trial","2","","false","","0","false","false","false","false","false","false","[2,0]","101","110","0","","","","","","",""
"","","","","","image-keyboard-response","223","604177","0.0-198.0","5834a80a106ee1000120abd3","665500ab8938657b03fbdba8","66577efee2ba9ae37d367378","1278","stimuli/01011102.jpg"," ","","feedback_trial","2","","","","","","","","","","","","","","","","","","","","",""
"","","","","","image-keyboard-response","224","606825","0.0-199.0","5834a80a106ee1000120abd3","665500ab8938657b03fbdba8","66577efee2ba9ae37d367378","2646","stimuli/1010110.jpg","1","","prediction_trial","1","","true","","1","false","false","false","true","false","false","[1]","010","110","1","","","","","","",""
"","","","","","image-keyboard-response","225","608305","0.0-200.0","5834a80a106ee1000120abd3","665500ab8938657b03fbdba8","66577efee2ba9ae37d367378","1478","stimuli/10101101.jpg"," ","","feedback_trial","1","","","","","","","","","","","","","","","","","","","","",""
"","","","","","image-keyboard-response","226","610009","0.0-201.0","5834a80a106ee1000120abd3","665500ab8938657b03fbdba8","66577efee2ba9ae37d367378","1666","stimuli/1010001.jpg","1","","prediction_trial","1","","true","","1","true","true","false","true","false","true","[1]","010","001","1","","","","","","",""
"","","","","","image-keyboard-response","227","611144","0.0-202.0","5834a80a106ee1000120abd3","665500ab8938657b03fbdba8","66577efee2ba9ae37d367378","1133","stimuli/10100011.jpg"," ","","feedback_trial","1","","","","","","","","","","","","","","","","","","","","",""
"","","","","","image-keyboard-response","228","613465","0.0-203.0","5834a80a106ee1000120abd3","665500ab8938657b03fbdba8","66577efee2ba9ae37d367378","2319","stimuli/0100000.jpg","0","","prediction_trial","0","","true","","0","true","true","false","true","false","true","[0]","100","000","1","","","","","","",""
"","","","","","image-keyboard-response","229","614585","0.0-204.0","5834a80a106ee1000120abd3","665500ab8938657b03fbdba8","66577efee2ba9ae37d367378","1118","stimuli/01000000.jpg"," ","","feedback_trial","0","","","","","","","","","","","","","","","","","","","","",""
"","","","","","image-keyboard-response","230","615985","0.0-205.0","5834a80a106ee1000120abd3","665500ab8938657b03fbdba8","66577efee2ba9ae37d367378","1398","stimuli/0000010.jpg","0","","prediction_trial","0","","true","","0","true","true","true","true","true","true","[0]","000","010","1","","","","","","",""
"","","","","","image-keyboard-response","231","616712","0.0-206.0","5834a80a106ee1000120abd3","665500ab8938657b03fbdba8","66577efee2ba9ae37d367378","725","stimuli/00000100.jpg"," ","","feedback_trial","0","","","","","","","","","","","","","","","","","","","","",""
"","","","","","image-keyboard-response","232","618889","0.0-207.0","5834a80a106ee1000120abd3","665500ab8938657b03fbdba8","66577efee2ba9ae37d367378","2173","stimuli/1111011.jpg","0","","prediction_trial","0","","true","","1","false","false","false","false","false","false","[1,2,0]","111","011","1","","","","","","",""
"","","","","","image-keyboard-response","233","619760","0.0-208.0","5834a80a106ee1000120abd3","665500ab8938657b03fbdba8","66577efee2ba9ae37d367378","869","stimuli/11110110.jpg"," ","","feedback_trial","1","","","","","","","","","","","","","","","","","","","","",""
"","","","","","image-keyboard-response","234","622736","0.0-209.0","5834a80a106ee1000120abd3","665500ab8938657b03fbdba8","66577efee2ba9ae37d367378","2937","stimuli/2010001.jpg","2","","prediction_trial","2","","true","","2","false","true","true","true","false","true","[2]","010","001","1","","","","","","",""
"","","","","","image-keyboard-response","235","623913","0.0-210.0","5834a80a106ee1000120abd3","665500ab8938657b03fbdba8","66577efee2ba9ae37d367378","1174","stimuli/20100012.jpg"," ","","feedback_trial","2","","","","","","","","","","","","","","","","","","","","",""
"","","","","","image-keyboard-response","236","625015","0.0-211.0","5834a80a106ee1000120abd3","665500ab8938657b03fbdba8","66577efee2ba9ae37d367378","1100","stimuli/2110110.jpg","2","","prediction_trial","2","","true","","2","true","true","true","true","true","true","[2]","110","110","1","","","","","","",""
"","","","","","image-keyboard-response","237","625648","0.0-212.0","5834a80a106ee1000120abd3","665500ab8938657b03fbdba8","66577efee2ba9ae37d367378","632","stimuli/21101102.jpg"," ","","feedback_trial","2","","","","","","","","","","","","","","","","","","","","",""
"","","","","","image-keyboard-response","238","628417","0.0-213.0","5834a80a106ee1000120abd3","665500ab8938657b03fbdba8","66577efee2ba9ae37d367378","2766","stimuli/0101010.jpg","0","","prediction_trial","2","","false","","0","true","true","false","false","false","false","[0,2]","101","010","0","","","","","","",""
"","","","","","image-keyboard-response","239","630033","0.0-214.0","5834a80a106ee1000120abd3","665500ab8938657b03fbdba8","66577efee2ba9ae37d367378","1614","stimuli/01010102.jpg"," ","","feedback_trial","0","","","","","","","","","","","","","","","","","","","","",""
"","","","","","image-keyboard-response","240","633016","0.0-215.0","5834a80a106ee1000120abd3","665500ab8938657b03fbdba8","66577efee2ba9ae37d367378","2980","stimuli/2111101.jpg","0","","prediction_trial","2","","false","","2","false","false","false","false","false","false","[1,0,2]","111","101","0","","","","","","",""
"","","","","","image-keyboard-response","241","634169","0.0-216.0","5834a80a106ee1000120abd3","665500ab8938657b03fbdba8","66577efee2ba9ae37d367378","1149","stimuli/21111012.jpg"," ","","feedback_trial","1","","","","","","","","","","","","","","","","","","","","",""
"","","","","","image-keyboard-response","242","634952","0.0-217.0","5834a80a106ee1000120abd3","665500ab8938657b03fbdba8","66577efee2ba9ae37d367378","747","stimuli/0000001.jpg","0","","prediction_trial","0","","true","","0","true","true","true","true","true","true","[0]","000","001","1","","","","","","",""
"","","","","","image-keyboard-response","243","635368","0.0-218.0","5834a80a106ee1000120abd3","665500ab8938657b03fbdba8","66577efee2ba9ae37d367378","414","stimuli/00000010.jpg"," ","","feedback_trial","0","","","","","","","","","","","","","","","","","","","","",""
"","","","","","image-keyboard-response","244","636647","0.0-219.0","5834a80a106ee1000120abd3","665500ab8938657b03fbdba8","66577efee2ba9ae37d367378","1277","stimuli/1000101.jpg","1","","prediction_trial","1","","true","","1","true","true","true","true","true","true","[1]","000","101","1","","","","","","",""
"","","","","","image-keyboard-response","245","637072","0.0-220.0","5834a80a106ee1000120abd3","665500ab8938657b03fbdba8","66577efee2ba9ae37d367378","424","stimuli/10001011.jpg"," ","","feedback_trial","1","","","","","","","","","","","","","","","","","","","","",""
"","","","","","image-keyboard-response","246","638536","0.0-221.0","5834a80a106ee1000120abd3","665500ab8938657b03fbdba8","66577efee2ba9ae37d367378","1463","stimuli/0010100.jpg","0","","prediction_trial","0","","true","","0","false","true","true","true","false","true","[0]","010","100","1","","","","","","",""
"","","","","","image-keyboard-response","247","639633","0.0-222.0","5834a80a106ee1000120abd3","665500ab8938657b03fbdba8","66577efee2ba9ae37d367378","1095","stimuli/00101000.jpg"," ","","feedback_trial","0","","","","","","","","","","","","","","","","","","","","",""
"","","","","","image-keyboard-response","248","646089","0.0-223.0","5834a80a106ee1000120abd3","665500ab8938657b03fbdba8","66577efee2ba9ae37d367378","6453","stimuli/2011001.jpg","2","","prediction_trial","1","","false","","2","false","true","false","false","false","false","[1,2]","011","001","0","","","","","","",""
"","","","","","image-keyboard-response","249","647137","0.0-224.0","5834a80a106ee1000120abd3","665500ab8938657b03fbdba8","66577efee2ba9ae37d367378","1044","stimuli/20110011.jpg"," ","","feedback_trial","1","","","","","","","","","","","","","","","","","","","","",""
"","","","","","image-keyboard-response","250","648856","0.0-225.0","5834a80a106ee1000120abd3","665500ab8938657b03fbdba8","66577efee2ba9ae37d367378","1687","stimuli/1000001.jpg","1","","prediction_trial","1","","true","","1","true","true","true","true","true","true","[1]","000","001","1","","","","","","",""
"","","","","","image-keyboard-response","251","649752","0.0-226.0","5834a80a106ee1000120abd3","665500ab8938657b03fbdba8","66577efee2ba9ae37d367378","893","stimuli/10000011.jpg"," ","","feedback_trial","1","","","","","","","","","","","","","","","","","","","","",""
"","","","","","image-keyboard-response","252","650864","0.0-227.0","5834a80a106ee1000120abd3","665500ab8938657b03fbdba8","66577efee2ba9ae37d367378","1110","stimuli/2000100.jpg","2","","prediction_trial","2","","true","","2","true","true","true","true","true","true","[2]","000","100","1","","","","","","",""
"","","","","","image-keyboard-response","253","651488","0.0-228.0","5834a80a106ee1000120abd3","665500ab8938657b03fbdba8","66577efee2ba9ae37d367378","622","stimuli/20001002.jpg"," ","","feedback_trial","2","","","","","","","","","","","","","","","","","","","","",""
"","","","","","image-keyboard-response","254","652367","0.0-229.0","5834a80a106ee1000120abd3","665500ab8938657b03fbdba8","66577efee2ba9ae37d367378","877","stimuli/1001001.jpg","1","","prediction_trial","1","","true","","1","true","true","true","true","true","true","[1]","001","001","1","","","","","","",""
"","","","","","image-keyboard-response","255","652912","0.0-230.0","5834a80a106ee1000120abd3","665500ab8938657b03fbdba8","66577efee2ba9ae37d367378","544","stimuli/10010011.jpg"," ","","feedback_trial","1","","","","","","","","","","","","","","","","","","","","",""
"","","","","","image-keyboard-response","256","657297","0.0-231.0","5834a80a106ee1000120abd3","665500ab8938657b03fbdba8","66577efee2ba9ae37d367378","4382","stimuli/2001011.jpg","1","","prediction_trial","2","","false","","2","false","false","false","true","false","false","[2]","001","011","0","","","","","","",""
"","","","","","image-keyboard-response","257","658528","0.0-232.0","5834a80a106ee1000120abd3","665500ab8938657b03fbdba8","66577efee2ba9ae37d367378","1229","stimuli/20010112.jpg"," ","","feedback_trial","2","","","","","","","","","","","","","","","","","","","","",""
"","","","","","image-keyboard-response","258","661336","0.0-233.0","5834a80a106ee1000120abd3","665500ab8938657b03fbdba8","66577efee2ba9ae37d367378","2772","stimuli/0010110.jpg","1","","prediction_trial","0","","false","","0","false","false","true","true","false","false","[0]","010","110","0","","","","","","",""
"","","","","","image-keyboard-response","259","662305","0.0-234.0","5834a80a106ee1000120abd3","665500ab8938657b03fbdba8","66577efee2ba9ae37d367378","966","stimuli/00101100.jpg"," ","","feedback_trial","0","","","","","","","","","","","","","","","","","","","","",""
"","","","","","image-keyboard-response","260","663065","0.0-235.0","5834a80a106ee1000120abd3","665500ab8938657b03fbdba8","66577efee2ba9ae37d367378","758","stimuli/1010100.jpg","1","","prediction_trial","1","","true","","1","true","true","false","true","false","true","[1]","010","100","1","","","","","","",""
"","","","","","image-keyboard-response","261","664320","0.0-236.0","5834a80a106ee1000120abd3","665500ab8938657b03fbdba8","66577efee2ba9ae37d367378","1253","stimuli/10101001.jpg"," ","","feedback_trial","1","","","","","","","","","","","","","","","","","","","","",""
"","","","","","image-keyboard-response","262","665553","0.0-237.0","5834a80a106ee1000120abd3","665500ab8938657b03fbdba8","66577efee2ba9ae37d367378","1230","stimuli/0011101.jpg","2","","prediction_trial","0","","false","","0","false","false","true","true","false","false","[0]","011","101","0","","","","","","",""
"","","","","","image-keyboard-response","263","666609","0.0-238.0","5834a80a106ee1000120abd3","665500ab8938657b03fbdba8","66577efee2ba9ae37d367378","1053","stimuli/00111010.jpg"," ","","feedback_trial","0","","","","","","","","","","","","","","","","","","","","",""
"","","","","","image-keyboard-response","264","669793","0.0-239.0","5834a80a106ee1000120abd3","665500ab8938657b03fbdba8","66577efee2ba9ae37d367378","3182","stimuli/0011111.jpg","1","","prediction_trial","0","","false","","0","false","false","true","true","false","false","[0]","011","111","0","","","","","","",""
"","","","","","image-keyboard-response","265","670600","0.0-240.0","5834a80a106ee1000120abd3","665500ab8938657b03fbdba8","66577efee2ba9ae37d367378","805","stimuli/00111110.jpg"," ","","feedback_trial","0","","","","","","","","","","","","","","","","","","","","",""
"","","","","","image-keyboard-response","266","671480","0.0-241.0","5834a80a106ee1000120abd3","665500ab8938657b03fbdba8","66577efee2ba9ae37d367378","847","stimuli/1000000.jpg","1","","prediction_trial","1","","true","","1","true","true","true","true","true","true","[1]","000","000","1","","","","","","",""
"","","","","","image-keyboard-response","267","672056","0.0-242.0","5834a80a106ee1000120abd3","665500ab8938657b03fbdba8","66577efee2ba9ae37d367378","573","stimuli/10000001.jpg"," ","","feedback_trial","1","","","","","","","","","","","","","","","","","","","","",""
"","","","","","image-keyboard-response","268","673952","0.0-243.0","5834a80a106ee1000120abd3","665500ab8938657b03fbdba8","66577efee2ba9ae37d367378","1893","stimuli/1001010.jpg","1","","prediction_trial","1","","true","","1","false","true","true","true","false","true","[1]","001","010","1","","","","","","",""
"","","","","","image-keyboard-response","269","675088","0.0-244.0","5834a80a106ee1000120abd3","665500ab8938657b03fbdba8","66577efee2ba9ae37d367378","1133","stimuli/10010101.jpg"," ","","feedback_trial","1","","","","","","","","","","","","","","","","","","","","",""
"","","","","","image-keyboard-response","270","676408","0.0-245.0","5834a80a106ee1000120abd3","665500ab8938657b03fbdba8","66577efee2ba9ae37d367378","1318","stimuli/1011001.jpg","1","","prediction_trial","1","","true","","1","true","true","false","false","false","false","[1,2]","011","001","1","","","","","","",""
"","","","","","image-keyboard-response","271","677192","0.0-246.0","5834a80a106ee1000120abd3","665500ab8938657b03fbdba8","66577efee2ba9ae37d367378","782","stimuli/10110011.jpg"," ","","feedback_trial","1","","","","","","","","","","","","","","","","","","","","",""
"","","","","","image-keyboard-response","272","679048","0.0-247.0","5834a80a106ee1000120abd3","665500ab8938657b03fbdba8","66577efee2ba9ae37d367378","1854","stimuli/1010111.jpg","1","","prediction_trial","1","","true","","1","false","false","false","true","false","false","[1]","010","111","1","","","","","","",""
"","","","","","image-keyboard-response","273","680056","0.0-248.0","5834a80a106ee1000120abd3","665500ab8938657b03fbdba8","66577efee2ba9ae37d367378","1007","stimuli/10101111.jpg"," ","","feedback_trial","1","","","","","","","","","","","","","","","","","","","","",""
"","","","","","image-keyboard-response","274","682224","0.0-249.0","5834a80a106ee1000120abd3","665500ab8938657b03fbdba8","66577efee2ba9ae37d367378","2140","stimuli/2000011.jpg","1","","prediction_trial","2","","false","","2","false","false","true","true","false","false","[2]","000","011","0","","","","","","",""
"","","","","","image-keyboard-response","275","683399","0.0-250.0","5834a80a106ee1000120abd3","665500ab8938657b03fbdba8","66577efee2ba9ae37d367378","1174","stimuli/20000112.jpg"," ","","feedback_trial","2","","","","","","","","","","","","","","","","","","","","",""
"","","","","","image-keyboard-response","276","688336","0.0-251.0","5834a80a106ee1000120abd3","665500ab8938657b03fbdba8","66577efee2ba9ae37d367378","4934","stimuli/1011011.jpg","2","","prediction_trial","1","","false","","1","false","false","false","false","false","false","[1,2]","011","011","0","","","","","","",""
"","","","","","image-keyboard-response","277","689600","0.0-252.0","5834a80a106ee1000120abd3","665500ab8938657b03fbdba8","66577efee2ba9ae37d367378","1261","stimuli/10110111.jpg"," ","","feedback_trial","1","","","","","","","","","","","","","","","","","","","","",""
"","","","","","image-keyboard-response","278","691024","0.0-253.0","5834a80a106ee1000120abd3","665500ab8938657b03fbdba8","66577efee2ba9ae37d367378","1422","stimuli/0111011.jpg","0","","prediction_trial","2","","false","","0","true","true","false","false","false","false","[1,0,2]","111","011","0","","","","","","",""
"","","","","","image-keyboard-response","279","692104","0.0-254.0","5834a80a106ee1000120abd3","665500ab8938657b03fbdba8","66577efee2ba9ae37d367378","1077","stimuli/01110112.jpg"," ","","feedback_trial","1","","","","","","","","","","","","","","","","","","","","",""
"","","","","","image-keyboard-response","280","692959","0.0-255.0","5834a80a106ee1000120abd3","665500ab8938657b03fbdba8","66577efee2ba9ae37d367378","852","stimuli/1101000.jpg","1","","prediction_trial","1","","true","","1","true","true","true","true","true","true","[1]","101","000","1","","","","","","",""
"","","","","","image-keyboard-response","281","693528","0.0-256.0","5834a80a106ee1000120abd3","665500ab8938657b03fbdba8","66577efee2ba9ae37d367378","568","stimuli/11010001.jpg"," ","","feedback_trial","1","","","","","","","","","","","","","","","","","","","","",""
"","","","","","image-keyboard-response","282","695760","0.0-257.0","5834a80a106ee1000120abd3","665500ab8938657b03fbdba8","66577efee2ba9ae37d367378","2190","stimuli/0100110.jpg","0","","prediction_trial","0","","true","","0","false","false","false","true","false","false","[0]","100","110","1","","","","","","",""
"","","","","","image-keyboard-response","283","696880","0.0-258.0","5834a80a106ee1000120abd3","665500ab8938657b03fbdba8","66577efee2ba9ae37d367378","1118","stimuli/01001100.jpg"," ","","feedback_trial","0","","","","","","","","","","","","","","","","","","","","",""
"","","","","","image-keyboard-response","284","699527","0.0-259.0","5834a80a106ee1000120abd3","665500ab8938657b03fbdba8","66577efee2ba9ae37d367378","2645","stimuli/2001000.jpg","2","","prediction_trial","2","","true","","2","true","true","false","true","false","true","[2]","001","000","1","","","","","","",""
"","","","","","image-keyboard-response","285","700167","0.0-260.0","5834a80a106ee1000120abd3","665500ab8938657b03fbdba8","66577efee2ba9ae37d367378","639","stimuli/20010002.jpg"," ","","feedback_trial","2","","","","","","","","","","","","","","","","","","","","",""
"","","","","","image-keyboard-response","286","701152","0.0-261.0","5834a80a106ee1000120abd3","665500ab8938657b03fbdba8","66577efee2ba9ae37d367378","983","stimuli/0001001.jpg","0","","prediction_trial","0","","true","","0","true","true","true","true","true","true","[0]","001","001","1","","","","","","",""
"","","","","","image-keyboard-response","287","701648","0.0-262.0","5834a80a106ee1000120abd3","665500ab8938657b03fbdba8","66577efee2ba9ae37d367378","493","stimuli/00010010.jpg"," ","","feedback_trial","0","","","","","","","","","","","","","","","","","","","","",""
"","","","","","image-keyboard-response","288","704888","0.0-263.0","5834a80a106ee1000120abd3","665500ab8938657b03fbdba8","66577efee2ba9ae37d367378","3238","stimuli/1011100.jpg","1","","prediction_trial","1","","true","","1","true","true","false","false","false","false","[1,2]","011","100","1","","","","","","",""
"","","","","","image-keyboard-response","289","706135","0.0-264.0","5834a80a106ee1000120abd3","665500ab8938657b03fbdba8","66577efee2ba9ae37d367378","1245","stimuli/10111001.jpg"," ","","feedback_trial","1","","","","","","","","","","","","","","","","","","","","",""
"","","","","","image-keyboard-response","290","707560","0.0-265.0","5834a80a106ee1000120abd3","665500ab8938657b03fbdba8","66577efee2ba9ae37d367378","1393","stimuli/2011100.jpg","2","","prediction_trial","1","","false","","2","true","true","false","false","false","false","[1,2]","011","100","0","","","","","","",""
"","","","","","image-keyboard-response","291","708864","0.0-266.0","5834a80a106ee1000120abd3","665500ab8938657b03fbdba8","66577efee2ba9ae37d367378","1301","stimuli/20111001.jpg"," ","","feedback_trial","1","","","","","","","","","","","","","","","","","","","","",""
"","","","","","image-keyboard-response","292","710512","0.0-267.0","5834a80a106ee1000120abd3","665500ab8938657b03fbdba8","66577efee2ba9ae37d367378","1646","stimuli/0000011.jpg","0","","prediction_trial","0","","true","","0","true","true","true","true","true","true","[0]","000","011","1","","","","","","",""
"","","","","","image-keyboard-response","293","711063","0.0-268.0","5834a80a106ee1000120abd3","665500ab8938657b03fbdba8","66577efee2ba9ae37d367378","549","stimuli/00000110.jpg"," ","","feedback_trial","0","","","","","","","","","","","","","","","","","","","","",""
"","","","","","image-keyboard-response","294","716704","0.0-269.0","5834a80a106ee1000120abd3","665500ab8938657b03fbdba8","66577efee2ba9ae37d367378","5638","stimuli/1101111.jpg","1","","prediction_trial","1","","true","","1","false","false","true","true","false","false","[1]","101","111","1","","","","","","",""
"","","","","","image-keyboard-response","295","717703","0.0-270.0","5834a80a106ee1000120abd3","665500ab8938657b03fbdba8","66577efee2ba9ae37d367378","997","stimuli/11011111.jpg"," ","","feedback_trial","1","","","","","","","","","","","","","","","","","","","","",""
"","","","","","image-keyboard-response","296","718624","0.0-271.0","5834a80a106ee1000120abd3","665500ab8938657b03fbdba8","66577efee2ba9ae37d367378","918","stimuli/1100001.jpg","1","","prediction_trial","1","","true","","1","true","true","true","true","true","true","[1]","100","001","1","","","","","","",""
"","","","","","image-keyboard-response","297","719064","0.0-272.0","5834a80a106ee1000120abd3","665500ab8938657b03fbdba8","66577efee2ba9ae37d367378","437","stimuli/11000011.jpg"," ","","feedback_trial","1","","","","","","","","","","","","","","","","","","","","",""
"","","","","","image-keyboard-response","298","722192","0.0-273.0","5834a80a106ee1000120abd3","665500ab8938657b03fbdba8","66577efee2ba9ae37d367378","3092","stimuli/2100101.jpg","2","","prediction_trial","2","","true","","2","false","false","true","true","false","false","[2]","100","101","1","","","","","","",""
"","","","","","image-keyboard-response","299","723176","0.0-274.0","5834a80a106ee1000120abd3","665500ab8938657b03fbdba8","66577efee2ba9ae37d367378","981","stimuli/21001012.jpg"," ","","feedback_trial","2","","","","","","","","","","","","","","","","","","","","",""
"","","","","","image-keyboard-response","300","727791","0.0-275.0","5834a80a106ee1000120abd3","665500ab8938657b03fbdba8","66577efee2ba9ae37d367378","4613","stimuli/1110011.jpg","2","","prediction_trial","1","","false","","1","false","false","false","false","false","false","[0,1]","110","011","0","","","","","","",""
"","","","","","image-keyboard-response","301","728977","0.0-276.0","5834a80a106ee1000120abd3","665500ab8938657b03fbdba8","66577efee2ba9ae37d367378","1184","stimuli/11100111.jpg"," ","","feedback_trial","0","","","","","","","","","","","","","","","","","","","","",""
"","","","","","image-keyboard-response","302","732216","0.0-277.0","5834a80a106ee1000120abd3","665500ab8938657b03fbdba8","66577efee2ba9ae37d367378","3236","stimuli/2111111.jpg","0","","prediction_trial","0","","true","","2","false","false","false","false","false","false","[1,2,0]","111","111","1","","","","","","",""
"","","","","","image-keyboard-response","303","733232","0.0-278.0","5834a80a106ee1000120abd3","665500ab8938657b03fbdba8","66577efee2ba9ae37d367378","1013","stimuli/21111110.jpg"," ","","feedback_trial","1","","","","","","","","","","","","","","","","","","","","",""
"","","","","","image-keyboard-response","304","736823","0.0-279.0","5834a80a106ee1000120abd3","665500ab8938657b03fbdba8","66577efee2ba9ae37d367378","3590","stimuli/2101010.jpg","0","","prediction_trial","2","","false","","2","true","true","false","false","false","false","[2,0]","101","010","0","","","","","","",""
"","","","","","image-keyboard-response","305","738880","0.0-280.0","5834a80a106ee1000120abd3","665500ab8938657b03fbdba8","66577efee2ba9ae37d367378","2054","stimuli/21010102.jpg"," ","","feedback_trial","2","","","","","","","","","","","","","","","","","","","","",""
"","","","","","image-keyboard-response","306","741031","0.0-281.0","5834a80a106ee1000120abd3","665500ab8938657b03fbdba8","66577efee2ba9ae37d367378","2119","stimuli/2111000.jpg","2","","prediction_trial","0","","false","","2","true","true","false","false","false","false","[0,2,1]","111","000","0","","","","","","",""
"","","","","","image-keyboard-response","307","742104","0.0-282.0","5834a80a106ee1000120abd3","665500ab8938657b03fbdba8","66577efee2ba9ae37d367378","1070","stimuli/21110000.jpg"," ","","feedback_trial","0","","","","","","","","","","","","","","","","","","","","",""
"","","","","","image-keyboard-response","308","743568","0.0-283.0","5834a80a106ee1000120abd3","665500ab8938657b03fbdba8","66577efee2ba9ae37d367378","1462","stimuli/2101011.jpg","1","","prediction_trial","0","","false","","2","false","false","false","false","false","false","[2,0]","101","011","0","","","","","","",""
"","","","","","image-keyboard-response","309","746112","0.0-284.0","5834a80a106ee1000120abd3","665500ab8938657b03fbdba8","66577efee2ba9ae37d367378","2541","stimuli/21010110.jpg"," ","","feedback_trial","2","","","","","","","","","","","","","","","","","","","","",""
"","","","","","image-keyboard-response","310","750433","0.0-285.0","5834a80a106ee1000120abd3","665500ab8938657b03fbdba8","66577efee2ba9ae37d367378","4318","stimuli/0111110.jpg","0","","prediction_trial","2","","false","","0","false","false","false","false","false","false","[1,2,0]","111","110","0","","","","","","",""
"","","","","","image-keyboard-response","311","751760","0.0-286.0","5834a80a106ee1000120abd3","665500ab8938657b03fbdba8","66577efee2ba9ae37d367378","1325","stimuli/01111102.jpg"," ","","feedback_trial","1","","","","","","","","","","","","","","","","","","","","",""
"","","","","","image-keyboard-response","312","754368","0.0-287.0","5834a80a106ee1000120abd3","665500ab8938657b03fbdba8","66577efee2ba9ae37d367378","2606","stimuli/1010011.jpg","1","","prediction_trial","1","","true","","1","false","false","false","true","false","false","[1]","010","011","1","","","","","","",""
"","","","","","image-keyboard-response","313","755945","0.0-288.0","5834a80a106ee1000120abd3","665500ab8938657b03fbdba8","66577efee2ba9ae37d367378","1574","stimuli/10100111.jpg"," ","","feedback_trial","1","","","","","","","","","","","","","","","","","","","","",""
"","","","","","image-keyboard-response","314","757760","0.0-289.0","5834a80a106ee1000120abd3","665500ab8938657b03fbdba8","66577efee2ba9ae37d367378","1782","stimuli/0011100.jpg","0","","prediction_trial","0","","true","","0","false","true","true","true","false","true","[0]","011","100","1","","","","","","",""
"","","","","","image-keyboard-response","315","758800","0.0-290.0","5834a80a106ee1000120abd3","665500ab8938657b03fbdba8","66577efee2ba9ae37d367378","1037","stimuli/00111000.jpg"," ","","feedback_trial","0","","","","","","","","","","","","","","","","","","","","",""
"","","","","","image-keyboard-response","316","760408","0.0-291.0","5834a80a106ee1000120abd3","665500ab8938657b03fbdba8","66577efee2ba9ae37d367378","1605","stimuli/1010000.jpg","1","","prediction_trial","1","","true","","1","true","true","false","true","false","true","[1]","010","000","1","","","","","","",""
"","","","","","image-keyboard-response","317","761497","0.0-292.0","5834a80a106ee1000120abd3","665500ab8938657b03fbdba8","66577efee2ba9ae37d367378","1087","stimuli/10100001.jpg"," ","","feedback_trial","1","","","","","","","","","","","","","","","","","","","","",""
"","","","","","survey-html-form","318","882094","0.0-293.0","5834a80a106ee1000120abd3","665500ab8938657b03fbdba8","66577efee2ba9ae37d367378","120593","","{""feedback"":""Some were pretty obvious, since either Sam could see the ball, or see where it wasn't. I never figured out if there was a pattern to the choices, although sometimes, if the ball was found in a particular basket, Sam would choose that one multiple times in a row."",""age"":""65"",""gender"":""Female"",""other_gender"":"""",""race"":""White"",""other_race"":"""",""ethnicity"":""Non-Hispanic""}","","exit_survey","","","","","","","","","","","","","","","","Some were pretty obvious, since either Sam could see the ball, or see where it wasn't. I never figured out if there was a pattern to the choices, although sometimes, if the ball was found in a particular basket, Sam would choose that one multiple times in a row.","65","Non-Hispanic","Female","White","0.6805555555555556","0.6805555555555556"
