"success","timeout","failed_images","failed_audio","failed_video","trial_type","trial_index","time_elapsed","internal_node_id","prolific_id","prolific_study_id","prolific_session_id","rt","stimulus","response","view_history","trial","character_choice","stimulus_dict","accuracy","correct_response","ball_pos","ego_ball_visible","ego_can_infer","alter_ball_visible","alter_can_infer","collective_ball_visible","collective_can_infer","search_locations","alter_occluders","ego_occluders","accuracy_bool","feedback","age","ethnicity","gender","race","overall_accuracy","bonus"
"true","false","[]","[]","[]","preload","0","1934","0.0-0.0","62b35a7d9d9cd966ebcf3ef8","665500ab8938657b03fbdba8","665792a4fedf541d6edd92c8","","","","","","","","","","","","","","","","","","","","","","","","","","",""
"true","","","","","fullscreen","1","14065","0.0-1.0","62b35a7d9d9cd966ebcf3ef8","665500ab8938657b03fbdba8","665792a4fedf541d6edd92c8","","","","","","","","","","","","","","","","","","","","","","","","","","",""
"","","","","","html-button-response","2","33365","0.0-2.0","62b35a7d9d9cd966ebcf3ef8","665500ab8938657b03fbdba8","665792a4fedf541d6edd92c8","19298","<p><b>Consent Form</b></p> <div style=""text-align:left;background-color:lightgrey; padding:20px; max-width:900px;""><p>Please consider this information carefully before deciding whether to participate in this research.</p> <p>The purpose of this research is to examine which factors influence social judgment and decision-making. You will be asked to make judgements about individuals and actions in social scenarios. We are simply interested in your judgement. The study will take less than 1 hour to complete, and you will receive less than $20 on Prolific. Your compensation and time commitment are specified in the study description. There are no anticipated risks associated with participating in this study. The effects of participating should be comparable to those you would ordinarily experience from viewing a computer monitor and using a mouse or keyboard for a similar amount of time. At the end of the study, we will provide an explanation of the questions that motivate this line of research and will describe the potential implications. </p><p> Your participation in this study is completely voluntary and you may refuse to participate or you may choose to withdraw at any time without penalty or loss of benefits to you which are otherwise entitled. Your participation in this study will remain confidential. No personally identifiable information will be associated with your data. Also, all analyses of the data will be averaged across all the participants, so your individual responses will never be specifically analyzed. </p><p> If you have questions or concerns about your participation or payment, or want to request a summary of research findings, please contact Dr. Jonathan Phillips at Jonathan.S.Phillips@dartmouth.edu. </p><p> Please save a copy of this form for your records. </p><p><b>Agreement: </b>The nature and purpose of this research have been sufficiently explained and I agree to participate in this study. I understand that I am free to withdraw at any time without incurring any penalty. Please consent by clicking the button below to continue. Otherwise, please exit the study at any time. </p>","0","","","","","","","","","","","","","","","","","","","","","","","",""
"","","","","","instructions","3","150777","0.0-3.0-0.0","62b35a7d9d9cd966ebcf3ef8","665500ab8938657b03fbdba8","665792a4fedf541d6edd92c8","117410","","","[{""page_index"":0,""viewing_time"":1984},{""page_index"":1,""viewing_time"":6172},{""page_index"":2,""viewing_time"":4885},{""page_index"":3,""viewing_time"":10915},{""page_index"":4,""viewing_time"":4966},{""page_index"":5,""viewing_time"":6038},{""page_index"":6,""viewing_time"":5869},{""page_index"":7,""viewing_time"":5277},{""page_index"":8,""viewing_time"":5117},{""page_index"":9,""viewing_time"":4367},{""page_index"":10,""viewing_time"":19479},{""page_index"":11,""viewing_time"":15914},{""page_index"":12,""viewing_time"":23365},{""page_index"":13,""viewing_time"":3063}]","intro","","","","","","","","","","","","","","","","","","","","","",""
"","","","","","image-keyboard-response","4","167383","0.0-3.0-1.0","62b35a7d9d9cd966ebcf3ef8","665500ab8938657b03fbdba8","665792a4fedf541d6edd92c8","16602","stimuli/1111000.jpg","2","","prediction_practice","2","{""filepath"":""stimuli/1111000.jpg"",""ball_pos"":1,""ego_ball_visible"":true,""ego_can_infer"":true,""alter_ball_visible"":false,""alter_can_infer"":false,""collective_ball_visible"":false,""collective_can_infer"":false,""search_locations"":[2,1,0],""alter_occluders"":""111"",""ego_occluders"":""000""}","true","","","","","","","","","","","","","","","","","","",""
"","","","","","image-keyboard-response","5","173155","0.0-3.0-2.0","62b35a7d9d9cd966ebcf3ef8","665500ab8938657b03fbdba8","665792a4fedf541d6edd92c8","5770","stimuli/11110002.jpg"," ","","practrice_feedback","2","","","","","","","","","","","","","","","","","","","","",""
"","","","","","image-keyboard-response","6","176299","0.0-3.0-3.0","62b35a7d9d9cd966ebcf3ef8","665500ab8938657b03fbdba8","665792a4fedf541d6edd92c8","3143","stimuli/1101101.jpg","1","","prediction_practice","1","{""filepath"":""stimuli/1101101.jpg"",""ball_pos"":1,""ego_ball_visible"":true,""ego_can_infer"":true,""alter_ball_visible"":true,""alter_can_infer"":true,""collective_ball_visible"":true,""collective_can_infer"":true,""search_locations"":[1],""alter_occluders"":""101"",""ego_occluders"":""101""}","true","","","","","","","","","","","","","","","","","","",""
"","","","","","image-keyboard-response","7","181967","0.0-3.0-4.0","62b35a7d9d9cd966ebcf3ef8","665500ab8938657b03fbdba8","665792a4fedf541d6edd92c8","5667","stimuli/11011011.jpg"," ","","practrice_feedback","1","","","","","","","","","","","","","","","","","","","","",""
"","","","","","image-keyboard-response","8","188903","0.0-3.0-5.0","62b35a7d9d9cd966ebcf3ef8","665500ab8938657b03fbdba8","665792a4fedf541d6edd92c8","6934","stimuli/0110111.jpg","0","","prediction_practice","1","{""filepath"":""stimuli/0110111.jpg"",""ball_pos"":0,""ego_ball_visible"":false,""ego_can_infer"":false,""alter_ball_visible"":false,""alter_can_infer"":false,""collective_ball_visible"":false,""collective_can_infer"":false,""search_locations"":[0,1],""alter_occluders"":""110"",""ego_occluders"":""111""}","false","","","","","","","","","","","","","","","","","","",""
"","","","","","image-keyboard-response","9","190785","0.0-3.0-6.0","62b35a7d9d9cd966ebcf3ef8","665500ab8938657b03fbdba8","665792a4fedf541d6edd92c8","1881","stimuli/01101111.jpg"," ","","practrice_feedback","0","","","","","","","","","","","","","","","","","","","","",""
"","","","","","image-keyboard-response","10","194517","0.0-3.0-7.0","62b35a7d9d9cd966ebcf3ef8","665500ab8938657b03fbdba8","665792a4fedf541d6edd92c8","3730","stimuli/1001100.jpg","1","","prediction_practice","1","{""filepath"":""stimuli/1001100.jpg"",""ball_pos"":1,""ego_ball_visible"":true,""ego_can_infer"":true,""alter_ball_visible"":true,""alter_can_infer"":true,""collective_ball_visible"":true,""collective_can_infer"":true,""search_locations"":[1],""alter_occluders"":""001"",""ego_occluders"":""100""}","true","","","","","","","","","","","","","","","","","","",""
"","","","","","image-keyboard-response","11","195627","0.0-3.0-8.0","62b35a7d9d9cd966ebcf3ef8","665500ab8938657b03fbdba8","665792a4fedf541d6edd92c8","1108","stimuli/10011001.jpg"," ","","practrice_feedback","1","","","","","","","","","","","","","","","","","","","","",""
"","","","","","image-keyboard-response","12","201001","0.0-3.0-9.0","62b35a7d9d9cd966ebcf3ef8","665500ab8938657b03fbdba8","665792a4fedf541d6edd92c8","5372","stimuli/1010010.jpg","1","","prediction_practice","1","{""filepath"":""stimuli/1010010.jpg"",""ball_pos"":1,""ego_ball_visible"":false,""ego_can_infer"":true,""alter_ball_visible"":false,""alter_can_infer"":true,""collective_ball_visible"":false,""collective_can_infer"":true,""search_locations"":[1],""alter_occluders"":""010"",""ego_occluders"":""010""}","true","","","","","","","","","","","","","","","","","","",""
"","","","","","image-keyboard-response","13","202259","0.0-3.0-10.0","62b35a7d9d9cd966ebcf3ef8","665500ab8938657b03fbdba8","665792a4fedf541d6edd92c8","1256","stimuli/10100101.jpg"," ","","practrice_feedback","1","","","","","","","","","","","","","","","","","","","","",""
"","","","","","image-keyboard-response","14","206197","0.0-3.0-11.0","62b35a7d9d9cd966ebcf3ef8","665500ab8938657b03fbdba8","665792a4fedf541d6edd92c8","3937","stimuli/1110010.jpg","1","","prediction_practice","1","{""filepath"":""stimuli/1110010.jpg"",""ball_pos"":1,""ego_ball_visible"":false,""ego_can_infer"":true,""alter_ball_visible"":false,""alter_can_infer"":false,""collective_ball_visible"":false,""collective_can_infer"":false,""search_locations"":[0,1],""alter_occluders"":""110"",""ego_occluders"":""010""}","true","","","","","","","","","","","","","","","","","","",""
"","","","","","image-keyboard-response","15","208495","0.0-3.0-12.0","62b35a7d9d9cd966ebcf3ef8","665500ab8938657b03fbdba8","665792a4fedf541d6edd92c8","2296","stimuli/11100101.jpg"," ","","practrice_feedback","0","","","","","","","","","","","","","","","","","","","","",""
"","","","","","image-keyboard-response","16","210424","0.0-3.0-13.0","62b35a7d9d9cd966ebcf3ef8","665500ab8938657b03fbdba8","665792a4fedf541d6edd92c8","1928","stimuli/1101001.jpg","1","","prediction_practice","1","{""filepath"":""stimuli/1101001.jpg"",""ball_pos"":1,""ego_ball_visible"":true,""ego_can_infer"":true,""alter_ball_visible"":true,""alter_can_infer"":true,""collective_ball_visible"":true,""collective_can_infer"":true,""search_locations"":[1],""alter_occluders"":""101"",""ego_occluders"":""001""}","true","","","","","","","","","","","","","","","","","","",""
"","","","","","image-keyboard-response","17","211326","0.0-3.0-14.0","62b35a7d9d9cd966ebcf3ef8","665500ab8938657b03fbdba8","665792a4fedf541d6edd92c8","900","stimuli/11010011.jpg"," ","","practrice_feedback","1","","","","","","","","","","","","","","","","","","","","",""
"","","","","","image-keyboard-response","18","213464","0.0-3.0-15.0","62b35a7d9d9cd966ebcf3ef8","665500ab8938657b03fbdba8","665792a4fedf541d6edd92c8","2137","stimuli/0001011.jpg","0","","prediction_practice","0","{""filepath"":""stimuli/0001011.jpg"",""ball_pos"":0,""ego_ball_visible"":true,""ego_can_infer"":true,""alter_ball_visible"":true,""alter_can_infer"":true,""collective_ball_visible"":true,""collective_can_infer"":true,""search_locations"":[0],""alter_occluders"":""001"",""ego_occluders"":""011""}","true","","","","","","","","","","","","","","","","","","",""
"","","","","","image-keyboard-response","19","214297","0.0-3.0-16.0","62b35a7d9d9cd966ebcf3ef8","665500ab8938657b03fbdba8","665792a4fedf541d6edd92c8","831","stimuli/00010110.jpg"," ","","practrice_feedback","0","","","","","","","","","","","","","","","","","","","","",""
"","","","","","image-keyboard-response","20","218721","0.0-3.0-17.0","62b35a7d9d9cd966ebcf3ef8","665500ab8938657b03fbdba8","665792a4fedf541d6edd92c8","4423","stimuli/0011110.jpg","0","","prediction_practice","0","{""filepath"":""stimuli/0011110.jpg"",""ball_pos"":0,""ego_ball_visible"":false,""ego_can_infer"":false,""alter_ball_visible"":true,""alter_can_infer"":true,""collective_ball_visible"":false,""collective_can_infer"":false,""search_locations"":[0],""alter_occluders"":""011"",""ego_occluders"":""110""}","true","","","","","","","","","","","","","","","","","","",""
"","","","","","image-keyboard-response","21","220859","0.0-3.0-18.0","62b35a7d9d9cd966ebcf3ef8","665500ab8938657b03fbdba8","665792a4fedf541d6edd92c8","2136","stimuli/00111100.jpg"," ","","practrice_feedback","0","","","","","","","","","","","","","","","","","","","","",""
"","","","","","image-keyboard-response","22","224767","0.0-3.0-19.0","62b35a7d9d9cd966ebcf3ef8","665500ab8938657b03fbdba8","665792a4fedf541d6edd92c8","3901","stimuli/1110100.jpg","1","","prediction_practice","1","{""filepath"":""stimuli/1110100.jpg"",""ball_pos"":1,""ego_ball_visible"":true,""ego_can_infer"":true,""alter_ball_visible"":false,""alter_can_infer"":false,""collective_ball_visible"":false,""collective_can_infer"":false,""search_locations"":[0,1],""alter_occluders"":""110"",""ego_occluders"":""100""}","true","","","","","","","","","","","","","","","","","","",""
"","","","","","image-keyboard-response","23","225991","0.0-3.0-20.0","62b35a7d9d9cd966ebcf3ef8","665500ab8938657b03fbdba8","665792a4fedf541d6edd92c8","1223","stimuli/11101001.jpg"," ","","practrice_feedback","0","","","","","","","","","","","","","","","","","","","","",""
"","","","","","html-button-response","24","249884","0.0-3.0-21.0","62b35a7d9d9cd966ebcf3ef8","665500ab8938657b03fbdba8","665792a4fedf541d6edd92c8","23892","Now that you've had some practice, you'll be tested with a couple of easy trials. If you correctly predict Sam's choice, you'll move on to complete the experiment!","0","","","","","","","","","","","","","","","","","","","","","","","",""
"","","","","","image-keyboard-response","25","252359","0.0-3.0-22.0-0.0","62b35a7d9d9cd966ebcf3ef8","665500ab8938657b03fbdba8","665792a4fedf541d6edd92c8","2475","stimuli/0000011.jpg","arrowleft","","comprehension_quiz","","","true","arrowleft","","","","","","","","","","","","","","","","","",""
"","","","","","image-keyboard-response","26","253813","0.0-3.0-22.0-1.0","62b35a7d9d9cd966ebcf3ef8","665500ab8938657b03fbdba8","665792a4fedf541d6edd92c8","1451","stimuli/00000110.jpg"," ","","comprehension_quiz","","","true"," ","","","","","","","","","","","","","","","","","",""
"","","","","","image-keyboard-response","27","255620","0.0-3.0-22.0-2.0","62b35a7d9d9cd966ebcf3ef8","665500ab8938657b03fbdba8","665792a4fedf541d6edd92c8","1806","stimuli/1010010.jpg","arrowdown","","comprehension_quiz","","","true","arrowdown","","","","","","","","","","","","","","","","","",""
"","","","","","image-keyboard-response","28","256104","0.0-3.0-22.0-3.0","62b35a7d9d9cd966ebcf3ef8","665500ab8938657b03fbdba8","665792a4fedf541d6edd92c8","482","stimuli/10100101.jpg"," ","","comprehension_quiz","","","true"," ","","","","","","","","","","","","","","","","","",""
"","","","","","html-button-response","29","258216","0.0-4.0","62b35a7d9d9cd966ebcf3ef8","665500ab8938657b03fbdba8","665792a4fedf541d6edd92c8","2110","The experiment will now begin.","0","","","","","","","","","","","","","","","","","","","","","","","",""
"","","","","","image-keyboard-response","30","259987","0.0-5.0","62b35a7d9d9cd966ebcf3ef8","665500ab8938657b03fbdba8","665792a4fedf541d6edd92c8","1770","stimuli/2010010.jpg","2","","prediction_trial","2","","true","","2","true","true","true","true","true","true","[2]","010","010","1","","","","","","",""
"","","","","","image-keyboard-response","31","260645","0.0-6.0","62b35a7d9d9cd966ebcf3ef8","665500ab8938657b03fbdba8","665792a4fedf541d6edd92c8","656","stimuli/20100102.jpg"," ","","feedback_trial","2","","","","","","","","","","","","","","","","","","","","",""
"","","","","","image-keyboard-response","32","262392","0.0-7.0","62b35a7d9d9cd966ebcf3ef8","665500ab8938657b03fbdba8","665792a4fedf541d6edd92c8","1746","stimuli/1011100.jpg","1","","prediction_trial","1","","true","","1","true","true","false","false","false","false","[1,2]","011","100","1","","","","","","",""
"","","","","","image-keyboard-response","33","263021","0.0-8.0","62b35a7d9d9cd966ebcf3ef8","665500ab8938657b03fbdba8","665792a4fedf541d6edd92c8","627","stimuli/10111001.jpg"," ","","feedback_trial","1","","","","","","","","","","","","","","","","","","","","",""
"","","","","","image-keyboard-response","34","264953","0.0-9.0","62b35a7d9d9cd966ebcf3ef8","665500ab8938657b03fbdba8","665792a4fedf541d6edd92c8","1930","stimuli/0000111.jpg","0","","prediction_trial","0","","true","","0","false","false","true","true","false","false","[0]","000","111","1","","","","","","",""
"","","","","","image-keyboard-response","35","266050","0.0-10.0","62b35a7d9d9cd966ebcf3ef8","665500ab8938657b03fbdba8","665792a4fedf541d6edd92c8","1096","stimuli/00001110.jpg"," ","","feedback_trial","0","","","","","","","","","","","","","","","","","","","","",""
"","","","","","image-keyboard-response","36","269389","0.0-11.0","62b35a7d9d9cd966ebcf3ef8","665500ab8938657b03fbdba8","665792a4fedf541d6edd92c8","3338","stimuli/0000110.jpg","1","","prediction_trial","0","","false","","0","false","false","true","true","false","false","[0]","000","110","0","","","","","","",""
"","","","","","image-keyboard-response","37","270832","0.0-12.0","62b35a7d9d9cd966ebcf3ef8","665500ab8938657b03fbdba8","665792a4fedf541d6edd92c8","1442","stimuli/00001100.jpg"," ","","feedback_trial","0","","","","","","","","","","","","","","","","","","","","",""
"","","","","","image-keyboard-response","38","273086","0.0-13.0","62b35a7d9d9cd966ebcf3ef8","665500ab8938657b03fbdba8","665792a4fedf541d6edd92c8","2252","stimuli/1111001.jpg","2","","prediction_trial","0","","false","","1","true","true","false","false","false","false","[0,2,1]","111","001","0","","","","","","",""
"","","","","","image-keyboard-response","39","273863","0.0-14.0","62b35a7d9d9cd966ebcf3ef8","665500ab8938657b03fbdba8","665792a4fedf541d6edd92c8","776","stimuli/11110010.jpg"," ","","feedback_trial","0","","","","","","","","","","","","","","","","","","","","",""
"","","","","","image-keyboard-response","40","276149","0.0-15.0","62b35a7d9d9cd966ebcf3ef8","665500ab8938657b03fbdba8","665792a4fedf541d6edd92c8","2284","stimuli/1110001.jpg","1","","prediction_trial","0","","false","","1","true","true","false","false","false","false","[1,0]","110","001","0","","","","","","",""
"","","","","","image-keyboard-response","41","276899","0.0-16.0","62b35a7d9d9cd966ebcf3ef8","665500ab8938657b03fbdba8","665792a4fedf541d6edd92c8","748","stimuli/11100010.jpg"," ","","feedback_trial","1","","","","","","","","","","","","","","","","","","","","",""
"","","","","","image-keyboard-response","42","278947","0.0-17.0","62b35a7d9d9cd966ebcf3ef8","665500ab8938657b03fbdba8","665792a4fedf541d6edd92c8","2041","stimuli/0110111.jpg","1","","prediction_trial","0","","false","","0","false","false","false","false","false","false","[0,1]","110","111","0","","","","","","",""
"","","","","","image-keyboard-response","43","279680","0.0-18.0","62b35a7d9d9cd966ebcf3ef8","665500ab8938657b03fbdba8","665792a4fedf541d6edd92c8","732","stimuli/01101110.jpg"," ","","feedback_trial","0","","","","","","","","","","","","","","","","","","","","",""
"","","","","","image-keyboard-response","44","281818","0.0-19.0","62b35a7d9d9cd966ebcf3ef8","665500ab8938657b03fbdba8","665792a4fedf541d6edd92c8","2137","stimuli/1000111.jpg","0","","prediction_trial","1","","false","","1","false","false","true","true","false","false","[1]","000","111","0","","","","","","",""
"","","","","","image-keyboard-response","45","283121","0.0-20.0","62b35a7d9d9cd966ebcf3ef8","665500ab8938657b03fbdba8","665792a4fedf541d6edd92c8","1302","stimuli/10001111.jpg"," ","","feedback_trial","1","","","","","","","","","","","","","","","","","","","","",""
"","","","","","image-keyboard-response","46","284624","0.0-21.0","62b35a7d9d9cd966ebcf3ef8","665500ab8938657b03fbdba8","665792a4fedf541d6edd92c8","1501","stimuli/1101100.jpg","1","","prediction_trial","1","","true","","1","true","true","true","true","true","true","[1]","101","100","1","","","","","","",""
"","","","","","image-keyboard-response","47","285311","0.0-22.0","62b35a7d9d9cd966ebcf3ef8","665500ab8938657b03fbdba8","665792a4fedf541d6edd92c8","686","stimuli/11011001.jpg"," ","","feedback_trial","1","","","","","","","","","","","","","","","","","","","","",""
"","","","","","image-keyboard-response","48","287840","0.0-23.0","62b35a7d9d9cd966ebcf3ef8","665500ab8938657b03fbdba8","665792a4fedf541d6edd92c8","2527","stimuli/1111100.jpg","2","","prediction_trial","0","","false","","1","true","true","false","false","false","false","[1,0,2]","111","100","0","","","","","","",""
"","","","","","image-keyboard-response","49","288888","0.0-24.0","62b35a7d9d9cd966ebcf3ef8","665500ab8938657b03fbdba8","665792a4fedf541d6edd92c8","1047","stimuli/11111000.jpg"," ","","feedback_trial","1","","","","","","","","","","","","","","","","","","","","",""
"","","","","","image-keyboard-response","50","291566","0.0-25.0","62b35a7d9d9cd966ebcf3ef8","665500ab8938657b03fbdba8","665792a4fedf541d6edd92c8","2677","stimuli/1100011.jpg","2","","prediction_trial","1","","false","","1","false","false","true","true","false","false","[1]","100","011","0","","","","","","",""
"","","","","","image-keyboard-response","51","292354","0.0-26.0","62b35a7d9d9cd966ebcf3ef8","665500ab8938657b03fbdba8","665792a4fedf541d6edd92c8","787","stimuli/11000111.jpg"," ","","feedback_trial","1","","","","","","","","","","","","","","","","","","","","",""
"","","","","","image-keyboard-response","52","297628","0.0-27.0","62b35a7d9d9cd966ebcf3ef8","665500ab8938657b03fbdba8","665792a4fedf541d6edd92c8","5272","stimuli/0001101.jpg","0","","prediction_trial","0","","true","","0","false","false","true","true","false","false","[0]","001","101","1","","","","","","",""
"","","","","","image-keyboard-response","53","298790","0.0-28.0","62b35a7d9d9cd966ebcf3ef8","665500ab8938657b03fbdba8","665792a4fedf541d6edd92c8","1161","stimuli/00011010.jpg"," ","","feedback_trial","0","","","","","","","","","","","","","","","","","","","","",""
"","","","","","image-keyboard-response","54","300050","0.0-29.0","62b35a7d9d9cd966ebcf3ef8","665500ab8938657b03fbdba8","665792a4fedf541d6edd92c8","1259","stimuli/0010000.jpg","0","","prediction_trial","0","","true","","0","true","true","true","true","true","true","[0]","010","000","1","","","","","","",""
"","","","","","image-keyboard-response","55","300647","0.0-30.0","62b35a7d9d9cd966ebcf3ef8","665500ab8938657b03fbdba8","665792a4fedf541d6edd92c8","596","stimuli/00100000.jpg"," ","","feedback_trial","0","","","","","","","","","","","","","","","","","","","","",""
"","","","","","image-keyboard-response","56","303035","0.0-31.0","62b35a7d9d9cd966ebcf3ef8","665500ab8938657b03fbdba8","665792a4fedf541d6edd92c8","2386","stimuli/2110101.jpg","2","","prediction_trial","2","","true","","2","false","false","true","true","false","false","[2]","110","101","1","","","","","","",""
"","","","","","image-keyboard-response","57","303893","0.0-32.0","62b35a7d9d9cd966ebcf3ef8","665500ab8938657b03fbdba8","665792a4fedf541d6edd92c8","856","stimuli/21101012.jpg"," ","","feedback_trial","2","","","","","","","","","","","","","","","","","","","","",""
"","","","","","image-keyboard-response","58","306336","0.0-33.0","62b35a7d9d9cd966ebcf3ef8","665500ab8938657b03fbdba8","665792a4fedf541d6edd92c8","2442","stimuli/1101110.jpg","1","","prediction_trial","1","","true","","1","false","false","true","true","false","false","[1]","101","110","1","","","","","","",""
"","","","","","image-keyboard-response","59","307159","0.0-34.0","62b35a7d9d9cd966ebcf3ef8","665500ab8938657b03fbdba8","665792a4fedf541d6edd92c8","821","stimuli/11011101.jpg"," ","","feedback_trial","1","","","","","","","","","","","","","","","","","","","","",""
"","","","","","image-keyboard-response","60","314038","0.0-35.0","62b35a7d9d9cd966ebcf3ef8","665500ab8938657b03fbdba8","665792a4fedf541d6edd92c8","6873","stimuli/1111110.jpg","0","","prediction_trial","2","","false","","1","false","false","false","false","false","false","[0,2,1]","111","110","0","","","","","","",""
"","","","","","image-keyboard-response","61","315187","0.0-36.0","62b35a7d9d9cd966ebcf3ef8","665500ab8938657b03fbdba8","665792a4fedf541d6edd92c8","1147","stimuli/11111102.jpg"," ","","feedback_trial","0","","","","","","","","","","","","","","","","","","","","",""
"","","","","","image-keyboard-response","62","317795","0.0-37.0","62b35a7d9d9cd966ebcf3ef8","665500ab8938657b03fbdba8","665792a4fedf541d6edd92c8","2606","stimuli/1100010.jpg","1","","prediction_trial","1","","true","","1","false","true","true","true","false","true","[1]","100","010","1","","","","","","",""
"","","","","","image-keyboard-response","63","318567","0.0-38.0","62b35a7d9d9cd966ebcf3ef8","665500ab8938657b03fbdba8","665792a4fedf541d6edd92c8","771","stimuli/11000101.jpg"," ","","feedback_trial","1","","","","","","","","","","","","","","","","","","","","",""
"","","","","","image-keyboard-response","64","319756","0.0-39.0","62b35a7d9d9cd966ebcf3ef8","665500ab8938657b03fbdba8","665792a4fedf541d6edd92c8","1188","stimuli/0110110.jpg","1","","prediction_trial","1","","true","","0","false","false","false","false","false","false","[1,0]","110","110","1","","","","","","",""
"","","","","","image-keyboard-response","65","320508","0.0-40.0","62b35a7d9d9cd966ebcf3ef8","665500ab8938657b03fbdba8","665792a4fedf541d6edd92c8","751","stimuli/01101101.jpg"," ","","feedback_trial","1","","","","","","","","","","","","","","","","","","","","",""
"","","","","","image-keyboard-response","66","323446","0.0-41.0","62b35a7d9d9cd966ebcf3ef8","665500ab8938657b03fbdba8","665792a4fedf541d6edd92c8","2937","stimuli/2011000.jpg","2","","prediction_trial","1","","false","","2","true","true","false","false","false","false","[1,2]","011","000","0","","","","","","",""
"","","","","","image-keyboard-response","67","324334","0.0-42.0","62b35a7d9d9cd966ebcf3ef8","665500ab8938657b03fbdba8","665792a4fedf541d6edd92c8","886","stimuli/20110001.jpg"," ","","feedback_trial","1","","","","","","","","","","","","","","","","","","","","",""
"","","","","","image-keyboard-response","68","327087","0.0-43.0","62b35a7d9d9cd966ebcf3ef8","665500ab8938657b03fbdba8","665792a4fedf541d6edd92c8","2753","stimuli/2001111.jpg","2","","prediction_trial","2","","true","","2","false","false","false","true","false","false","[2]","001","111","1","","","","","","",""
"","","","","","image-keyboard-response","69","327976","0.0-44.0","62b35a7d9d9cd966ebcf3ef8","665500ab8938657b03fbdba8","665792a4fedf541d6edd92c8","887","stimuli/20011112.jpg"," ","","feedback_trial","2","","","","","","","","","","","","","","","","","","","","",""
"","","","","","image-keyboard-response","70","331330","0.0-45.0","62b35a7d9d9cd966ebcf3ef8","665500ab8938657b03fbdba8","665792a4fedf541d6edd92c8","3353","stimuli/0001100.jpg","0","","prediction_trial","0","","true","","0","false","true","true","true","false","true","[0]","001","100","1","","","","","","",""
"","","","","","image-keyboard-response","71","332933","0.0-46.0","62b35a7d9d9cd966ebcf3ef8","665500ab8938657b03fbdba8","665792a4fedf541d6edd92c8","1601","stimuli/00011000.jpg"," ","","feedback_trial","0","","","","","","","","","","","","","","","","","","","","",""
"","","","","","image-keyboard-response","72","334605","0.0-47.0","62b35a7d9d9cd966ebcf3ef8","665500ab8938657b03fbdba8","665792a4fedf541d6edd92c8","1672","stimuli/0001011.jpg","0","","prediction_trial","0","","true","","0","true","true","true","true","true","true","[0]","001","011","1","","","","","","",""
"","","","","","image-keyboard-response","73","335128","0.0-48.0","62b35a7d9d9cd966ebcf3ef8","665500ab8938657b03fbdba8","665792a4fedf541d6edd92c8","521","stimuli/00010110.jpg"," ","","feedback_trial","0","","","","","","","","","","","","","","","","","","","","",""
"","","","","","image-keyboard-response","74","336796","0.0-49.0","62b35a7d9d9cd966ebcf3ef8","665500ab8938657b03fbdba8","665792a4fedf541d6edd92c8","1666","stimuli/1011001.jpg","1","","prediction_trial","1","","true","","1","true","true","false","false","false","false","[1,2]","011","001","1","","","","","","",""
"","","","","","image-keyboard-response","75","337300","0.0-50.0","62b35a7d9d9cd966ebcf3ef8","665500ab8938657b03fbdba8","665792a4fedf541d6edd92c8","503","stimuli/10110011.jpg"," ","","feedback_trial","1","","","","","","","","","","","","","","","","","","","","",""
"","","","","","image-keyboard-response","76","339597","0.0-51.0","62b35a7d9d9cd966ebcf3ef8","665500ab8938657b03fbdba8","665792a4fedf541d6edd92c8","2296","stimuli/1000010.jpg","1","","prediction_trial","1","","true","","1","false","true","true","true","false","true","[1]","000","010","1","","","","","","",""
"","","","","","image-keyboard-response","77","339964","0.0-52.0","62b35a7d9d9cd966ebcf3ef8","665500ab8938657b03fbdba8","665792a4fedf541d6edd92c8","365","stimuli/10000101.jpg"," ","","feedback_trial","1","","","","","","","","","","","","","","","","","","","","",""
"","","","","","image-keyboard-response","78","342564","0.0-53.0","62b35a7d9d9cd966ebcf3ef8","665500ab8938657b03fbdba8","665792a4fedf541d6edd92c8","2596","stimuli/2001100.jpg","2","","prediction_trial","2","","true","","2","true","true","false","true","false","true","[2]","001","100","1","","","","","","",""
"","","","","","image-keyboard-response","79","342930","0.0-54.0","62b35a7d9d9cd966ebcf3ef8","665500ab8938657b03fbdba8","665792a4fedf541d6edd92c8","364","stimuli/20011002.jpg"," ","","feedback_trial","2","","","","","","","","","","","","","","","","","","","","",""
"","","","","","image-keyboard-response","80","345369","0.0-55.0","62b35a7d9d9cd966ebcf3ef8","665500ab8938657b03fbdba8","665792a4fedf541d6edd92c8","2438","stimuli/2011001.jpg","2","","prediction_trial","2","","true","","2","false","true","false","false","false","false","[1,2]","011","001","1","","","","","","",""
"","","","","","image-keyboard-response","81","345842","0.0-56.0","62b35a7d9d9cd966ebcf3ef8","665500ab8938657b03fbdba8","665792a4fedf541d6edd92c8","472","stimuli/20110012.jpg"," ","","feedback_trial","1","","","","","","","","","","","","","","","","","","","","",""
"","","","","","image-keyboard-response","82","348325","0.0-57.0","62b35a7d9d9cd966ebcf3ef8","665500ab8938657b03fbdba8","665792a4fedf541d6edd92c8","2482","stimuli/0111001.jpg","1","","prediction_trial","1","","true","","0","true","true","false","false","false","false","[0,1,2]","111","001","1","","","","","","",""
"","","","","","image-keyboard-response","83","349003","0.0-58.0","62b35a7d9d9cd966ebcf3ef8","665500ab8938657b03fbdba8","665792a4fedf541d6edd92c8","677","stimuli/01110011.jpg"," ","","feedback_trial","0","","","","","","","","","","","","","","","","","","","","",""
"","","","","","image-keyboard-response","84","350237","0.0-59.0","62b35a7d9d9cd966ebcf3ef8","665500ab8938657b03fbdba8","665792a4fedf541d6edd92c8","1232","stimuli/2100000.jpg","2","","prediction_trial","2","","true","","2","true","true","true","true","true","true","[2]","100","000","1","","","","","","",""
"","","","","","image-keyboard-response","85","350653","0.0-60.0","62b35a7d9d9cd966ebcf3ef8","665500ab8938657b03fbdba8","665792a4fedf541d6edd92c8","415","stimuli/21000002.jpg"," ","","feedback_trial","2","","","","","","","","","","","","","","","","","","","","",""
"","","","","","image-keyboard-response","86","352907","0.0-61.0","62b35a7d9d9cd966ebcf3ef8","665500ab8938657b03fbdba8","665792a4fedf541d6edd92c8","2252","stimuli/2111101.jpg","0","","prediction_trial","0","","true","","2","false","false","false","false","false","false","[0,2,1]","111","101","1","","","","","","",""
"","","","","","image-keyboard-response","87","353715","0.0-62.0","62b35a7d9d9cd966ebcf3ef8","665500ab8938657b03fbdba8","665792a4fedf541d6edd92c8","806","stimuli/21111010.jpg"," ","","feedback_trial","0","","","","","","","","","","","","","","","","","","","","",""
"","","","","","image-keyboard-response","88","356003","0.0-63.0","62b35a7d9d9cd966ebcf3ef8","665500ab8938657b03fbdba8","665792a4fedf541d6edd92c8","2286","stimuli/2001110.jpg","2","","prediction_trial","2","","true","","2","true","true","false","true","false","true","[2]","001","110","1","","","","","","",""
"","","","","","image-keyboard-response","89","356674","0.0-64.0","62b35a7d9d9cd966ebcf3ef8","665500ab8938657b03fbdba8","665792a4fedf541d6edd92c8","670","stimuli/20011102.jpg"," ","","feedback_trial","2","","","","","","","","","","","","","","","","","","","","",""
"","","","","","image-keyboard-response","90","358050","0.0-65.0","62b35a7d9d9cd966ebcf3ef8","665500ab8938657b03fbdba8","665792a4fedf541d6edd92c8","1374","stimuli/0000011.jpg","0","","prediction_trial","0","","true","","0","true","true","true","true","true","true","[0]","000","011","1","","","","","","",""
"","","","","","image-keyboard-response","91","358942","0.0-66.0","62b35a7d9d9cd966ebcf3ef8","665500ab8938657b03fbdba8","665792a4fedf541d6edd92c8","891","stimuli/00000110.jpg"," ","","feedback_trial","0","","","","","","","","","","","","","","","","","","","","",""
"","","","","","image-keyboard-response","92","359845","0.0-67.0","62b35a7d9d9cd966ebcf3ef8","665500ab8938657b03fbdba8","665792a4fedf541d6edd92c8","901","stimuli/1001100.jpg","1","","prediction_trial","1","","true","","1","true","true","true","true","true","true","[1]","001","100","1","","","","","","",""
"","","","","","image-keyboard-response","93","360412","0.0-68.0","62b35a7d9d9cd966ebcf3ef8","665500ab8938657b03fbdba8","665792a4fedf541d6edd92c8","566","stimuli/10011001.jpg"," ","","feedback_trial","1","","","","","","","","","","","","","","","","","","","","",""
"","","","","","image-keyboard-response","94","361776","0.0-69.0","62b35a7d9d9cd966ebcf3ef8","665500ab8938657b03fbdba8","665792a4fedf541d6edd92c8","1363","stimuli/2110000.jpg","2","","prediction_trial","2","","true","","2","true","true","true","true","true","true","[2]","110","000","1","","","","","","",""
"","","","","","image-keyboard-response","95","362194","0.0-70.0","62b35a7d9d9cd966ebcf3ef8","665500ab8938657b03fbdba8","665792a4fedf541d6edd92c8","416","stimuli/21100002.jpg"," ","","feedback_trial","2","","","","","","","","","","","","","","","","","","","","",""
"","","","","","image-keyboard-response","96","363951","0.0-71.0","62b35a7d9d9cd966ebcf3ef8","665500ab8938657b03fbdba8","665792a4fedf541d6edd92c8","1751","stimuli/2111000.jpg","0","","prediction_trial","2","","false","","2","true","true","false","false","false","false","[0,1,2]","111","000","0","","","","","","",""
"","","","","","image-keyboard-response","97","364294","0.0-72.0","62b35a7d9d9cd966ebcf3ef8","665500ab8938657b03fbdba8","665792a4fedf541d6edd92c8","342","stimuli/21110002.jpg"," ","","feedback_trial","0","","","","","","","","","","","","","","","","","","","","",""
"","","","","","image-keyboard-response","98","367448","0.0-73.0","62b35a7d9d9cd966ebcf3ef8","665500ab8938657b03fbdba8","665792a4fedf541d6edd92c8","3152","stimuli/2000111.jpg","1","","prediction_trial","2","","false","","2","false","false","true","true","false","false","[2]","000","111","0","","","","","","",""
"","","","","","image-keyboard-response","99","368080","0.0-74.0","62b35a7d9d9cd966ebcf3ef8","665500ab8938657b03fbdba8","665792a4fedf541d6edd92c8","631","stimuli/20001112.jpg"," ","","feedback_trial","2","","","","","","","","","","","","","","","","","","","","",""
"","","","","","image-keyboard-response","100","370009","0.0-75.0","62b35a7d9d9cd966ebcf3ef8","665500ab8938657b03fbdba8","665792a4fedf541d6edd92c8","1927","stimuli/0110000.jpg","0","","prediction_trial","1","","false","","0","true","true","false","false","false","false","[0,1]","110","000","0","","","","","","",""
"","","","","","image-keyboard-response","101","370716","0.0-76.0","62b35a7d9d9cd966ebcf3ef8","665500ab8938657b03fbdba8","665792a4fedf541d6edd92c8","706","stimuli/01100001.jpg"," ","","feedback_trial","0","","","","","","","","","","","","","","","","","","","","",""
"","","","","","image-keyboard-response","102","373581","0.0-77.0","62b35a7d9d9cd966ebcf3ef8","665500ab8938657b03fbdba8","665792a4fedf541d6edd92c8","2864","stimuli/1111010.jpg","0","","prediction_trial","2","","false","","1","false","true","false","false","false","false","[2,1,0]","111","010","0","","","","","","",""
"","","","","","image-keyboard-response","103","374028","0.0-78.0","62b35a7d9d9cd966ebcf3ef8","665500ab8938657b03fbdba8","665792a4fedf541d6edd92c8","445","stimuli/11110102.jpg"," ","","feedback_trial","2","","","","","","","","","","","","","","","","","","","","",""
"","","","","","image-keyboard-response","104","375095","0.0-79.0","62b35a7d9d9cd966ebcf3ef8","665500ab8938657b03fbdba8","665792a4fedf541d6edd92c8","1066","stimuli/1100100.jpg","1","","prediction_trial","1","","true","","1","true","true","true","true","true","true","[1]","100","100","1","","","","","","",""
"","","","","","image-keyboard-response","105","375514","0.0-80.0","62b35a7d9d9cd966ebcf3ef8","665500ab8938657b03fbdba8","665792a4fedf541d6edd92c8","417","stimuli/11001001.jpg"," ","","feedback_trial","1","","","","","","","","","","","","","","","","","","","","",""
"","","","","","image-keyboard-response","106","377888","0.0-81.0","62b35a7d9d9cd966ebcf3ef8","665500ab8938657b03fbdba8","665792a4fedf541d6edd92c8","2373","stimuli/0101110.jpg","1","","prediction_trial","0","","false","","0","false","false","false","false","false","false","[2,0]","101","110","0","","","","","","",""
"","","","","","image-keyboard-response","107","378444","0.0-82.0","62b35a7d9d9cd966ebcf3ef8","665500ab8938657b03fbdba8","665792a4fedf541d6edd92c8","555","stimuli/01011100.jpg"," ","","feedback_trial","2","","","","","","","","","","","","","","","","","","","","",""
"","","","","","image-keyboard-response","108","380028","0.0-83.0","62b35a7d9d9cd966ebcf3ef8","665500ab8938657b03fbdba8","665792a4fedf541d6edd92c8","1582","stimuli/2101101.jpg","2","","prediction_trial","2","","true","","2","false","false","false","false","false","false","[0,2]","101","101","1","","","","","","",""
"","","","","","image-keyboard-response","109","380481","0.0-84.0","62b35a7d9d9cd966ebcf3ef8","665500ab8938657b03fbdba8","665792a4fedf541d6edd92c8","451","stimuli/21011012.jpg"," ","","feedback_trial","0","","","","","","","","","","","","","","","","","","","","",""
"","","","","","image-keyboard-response","110","382924","0.0-85.0","62b35a7d9d9cd966ebcf3ef8","665500ab8938657b03fbdba8","665792a4fedf541d6edd92c8","2442","stimuli/2010111.jpg","0","","prediction_trial","2","","false","","2","false","false","true","true","false","false","[2]","010","111","0","","","","","","",""
"","","","","","image-keyboard-response","111","383232","0.0-86.0","62b35a7d9d9cd966ebcf3ef8","665500ab8938657b03fbdba8","665792a4fedf541d6edd92c8","306","stimuli/20101112.jpg"," ","","feedback_trial","2","","","","","","","","","","","","","","","","","","","","",""
"","","","","","image-keyboard-response","112","384960","0.0-87.0","62b35a7d9d9cd966ebcf3ef8","665500ab8938657b03fbdba8","665792a4fedf541d6edd92c8","1727","stimuli/0110010.jpg","0","","prediction_trial","0","","true","","0","true","true","false","false","false","false","[1,0]","110","010","1","","","","","","",""
"","","","","","image-keyboard-response","113","385212","0.0-88.0","62b35a7d9d9cd966ebcf3ef8","665500ab8938657b03fbdba8","665792a4fedf541d6edd92c8","251","stimuli/01100100.jpg"," ","","feedback_trial","1","","","","","","","","","","","","","","","","","","","","",""
"","","","","","image-keyboard-response","114","386460","0.0-89.0","62b35a7d9d9cd966ebcf3ef8","665500ab8938657b03fbdba8","665792a4fedf541d6edd92c8","1240","stimuli/2110111.jpg","1","","prediction_trial","2","","false","","2","false","false","true","true","false","false","[2]","110","111","0","","","","","","",""
"","","","","","image-keyboard-response","115","387248","0.0-90.0","62b35a7d9d9cd966ebcf3ef8","665500ab8938657b03fbdba8","665792a4fedf541d6edd92c8","786","stimuli/21101112.jpg"," ","","feedback_trial","2","","","","","","","","","","","","","","","","","","","","",""
"","","","","","image-keyboard-response","116","388997","0.0-91.0","62b35a7d9d9cd966ebcf3ef8","665500ab8938657b03fbdba8","665792a4fedf541d6edd92c8","1748","stimuli/2111011.jpg","2","","prediction_trial","2","","true","","2","false","false","false","false","false","false","[0,2,1]","111","011","1","","","","","","",""
"","","","","","image-keyboard-response","117","389279","0.0-92.0","62b35a7d9d9cd966ebcf3ef8","665500ab8938657b03fbdba8","665792a4fedf541d6edd92c8","281","stimuli/21110112.jpg"," ","","feedback_trial","0","","","","","","","","","","","","","","","","","","","","",""
"","","","","","image-keyboard-response","118","393217","0.0-93.0","62b35a7d9d9cd966ebcf3ef8","665500ab8938657b03fbdba8","665792a4fedf541d6edd92c8","3937","stimuli/2101000.jpg","2","","prediction_trial","0","","false","","2","true","true","false","false","false","false","[0,2]","101","000","0","","","","","","",""
"","","","","","image-keyboard-response","119","393561","0.0-94.0","62b35a7d9d9cd966ebcf3ef8","665500ab8938657b03fbdba8","665792a4fedf541d6edd92c8","342","stimuli/21010000.jpg"," ","","feedback_trial","0","","","","","","","","","","","","","","","","","","","","",""
"","","","","","image-keyboard-response","120","395833","0.0-95.0","62b35a7d9d9cd966ebcf3ef8","665500ab8938657b03fbdba8","665792a4fedf541d6edd92c8","2271","stimuli/2101111.jpg","0","","prediction_trial","2","","false","","2","false","false","false","false","false","false","[2,0]","101","111","0","","","","","","",""
"","","","","","image-keyboard-response","121","396106","0.0-96.0","62b35a7d9d9cd966ebcf3ef8","665500ab8938657b03fbdba8","665792a4fedf541d6edd92c8","271","stimuli/21011112.jpg"," ","","feedback_trial","2","","","","","","","","","","","","","","","","","","","","",""
"","","","","","image-keyboard-response","122","398565","0.0-97.0","62b35a7d9d9cd966ebcf3ef8","665500ab8938657b03fbdba8","665792a4fedf541d6edd92c8","2458","stimuli/2100011.jpg","1","","prediction_trial","2","","false","","2","false","false","true","true","false","false","[2]","100","011","0","","","","","","",""
"","","","","","image-keyboard-response","123","398903","0.0-98.0","62b35a7d9d9cd966ebcf3ef8","665500ab8938657b03fbdba8","665792a4fedf541d6edd92c8","336","stimuli/21000112.jpg"," ","","feedback_trial","2","","","","","","","","","","","","","","","","","","","","",""
"","","","","","image-keyboard-response","124","401339","0.0-99.0","62b35a7d9d9cd966ebcf3ef8","665500ab8938657b03fbdba8","665792a4fedf541d6edd92c8","2434","stimuli/0111011.jpg","0","","prediction_trial","1","","false","","0","true","true","false","false","false","false","[0,1,2]","111","011","0","","","","","","",""
"","","","","","image-keyboard-response","125","401694","0.0-100.0","62b35a7d9d9cd966ebcf3ef8","665500ab8938657b03fbdba8","665792a4fedf541d6edd92c8","354","stimuli/01110111.jpg"," ","","feedback_trial","0","","","","","","","","","","","","","","","","","","","","",""
"","","","","","image-keyboard-response","126","405535","0.0-101.0","62b35a7d9d9cd966ebcf3ef8","665500ab8938657b03fbdba8","665792a4fedf541d6edd92c8","3840","stimuli/1110100.jpg","0","","prediction_trial","1","","false","","1","true","true","false","false","false","false","[0,1]","110","100","0","","","","","","",""
"","","","","","image-keyboard-response","127","406428","0.0-102.0","62b35a7d9d9cd966ebcf3ef8","665500ab8938657b03fbdba8","665792a4fedf541d6edd92c8","891","stimuli/11101001.jpg"," ","","feedback_trial","0","","","","","","","","","","","","","","","","","","","","",""
"","","","","","image-keyboard-response","128","407467","0.0-103.0","62b35a7d9d9cd966ebcf3ef8","665500ab8938657b03fbdba8","665792a4fedf541d6edd92c8","1037","stimuli/1101000.jpg","1","","prediction_trial","1","","true","","1","true","true","true","true","true","true","[1]","101","000","1","","","","","","",""
"","","","","","image-keyboard-response","129","408224","0.0-104.0","62b35a7d9d9cd966ebcf3ef8","665500ab8938657b03fbdba8","665792a4fedf541d6edd92c8","756","stimuli/11010001.jpg"," ","","feedback_trial","1","","","","","","","","","","","","","","","","","","","","",""
"","","","","","image-keyboard-response","130","410253","0.0-105.0","62b35a7d9d9cd966ebcf3ef8","665500ab8938657b03fbdba8","665792a4fedf541d6edd92c8","2027","stimuli/2010001.jpg","2","","prediction_trial","2","","true","","2","false","true","true","true","false","true","[2]","010","001","1","","","","","","",""
"","","","","","image-keyboard-response","131","410976","0.0-106.0","62b35a7d9d9cd966ebcf3ef8","665500ab8938657b03fbdba8","665792a4fedf541d6edd92c8","721","stimuli/20100012.jpg"," ","","feedback_trial","2","","","","","","","","","","","","","","","","","","","","",""
"","","","","","image-keyboard-response","132","414049","0.0-107.0","62b35a7d9d9cd966ebcf3ef8","665500ab8938657b03fbdba8","665792a4fedf541d6edd92c8","3068","stimuli/2111110.jpg","0","","prediction_trial","1","","false","","2","true","true","false","false","false","false","[1,2,0]","111","110","0","","","","","","",""
"","","","","","image-keyboard-response","133","415003","0.0-108.0","62b35a7d9d9cd966ebcf3ef8","665500ab8938657b03fbdba8","665792a4fedf541d6edd92c8","952","stimuli/21111101.jpg"," ","","feedback_trial","1","","","","","","","","","","","","","","","","","","","","",""
"","","","","","image-keyboard-response","134","419077","0.0-109.0","62b35a7d9d9cd966ebcf3ef8","665500ab8938657b03fbdba8","665792a4fedf541d6edd92c8","4073","stimuli/2010011.jpg","1","","prediction_trial","2","","false","","2","false","false","true","true","false","false","[2]","010","011","0","","","","","","",""
"","","","","","image-keyboard-response","135","419710","0.0-110.0","62b35a7d9d9cd966ebcf3ef8","665500ab8938657b03fbdba8","665792a4fedf541d6edd92c8","631","stimuli/20100112.jpg"," ","","feedback_trial","2","","","","","","","","","","","","","","","","","","","","",""
"","","","","","image-keyboard-response","136","421307","0.0-111.0","62b35a7d9d9cd966ebcf3ef8","665500ab8938657b03fbdba8","665792a4fedf541d6edd92c8","1596","stimuli/1010010.jpg","1","","prediction_trial","1","","true","","1","false","true","false","true","false","true","[1]","010","010","1","","","","","","",""
"","","","","","image-keyboard-response","137","421991","0.0-112.0","62b35a7d9d9cd966ebcf3ef8","665500ab8938657b03fbdba8","665792a4fedf541d6edd92c8","682","stimuli/10100101.jpg"," ","","feedback_trial","1","","","","","","","","","","","","","","","","","","","","",""
"","","","","","image-keyboard-response","138","423374","0.0-113.0","62b35a7d9d9cd966ebcf3ef8","665500ab8938657b03fbdba8","665792a4fedf541d6edd92c8","1382","stimuli/2000100.jpg","2","","prediction_trial","2","","true","","2","true","true","true","true","true","true","[2]","000","100","1","","","","","","",""
"","","","","","image-keyboard-response","139","423821","0.0-114.0","62b35a7d9d9cd966ebcf3ef8","665500ab8938657b03fbdba8","665792a4fedf541d6edd92c8","446","stimuli/20001002.jpg"," ","","feedback_trial","2","","","","","","","","","","","","","","","","","","","","",""
"","","","","","image-keyboard-response","140","427191","0.0-115.0","62b35a7d9d9cd966ebcf3ef8","665500ab8938657b03fbdba8","665792a4fedf541d6edd92c8","3368","stimuli/0101011.jpg","0","","prediction_trial","0","","true","","0","true","true","false","false","false","false","[2,0]","101","011","1","","","","","","",""
"","","","","","image-keyboard-response","141","427884","0.0-116.0","62b35a7d9d9cd966ebcf3ef8","665500ab8938657b03fbdba8","665792a4fedf541d6edd92c8","691","stimuli/01010110.jpg"," ","","feedback_trial","2","","","","","","","","","","","","","","","","","","","","",""
"","","","","","image-keyboard-response","142","430481","0.0-117.0","62b35a7d9d9cd966ebcf3ef8","665500ab8938657b03fbdba8","665792a4fedf541d6edd92c8","2596","stimuli/1110011.jpg","1","","prediction_trial","1","","true","","1","false","false","false","false","false","false","[0,1]","110","011","1","","","","","","",""
"","","","","","image-keyboard-response","143","431245","0.0-118.0","62b35a7d9d9cd966ebcf3ef8","665500ab8938657b03fbdba8","665792a4fedf541d6edd92c8","762","stimuli/11100111.jpg"," ","","feedback_trial","0","","","","","","","","","","","","","","","","","","","","",""
"","","","","","image-keyboard-response","144","433298","0.0-119.0","62b35a7d9d9cd966ebcf3ef8","665500ab8938657b03fbdba8","665792a4fedf541d6edd92c8","2052","stimuli/2100111.jpg","0","","prediction_trial","2","","false","","2","false","false","true","true","false","false","[2]","100","111","0","","","","","","",""
"","","","","","image-keyboard-response","145","433885","0.0-120.0","62b35a7d9d9cd966ebcf3ef8","665500ab8938657b03fbdba8","665792a4fedf541d6edd92c8","586","stimuli/21001112.jpg"," ","","feedback_trial","2","","","","","","","","","","","","","","","","","","","","",""
"","","","","","image-keyboard-response","146","435684","0.0-121.0","62b35a7d9d9cd966ebcf3ef8","665500ab8938657b03fbdba8","665792a4fedf541d6edd92c8","1797","stimuli/2011010.jpg","2","","prediction_trial","1","","false","","2","true","true","false","false","false","false","[1,2]","011","010","0","","","","","","",""
"","","","","","image-keyboard-response","147","436497","0.0-122.0","62b35a7d9d9cd966ebcf3ef8","665500ab8938657b03fbdba8","665792a4fedf541d6edd92c8","811","stimuli/20110101.jpg"," ","","feedback_trial","1","","","","","","","","","","","","","","","","","","","","",""
"","","","","","image-keyboard-response","148","438731","0.0-123.0","62b35a7d9d9cd966ebcf3ef8","665500ab8938657b03fbdba8","665792a4fedf541d6edd92c8","2232","stimuli/0101010.jpg","0","","prediction_trial","0","","true","","0","true","true","false","false","false","false","[0,2]","101","010","1","","","","","","",""
"","","","","","image-keyboard-response","149","439323","0.0-124.0","62b35a7d9d9cd966ebcf3ef8","665500ab8938657b03fbdba8","665792a4fedf541d6edd92c8","591","stimuli/01010100.jpg"," ","","feedback_trial","0","","","","","","","","","","","","","","","","","","","","",""
"","","","","","image-keyboard-response","150","441922","0.0-125.0","62b35a7d9d9cd966ebcf3ef8","665500ab8938657b03fbdba8","665792a4fedf541d6edd92c8","2596","stimuli/0010101.jpg","0","","prediction_trial","0","","true","","0","false","false","true","true","false","false","[0]","010","101","1","","","","","","",""
"","","","","","image-keyboard-response","151","442389","0.0-126.0","62b35a7d9d9cd966ebcf3ef8","665500ab8938657b03fbdba8","665792a4fedf541d6edd92c8","465","stimuli/00101010.jpg"," ","","feedback_trial","0","","","","","","","","","","","","","","","","","","","","",""
"","","","","","image-keyboard-response","152","444067","0.0-127.0","62b35a7d9d9cd966ebcf3ef8","665500ab8938657b03fbdba8","665792a4fedf541d6edd92c8","1677","stimuli/2111111.jpg","1","","prediction_trial","2","","false","","2","false","false","false","false","false","false","[1,2,0]","111","111","0","","","","","","",""
"","","","","","image-keyboard-response","153","444635","0.0-128.0","62b35a7d9d9cd966ebcf3ef8","665500ab8938657b03fbdba8","665792a4fedf541d6edd92c8","567","stimuli/21111112.jpg"," ","","feedback_trial","1","","","","","","","","","","","","","","","","","","","","",""
"","","","","","image-keyboard-response","154","445939","0.0-129.0","62b35a7d9d9cd966ebcf3ef8","665500ab8938657b03fbdba8","665792a4fedf541d6edd92c8","1303","stimuli/0000000.jpg","0","","prediction_trial","0","","true","","0","true","true","true","true","true","true","[0]","000","000","1","","","","","","",""
"","","","","","image-keyboard-response","155","446216","0.0-130.0","62b35a7d9d9cd966ebcf3ef8","665500ab8938657b03fbdba8","665792a4fedf541d6edd92c8","276","stimuli/00000000.jpg"," ","","feedback_trial","0","","","","","","","","","","","","","","","","","","","","",""
"","","","","","image-keyboard-response","156","447444","0.0-131.0","62b35a7d9d9cd966ebcf3ef8","665500ab8938657b03fbdba8","665792a4fedf541d6edd92c8","1226","stimuli/0001000.jpg","0","","prediction_trial","0","","true","","0","true","true","true","true","true","true","[0]","001","000","1","","","","","","",""
"","","","","","image-keyboard-response","157","447808","0.0-132.0","62b35a7d9d9cd966ebcf3ef8","665500ab8938657b03fbdba8","665792a4fedf541d6edd92c8","362","stimuli/00010000.jpg"," ","","feedback_trial","0","","","","","","","","","","","","","","","","","","","","",""
"","","","","","image-keyboard-response","158","450235","0.0-133.0","62b35a7d9d9cd966ebcf3ef8","665500ab8938657b03fbdba8","665792a4fedf541d6edd92c8","2426","stimuli/1011110.jpg","0","","prediction_trial","1","","false","","1","false","false","false","false","false","false","[2,1]","011","110","0","","","","","","",""
"","","","","","image-keyboard-response","159","450918","0.0-134.0","62b35a7d9d9cd966ebcf3ef8","665500ab8938657b03fbdba8","665792a4fedf541d6edd92c8","681","stimuli/10111101.jpg"," ","","feedback_trial","2","","","","","","","","","","","","","","","","","","","","",""
"","","","","","image-keyboard-response","160","452151","0.0-135.0","62b35a7d9d9cd966ebcf3ef8","665500ab8938657b03fbdba8","665792a4fedf541d6edd92c8","1231","stimuli/2110100.jpg","2","","prediction_trial","2","","true","","2","true","true","true","true","true","true","[2]","110","100","1","","","","","","",""
"","","","","","image-keyboard-response","161","452479","0.0-136.0","62b35a7d9d9cd966ebcf3ef8","665500ab8938657b03fbdba8","665792a4fedf541d6edd92c8","327","stimuli/21101002.jpg"," ","","feedback_trial","2","","","","","","","","","","","","","","","","","","","","",""
"","","","","","image-keyboard-response","162","454282","0.0-137.0","62b35a7d9d9cd966ebcf3ef8","665500ab8938657b03fbdba8","665792a4fedf541d6edd92c8","1801","stimuli/1011010.jpg","1","","prediction_trial","2","","false","","1","false","true","false","false","false","false","[1,2]","011","010","0","","","","","","",""
"","","","","","image-keyboard-response","163","454744","0.0-138.0","62b35a7d9d9cd966ebcf3ef8","665500ab8938657b03fbdba8","665792a4fedf541d6edd92c8","461","stimuli/10110102.jpg"," ","","feedback_trial","1","","","","","","","","","","","","","","","","","","","","",""
"","","","","","image-keyboard-response","164","456398","0.0-139.0","62b35a7d9d9cd966ebcf3ef8","665500ab8938657b03fbdba8","665792a4fedf541d6edd92c8","1652","stimuli/1110110.jpg","0","","prediction_trial","1","","false","","1","false","false","false","false","false","false","[1,0]","110","110","0","","","","","","",""
"","","","","","image-keyboard-response","165","456831","0.0-140.0","62b35a7d9d9cd966ebcf3ef8","665500ab8938657b03fbdba8","665792a4fedf541d6edd92c8","432","stimuli/11101101.jpg"," ","","feedback_trial","1","","","","","","","","","","","","","","","","","","","","",""
"","","","","","image-keyboard-response","166","462791","0.0-141.0","62b35a7d9d9cd966ebcf3ef8","665500ab8938657b03fbdba8","665792a4fedf541d6edd92c8","5959","stimuli/2011101.jpg","0","","prediction_trial","1","","false","","2","false","false","false","false","false","false","[2,1]","011","101","0","","","","","","",""
"","","","","","image-keyboard-response","167","463593","0.0-142.0","62b35a7d9d9cd966ebcf3ef8","665500ab8938657b03fbdba8","665792a4fedf541d6edd92c8","801","stimuli/20111011.jpg"," ","","feedback_trial","2","","","","","","","","","","","","","","","","","","","","",""
"","","","","","image-keyboard-response","168","465057","0.0-143.0","62b35a7d9d9cd966ebcf3ef8","665500ab8938657b03fbdba8","665792a4fedf541d6edd92c8","1457","stimuli/2100010.jpg","2","","prediction_trial","2","","true","","2","true","true","true","true","true","true","[2]","100","010","1","","","","","","",""
"","","","","","image-keyboard-response","169","465381","0.0-144.0","62b35a7d9d9cd966ebcf3ef8","665500ab8938657b03fbdba8","665792a4fedf541d6edd92c8","323","stimuli/21000102.jpg"," ","","feedback_trial","2","","","","","","","","","","","","","","","","","","","","",""
"","","","","","image-keyboard-response","170","469979","0.0-145.0","62b35a7d9d9cd966ebcf3ef8","665500ab8938657b03fbdba8","665792a4fedf541d6edd92c8","4596","stimuli/0111100.jpg","1","","prediction_trial","1","","true","","0","false","true","false","false","false","false","[1,2,0]","111","100","1","","","","","","",""
"","","","","","image-keyboard-response","171","470407","0.0-146.0","62b35a7d9d9cd966ebcf3ef8","665500ab8938657b03fbdba8","665792a4fedf541d6edd92c8","427","stimuli/01111001.jpg"," ","","feedback_trial","1","","","","","","","","","","","","","","","","","","","","",""
"","","","","","image-keyboard-response","172","473134","0.0-147.0","62b35a7d9d9cd966ebcf3ef8","665500ab8938657b03fbdba8","665792a4fedf541d6edd92c8","2725","stimuli/0110100.jpg","1","","prediction_trial","1","","true","","0","false","true","false","false","false","false","[0,1]","110","100","1","","","","","","",""
"","","","","","image-keyboard-response","173","473533","0.0-148.0","62b35a7d9d9cd966ebcf3ef8","665500ab8938657b03fbdba8","665792a4fedf541d6edd92c8","398","stimuli/01101001.jpg"," ","","feedback_trial","0","","","","","","","","","","","","","","","","","","","","",""
"","","","","","image-keyboard-response","174","475777","0.0-149.0","62b35a7d9d9cd966ebcf3ef8","665500ab8938657b03fbdba8","665792a4fedf541d6edd92c8","2242","stimuli/2001001.jpg","2","","prediction_trial","2","","true","","2","false","true","false","true","false","true","[2]","001","001","1","","","","","","",""
"","","","","","image-keyboard-response","175","476093","0.0-150.0","62b35a7d9d9cd966ebcf3ef8","665500ab8938657b03fbdba8","665792a4fedf541d6edd92c8","314","stimuli/20010012.jpg"," ","","feedback_trial","2","","","","","","","","","","","","","","","","","","","","",""
"","","","","","image-keyboard-response","176","477918","0.0-151.0","62b35a7d9d9cd966ebcf3ef8","665500ab8938657b03fbdba8","665792a4fedf541d6edd92c8","1824","stimuli/2010101.jpg","2","","prediction_trial","2","","true","","2","false","false","true","true","false","false","[2]","010","101","1","","","","","","",""
"","","","","","image-keyboard-response","177","482273","0.0-152.0","62b35a7d9d9cd966ebcf3ef8","665500ab8938657b03fbdba8","665792a4fedf541d6edd92c8","4353","stimuli/20101012.jpg"," ","","feedback_trial","2","","","","","","","","","","","","","","","","","","","","",""
"","","","","","image-keyboard-response","178","490377","0.0-153.0","62b35a7d9d9cd966ebcf3ef8","665500ab8938657b03fbdba8","665792a4fedf541d6edd92c8","8103","stimuli/1100111.jpg","1","","prediction_trial","1","","true","","1","false","false","true","true","false","false","[1]","100","111","1","","","","","","",""
"","","","","","image-keyboard-response","179","491156","0.0-154.0","62b35a7d9d9cd966ebcf3ef8","665500ab8938657b03fbdba8","665792a4fedf541d6edd92c8","778","stimuli/11001111.jpg"," ","","feedback_trial","1","","","","","","","","","","","","","","","","","","","","",""
"","","","","","image-keyboard-response","180","495709","0.0-155.0","62b35a7d9d9cd966ebcf3ef8","665500ab8938657b03fbdba8","665792a4fedf541d6edd92c8","4559","stimuli/1010100.jpg","1","","prediction_trial","1","","true","","1","true","true","false","true","false","true","[1]","010","100","1","","","","","","",""
"","","","","","image-keyboard-response","181","496298","0.0-156.0","62b35a7d9d9cd966ebcf3ef8","665500ab8938657b03fbdba8","665792a4fedf541d6edd92c8","587","stimuli/10101001.jpg"," ","","feedback_trial","1","","","","","","","","","","","","","","","","","","","","",""
"","","","","","image-keyboard-response","182","499201","0.0-157.0","62b35a7d9d9cd966ebcf3ef8","665500ab8938657b03fbdba8","665792a4fedf541d6edd92c8","2902","stimuli/0011100.jpg","0","","prediction_trial","0","","true","","0","false","true","true","true","false","true","[0]","011","100","1","","","","","","",""
"","","","","","image-keyboard-response","183","499535","0.0-158.0","62b35a7d9d9cd966ebcf3ef8","665500ab8938657b03fbdba8","665792a4fedf541d6edd92c8","332","stimuli/00111000.jpg"," ","","feedback_trial","0","","","","","","","","","","","","","","","","","","","","",""
"","","","","","image-keyboard-response","184","501123","0.0-159.0","62b35a7d9d9cd966ebcf3ef8","665500ab8938657b03fbdba8","665792a4fedf541d6edd92c8","1587","stimuli/0011111.jpg","1","","prediction_trial","0","","false","","0","false","false","true","true","false","false","[0]","011","111","0","","","","","","",""
"","","","","","image-keyboard-response","185","501701","0.0-160.0","62b35a7d9d9cd966ebcf3ef8","665500ab8938657b03fbdba8","665792a4fedf541d6edd92c8","576","stimuli/00111110.jpg"," ","","feedback_trial","0","","","","","","","","","","","","","","","","","","","","",""
"","","","","","image-keyboard-response","186","505175","0.0-161.0","62b35a7d9d9cd966ebcf3ef8","665500ab8938657b03fbdba8","665792a4fedf541d6edd92c8","3472","stimuli/0001111.jpg","0","","prediction_trial","0","","true","","0","false","false","true","true","false","false","[0]","001","111","1","","","","","","",""
"","","","","","image-keyboard-response","187","505477","0.0-162.0","62b35a7d9d9cd966ebcf3ef8","665500ab8938657b03fbdba8","665792a4fedf541d6edd92c8","300","stimuli/00011110.jpg"," ","","feedback_trial","0","","","","","","","","","","","","","","","","","","","","",""
"","","","","","image-keyboard-response","188","507886","0.0-163.0","62b35a7d9d9cd966ebcf3ef8","665500ab8938657b03fbdba8","665792a4fedf541d6edd92c8","2407","stimuli/2111100.jpg","1","","prediction_trial","0","","false","","2","true","true","false","false","false","false","[2,0,1]","111","100","0","","","","","","",""
"","","","","","image-keyboard-response","189","508209","0.0-164.0","62b35a7d9d9cd966ebcf3ef8","665500ab8938657b03fbdba8","665792a4fedf541d6edd92c8","321","stimuli/21111000.jpg"," ","","feedback_trial","2","","","","","","","","","","","","","","","","","","","","",""
"","","","","","image-keyboard-response","190","510177","0.0-165.0","62b35a7d9d9cd966ebcf3ef8","665500ab8938657b03fbdba8","665792a4fedf541d6edd92c8","1966","stimuli/2101001.jpg","2","","prediction_trial","0","","false","","2","false","true","false","false","false","false","[0,2]","101","001","0","","","","","","",""
"","","","","","image-keyboard-response","191","510525","0.0-166.0","62b35a7d9d9cd966ebcf3ef8","665500ab8938657b03fbdba8","665792a4fedf541d6edd92c8","346","stimuli/21010010.jpg"," ","","feedback_trial","0","","","","","","","","","","","","","","","","","","","","",""
"","","","","","image-keyboard-response","192","512082","0.0-167.0","62b35a7d9d9cd966ebcf3ef8","665500ab8938657b03fbdba8","665792a4fedf541d6edd92c8","1556","stimuli/0010001.jpg","0","","prediction_trial","0","","true","","0","true","true","true","true","true","true","[0]","010","001","1","","","","","","",""
"","","","","","image-keyboard-response","193","512397","0.0-168.0","62b35a7d9d9cd966ebcf3ef8","665500ab8938657b03fbdba8","665792a4fedf541d6edd92c8","313","stimuli/00100010.jpg"," ","","feedback_trial","0","","","","","","","","","","","","","","","","","","","","",""
"","","","","","image-keyboard-response","194","514894","0.0-169.0","62b35a7d9d9cd966ebcf3ef8","665500ab8938657b03fbdba8","665792a4fedf541d6edd92c8","2495","stimuli/2001010.jpg","2","","prediction_trial","2","","true","","2","true","true","false","true","false","true","[2]","001","010","1","","","","","","",""
"","","","","","image-keyboard-response","195","515240","0.0-170.0","62b35a7d9d9cd966ebcf3ef8","665500ab8938657b03fbdba8","665792a4fedf541d6edd92c8","344","stimuli/20010102.jpg"," ","","feedback_trial","2","","","","","","","","","","","","","","","","","","","","",""
"","","","","","image-keyboard-response","196","516959","0.0-171.0","62b35a7d9d9cd966ebcf3ef8","665500ab8938657b03fbdba8","665792a4fedf541d6edd92c8","1717","stimuli/1100000.jpg","1","","prediction_trial","1","","true","","1","true","true","true","true","true","true","[1]","100","000","1","","","","","","",""
"","","","","","image-keyboard-response","197","517283","0.0-172.0","62b35a7d9d9cd966ebcf3ef8","665500ab8938657b03fbdba8","665792a4fedf541d6edd92c8","323","stimuli/11000001.jpg"," ","","feedback_trial","1","","","","","","","","","","","","","","","","","","","","",""
"","","","","","image-keyboard-response","198","519687","0.0-173.0","62b35a7d9d9cd966ebcf3ef8","665500ab8938657b03fbdba8","665792a4fedf541d6edd92c8","2403","stimuli/0111010.jpg","2","","prediction_trial","2","","true","","0","true","true","false","false","false","false","[2,1,0]","111","010","1","","","","","","",""
"","","","","","image-keyboard-response","199","519985","0.0-174.0","62b35a7d9d9cd966ebcf3ef8","665500ab8938657b03fbdba8","665792a4fedf541d6edd92c8","296","stimuli/01110102.jpg"," ","","feedback_trial","2","","","","","","","","","","","","","","","","","","","","",""
"","","","","","image-keyboard-response","200","522068","0.0-175.0","62b35a7d9d9cd966ebcf3ef8","665500ab8938657b03fbdba8","665792a4fedf541d6edd92c8","2081","stimuli/0000100.jpg","0","","prediction_trial","0","","true","","0","false","true","true","true","false","true","[0]","000","100","1","","","","","","",""
"","","","","","image-keyboard-response","201","522391","0.0-176.0","62b35a7d9d9cd966ebcf3ef8","665500ab8938657b03fbdba8","665792a4fedf541d6edd92c8","323","stimuli/00001000.jpg"," ","","feedback_trial","0","","","","","","","","","","","","","","","","","","","","",""
"","","","","","image-keyboard-response","202","524089","0.0-177.0","62b35a7d9d9cd966ebcf3ef8","665500ab8938657b03fbdba8","665792a4fedf541d6edd92c8","1696","stimuli/1111000.jpg","1","","prediction_trial","1","","true","","1","true","true","false","false","false","false","[2,1,0]","111","000","1","","","","","","",""
"","","","","","image-keyboard-response","203","524442","0.0-178.0","62b35a7d9d9cd966ebcf3ef8","665500ab8938657b03fbdba8","665792a4fedf541d6edd92c8","352","stimuli/11110001.jpg"," ","","feedback_trial","2","","","","","","","","","","","","","","","","","","","","",""
"","","","","","image-keyboard-response","204","525766","0.0-179.0","62b35a7d9d9cd966ebcf3ef8","665500ab8938657b03fbdba8","665792a4fedf541d6edd92c8","1316","stimuli/1100001.jpg","1","","prediction_trial","1","","true","","1","true","true","true","true","true","true","[1]","100","001","1","","","","","","",""
"","","","","","image-keyboard-response","205","526084","0.0-180.0","62b35a7d9d9cd966ebcf3ef8","665500ab8938657b03fbdba8","665792a4fedf541d6edd92c8","316","stimuli/11000011.jpg"," ","","feedback_trial","1","","","","","","","","","","","","","","","","","","","","",""
"","","","","","image-keyboard-response","206","528161","0.0-181.0","62b35a7d9d9cd966ebcf3ef8","665500ab8938657b03fbdba8","665792a4fedf541d6edd92c8","2076","stimuli/0101101.jpg","0","","prediction_trial","2","","false","","0","false","false","false","false","false","false","[2,0]","101","101","0","","","","","","",""
"","","","","","image-keyboard-response","207","528595","0.0-182.0","62b35a7d9d9cd966ebcf3ef8","665500ab8938657b03fbdba8","665792a4fedf541d6edd92c8","432","stimuli/01011012.jpg"," ","","feedback_trial","2","","","","","","","","","","","","","","","","","","","","",""
"","","","","","image-keyboard-response","208","531239","0.0-183.0","62b35a7d9d9cd966ebcf3ef8","665500ab8938657b03fbdba8","665792a4fedf541d6edd92c8","2642","stimuli/0000101.jpg","2","","prediction_trial","0","","false","","0","false","false","true","true","false","false","[0]","000","101","0","","","","","","",""
"","","","","","image-keyboard-response","209","531851","0.0-184.0","62b35a7d9d9cd966ebcf3ef8","665500ab8938657b03fbdba8","665792a4fedf541d6edd92c8","611","stimuli/00001010.jpg"," ","","feedback_trial","0","","","","","","","","","","","","","","","","","","","","",""
"","","","","","image-keyboard-response","210","533670","0.0-185.0","62b35a7d9d9cd966ebcf3ef8","665500ab8938657b03fbdba8","665792a4fedf541d6edd92c8","1817","stimuli/2000101.jpg","0","","prediction_trial","2","","false","","2","false","false","true","true","false","false","[2]","000","101","0","","","","","","",""
"","","","","","image-keyboard-response","211","538946","0.0-186.0","62b35a7d9d9cd966ebcf3ef8","665500ab8938657b03fbdba8","665792a4fedf541d6edd92c8","5275","stimuli/20001012.jpg"," ","","feedback_trial","2","","","","","","","","","","","","","","","","","","","","",""
"","","","","","image-keyboard-response","212","541035","0.0-187.0","62b35a7d9d9cd966ebcf3ef8","665500ab8938657b03fbdba8","665792a4fedf541d6edd92c8","2087","stimuli/2001011.jpg","1","","prediction_trial","2","","false","","2","false","false","false","true","false","false","[2]","001","011","0","","","","","","",""
"","","","","","image-keyboard-response","213","541433","0.0-188.0","62b35a7d9d9cd966ebcf3ef8","665500ab8938657b03fbdba8","665792a4fedf541d6edd92c8","395","stimuli/20010112.jpg"," ","","feedback_trial","2","","","","","","","","","","","","","","","","","","","","",""
"","","","","","image-keyboard-response","214","543442","0.0-189.0","62b35a7d9d9cd966ebcf3ef8","665500ab8938657b03fbdba8","665792a4fedf541d6edd92c8","2008","stimuli/1110101.jpg","1","","prediction_trial","1","","true","","1","true","true","false","false","false","false","[1,0]","110","101","1","","","","","","",""
"","","","","","image-keyboard-response","215","543995","0.0-190.0","62b35a7d9d9cd966ebcf3ef8","665500ab8938657b03fbdba8","665792a4fedf541d6edd92c8","551","stimuli/11101011.jpg"," ","","feedback_trial","1","","","","","","","","","","","","","","","","","","","","",""
"","","","","","image-keyboard-response","216","544992","0.0-191.0","62b35a7d9d9cd966ebcf3ef8","665500ab8938657b03fbdba8","665792a4fedf541d6edd92c8","995","stimuli/1001001.jpg","1","","prediction_trial","1","","true","","1","true","true","true","true","true","true","[1]","001","001","1","","","","","","",""
"","","","","","image-keyboard-response","217","545325","0.0-192.0","62b35a7d9d9cd966ebcf3ef8","665500ab8938657b03fbdba8","665792a4fedf541d6edd92c8","332","stimuli/10010011.jpg"," ","","feedback_trial","1","","","","","","","","","","","","","","","","","","","","",""
"","","","","","image-keyboard-response","218","547199","0.0-193.0","62b35a7d9d9cd966ebcf3ef8","665500ab8938657b03fbdba8","665792a4fedf541d6edd92c8","1872","stimuli/1010001.jpg","1","","prediction_trial","1","","true","","1","true","true","false","true","false","true","[1]","010","001","1","","","","","","",""
"","","","","","image-keyboard-response","219","547502","0.0-194.0","62b35a7d9d9cd966ebcf3ef8","665500ab8938657b03fbdba8","665792a4fedf541d6edd92c8","301","stimuli/10100011.jpg"," ","","feedback_trial","1","","","","","","","","","","","","","","","","","","","","",""
"","","","","","image-keyboard-response","220","549970","0.0-195.0","62b35a7d9d9cd966ebcf3ef8","665500ab8938657b03fbdba8","665792a4fedf541d6edd92c8","2467","stimuli/1001010.jpg","1","","prediction_trial","1","","true","","1","false","true","true","true","false","true","[1]","001","010","1","","","","","","",""
"","","","","","image-keyboard-response","221","550293","0.0-196.0","62b35a7d9d9cd966ebcf3ef8","665500ab8938657b03fbdba8","665792a4fedf541d6edd92c8","321","stimuli/10010101.jpg"," ","","feedback_trial","1","","","","","","","","","","","","","","","","","","","","",""
"","","","","","image-keyboard-response","222","552672","0.0-197.0","62b35a7d9d9cd966ebcf3ef8","665500ab8938657b03fbdba8","665792a4fedf541d6edd92c8","2377","stimuli/1111011.jpg","2","","prediction_trial","0","","false","","1","false","false","false","false","false","false","[2,0,1]","111","011","0","","","","","","",""
"","","","","","image-keyboard-response","223","552970","0.0-198.0","62b35a7d9d9cd966ebcf3ef8","665500ab8938657b03fbdba8","665792a4fedf541d6edd92c8","296","stimuli/11110110.jpg"," ","","feedback_trial","2","","","","","","","","","","","","","","","","","","","","",""
"","","","","","image-keyboard-response","224","556681","0.0-199.0","62b35a7d9d9cd966ebcf3ef8","665500ab8938657b03fbdba8","665792a4fedf541d6edd92c8","3703","stimuli/1101010.jpg","1","","prediction_trial","1","","true","","1","false","true","true","true","false","true","[1]","101","010","1","","","","","","",""
"","","","","","image-keyboard-response","225","557574","0.0-200.0","62b35a7d9d9cd966ebcf3ef8","665500ab8938657b03fbdba8","665792a4fedf541d6edd92c8","891","stimuli/11010101.jpg"," ","","feedback_trial","1","","","","","","","","","","","","","","","","","","","","",""
"","","","","","image-keyboard-response","226","560163","0.0-201.0","62b35a7d9d9cd966ebcf3ef8","665500ab8938657b03fbdba8","665792a4fedf541d6edd92c8","2588","stimuli/1110010.jpg","0","","prediction_trial","1","","false","","1","false","true","false","false","false","false","[0,1]","110","010","0","","","","","","",""
"","","","","","image-keyboard-response","227","560445","0.0-202.0","62b35a7d9d9cd966ebcf3ef8","665500ab8938657b03fbdba8","665792a4fedf541d6edd92c8","281","stimuli/11100101.jpg"," ","","feedback_trial","0","","","","","","","","","","","","","","","","","","","","",""
"","","","","","image-keyboard-response","228","561843","0.0-203.0","62b35a7d9d9cd966ebcf3ef8","665500ab8938657b03fbdba8","665792a4fedf541d6edd92c8","1396","stimuli/1001110.jpg","1","","prediction_trial","1","","true","","1","false","false","true","true","false","false","[1]","001","110","1","","","","","","",""
"","","","","","image-keyboard-response","229","562411","0.0-204.0","62b35a7d9d9cd966ebcf3ef8","665500ab8938657b03fbdba8","665792a4fedf541d6edd92c8","566","stimuli/10011101.jpg"," ","","feedback_trial","1","","","","","","","","","","","","","","","","","","","","",""
"","","","","","image-keyboard-response","230","564305","0.0-205.0","62b35a7d9d9cd966ebcf3ef8","665500ab8938657b03fbdba8","665792a4fedf541d6edd92c8","1892","stimuli/2110110.jpg","2","","prediction_trial","2","","true","","2","true","true","true","true","true","true","[2]","110","110","1","","","","","","",""
"","","","","","image-keyboard-response","231","564573","0.0-206.0","62b35a7d9d9cd966ebcf3ef8","665500ab8938657b03fbdba8","665792a4fedf541d6edd92c8","266","stimuli/21101102.jpg"," ","","feedback_trial","2","","","","","","","","","","","","","","","","","","","","",""
"","","","","","image-keyboard-response","232","566126","0.0-207.0","62b35a7d9d9cd966ebcf3ef8","665500ab8938657b03fbdba8","665792a4fedf541d6edd92c8","1552","stimuli/1101001.jpg","1","","prediction_trial","1","","true","","1","true","true","true","true","true","true","[1]","101","001","1","","","","","","",""
"","","","","","image-keyboard-response","233","566423","0.0-208.0","62b35a7d9d9cd966ebcf3ef8","665500ab8938657b03fbdba8","665792a4fedf541d6edd92c8","295","stimuli/11010011.jpg"," ","","feedback_trial","1","","","","","","","","","","","","","","","","","","","","",""
"","","","","","image-keyboard-response","234","567342","0.0-209.0","62b35a7d9d9cd966ebcf3ef8","665500ab8938657b03fbdba8","665792a4fedf541d6edd92c8","917","stimuli/2000010.jpg","2","","prediction_trial","2","","true","","2","true","true","true","true","true","true","[2]","000","010","1","","","","","","",""
"","","","","","image-keyboard-response","235","567777","0.0-210.0","62b35a7d9d9cd966ebcf3ef8","665500ab8938657b03fbdba8","665792a4fedf541d6edd92c8","433","stimuli/20000102.jpg"," ","","feedback_trial","2","","","","","","","","","","","","","","","","","","","","",""
"","","","","","image-keyboard-response","236","568832","0.0-211.0","62b35a7d9d9cd966ebcf3ef8","665500ab8938657b03fbdba8","665792a4fedf541d6edd92c8","1054","stimuli/1000001.jpg","1","","prediction_trial","1","","true","","1","true","true","true","true","true","true","[1]","000","001","1","","","","","","",""
"","","","","","image-keyboard-response","237","569205","0.0-212.0","62b35a7d9d9cd966ebcf3ef8","665500ab8938657b03fbdba8","665792a4fedf541d6edd92c8","371","stimuli/10000011.jpg"," ","","feedback_trial","1","","","","","","","","","","","","","","","","","","","","",""
"","","","","","image-keyboard-response","238","570426","0.0-213.0","62b35a7d9d9cd966ebcf3ef8","665500ab8938657b03fbdba8","665792a4fedf541d6edd92c8","1220","stimuli/0011001.jpg","0","","prediction_trial","0","","true","","0","true","true","true","true","true","true","[0]","011","001","1","","","","","","",""
"","","","","","image-keyboard-response","239","570680","0.0-214.0","62b35a7d9d9cd966ebcf3ef8","665500ab8938657b03fbdba8","665792a4fedf541d6edd92c8","252","stimuli/00110010.jpg"," ","","feedback_trial","0","","","","","","","","","","","","","","","","","","","","",""
"","","","","","image-keyboard-response","240","571975","0.0-215.0","62b35a7d9d9cd966ebcf3ef8","665500ab8938657b03fbdba8","665792a4fedf541d6edd92c8","1290","stimuli/0000010.jpg","0","","prediction_trial","0","","true","","0","true","true","true","true","true","true","[0]","000","010","1","","","","","","",""
"","","","","","image-keyboard-response","241","572312","0.0-216.0","62b35a7d9d9cd966ebcf3ef8","665500ab8938657b03fbdba8","665792a4fedf541d6edd92c8","335","stimuli/00000100.jpg"," ","","feedback_trial","0","","","","","","","","","","","","","","","","","","","","",""
"","","","","","image-keyboard-response","242","575181","0.0-217.0","62b35a7d9d9cd966ebcf3ef8","665500ab8938657b03fbdba8","665792a4fedf541d6edd92c8","2867","stimuli/1010110.jpg","1","","prediction_trial","1","","true","","1","false","false","false","true","false","false","[1]","010","110","1","","","","","","",""
"","","","","","image-keyboard-response","243","575719","0.0-218.0","62b35a7d9d9cd966ebcf3ef8","665500ab8938657b03fbdba8","665792a4fedf541d6edd92c8","537","stimuli/10101101.jpg"," ","","feedback_trial","1","","","","","","","","","","","","","","","","","","","","",""
"","","","","","image-keyboard-response","244","579580","0.0-219.0","62b35a7d9d9cd966ebcf3ef8","665500ab8938657b03fbdba8","665792a4fedf541d6edd92c8","3859","stimuli/1000011.jpg","1","","prediction_trial","1","","true","","1","false","false","true","true","false","false","[1]","000","011","1","","","","","","",""
"","","","","","image-keyboard-response","245","580346","0.0-220.0","62b35a7d9d9cd966ebcf3ef8","665500ab8938657b03fbdba8","665792a4fedf541d6edd92c8","765","stimuli/10000111.jpg"," ","","feedback_trial","1","","","","","","","","","","","","","","","","","","","","",""
"","","","","","image-keyboard-response","246","581249","0.0-221.0","62b35a7d9d9cd966ebcf3ef8","665500ab8938657b03fbdba8","665792a4fedf541d6edd92c8","902","stimuli/1100101.jpg","1","","prediction_trial","1","","true","","1","true","true","true","true","true","true","[1]","100","101","1","","","","","","",""
"","","","","","image-keyboard-response","247","581617","0.0-222.0","62b35a7d9d9cd966ebcf3ef8","665500ab8938657b03fbdba8","665792a4fedf541d6edd92c8","366","stimuli/11001011.jpg"," ","","feedback_trial","1","","","","","","","","","","","","","","","","","","","","",""
"","","","","","image-keyboard-response","248","583115","0.0-223.0","62b35a7d9d9cd966ebcf3ef8","665500ab8938657b03fbdba8","665792a4fedf541d6edd92c8","1496","stimuli/2001000.jpg","2","","prediction_trial","2","","true","","2","true","true","false","true","false","true","[2]","001","000","1","","","","","","",""
"","","","","","image-keyboard-response","249","583458","0.0-224.0","62b35a7d9d9cd966ebcf3ef8","665500ab8938657b03fbdba8","665792a4fedf541d6edd92c8","341","stimuli/20010002.jpg"," ","","feedback_trial","2","","","","","","","","","","","","","","","","","","","","",""
"","","","","","image-keyboard-response","250","585701","0.0-225.0","62b35a7d9d9cd966ebcf3ef8","665500ab8938657b03fbdba8","665792a4fedf541d6edd92c8","2242","stimuli/0110101.jpg","2","","prediction_trial","1","","false","","0","false","false","false","false","false","false","[1,0]","110","101","0","","","","","","",""
"","","","","","image-keyboard-response","251","586615","0.0-226.0","62b35a7d9d9cd966ebcf3ef8","665500ab8938657b03fbdba8","665792a4fedf541d6edd92c8","913","stimuli/01101011.jpg"," ","","feedback_trial","1","","","","","","","","","","","","","","","","","","","","",""
"","","","","","image-keyboard-response","252","587798","0.0-227.0","62b35a7d9d9cd966ebcf3ef8","665500ab8938657b03fbdba8","665792a4fedf541d6edd92c8","1181","stimuli/2000110.jpg","2","","prediction_trial","2","","true","","2","true","true","true","true","true","true","[2]","000","110","1","","","","","","",""
"","","","","","image-keyboard-response","253","588171","0.0-228.0","62b35a7d9d9cd966ebcf3ef8","665500ab8938657b03fbdba8","665792a4fedf541d6edd92c8","371","stimuli/20001102.jpg"," ","","feedback_trial","2","","","","","","","","","","","","","","","","","","","","",""
"","","","","","image-keyboard-response","254","592502","0.0-229.0","62b35a7d9d9cd966ebcf3ef8","665500ab8938657b03fbdba8","665792a4fedf541d6edd92c8","4329","stimuli/2111010.jpg","1","","prediction_trial","1","","true","","2","true","true","false","false","false","false","[1,2,0]","111","010","1","","","","","","",""
"","","","","","image-keyboard-response","255","593089","0.0-230.0","62b35a7d9d9cd966ebcf3ef8","665500ab8938657b03fbdba8","665792a4fedf541d6edd92c8","586","stimuli/21110101.jpg"," ","","feedback_trial","1","","","","","","","","","","","","","","","","","","","","",""
"","","","","","image-keyboard-response","256","595232","0.0-231.0","62b35a7d9d9cd966ebcf3ef8","665500ab8938657b03fbdba8","665792a4fedf541d6edd92c8","2142","stimuli/0100000.jpg","0","","prediction_trial","0","","true","","0","true","true","false","true","false","true","[0]","100","000","1","","","","","","",""
"","","","","","image-keyboard-response","257","595855","0.0-232.0","62b35a7d9d9cd966ebcf3ef8","665500ab8938657b03fbdba8","665792a4fedf541d6edd92c8","621","stimuli/01000000.jpg"," ","","feedback_trial","0","","","","","","","","","","","","","","","","","","","","",""
"","","","","","image-keyboard-response","258","598515","0.0-233.0","62b35a7d9d9cd966ebcf3ef8","665500ab8938657b03fbdba8","665792a4fedf541d6edd92c8","2655","stimuli/2011100.jpg","1","","prediction_trial","1","","true","","2","true","true","false","false","false","false","[2,1]","011","100","1","","","","","","",""
"","","","","","image-keyboard-response","259","598963","0.0-234.0","62b35a7d9d9cd966ebcf3ef8","665500ab8938657b03fbdba8","665792a4fedf541d6edd92c8","446","stimuli/20111001.jpg"," ","","feedback_trial","2","","","","","","","","","","","","","","","","","","","","",""
"","","","","","image-keyboard-response","260","600246","0.0-235.0","62b35a7d9d9cd966ebcf3ef8","665500ab8938657b03fbdba8","665792a4fedf541d6edd92c8","1281","stimuli/0011010.jpg","0","","prediction_trial","0","","true","","0","true","true","true","true","true","true","[0]","011","010","1","","","","","","",""
"","","","","","image-keyboard-response","261","600543","0.0-236.0","62b35a7d9d9cd966ebcf3ef8","665500ab8938657b03fbdba8","665792a4fedf541d6edd92c8","296","stimuli/00110100.jpg"," ","","feedback_trial","0","","","","","","","","","","","","","","","","","","","","",""
"","","","","","image-keyboard-response","262","603933","0.0-237.0","62b35a7d9d9cd966ebcf3ef8","665500ab8938657b03fbdba8","665792a4fedf541d6edd92c8","3389","stimuli/2101100.jpg","2","","prediction_trial","0","","false","","2","true","true","false","false","false","false","[0,2]","101","100","0","","","","","","",""
"","","","","","image-keyboard-response","263","604236","0.0-238.0","62b35a7d9d9cd966ebcf3ef8","665500ab8938657b03fbdba8","665792a4fedf541d6edd92c8","301","stimuli/21011000.jpg"," ","","feedback_trial","0","","","","","","","","","","","","","","","","","","","","",""
"","","","","","image-keyboard-response","264","605609","0.0-239.0","62b35a7d9d9cd966ebcf3ef8","665500ab8938657b03fbdba8","665792a4fedf541d6edd92c8","1371","stimuli/0010011.jpg","0","","prediction_trial","0","","true","","0","true","true","true","true","true","true","[0]","010","011","1","","","","","","",""
"","","","","","image-keyboard-response","265","605962","0.0-240.0","62b35a7d9d9cd966ebcf3ef8","665500ab8938657b03fbdba8","665792a4fedf541d6edd92c8","350","stimuli/00100110.jpg"," ","","feedback_trial","0","","","","","","","","","","","","","","","","","","","","",""
"","","","","","image-keyboard-response","266","609631","0.0-241.0","62b35a7d9d9cd966ebcf3ef8","665500ab8938657b03fbdba8","665792a4fedf541d6edd92c8","3668","stimuli/2101110.jpg","2","","prediction_trial","2","","true","","2","true","true","false","false","false","false","[0,2]","101","110","1","","","","","","",""
"","","","","","image-keyboard-response","267","609859","0.0-242.0","62b35a7d9d9cd966ebcf3ef8","665500ab8938657b03fbdba8","665792a4fedf541d6edd92c8","226","stimuli/21011102.jpg"," ","","feedback_trial","0","","","","","","","","","","","","","","","","","","","","",""
"","","","","","image-keyboard-response","268","611863","0.0-243.0","62b35a7d9d9cd966ebcf3ef8","665500ab8938657b03fbdba8","665792a4fedf541d6edd92c8","2002","stimuli/1110111.jpg","1","","prediction_trial","0","","false","","1","false","false","false","false","false","false","[0,1]","110","111","0","","","","","","",""
"","","","","","image-keyboard-response","269","612741","0.0-244.0","62b35a7d9d9cd966ebcf3ef8","665500ab8938657b03fbdba8","665792a4fedf541d6edd92c8","876","stimuli/11101110.jpg"," ","","feedback_trial","0","","","","","","","","","","","","","","","","","","","","",""
"","","","","","image-keyboard-response","270","614900","0.0-245.0","62b35a7d9d9cd966ebcf3ef8","665500ab8938657b03fbdba8","665792a4fedf541d6edd92c8","2158","stimuli/1111111.jpg","1","","prediction_trial","1","","true","","1","false","false","false","false","false","false","[0,1,2]","111","111","1","","","","","","",""
"","","","","","image-keyboard-response","271","615397","0.0-246.0","62b35a7d9d9cd966ebcf3ef8","665500ab8938657b03fbdba8","665792a4fedf541d6edd92c8","496","stimuli/11111111.jpg"," ","","feedback_trial","0","","","","","","","","","","","","","","","","","","","","",""
"","","","","","image-keyboard-response","272","618146","0.0-247.0","62b35a7d9d9cd966ebcf3ef8","665500ab8938657b03fbdba8","665792a4fedf541d6edd92c8","2762","stimuli/0100101.jpg","0","","prediction_trial","0","","true","","0","false","false","false","true","false","false","[0]","100","101","1","","","","","","",""
"","","","","","image-keyboard-response","273","618499","0.0-248.0","62b35a7d9d9cd966ebcf3ef8","665500ab8938657b03fbdba8","665792a4fedf541d6edd92c8","351","stimuli/01001010.jpg"," ","","feedback_trial","0","","","","","","","","","","","","","","","","","","","","",""
"","","","","","image-keyboard-response","274","619583","0.0-249.0","62b35a7d9d9cd966ebcf3ef8","665500ab8938657b03fbdba8","665792a4fedf541d6edd92c8","1082","stimuli/1111101.jpg","1","","prediction_trial","2","","false","","1","true","true","false","false","false","false","[1,2,0]","111","101","0","","","","","","",""
"","","","","","image-keyboard-response","275","623962","0.0-250.0","62b35a7d9d9cd966ebcf3ef8","665500ab8938657b03fbdba8","665792a4fedf541d6edd92c8","4378","stimuli/11111012.jpg"," ","","feedback_trial","1","","","","","","","","","","","","","","","","","","","","",""
"","","","","","image-keyboard-response","276","626591","0.0-251.0","62b35a7d9d9cd966ebcf3ef8","665500ab8938657b03fbdba8","665792a4fedf541d6edd92c8","2622","stimuli/0100010.jpg","0","","prediction_trial","0","","true","","0","true","true","false","true","false","true","[0]","100","010","1","","","","","","",""
"","","","","","image-keyboard-response","277","626928","0.0-252.0","62b35a7d9d9cd966ebcf3ef8","665500ab8938657b03fbdba8","665792a4fedf541d6edd92c8","335","stimuli/01000100.jpg"," ","","feedback_trial","0","","","","","","","","","","","","","","","","","","","","",""
"","","","","","image-keyboard-response","278","631589","0.0-253.0","62b35a7d9d9cd966ebcf3ef8","665500ab8938657b03fbdba8","665792a4fedf541d6edd92c8","4659","stimuli/0001001.jpg","0","","prediction_trial","0","","true","","0","true","true","true","true","true","true","[0]","001","001","1","","","","","","",""
"","","","","","image-keyboard-response","279","633327","0.0-254.0","62b35a7d9d9cd966ebcf3ef8","665500ab8938657b03fbdba8","665792a4fedf541d6edd92c8","1736","stimuli/00010010.jpg"," ","","feedback_trial","0","","","","","","","","","","","","","","","","","","","","",""
"","","","","","image-keyboard-response","280","635416","0.0-255.0","62b35a7d9d9cd966ebcf3ef8","665500ab8938657b03fbdba8","665792a4fedf541d6edd92c8","2087","stimuli/0001110.jpg","1","","prediction_trial","0","","false","","0","false","false","true","true","false","false","[0]","001","110","0","","","","","","",""
"","","","","","image-keyboard-response","281","636704","0.0-256.0","62b35a7d9d9cd966ebcf3ef8","665500ab8938657b03fbdba8","665792a4fedf541d6edd92c8","1286","stimuli/00011100.jpg"," ","","feedback_trial","0","","","","","","","","","","","","","","","","","","","","",""
"","","","","","image-keyboard-response","282","642401","0.0-257.0","62b35a7d9d9cd966ebcf3ef8","665500ab8938657b03fbdba8","665792a4fedf541d6edd92c8","5695","stimuli/0011101.jpg","0","","prediction_trial","0","","true","","0","false","false","true","true","false","false","[0]","011","101","1","","","","","","",""
"","","","","","image-keyboard-response","283","644349","0.0-258.0","62b35a7d9d9cd966ebcf3ef8","665500ab8938657b03fbdba8","665792a4fedf541d6edd92c8","1946","stimuli/00111010.jpg"," ","","feedback_trial","0","","","","","","","","","","","","","","","","","","","","",""
"","","","","","image-keyboard-response","284","655300","0.0-259.0","62b35a7d9d9cd966ebcf3ef8","665500ab8938657b03fbdba8","665792a4fedf541d6edd92c8","10949","stimuli/1000110.jpg","1","","prediction_trial","1","","true","","1","false","false","true","true","false","false","[1]","000","110","1","","","","","","",""
"","","","","","image-keyboard-response","285","655991","0.0-260.0","62b35a7d9d9cd966ebcf3ef8","665500ab8938657b03fbdba8","665792a4fedf541d6edd92c8","690","stimuli/10001101.jpg"," ","","feedback_trial","1","","","","","","","","","","","","","","","","","","","","",""
"","","","","","image-keyboard-response","286","657876","0.0-261.0","62b35a7d9d9cd966ebcf3ef8","665500ab8938657b03fbdba8","665792a4fedf541d6edd92c8","1883","stimuli/0010100.jpg","0","","prediction_trial","0","","true","","0","false","true","true","true","false","true","[0]","010","100","1","","","","","","",""
"","","","","","image-keyboard-response","287","658137","0.0-262.0","62b35a7d9d9cd966ebcf3ef8","665500ab8938657b03fbdba8","665792a4fedf541d6edd92c8","260","stimuli/00101000.jpg"," ","","feedback_trial","0","","","","","","","","","","","","","","","","","","","","",""
"","","","","","image-keyboard-response","288","659301","0.0-263.0","62b35a7d9d9cd966ebcf3ef8","665500ab8938657b03fbdba8","665792a4fedf541d6edd92c8","1162","stimuli/0111111.jpg","1","","prediction_trial","2","","false","","0","false","false","false","false","false","false","[1,2,0]","111","111","0","","","","","","",""
"","","","","","image-keyboard-response","289","659613","0.0-264.0","62b35a7d9d9cd966ebcf3ef8","665500ab8938657b03fbdba8","665792a4fedf541d6edd92c8","311","stimuli/01111112.jpg"," ","","feedback_trial","1","","","","","","","","","","","","","","","","","","","","",""
"","","","","","image-keyboard-response","290","661216","0.0-265.0","62b35a7d9d9cd966ebcf3ef8","665500ab8938657b03fbdba8","665792a4fedf541d6edd92c8","1601","stimuli/1101011.jpg","2","","prediction_trial","1","","false","","1","false","false","true","true","false","false","[1]","101","011","0","","","","","","",""
"","","","","","image-keyboard-response","291","661514","0.0-266.0","62b35a7d9d9cd966ebcf3ef8","665500ab8938657b03fbdba8","665792a4fedf541d6edd92c8","297","stimuli/11010111.jpg"," ","","feedback_trial","1","","","","","","","","","","","","","","","","","","","","",""
"","","","","","image-keyboard-response","292","665000","0.0-267.0","62b35a7d9d9cd966ebcf3ef8","665500ab8938657b03fbdba8","665792a4fedf541d6edd92c8","3484","stimuli/0100001.jpg","0","","prediction_trial","0","","true","","0","true","true","false","true","false","true","[0]","100","001","1","","","","","","",""
"","","","","","image-keyboard-response","293","665327","0.0-268.0","62b35a7d9d9cd966ebcf3ef8","665500ab8938657b03fbdba8","665792a4fedf541d6edd92c8","325","stimuli/01000010.jpg"," ","","feedback_trial","0","","","","","","","","","","","","","","","","","","","","",""
"","","","","","image-keyboard-response","294","667620","0.0-269.0","62b35a7d9d9cd966ebcf3ef8","665500ab8938657b03fbdba8","665792a4fedf541d6edd92c8","2287","stimuli/2110001.jpg","2","","prediction_trial","2","","true","","2","false","true","true","true","false","true","[2]","110","001","1","","","","","","",""
"","","","","","image-keyboard-response","295","667918","0.0-270.0","62b35a7d9d9cd966ebcf3ef8","665500ab8938657b03fbdba8","665792a4fedf541d6edd92c8","296","stimuli/21100012.jpg"," ","","feedback_trial","2","","","","","","","","","","","","","","","","","","","","",""
"","","","","","image-keyboard-response","296","671197","0.0-271.0","62b35a7d9d9cd966ebcf3ef8","665500ab8938657b03fbdba8","665792a4fedf541d6edd92c8","3277","stimuli/0111101.jpg","1","","prediction_trial","1","","true","","0","false","false","false","false","false","false","[0,1,2]","111","101","1","","","","","","",""
"","","","","","image-keyboard-response","297","671565","0.0-272.0","62b35a7d9d9cd966ebcf3ef8","665500ab8938657b03fbdba8","665792a4fedf541d6edd92c8","366","stimuli/01111011.jpg"," ","","feedback_trial","0","","","","","","","","","","","","","","","","","","","","",""
"","","","","","image-keyboard-response","298","672828","0.0-273.0","62b35a7d9d9cd966ebcf3ef8","665500ab8938657b03fbdba8","665792a4fedf541d6edd92c8","1261","stimuli/1000000.jpg","1","","prediction_trial","1","","true","","1","true","true","true","true","true","true","[1]","000","000","1","","","","","","",""
"","","","","","image-keyboard-response","299","673091","0.0-274.0","62b35a7d9d9cd966ebcf3ef8","665500ab8938657b03fbdba8","665792a4fedf541d6edd92c8","261","stimuli/10000001.jpg"," ","","feedback_trial","1","","","","","","","","","","","","","","","","","","","","",""
"","","","","","image-keyboard-response","300","674414","0.0-275.0","62b35a7d9d9cd966ebcf3ef8","665500ab8938657b03fbdba8","665792a4fedf541d6edd92c8","1321","stimuli/2010100.jpg","2","","prediction_trial","2","","true","","2","true","true","true","true","true","true","[2]","010","100","1","","","","","","",""
"","","","","","image-keyboard-response","301","674677","0.0-276.0","62b35a7d9d9cd966ebcf3ef8","665500ab8938657b03fbdba8","665792a4fedf541d6edd92c8","261","stimuli/20101002.jpg"," ","","feedback_trial","2","","","","","","","","","","","","","","","","","","","","",""
"","","","","","image-keyboard-response","302","676141","0.0-277.0","62b35a7d9d9cd966ebcf3ef8","665500ab8938657b03fbdba8","665792a4fedf541d6edd92c8","1462","stimuli/0111000.jpg","1","","prediction_trial","1","","true","","0","true","true","false","false","false","false","[2,0,1]","111","000","1","","","","","","",""
"","","","","","image-keyboard-response","303","676438","0.0-278.0","62b35a7d9d9cd966ebcf3ef8","665500ab8938657b03fbdba8","665792a4fedf541d6edd92c8","296","stimuli/01110001.jpg"," ","","feedback_trial","2","","","","","","","","","","","","","","","","","","","","",""
"","","","","","image-keyboard-response","304","678259","0.0-279.0","62b35a7d9d9cd966ebcf3ef8","665500ab8938657b03fbdba8","665792a4fedf541d6edd92c8","1811","stimuli/0111110.jpg","1","","prediction_trial","0","","false","","0","false","false","false","false","false","false","[1,2,0]","111","110","0","","","","","","",""
"","","","","","image-keyboard-response","305","678561","0.0-280.0","62b35a7d9d9cd966ebcf3ef8","665500ab8938657b03fbdba8","665792a4fedf541d6edd92c8","301","stimuli/01111100.jpg"," ","","feedback_trial","1","","","","","","","","","","","","","","","","","","","","",""
"","","","","","image-keyboard-response","306","680455","0.0-281.0","62b35a7d9d9cd966ebcf3ef8","665500ab8938657b03fbdba8","665792a4fedf541d6edd92c8","1893","stimuli/0101001.jpg","0","","prediction_trial","0","","true","","0","true","true","false","false","false","false","[0,2]","101","001","1","","","","","","",""
"","","","","","image-keyboard-response","307","680703","0.0-282.0","62b35a7d9d9cd966ebcf3ef8","665500ab8938657b03fbdba8","665792a4fedf541d6edd92c8","246","stimuli/01010010.jpg"," ","","feedback_trial","0","","","","","","","","","","","","","","","","","","","","",""
"","","","","","image-keyboard-response","308","682026","0.0-283.0","62b35a7d9d9cd966ebcf3ef8","665500ab8938657b03fbdba8","665792a4fedf541d6edd92c8","1321","stimuli/0001010.jpg","0","","prediction_trial","0","","true","","0","true","true","true","true","true","true","[0]","001","010","1","","","","","","",""
"","","","","","image-keyboard-response","309","682313","0.0-284.0","62b35a7d9d9cd966ebcf3ef8","665500ab8938657b03fbdba8","665792a4fedf541d6edd92c8","285","stimuli/00010100.jpg"," ","","feedback_trial","0","","","","","","","","","","","","","","","","","","","","",""
"","","","","","image-keyboard-response","310","683643","0.0-285.0","62b35a7d9d9cd966ebcf3ef8","665500ab8938657b03fbdba8","665792a4fedf541d6edd92c8","1328","stimuli/2110010.jpg","2","","prediction_trial","2","","true","","2","true","true","true","true","true","true","[2]","110","010","1","","","","","","",""
"","","","","","image-keyboard-response","311","683931","0.0-286.0","62b35a7d9d9cd966ebcf3ef8","665500ab8938657b03fbdba8","665792a4fedf541d6edd92c8","286","stimuli/21100102.jpg"," ","","feedback_trial","2","","","","","","","","","","","","","","","","","","","","",""
"","","","","","image-keyboard-response","312","687185","0.0-287.0","62b35a7d9d9cd966ebcf3ef8","665500ab8938657b03fbdba8","665792a4fedf541d6edd92c8","3249","stimuli/2111001.jpg","1","","prediction_trial","2","","false","","2","false","true","false","false","false","false","[1,0,2]","111","001","0","","","","","","",""
"","","","","","image-keyboard-response","313","687452","0.0-288.0","62b35a7d9d9cd966ebcf3ef8","665500ab8938657b03fbdba8","665792a4fedf541d6edd92c8","266","stimuli/21110012.jpg"," ","","feedback_trial","1","","","","","","","","","","","","","","","","","","","","",""
"","","","","","image-keyboard-response","314","688633","0.0-289.0","62b35a7d9d9cd966ebcf3ef8","665500ab8938657b03fbdba8","665792a4fedf541d6edd92c8","1180","stimuli/2100100.jpg","2","","prediction_trial","2","","true","","2","true","true","true","true","true","true","[2]","100","100","1","","","","","","",""
"","","","","","image-keyboard-response","315","688917","0.0-290.0","62b35a7d9d9cd966ebcf3ef8","665500ab8938657b03fbdba8","665792a4fedf541d6edd92c8","282","stimuli/21001002.jpg"," ","","feedback_trial","2","","","","","","","","","","","","","","","","","","","","",""
"","","","","","image-keyboard-response","316","690537","0.0-291.0","62b35a7d9d9cd966ebcf3ef8","665500ab8938657b03fbdba8","665792a4fedf541d6edd92c8","1619","stimuli/1010000.jpg","1","","prediction_trial","1","","true","","1","true","true","false","true","false","true","[1]","010","000","1","","","","","","",""
"","","","","","image-keyboard-response","317","690788","0.0-292.0","62b35a7d9d9cd966ebcf3ef8","665500ab8938657b03fbdba8","665792a4fedf541d6edd92c8","249","stimuli/10100001.jpg"," ","","feedback_trial","1","","","","","","","","","","","","","","","","","","","","",""
"","","","","","survey-html-form","318","755369","0.0-293.0","62b35a7d9d9cd966ebcf3ef8","665500ab8938657b03fbdba8","665792a4fedf541d6edd92c8","64570","","{""feedback"":""I noticed that he favored the center spot when they were all covered."",""age"":""62"",""gender"":""Female"",""other_gender"":"""",""race"":""White"",""other_race"":"""",""ethnicity"":""Non-Hispanic""}","","exit_survey","","","","","","","","","","","","","","","","I noticed that he favored the center spot when they were all covered.","62","Non-Hispanic","Female","White","0.6666666666666666","0.6666666666666666"
