"success","timeout","failed_images","failed_audio","failed_video","trial_type","trial_index","time_elapsed","internal_node_id","prolific_id","prolific_study_id","prolific_session_id","rt","stimulus","response","view_history","trial","character_choice","stimulus_dict","accuracy","correct_response","ball_pos","ego_ball_visible","ego_can_infer","alter_ball_visible","alter_can_infer","collective_ball_visible","collective_can_infer","search_locations","alter_occluders","ego_occluders","accuracy_bool","feedback","age","ethnicity","gender","race","overall_accuracy","bonus"
"true","false","[]","[]","[]","preload","0","1775","0.0-0.0","64135dd9d2ef675b8e1799ef","665500ab8938657b03fbdba8","665792535e5d094b79de45bb","","","","","","","","","","","","","","","","","","","","","","","","","","",""
"true","","","","","fullscreen","1","64132","0.0-1.0","64135dd9d2ef675b8e1799ef","665500ab8938657b03fbdba8","665792535e5d094b79de45bb","","","","","","","","","","","","","","","","","","","","","","","","","","",""
"","","","","","html-button-response","2","108109","0.0-2.0","64135dd9d2ef675b8e1799ef","665500ab8938657b03fbdba8","665792535e5d094b79de45bb","43977","<p><b>Consent Form</b></p> <div style=""text-align:left;background-color:lightgrey; padding:20px; max-width:900px;""><p>Please consider this information carefully before deciding whether to participate in this research.</p> <p>The purpose of this research is to examine which factors influence social judgment and decision-making. You will be asked to make judgements about individuals and actions in social scenarios. We are simply interested in your judgement. The study will take less than 1 hour to complete, and you will receive less than $20 on Prolific. Your compensation and time commitment are specified in the study description. There are no anticipated risks associated with participating in this study. The effects of participating should be comparable to those you would ordinarily experience from viewing a computer monitor and using a mouse or keyboard for a similar amount of time. At the end of the study, we will provide an explanation of the questions that motivate this line of research and will describe the potential implications. </p><p> Your participation in this study is completely voluntary and you may refuse to participate or you may choose to withdraw at any time without penalty or loss of benefits to you which are otherwise entitled. Your participation in this study will remain confidential. No personally identifiable information will be associated with your data. Also, all analyses of the data will be averaged across all the participants, so your individual responses will never be specifically analyzed. </p><p> If you have questions or concerns about your participation or payment, or want to request a summary of research findings, please contact Dr. Jonathan Phillips at Jonathan.S.Phillips@dartmouth.edu. </p><p> Please save a copy of this form for your records. </p><p><b>Agreement: </b>The nature and purpose of this research have been sufficiently explained and I agree to participate in this study. I understand that I am free to withdraw at any time without incurring any penalty. Please consent by clicking the button below to continue. Otherwise, please exit the study at any time. </p>","0","","","","","","","","","","","","","","","","","","","","","","","",""
"","","","","","instructions","3","316693","0.0-3.0-0.0","64135dd9d2ef675b8e1799ef","665500ab8938657b03fbdba8","665792535e5d094b79de45bb","208584","","","[{""page_index"":0,""viewing_time"":1574},{""page_index"":1,""viewing_time"":2012},{""page_index"":2,""viewing_time"":6157},{""page_index"":3,""viewing_time"":30955},{""page_index"":4,""viewing_time"":27135},{""page_index"":5,""viewing_time"":59986},{""page_index"":6,""viewing_time"":7995},{""page_index"":7,""viewing_time"":21047},{""page_index"":8,""viewing_time"":13274},{""page_index"":9,""viewing_time"":3909},{""page_index"":10,""viewing_time"":17949},{""page_index"":11,""viewing_time"":11863},{""page_index"":12,""viewing_time"":3418},{""page_index"":13,""viewing_time"":1308}]","intro","","","","","","","","","","","","","","","","","","","","","",""
"","","","","","image-keyboard-response","4","319712","0.0-3.0-1.0","64135dd9d2ef675b8e1799ef","665500ab8938657b03fbdba8","665792535e5d094b79de45bb","3018","stimuli/1011111.jpg","0","","prediction_practice","2","{""filepath"":""stimuli/1011111.jpg"",""ball_pos"":1,""ego_ball_visible"":false,""ego_can_infer"":false,""alter_ball_visible"":false,""alter_can_infer"":false,""collective_ball_visible"":false,""collective_can_infer"":false,""search_locations"":[1,2],""alter_occluders"":""011"",""ego_occluders"":""111""}","false","","","","","","","","","","","","","","","","","","",""
"","","","","","image-keyboard-response","5","325557","0.0-3.0-2.0","64135dd9d2ef675b8e1799ef","665500ab8938657b03fbdba8","665792535e5d094b79de45bb","5844","stimuli/10111112.jpg"," ","","practrice_feedback","1","","","","","","","","","","","","","","","","","","","","",""
"","","","","","image-keyboard-response","6","328287","0.0-3.0-3.0","64135dd9d2ef675b8e1799ef","665500ab8938657b03fbdba8","665792535e5d094b79de45bb","2730","stimuli/1011000.jpg","1","","prediction_practice","1","{""filepath"":""stimuli/1011000.jpg"",""ball_pos"":1,""ego_ball_visible"":true,""ego_can_infer"":true,""alter_ball_visible"":false,""alter_can_infer"":false,""collective_ball_visible"":false,""collective_can_infer"":false,""search_locations"":[1,2],""alter_occluders"":""011"",""ego_occluders"":""000""}","true","","","","","","","","","","","","","","","","","","",""
"","","","","","image-keyboard-response","7","330733","0.0-3.0-4.0","64135dd9d2ef675b8e1799ef","665500ab8938657b03fbdba8","665792535e5d094b79de45bb","2446","stimuli/10110001.jpg"," ","","practrice_feedback","1","","","","","","","","","","","","","","","","","","","","",""
"","","","","","image-keyboard-response","8","333112","0.0-3.0-5.0","64135dd9d2ef675b8e1799ef","665500ab8938657b03fbdba8","665792535e5d094b79de45bb","2379","stimuli/1100011.jpg","2","","prediction_practice","1","{""filepath"":""stimuli/1100011.jpg"",""ball_pos"":1,""ego_ball_visible"":false,""ego_can_infer"":false,""alter_ball_visible"":true,""alter_can_infer"":true,""collective_ball_visible"":false,""collective_can_infer"":false,""search_locations"":[1],""alter_occluders"":""100"",""ego_occluders"":""011""}","false","","","","","","","","","","","","","","","","","","",""
"","","","","","image-keyboard-response","9","340254","0.0-3.0-6.0","64135dd9d2ef675b8e1799ef","665500ab8938657b03fbdba8","665792535e5d094b79de45bb","7141","stimuli/11000111.jpg"," ","","practrice_feedback","1","","","","","","","","","","","","","","","","","","","","",""
"","","","","","image-keyboard-response","10","341874","0.0-3.0-7.0","64135dd9d2ef675b8e1799ef","665500ab8938657b03fbdba8","665792535e5d094b79de45bb","1620","stimuli/0001001.jpg","0","","prediction_practice","0","{""filepath"":""stimuli/0001001.jpg"",""ball_pos"":0,""ego_ball_visible"":true,""ego_can_infer"":true,""alter_ball_visible"":true,""alter_can_infer"":true,""collective_ball_visible"":true,""collective_can_infer"":true,""search_locations"":[0],""alter_occluders"":""001"",""ego_occluders"":""001""}","true","","","","","","","","","","","","","","","","","","",""
"","","","","","image-keyboard-response","11","343404","0.0-3.0-8.0","64135dd9d2ef675b8e1799ef","665500ab8938657b03fbdba8","665792535e5d094b79de45bb","1529","stimuli/00010010.jpg"," ","","practrice_feedback","0","","","","","","","","","","","","","","","","","","","","",""
"","","","","","image-keyboard-response","12","349117","0.0-3.0-9.0","64135dd9d2ef675b8e1799ef","665500ab8938657b03fbdba8","665792535e5d094b79de45bb","5713","stimuli/0010111.jpg","1","","prediction_practice","0","{""filepath"":""stimuli/0010111.jpg"",""ball_pos"":0,""ego_ball_visible"":false,""ego_can_infer"":false,""alter_ball_visible"":true,""alter_can_infer"":true,""collective_ball_visible"":false,""collective_can_infer"":false,""search_locations"":[0],""alter_occluders"":""010"",""ego_occluders"":""111""}","false","","","","","","","","","","","","","","","","","","",""
"","","","","","image-keyboard-response","13","351392","0.0-3.0-10.0","64135dd9d2ef675b8e1799ef","665500ab8938657b03fbdba8","665792535e5d094b79de45bb","2275","stimuli/00101110.jpg"," ","","practrice_feedback","0","","","","","","","","","","","","","","","","","","","","",""
"","","","","","image-keyboard-response","14","352626","0.0-3.0-11.0","64135dd9d2ef675b8e1799ef","665500ab8938657b03fbdba8","665792535e5d094b79de45bb","1233","stimuli/2000100.jpg","2","","prediction_practice","2","{""filepath"":""stimuli/2000100.jpg"",""ball_pos"":2,""ego_ball_visible"":true,""ego_can_infer"":true,""alter_ball_visible"":true,""alter_can_infer"":true,""collective_ball_visible"":true,""collective_can_infer"":true,""search_locations"":[2],""alter_occluders"":""000"",""ego_occluders"":""100""}","true","","","","","","","","","","","","","","","","","","",""
"","","","","","image-keyboard-response","15","353370","0.0-3.0-12.0","64135dd9d2ef675b8e1799ef","665500ab8938657b03fbdba8","665792535e5d094b79de45bb","744","stimuli/20001002.jpg"," ","","practrice_feedback","2","","","","","","","","","","","","","","","","","","","","",""
"","","","","","image-keyboard-response","16","354281","0.0-3.0-13.0","64135dd9d2ef675b8e1799ef","665500ab8938657b03fbdba8","665792535e5d094b79de45bb","911","stimuli/2010000.jpg","2","","prediction_practice","2","{""filepath"":""stimuli/2010000.jpg"",""ball_pos"":2,""ego_ball_visible"":true,""ego_can_infer"":true,""alter_ball_visible"":true,""alter_can_infer"":true,""collective_ball_visible"":true,""collective_can_infer"":true,""search_locations"":[2],""alter_occluders"":""010"",""ego_occluders"":""000""}","true","","","","","","","","","","","","","","","","","","",""
"","","","","","image-keyboard-response","17","354893","0.0-3.0-14.0","64135dd9d2ef675b8e1799ef","665500ab8938657b03fbdba8","665792535e5d094b79de45bb","611","stimuli/20100002.jpg"," ","","practrice_feedback","2","","","","","","","","","","","","","","","","","","","","",""
"","","","","","image-keyboard-response","18","356722","0.0-3.0-15.0","64135dd9d2ef675b8e1799ef","665500ab8938657b03fbdba8","665792535e5d094b79de45bb","1829","stimuli/1110101.jpg","1","","prediction_practice","0","{""filepath"":""stimuli/1110101.jpg"",""ball_pos"":1,""ego_ball_visible"":true,""ego_can_infer"":true,""alter_ball_visible"":false,""alter_can_infer"":false,""collective_ball_visible"":false,""collective_can_infer"":false,""search_locations"":[0,1],""alter_occluders"":""110"",""ego_occluders"":""101""}","false","","","","","","","","","","","","","","","","","","",""
"","","","","","image-keyboard-response","19","357557","0.0-3.0-16.0","64135dd9d2ef675b8e1799ef","665500ab8938657b03fbdba8","665792535e5d094b79de45bb","835","stimuli/11101010.jpg"," ","","practrice_feedback","0","","","","","","","","","","","","","","","","","","","","",""
"","","","","","image-keyboard-response","20","364550","0.0-3.0-17.0","64135dd9d2ef675b8e1799ef","665500ab8938657b03fbdba8","665792535e5d094b79de45bb","6993","stimuli/2000010.jpg","2","","prediction_practice","2","{""filepath"":""stimuli/2000010.jpg"",""ball_pos"":2,""ego_ball_visible"":true,""ego_can_infer"":true,""alter_ball_visible"":true,""alter_can_infer"":true,""collective_ball_visible"":true,""collective_can_infer"":true,""search_locations"":[2],""alter_occluders"":""000"",""ego_occluders"":""010""}","true","","","","","","","","","","","","","","","","","","",""
"","","","","","image-keyboard-response","21","365158","0.0-3.0-18.0","64135dd9d2ef675b8e1799ef","665500ab8938657b03fbdba8","665792535e5d094b79de45bb","607","stimuli/20000102.jpg"," ","","practrice_feedback","2","","","","","","","","","","","","","","","","","","","","",""
"","","","","","image-keyboard-response","22","370388","0.0-3.0-19.0","64135dd9d2ef675b8e1799ef","665500ab8938657b03fbdba8","665792535e5d094b79de45bb","5230","stimuli/0101110.jpg","0","","prediction_practice","2","{""filepath"":""stimuli/0101110.jpg"",""ball_pos"":0,""ego_ball_visible"":false,""ego_can_infer"":false,""alter_ball_visible"":false,""alter_can_infer"":false,""collective_ball_visible"":false,""collective_can_infer"":false,""search_locations"":[0,2],""alter_occluders"":""101"",""ego_occluders"":""110""}","false","","","","","","","","","","","","","","","","","","",""
"","","","","","image-keyboard-response","23","374442","0.0-3.0-20.0","64135dd9d2ef675b8e1799ef","665500ab8938657b03fbdba8","665792535e5d094b79de45bb","4054","stimuli/01011102.jpg"," ","","practrice_feedback","0","","","","","","","","","","","","","","","","","","","","",""
"","","","","","html-button-response","24","380325","0.0-3.0-21.0","64135dd9d2ef675b8e1799ef","665500ab8938657b03fbdba8","665792535e5d094b79de45bb","5883","Now that you've had some practice, you'll be tested with a couple of easy trials. If you correctly predict Sam's choice, you'll move on to complete the experiment!","0","","","","","","","","","","","","","","","","","","","","","","","",""
"","","","","","image-keyboard-response","25","381582","0.0-3.0-22.0-0.0","64135dd9d2ef675b8e1799ef","665500ab8938657b03fbdba8","665792535e5d094b79de45bb","1257","stimuli/0000011.jpg","arrowleft","","comprehension_quiz","","","true","arrowleft","","","","","","","","","","","","","","","","","",""
"","","","","","image-keyboard-response","26","382766","0.0-3.0-22.0-1.0","64135dd9d2ef675b8e1799ef","665500ab8938657b03fbdba8","665792535e5d094b79de45bb","1182","stimuli/00000110.jpg"," ","","comprehension_quiz","","","true"," ","","","","","","","","","","","","","","","","","",""
"","","","","","image-keyboard-response","27","385104","0.0-3.0-22.0-2.0","64135dd9d2ef675b8e1799ef","665500ab8938657b03fbdba8","665792535e5d094b79de45bb","2338","stimuli/1010010.jpg","arrowdown","","comprehension_quiz","","","true","arrowdown","","","","","","","","","","","","","","","","","",""
"","","","","","image-keyboard-response","28","385553","0.0-3.0-22.0-3.0","64135dd9d2ef675b8e1799ef","665500ab8938657b03fbdba8","665792535e5d094b79de45bb","448","stimuli/10100101.jpg"," ","","comprehension_quiz","","","true"," ","","","","","","","","","","","","","","","","","",""
"","","","","","html-button-response","29","387406","0.0-4.0","64135dd9d2ef675b8e1799ef","665500ab8938657b03fbdba8","665792535e5d094b79de45bb","1853","The experiment will now begin.","0","","","","","","","","","","","","","","","","","","","","","","","",""
"","","","","","image-keyboard-response","30","390444","0.0-5.0","64135dd9d2ef675b8e1799ef","665500ab8938657b03fbdba8","665792535e5d094b79de45bb","3037","stimuli/0001100.jpg","0","","prediction_trial","0","","true","","0","false","true","true","true","false","true","[0]","001","100","1","","","","","","",""
"","","","","","image-keyboard-response","31","391081","0.0-6.0","64135dd9d2ef675b8e1799ef","665500ab8938657b03fbdba8","665792535e5d094b79de45bb","636","stimuli/00011000.jpg"," ","","feedback_trial","0","","","","","","","","","","","","","","","","","","","","",""
"","","","","","image-keyboard-response","32","394337","0.0-7.0","64135dd9d2ef675b8e1799ef","665500ab8938657b03fbdba8","665792535e5d094b79de45bb","3256","stimuli/1101110.jpg","2","","prediction_trial","1","","false","","1","false","false","true","true","false","false","[1]","101","110","0","","","","","","",""
"","","","","","image-keyboard-response","33","395272","0.0-8.0","64135dd9d2ef675b8e1799ef","665500ab8938657b03fbdba8","665792535e5d094b79de45bb","934","stimuli/11011101.jpg"," ","","feedback_trial","1","","","","","","","","","","","","","","","","","","","","",""
"","","","","","image-keyboard-response","34","396570","0.0-9.0","64135dd9d2ef675b8e1799ef","665500ab8938657b03fbdba8","665792535e5d094b79de45bb","1298","stimuli/0101010.jpg","0","","prediction_trial","2","","false","","0","true","true","false","false","false","false","[2,0]","101","010","0","","","","","","",""
"","","","","","image-keyboard-response","35","397274","0.0-10.0","64135dd9d2ef675b8e1799ef","665500ab8938657b03fbdba8","665792535e5d094b79de45bb","703","stimuli/01010102.jpg"," ","","feedback_trial","2","","","","","","","","","","","","","","","","","","","","",""
"","","","","","image-keyboard-response","36","399079","0.0-11.0","64135dd9d2ef675b8e1799ef","665500ab8938657b03fbdba8","665792535e5d094b79de45bb","1805","stimuli/2000101.jpg","2","","prediction_trial","2","","true","","2","false","false","true","true","false","false","[2]","000","101","1","","","","","","",""
"","","","","","image-keyboard-response","37","399699","0.0-12.0","64135dd9d2ef675b8e1799ef","665500ab8938657b03fbdba8","665792535e5d094b79de45bb","619","stimuli/20001012.jpg"," ","","feedback_trial","2","","","","","","","","","","","","","","","","","","","","",""
"","","","","","image-keyboard-response","38","401360","0.0-13.0","64135dd9d2ef675b8e1799ef","665500ab8938657b03fbdba8","665792535e5d094b79de45bb","1661","stimuli/2111000.jpg","2","","prediction_trial","0","","false","","2","true","true","false","false","false","false","[0,2,1]","111","000","0","","","","","","",""
"","","","","","image-keyboard-response","39","401920","0.0-14.0","64135dd9d2ef675b8e1799ef","665500ab8938657b03fbdba8","665792535e5d094b79de45bb","559","stimuli/21110000.jpg"," ","","feedback_trial","0","","","","","","","","","","","","","","","","","","","","",""
"","","","","","image-keyboard-response","40","403002","0.0-15.0","64135dd9d2ef675b8e1799ef","665500ab8938657b03fbdba8","665792535e5d094b79de45bb","1082","stimuli/0010011.jpg","0","","prediction_trial","0","","true","","0","true","true","true","true","true","true","[0]","010","011","1","","","","","","",""
"","","","","","image-keyboard-response","41","403388","0.0-16.0","64135dd9d2ef675b8e1799ef","665500ab8938657b03fbdba8","665792535e5d094b79de45bb","385","stimuli/00100110.jpg"," ","","feedback_trial","0","","","","","","","","","","","","","","","","","","","","",""
"","","","","","image-keyboard-response","42","406548","0.0-17.0","64135dd9d2ef675b8e1799ef","665500ab8938657b03fbdba8","665792535e5d094b79de45bb","3160","stimuli/2011111.jpg","1","","prediction_trial","1","","true","","2","false","false","false","false","false","false","[1,2]","011","111","1","","","","","","",""
"","","","","","image-keyboard-response","43","407367","0.0-18.0","64135dd9d2ef675b8e1799ef","665500ab8938657b03fbdba8","665792535e5d094b79de45bb","819","stimuli/20111111.jpg"," ","","feedback_trial","1","","","","","","","","","","","","","","","","","","","","",""
"","","","","","image-keyboard-response","44","409830","0.0-19.0","64135dd9d2ef675b8e1799ef","665500ab8938657b03fbdba8","665792535e5d094b79de45bb","2463","stimuli/2111010.jpg","2","","prediction_trial","1","","false","","2","true","true","false","false","false","false","[0,2,1]","111","010","0","","","","","","",""
"","","","","","image-keyboard-response","45","410386","0.0-20.0","64135dd9d2ef675b8e1799ef","665500ab8938657b03fbdba8","665792535e5d094b79de45bb","556","stimuli/21110101.jpg"," ","","feedback_trial","0","","","","","","","","","","","","","","","","","","","","",""
"","","","","","image-keyboard-response","46","411597","0.0-21.0","64135dd9d2ef675b8e1799ef","665500ab8938657b03fbdba8","665792535e5d094b79de45bb","1211","stimuli/2101111.jpg","1","","prediction_trial","2","","false","","2","false","false","false","false","false","false","[0,2]","101","111","0","","","","","","",""
"","","","","","image-keyboard-response","47","412269","0.0-22.0","64135dd9d2ef675b8e1799ef","665500ab8938657b03fbdba8","665792535e5d094b79de45bb","671","stimuli/21011112.jpg"," ","","feedback_trial","0","","","","","","","","","","","","","","","","","","","","",""
"","","","","","image-keyboard-response","48","412992","0.0-23.0","64135dd9d2ef675b8e1799ef","665500ab8938657b03fbdba8","665792535e5d094b79de45bb","723","stimuli/1100001.jpg","1","","prediction_trial","1","","true","","1","true","true","true","true","true","true","[1]","100","001","1","","","","","","",""
"","","","","","image-keyboard-response","49","413525","0.0-24.0","64135dd9d2ef675b8e1799ef","665500ab8938657b03fbdba8","665792535e5d094b79de45bb","532","stimuli/11000011.jpg"," ","","feedback_trial","1","","","","","","","","","","","","","","","","","","","","",""
"","","","","","image-keyboard-response","50","416929","0.0-25.0","64135dd9d2ef675b8e1799ef","665500ab8938657b03fbdba8","665792535e5d094b79de45bb","3404","stimuli/2011001.jpg","2","","prediction_trial","1","","false","","2","false","true","false","false","false","false","[2,1]","011","001","0","","","","","","",""
"","","","","","image-keyboard-response","51","417800","0.0-26.0","64135dd9d2ef675b8e1799ef","665500ab8938657b03fbdba8","665792535e5d094b79de45bb","871","stimuli/20110011.jpg"," ","","feedback_trial","2","","","","","","","","","","","","","","","","","","","","",""
"","","","","","image-keyboard-response","52","419688","0.0-27.0","64135dd9d2ef675b8e1799ef","665500ab8938657b03fbdba8","665792535e5d094b79de45bb","1888","stimuli/0011111.jpg","0","","prediction_trial","0","","true","","0","false","false","true","true","false","false","[0]","011","111","1","","","","","","",""
"","","","","","image-keyboard-response","53","420213","0.0-28.0","64135dd9d2ef675b8e1799ef","665500ab8938657b03fbdba8","665792535e5d094b79de45bb","524","stimuli/00111110.jpg"," ","","feedback_trial","0","","","","","","","","","","","","","","","","","","","","",""
"","","","","","image-keyboard-response","54","421563","0.0-29.0","64135dd9d2ef675b8e1799ef","665500ab8938657b03fbdba8","665792535e5d094b79de45bb","1350","stimuli/1010010.jpg","1","","prediction_trial","1","","true","","1","false","true","false","true","false","true","[1]","010","010","1","","","","","","",""
"","","","","","image-keyboard-response","55","422035","0.0-30.0","64135dd9d2ef675b8e1799ef","665500ab8938657b03fbdba8","665792535e5d094b79de45bb","472","stimuli/10100101.jpg"," ","","feedback_trial","1","","","","","","","","","","","","","","","","","","","","",""
"","","","","","image-keyboard-response","56","424685","0.0-31.0","64135dd9d2ef675b8e1799ef","665500ab8938657b03fbdba8","665792535e5d094b79de45bb","2650","stimuli/0001000.jpg","0","","prediction_trial","0","","true","","0","true","true","true","true","true","true","[0]","001","000","1","","","","","","",""
"","","","","","image-keyboard-response","57","425038","0.0-32.0","64135dd9d2ef675b8e1799ef","665500ab8938657b03fbdba8","665792535e5d094b79de45bb","352","stimuli/00010000.jpg"," ","","feedback_trial","0","","","","","","","","","","","","","","","","","","","","",""
"","","","","","image-keyboard-response","58","425750","0.0-33.0","64135dd9d2ef675b8e1799ef","665500ab8938657b03fbdba8","665792535e5d094b79de45bb","712","stimuli/2010010.jpg","2","","prediction_trial","2","","true","","2","true","true","true","true","true","true","[2]","010","010","1","","","","","","",""
"","","","","","image-keyboard-response","59","426112","0.0-34.0","64135dd9d2ef675b8e1799ef","665500ab8938657b03fbdba8","665792535e5d094b79de45bb","361","stimuli/20100102.jpg"," ","","feedback_trial","2","","","","","","","","","","","","","","","","","","","","",""
"","","","","","image-keyboard-response","60","427685","0.0-35.0","64135dd9d2ef675b8e1799ef","665500ab8938657b03fbdba8","665792535e5d094b79de45bb","1573","stimuli/0100100.jpg","0","","prediction_trial","0","","true","","0","false","true","false","true","false","true","[0]","100","100","1","","","","","","",""
"","","","","","image-keyboard-response","61","428150","0.0-36.0","64135dd9d2ef675b8e1799ef","665500ab8938657b03fbdba8","665792535e5d094b79de45bb","465","stimuli/01001000.jpg"," ","","feedback_trial","0","","","","","","","","","","","","","","","","","","","","",""
"","","","","","image-keyboard-response","62","430912","0.0-37.0","64135dd9d2ef675b8e1799ef","665500ab8938657b03fbdba8","665792535e5d094b79de45bb","2761","stimuli/2100101.jpg","0","","prediction_trial","2","","false","","2","false","false","true","true","false","false","[2]","100","101","0","","","","","","",""
"","","","","","image-keyboard-response","63","431543","0.0-38.0","64135dd9d2ef675b8e1799ef","665500ab8938657b03fbdba8","665792535e5d094b79de45bb","631","stimuli/21001012.jpg"," ","","feedback_trial","2","","","","","","","","","","","","","","","","","","","","",""
"","","","","","image-keyboard-response","64","434273","0.0-39.0","64135dd9d2ef675b8e1799ef","665500ab8938657b03fbdba8","665792535e5d094b79de45bb","2730","stimuli/1001010.jpg","1","","prediction_trial","1","","true","","1","false","true","true","true","false","true","[1]","001","010","1","","","","","","",""
"","","","","","image-keyboard-response","65","434658","0.0-40.0","64135dd9d2ef675b8e1799ef","665500ab8938657b03fbdba8","665792535e5d094b79de45bb","384","stimuli/10010101.jpg"," ","","feedback_trial","1","","","","","","","","","","","","","","","","","","","","",""
"","","","","","image-keyboard-response","66","436558","0.0-41.0","64135dd9d2ef675b8e1799ef","665500ab8938657b03fbdba8","665792535e5d094b79de45bb","1900","stimuli/0011101.jpg","2","","prediction_trial","0","","false","","0","false","false","true","true","false","false","[0]","011","101","0","","","","","","",""
"","","","","","image-keyboard-response","67","437142","0.0-42.0","64135dd9d2ef675b8e1799ef","665500ab8938657b03fbdba8","665792535e5d094b79de45bb","584","stimuli/00111010.jpg"," ","","feedback_trial","0","","","","","","","","","","","","","","","","","","","","",""
"","","","","","image-keyboard-response","68","438173","0.0-43.0","64135dd9d2ef675b8e1799ef","665500ab8938657b03fbdba8","665792535e5d094b79de45bb","1031","stimuli/0111001.jpg","0","","prediction_trial","1","","false","","0","true","true","false","false","false","false","[1,0,2]","111","001","0","","","","","","",""
"","","","","","image-keyboard-response","69","439336","0.0-44.0","64135dd9d2ef675b8e1799ef","665500ab8938657b03fbdba8","665792535e5d094b79de45bb","1163","stimuli/01110011.jpg"," ","","feedback_trial","1","","","","","","","","","","","","","","","","","","","","",""
"","","","","","image-keyboard-response","70","441950","0.0-45.0","64135dd9d2ef675b8e1799ef","665500ab8938657b03fbdba8","665792535e5d094b79de45bb","2614","stimuli/2001000.jpg","2","","prediction_trial","2","","true","","2","true","true","false","true","false","true","[2]","001","000","1","","","","","","",""
"","","","","","image-keyboard-response","71","442398","0.0-46.0","64135dd9d2ef675b8e1799ef","665500ab8938657b03fbdba8","665792535e5d094b79de45bb","447","stimuli/20010002.jpg"," ","","feedback_trial","2","","","","","","","","","","","","","","","","","","","","",""
"","","","","","image-keyboard-response","72","443322","0.0-47.0","64135dd9d2ef675b8e1799ef","665500ab8938657b03fbdba8","665792535e5d094b79de45bb","924","stimuli/2000010.jpg","2","","prediction_trial","2","","true","","2","true","true","true","true","true","true","[2]","000","010","1","","","","","","",""
"","","","","","image-keyboard-response","73","443627","0.0-48.0","64135dd9d2ef675b8e1799ef","665500ab8938657b03fbdba8","665792535e5d094b79de45bb","305","stimuli/20000102.jpg"," ","","feedback_trial","2","","","","","","","","","","","","","","","","","","","","",""
"","","","","","image-keyboard-response","74","444577","0.0-49.0","64135dd9d2ef675b8e1799ef","665500ab8938657b03fbdba8","665792535e5d094b79de45bb","950","stimuli/0111000.jpg","0","","prediction_trial","0","","true","","0","true","true","false","false","false","false","[2,0,1]","111","000","1","","","","","","",""
"","","","","","image-keyboard-response","75","445026","0.0-50.0","64135dd9d2ef675b8e1799ef","665500ab8938657b03fbdba8","665792535e5d094b79de45bb","448","stimuli/01110000.jpg"," ","","feedback_trial","2","","","","","","","","","","","","","","","","","","","","",""
"","","","","","image-keyboard-response","76","445930","0.0-51.0","64135dd9d2ef675b8e1799ef","665500ab8938657b03fbdba8","665792535e5d094b79de45bb","904","stimuli/2000100.jpg","2","","prediction_trial","2","","true","","2","true","true","true","true","true","true","[2]","000","100","1","","","","","","",""
"","","","","","image-keyboard-response","77","446263","0.0-52.0","64135dd9d2ef675b8e1799ef","665500ab8938657b03fbdba8","665792535e5d094b79de45bb","332","stimuli/20001002.jpg"," ","","feedback_trial","2","","","","","","","","","","","","","","","","","","","","",""
"","","","","","image-keyboard-response","78","448155","0.0-53.0","64135dd9d2ef675b8e1799ef","665500ab8938657b03fbdba8","665792535e5d094b79de45bb","1892","stimuli/1100101.jpg","1","","prediction_trial","1","","true","","1","true","true","true","true","true","true","[1]","100","101","1","","","","","","",""
"","","","","","image-keyboard-response","79","448424","0.0-54.0","64135dd9d2ef675b8e1799ef","665500ab8938657b03fbdba8","665792535e5d094b79de45bb","268","stimuli/11001011.jpg"," ","","feedback_trial","1","","","","","","","","","","","","","","","","","","","","",""
"","","","","","image-keyboard-response","80","449874","0.0-55.0","64135dd9d2ef675b8e1799ef","665500ab8938657b03fbdba8","665792535e5d094b79de45bb","1450","stimuli/0001110.jpg","1","","prediction_trial","0","","false","","0","false","false","true","true","false","false","[0]","001","110","0","","","","","","",""
"","","","","","image-keyboard-response","81","450382","0.0-56.0","64135dd9d2ef675b8e1799ef","665500ab8938657b03fbdba8","665792535e5d094b79de45bb","507","stimuli/00011100.jpg"," ","","feedback_trial","0","","","","","","","","","","","","","","","","","","","","",""
"","","","","","image-keyboard-response","82","452131","0.0-57.0","64135dd9d2ef675b8e1799ef","665500ab8938657b03fbdba8","665792535e5d094b79de45bb","1749","stimuli/2001100.jpg","2","","prediction_trial","2","","true","","2","true","true","false","true","false","true","[2]","001","100","1","","","","","","",""
"","","","","","image-keyboard-response","83","452596","0.0-58.0","64135dd9d2ef675b8e1799ef","665500ab8938657b03fbdba8","665792535e5d094b79de45bb","465","stimuli/20011002.jpg"," ","","feedback_trial","2","","","","","","","","","","","","","","","","","","","","",""
"","","","","","image-keyboard-response","84","455959","0.0-59.0","64135dd9d2ef675b8e1799ef","665500ab8938657b03fbdba8","665792535e5d094b79de45bb","3363","stimuli/2101100.jpg","0","","prediction_trial","2","","false","","2","true","true","false","false","false","false","[2,0]","101","100","0","","","","","","",""
"","","","","","image-keyboard-response","85","456807","0.0-60.0","64135dd9d2ef675b8e1799ef","665500ab8938657b03fbdba8","665792535e5d094b79de45bb","847","stimuli/21011002.jpg"," ","","feedback_trial","2","","","","","","","","","","","","","","","","","","","","",""
"","","","","","image-keyboard-response","86","458591","0.0-61.0","64135dd9d2ef675b8e1799ef","665500ab8938657b03fbdba8","665792535e5d094b79de45bb","1784","stimuli/2001111.jpg","1","","prediction_trial","2","","false","","2","false","false","false","true","false","false","[2]","001","111","0","","","","","","",""
"","","","","","image-keyboard-response","87","459136","0.0-62.0","64135dd9d2ef675b8e1799ef","665500ab8938657b03fbdba8","665792535e5d094b79de45bb","545","stimuli/20011112.jpg"," ","","feedback_trial","2","","","","","","","","","","","","","","","","","","","","",""
"","","","","","image-keyboard-response","88","461048","0.0-63.0","64135dd9d2ef675b8e1799ef","665500ab8938657b03fbdba8","665792535e5d094b79de45bb","1912","stimuli/0101111.jpg","1","","prediction_trial","0","","false","","0","false","false","false","false","false","false","[0,2]","101","111","0","","","","","","",""
"","","","","","image-keyboard-response","89","461536","0.0-64.0","64135dd9d2ef675b8e1799ef","665500ab8938657b03fbdba8","665792535e5d094b79de45bb","487","stimuli/01011110.jpg"," ","","feedback_trial","0","","","","","","","","","","","","","","","","","","","","",""
"","","","","","image-keyboard-response","90","462955","0.0-65.0","64135dd9d2ef675b8e1799ef","665500ab8938657b03fbdba8","665792535e5d094b79de45bb","1419","stimuli/2111101.jpg","2","","prediction_trial","0","","false","","2","false","false","false","false","false","false","[0,2,1]","111","101","0","","","","","","",""
"","","","","","image-keyboard-response","91","463507","0.0-66.0","64135dd9d2ef675b8e1799ef","665500ab8938657b03fbdba8","665792535e5d094b79de45bb","552","stimuli/21111010.jpg"," ","","feedback_trial","0","","","","","","","","","","","","","","","","","","","","",""
"","","","","","image-keyboard-response","92","464792","0.0-67.0","64135dd9d2ef675b8e1799ef","665500ab8938657b03fbdba8","665792535e5d094b79de45bb","1285","stimuli/2000111.jpg","0","","prediction_trial","2","","false","","2","false","false","true","true","false","false","[2]","000","111","0","","","","","","",""
"","","","","","image-keyboard-response","93","465305","0.0-68.0","64135dd9d2ef675b8e1799ef","665500ab8938657b03fbdba8","665792535e5d094b79de45bb","513","stimuli/20001112.jpg"," ","","feedback_trial","2","","","","","","","","","","","","","","","","","","","","",""
"","","","","","image-keyboard-response","94","466260","0.0-69.0","64135dd9d2ef675b8e1799ef","665500ab8938657b03fbdba8","665792535e5d094b79de45bb","955","stimuli/0111110.jpg","1","","prediction_trial","1","","true","","0","false","false","false","false","false","false","[2,0,1]","111","110","1","","","","","","",""
"","","","","","image-keyboard-response","95","466928","0.0-70.0","64135dd9d2ef675b8e1799ef","665500ab8938657b03fbdba8","665792535e5d094b79de45bb","668","stimuli/01111101.jpg"," ","","feedback_trial","2","","","","","","","","","","","","","","","","","","","","",""
"","","","","","image-keyboard-response","96","469460","0.0-71.0","64135dd9d2ef675b8e1799ef","665500ab8938657b03fbdba8","665792535e5d094b79de45bb","2531","stimuli/2001010.jpg","2","","prediction_trial","2","","true","","2","true","true","false","true","false","true","[2]","001","010","1","","","","","","",""
"","","","","","image-keyboard-response","97","469875","0.0-72.0","64135dd9d2ef675b8e1799ef","665500ab8938657b03fbdba8","665792535e5d094b79de45bb","415","stimuli/20010102.jpg"," ","","feedback_trial","2","","","","","","","","","","","","","","","","","","","","",""
"","","","","","image-keyboard-response","98","473838","0.0-73.0","64135dd9d2ef675b8e1799ef","665500ab8938657b03fbdba8","665792535e5d094b79de45bb","3963","stimuli/2100001.jpg","2","","prediction_trial","2","","true","","2","false","true","true","true","false","true","[2]","100","001","1","","","","","","",""
"","","","","","image-keyboard-response","99","474334","0.0-74.0","64135dd9d2ef675b8e1799ef","665500ab8938657b03fbdba8","665792535e5d094b79de45bb","495","stimuli/21000012.jpg"," ","","feedback_trial","2","","","","","","","","","","","","","","","","","","","","",""
"","","","","","image-keyboard-response","100","477786","0.0-75.0","64135dd9d2ef675b8e1799ef","665500ab8938657b03fbdba8","665792535e5d094b79de45bb","3451","stimuli/1110010.jpg","1","","prediction_trial","0","","false","","1","false","true","false","false","false","false","[1,0]","110","010","0","","","","","","",""
"","","","","","image-keyboard-response","101","478346","0.0-76.0","64135dd9d2ef675b8e1799ef","665500ab8938657b03fbdba8","665792535e5d094b79de45bb","560","stimuli/11100100.jpg"," ","","feedback_trial","1","","","","","","","","","","","","","","","","","","","","",""
"","","","","","image-keyboard-response","102","481251","0.0-77.0","64135dd9d2ef675b8e1799ef","665500ab8938657b03fbdba8","665792535e5d094b79de45bb","2905","stimuli/1000011.jpg","2","","prediction_trial","1","","false","","1","false","false","true","true","false","false","[1]","000","011","0","","","","","","",""
"","","","","","image-keyboard-response","103","481872","0.0-78.0","64135dd9d2ef675b8e1799ef","665500ab8938657b03fbdba8","665792535e5d094b79de45bb","620","stimuli/10000111.jpg"," ","","feedback_trial","1","","","","","","","","","","","","","","","","","","","","",""
"","","","","","image-keyboard-response","104","484103","0.0-79.0","64135dd9d2ef675b8e1799ef","665500ab8938657b03fbdba8","665792535e5d094b79de45bb","2231","stimuli/0010100.jpg","0","","prediction_trial","0","","true","","0","false","true","true","true","false","true","[0]","010","100","1","","","","","","",""
"","","","","","image-keyboard-response","105","484475","0.0-80.0","64135dd9d2ef675b8e1799ef","665500ab8938657b03fbdba8","665792535e5d094b79de45bb","372","stimuli/00101000.jpg"," ","","feedback_trial","0","","","","","","","","","","","","","","","","","","","","",""
"","","","","","image-keyboard-response","106","486030","0.0-81.0","64135dd9d2ef675b8e1799ef","665500ab8938657b03fbdba8","665792535e5d094b79de45bb","1554","stimuli/2110101.jpg","2","","prediction_trial","2","","true","","2","false","false","true","true","false","false","[2]","110","101","1","","","","","","",""
"","","","","","image-keyboard-response","107","486409","0.0-82.0","64135dd9d2ef675b8e1799ef","665500ab8938657b03fbdba8","665792535e5d094b79de45bb","379","stimuli/21101012.jpg"," ","","feedback_trial","2","","","","","","","","","","","","","","","","","","","","",""
"","","","","","image-keyboard-response","108","488315","0.0-83.0","64135dd9d2ef675b8e1799ef","665500ab8938657b03fbdba8","665792535e5d094b79de45bb","1905","stimuli/2011110.jpg","2","","prediction_trial","2","","true","","2","true","true","false","false","false","false","[2,1]","011","110","1","","","","","","",""
"","","","","","image-keyboard-response","109","488747","0.0-84.0","64135dd9d2ef675b8e1799ef","665500ab8938657b03fbdba8","665792535e5d094b79de45bb","431","stimuli/20111102.jpg"," ","","feedback_trial","2","","","","","","","","","","","","","","","","","","","","",""
"","","","","","image-keyboard-response","110","490751","0.0-85.0","64135dd9d2ef675b8e1799ef","665500ab8938657b03fbdba8","665792535e5d094b79de45bb","2004","stimuli/1000000.jpg","1","","prediction_trial","1","","true","","1","true","true","true","true","true","true","[1]","000","000","1","","","","","","",""
"","","","","","image-keyboard-response","111","491112","0.0-86.0","64135dd9d2ef675b8e1799ef","665500ab8938657b03fbdba8","665792535e5d094b79de45bb","361","stimuli/10000001.jpg"," ","","feedback_trial","1","","","","","","","","","","","","","","","","","","","","",""
"","","","","","image-keyboard-response","112","492095","0.0-87.0","64135dd9d2ef675b8e1799ef","665500ab8938657b03fbdba8","665792535e5d094b79de45bb","983","stimuli/2000001.jpg","2","","prediction_trial","2","","true","","2","false","true","true","true","false","true","[2]","000","001","1","","","","","","",""
"","","","","","image-keyboard-response","113","492416","0.0-88.0","64135dd9d2ef675b8e1799ef","665500ab8938657b03fbdba8","665792535e5d094b79de45bb","321","stimuli/20000012.jpg"," ","","feedback_trial","2","","","","","","","","","","","","","","","","","","","","",""
"","","","","","image-keyboard-response","114","493682","0.0-89.0","64135dd9d2ef675b8e1799ef","665500ab8938657b03fbdba8","665792535e5d094b79de45bb","1266","stimuli/1001011.jpg","1","","prediction_trial","1","","true","","1","false","false","true","true","false","false","[1]","001","011","1","","","","","","",""
"","","","","","image-keyboard-response","115","493999","0.0-90.0","64135dd9d2ef675b8e1799ef","665500ab8938657b03fbdba8","665792535e5d094b79de45bb","317","stimuli/10010111.jpg"," ","","feedback_trial","1","","","","","","","","","","","","","","","","","","","","",""
"","","","","","image-keyboard-response","116","495803","0.0-91.0","64135dd9d2ef675b8e1799ef","665500ab8938657b03fbdba8","665792535e5d094b79de45bb","1804","stimuli/0111111.jpg","0","","prediction_trial","2","","false","","0","false","false","false","false","false","false","[2,0,1]","111","111","0","","","","","","",""
"","","","","","image-keyboard-response","117","496268","0.0-92.0","64135dd9d2ef675b8e1799ef","665500ab8938657b03fbdba8","665792535e5d094b79de45bb","464","stimuli/01111112.jpg"," ","","feedback_trial","2","","","","","","","","","","","","","","","","","","","","",""
"","","","","","image-keyboard-response","118","497240","0.0-93.0","64135dd9d2ef675b8e1799ef","665500ab8938657b03fbdba8","665792535e5d094b79de45bb","972","stimuli/2000000.jpg","2","","prediction_trial","2","","true","","2","true","true","true","true","true","true","[2]","000","000","1","","","","","","",""
"","","","","","image-keyboard-response","119","497565","0.0-94.0","64135dd9d2ef675b8e1799ef","665500ab8938657b03fbdba8","665792535e5d094b79de45bb","324","stimuli/20000002.jpg"," ","","feedback_trial","2","","","","","","","","","","","","","","","","","","","","",""
"","","","","","image-keyboard-response","120","499648","0.0-95.0","64135dd9d2ef675b8e1799ef","665500ab8938657b03fbdba8","665792535e5d094b79de45bb","2083","stimuli/1011000.jpg","1","","prediction_trial","2","","false","","1","true","true","false","false","false","false","[1,2]","011","000","0","","","","","","",""
"","","","","","image-keyboard-response","121","501393","0.0-96.0","64135dd9d2ef675b8e1799ef","665500ab8938657b03fbdba8","665792535e5d094b79de45bb","1745","stimuli/10110002.jpg"," ","","feedback_trial","1","","","","","","","","","","","","","","","","","","","","",""
"","","","","","image-keyboard-response","122","502376","0.0-97.0","64135dd9d2ef675b8e1799ef","665500ab8938657b03fbdba8","665792535e5d094b79de45bb","983","stimuli/2110001.jpg","2","","prediction_trial","2","","true","","2","false","true","true","true","false","true","[2]","110","001","1","","","","","","",""
"","","","","","image-keyboard-response","123","502693","0.0-98.0","64135dd9d2ef675b8e1799ef","665500ab8938657b03fbdba8","665792535e5d094b79de45bb","316","stimuli/21100012.jpg"," ","","feedback_trial","2","","","","","","","","","","","","","","","","","","","","",""
"","","","","","image-keyboard-response","124","504051","0.0-99.0","64135dd9d2ef675b8e1799ef","665500ab8938657b03fbdba8","665792535e5d094b79de45bb","1358","stimuli/0001101.jpg","0","","prediction_trial","0","","true","","0","false","false","true","true","false","false","[0]","001","101","1","","","","","","",""
"","","","","","image-keyboard-response","125","504412","0.0-100.0","64135dd9d2ef675b8e1799ef","665500ab8938657b03fbdba8","665792535e5d094b79de45bb","361","stimuli/00011010.jpg"," ","","feedback_trial","0","","","","","","","","","","","","","","","","","","","","",""
"","","","","","image-keyboard-response","126","506723","0.0-101.0","64135dd9d2ef675b8e1799ef","665500ab8938657b03fbdba8","665792535e5d094b79de45bb","2311","stimuli/1010111.jpg","1","","prediction_trial","1","","true","","1","false","false","false","true","false","false","[1]","010","111","1","","","","","","",""
"","","","","","image-keyboard-response","127","507072","0.0-102.0","64135dd9d2ef675b8e1799ef","665500ab8938657b03fbdba8","665792535e5d094b79de45bb","348","stimuli/10101111.jpg"," ","","feedback_trial","1","","","","","","","","","","","","","","","","","","","","",""
"","","","","","image-keyboard-response","128","509973","0.0-103.0","64135dd9d2ef675b8e1799ef","665500ab8938657b03fbdba8","665792535e5d094b79de45bb","2901","stimuli/2101000.jpg","2","","prediction_trial","0","","false","","2","true","true","false","false","false","false","[0,2]","101","000","0","","","","","","",""
"","","","","","image-keyboard-response","129","510561","0.0-104.0","64135dd9d2ef675b8e1799ef","665500ab8938657b03fbdba8","665792535e5d094b79de45bb","587","stimuli/21010000.jpg"," ","","feedback_trial","0","","","","","","","","","","","","","","","","","","","","",""
"","","","","","image-keyboard-response","130","511289","0.0-105.0","64135dd9d2ef675b8e1799ef","665500ab8938657b03fbdba8","665792535e5d094b79de45bb","728","stimuli/2110110.jpg","2","","prediction_trial","2","","true","","2","true","true","true","true","true","true","[2]","110","110","1","","","","","","",""
"","","","","","image-keyboard-response","131","511618","0.0-106.0","64135dd9d2ef675b8e1799ef","665500ab8938657b03fbdba8","665792535e5d094b79de45bb","328","stimuli/21101102.jpg"," ","","feedback_trial","2","","","","","","","","","","","","","","","","","","","","",""
"","","","","","image-keyboard-response","132","514404","0.0-107.0","64135dd9d2ef675b8e1799ef","665500ab8938657b03fbdba8","665792535e5d094b79de45bb","2786","stimuli/2011000.jpg","2","","prediction_trial","2","","true","","2","true","true","false","false","false","false","[1,2]","011","000","1","","","","","","",""
"","","","","","image-keyboard-response","133","514832","0.0-108.0","64135dd9d2ef675b8e1799ef","665500ab8938657b03fbdba8","665792535e5d094b79de45bb","428","stimuli/20110002.jpg"," ","","feedback_trial","1","","","","","","","","","","","","","","","","","","","","",""
"","","","","","image-keyboard-response","134","515755","0.0-109.0","64135dd9d2ef675b8e1799ef","665500ab8938657b03fbdba8","665792535e5d094b79de45bb","923","stimuli/0101011.jpg","0","","prediction_trial","2","","false","","0","true","true","false","false","false","false","[2,0]","101","011","0","","","","","","",""
"","","","","","image-keyboard-response","135","516180","0.0-110.0","64135dd9d2ef675b8e1799ef","665500ab8938657b03fbdba8","665792535e5d094b79de45bb","425","stimuli/01010112.jpg"," ","","feedback_trial","2","","","","","","","","","","","","","","","","","","","","",""
"","","","","","image-keyboard-response","136","518814","0.0-111.0","64135dd9d2ef675b8e1799ef","665500ab8938657b03fbdba8","665792535e5d094b79de45bb","2634","stimuli/2111011.jpg","1","","prediction_trial","0","","false","","2","false","false","false","false","false","false","[1,2,0]","111","011","0","","","","","","",""
"","","","","","image-keyboard-response","137","519354","0.0-112.0","64135dd9d2ef675b8e1799ef","665500ab8938657b03fbdba8","665792535e5d094b79de45bb","539","stimuli/21110110.jpg"," ","","feedback_trial","1","","","","","","","","","","","","","","","","","","","","",""
"","","","","","image-keyboard-response","138","520417","0.0-113.0","64135dd9d2ef675b8e1799ef","665500ab8938657b03fbdba8","665792535e5d094b79de45bb","1063","stimuli/1101100.jpg","1","","prediction_trial","1","","true","","1","true","true","true","true","true","true","[1]","101","100","1","","","","","","",""
"","","","","","image-keyboard-response","139","520794","0.0-114.0","64135dd9d2ef675b8e1799ef","665500ab8938657b03fbdba8","665792535e5d094b79de45bb","377","stimuli/11011001.jpg"," ","","feedback_trial","1","","","","","","","","","","","","","","","","","","","","",""
"","","","","","image-keyboard-response","140","522307","0.0-115.0","64135dd9d2ef675b8e1799ef","665500ab8938657b03fbdba8","665792535e5d094b79de45bb","1513","stimuli/0010111.jpg","0","","prediction_trial","0","","true","","0","false","false","true","true","false","false","[0]","010","111","1","","","","","","",""
"","","","","","image-keyboard-response","141","522720","0.0-116.0","64135dd9d2ef675b8e1799ef","665500ab8938657b03fbdba8","665792535e5d094b79de45bb","413","stimuli/00101110.jpg"," ","","feedback_trial","0","","","","","","","","","","","","","","","","","","","","",""
"","","","","","image-keyboard-response","142","525750","0.0-117.0","64135dd9d2ef675b8e1799ef","665500ab8938657b03fbdba8","665792535e5d094b79de45bb","3030","stimuli/2011100.jpg","2","","prediction_trial","1","","false","","2","true","true","false","false","false","false","[2,1]","011","100","0","","","","","","",""
"","","","","","image-keyboard-response","143","526134","0.0-118.0","64135dd9d2ef675b8e1799ef","665500ab8938657b03fbdba8","665792535e5d094b79de45bb","384","stimuli/20111001.jpg"," ","","feedback_trial","2","","","","","","","","","","","","","","","","","","","","",""
"","","","","","image-keyboard-response","144","528405","0.0-119.0","64135dd9d2ef675b8e1799ef","665500ab8938657b03fbdba8","665792535e5d094b79de45bb","2271","stimuli/0000010.jpg","0","","prediction_trial","0","","true","","0","true","true","true","true","true","true","[0]","000","010","1","","","","","","",""
"","","","","","image-keyboard-response","145","528806","0.0-120.0","64135dd9d2ef675b8e1799ef","665500ab8938657b03fbdba8","665792535e5d094b79de45bb","400","stimuli/00000100.jpg"," ","","feedback_trial","0","","","","","","","","","","","","","","","","","","","","",""
"","","","","","image-keyboard-response","146","530045","0.0-121.0","64135dd9d2ef675b8e1799ef","665500ab8938657b03fbdba8","665792535e5d094b79de45bb","1239","stimuli/2001001.jpg","2","","prediction_trial","2","","true","","2","false","true","false","true","false","true","[2]","001","001","1","","","","","","",""
"","","","","","image-keyboard-response","147","530377","0.0-122.0","64135dd9d2ef675b8e1799ef","665500ab8938657b03fbdba8","665792535e5d094b79de45bb","332","stimuli/20010012.jpg"," ","","feedback_trial","2","","","","","","","","","","","","","","","","","","","","",""
"","","","","","image-keyboard-response","148","531281","0.0-123.0","64135dd9d2ef675b8e1799ef","665500ab8938657b03fbdba8","665792535e5d094b79de45bb","903","stimuli/0010010.jpg","0","","prediction_trial","0","","true","","0","true","true","true","true","true","true","[0]","010","010","1","","","","","","",""
"","","","","","image-keyboard-response","149","531599","0.0-124.0","64135dd9d2ef675b8e1799ef","665500ab8938657b03fbdba8","665792535e5d094b79de45bb","318","stimuli/00100100.jpg"," ","","feedback_trial","0","","","","","","","","","","","","","","","","","","","","",""
"","","","","","image-keyboard-response","150","534859","0.0-125.0","64135dd9d2ef675b8e1799ef","665500ab8938657b03fbdba8","665792535e5d094b79de45bb","3260","stimuli/1100010.jpg","1","","prediction_trial","1","","true","","1","false","true","true","true","false","true","[1]","100","010","1","","","","","","",""
"","","","","","image-keyboard-response","151","535203","0.0-126.0","64135dd9d2ef675b8e1799ef","665500ab8938657b03fbdba8","665792535e5d094b79de45bb","344","stimuli/11000101.jpg"," ","","feedback_trial","1","","","","","","","","","","","","","","","","","","","","",""
"","","","","","image-keyboard-response","152","536582","0.0-127.0","64135dd9d2ef675b8e1799ef","665500ab8938657b03fbdba8","665792535e5d094b79de45bb","1378","stimuli/2001110.jpg","2","","prediction_trial","2","","true","","2","true","true","false","true","false","true","[2]","001","110","1","","","","","","",""
"","","","","","image-keyboard-response","153","536934","0.0-128.0","64135dd9d2ef675b8e1799ef","665500ab8938657b03fbdba8","665792535e5d094b79de45bb","352","stimuli/20011102.jpg"," ","","feedback_trial","2","","","","","","","","","","","","","","","","","","","","",""
"","","","","","image-keyboard-response","154","538227","0.0-129.0","64135dd9d2ef675b8e1799ef","665500ab8938657b03fbdba8","665792535e5d094b79de45bb","1294","stimuli/1111011.jpg","1","","prediction_trial","1","","true","","1","false","false","false","false","false","false","[1,0,2]","111","011","1","","","","","","",""
"","","","","","image-keyboard-response","155","538568","0.0-130.0","64135dd9d2ef675b8e1799ef","665500ab8938657b03fbdba8","665792535e5d094b79de45bb","340","stimuli/11110111.jpg"," ","","feedback_trial","1","","","","","","","","","","","","","","","","","","","","",""
"","","","","","image-keyboard-response","156","539535","0.0-131.0","64135dd9d2ef675b8e1799ef","665500ab8938657b03fbdba8","665792535e5d094b79de45bb","967","stimuli/0110011.jpg","0","","prediction_trial","0","","true","","0","true","true","false","false","false","false","[1,0]","110","011","1","","","","","","",""
"","","","","","image-keyboard-response","157","539912","0.0-132.0","64135dd9d2ef675b8e1799ef","665500ab8938657b03fbdba8","665792535e5d094b79de45bb","377","stimuli/01100110.jpg"," ","","feedback_trial","1","","","","","","","","","","","","","","","","","","","","",""
"","","","","","image-keyboard-response","158","541386","0.0-133.0","64135dd9d2ef675b8e1799ef","665500ab8938657b03fbdba8","665792535e5d094b79de45bb","1474","stimuli/0100111.jpg","1","","prediction_trial","0","","false","","0","false","false","false","true","false","false","[0]","100","111","0","","","","","","",""
"","","","","","image-keyboard-response","159","541850","0.0-134.0","64135dd9d2ef675b8e1799ef","665500ab8938657b03fbdba8","665792535e5d094b79de45bb","463","stimuli/01001110.jpg"," ","","feedback_trial","0","","","","","","","","","","","","","","","","","","","","",""
"","","","","","image-keyboard-response","160","543978","0.0-135.0","64135dd9d2ef675b8e1799ef","665500ab8938657b03fbdba8","665792535e5d094b79de45bb","2128","stimuli/1100100.jpg","1","","prediction_trial","1","","true","","1","true","true","true","true","true","true","[1]","100","100","1","","","","","","",""
"","","","","","image-keyboard-response","161","544271","0.0-136.0","64135dd9d2ef675b8e1799ef","665500ab8938657b03fbdba8","665792535e5d094b79de45bb","293","stimuli/11001001.jpg"," ","","feedback_trial","1","","","","","","","","","","","","","","","","","","","","",""
"","","","","","image-keyboard-response","162","544871","0.0-137.0","64135dd9d2ef675b8e1799ef","665500ab8938657b03fbdba8","665792535e5d094b79de45bb","599","stimuli/0010001.jpg","0","","prediction_trial","0","","true","","0","true","true","true","true","true","true","[0]","010","001","1","","","","","","",""
"","","","","","image-keyboard-response","163","545188","0.0-138.0","64135dd9d2ef675b8e1799ef","665500ab8938657b03fbdba8","665792535e5d094b79de45bb","316","stimuli/00100010.jpg"," ","","feedback_trial","0","","","","","","","","","","","","","","","","","","","","",""
"","","","","","image-keyboard-response","164","545888","0.0-139.0","64135dd9d2ef675b8e1799ef","665500ab8938657b03fbdba8","665792535e5d094b79de45bb","700","stimuli/1101000.jpg","1","","prediction_trial","1","","true","","1","true","true","true","true","true","true","[1]","101","000","1","","","","","","",""
"","","","","","image-keyboard-response","165","546169","0.0-140.0","64135dd9d2ef675b8e1799ef","665500ab8938657b03fbdba8","665792535e5d094b79de45bb","280","stimuli/11010001.jpg"," ","","feedback_trial","1","","","","","","","","","","","","","","","","","","","","",""
"","","","","","image-keyboard-response","166","547344","0.0-141.0","64135dd9d2ef675b8e1799ef","665500ab8938657b03fbdba8","665792535e5d094b79de45bb","1175","stimuli/0110100.jpg","0","","prediction_trial","1","","false","","0","false","true","false","false","false","false","[1,0]","110","100","0","","","","","","",""
"","","","","","image-keyboard-response","167","547992","0.0-142.0","64135dd9d2ef675b8e1799ef","665500ab8938657b03fbdba8","665792535e5d094b79de45bb","648","stimuli/01101001.jpg"," ","","feedback_trial","1","","","","","","","","","","","","","","","","","","","","",""
"","","","","","image-keyboard-response","168","549019","0.0-143.0","64135dd9d2ef675b8e1799ef","665500ab8938657b03fbdba8","665792535e5d094b79de45bb","1027","stimuli/1011100.jpg","1","","prediction_trial","2","","false","","1","true","true","false","false","false","false","[1,2]","011","100","0","","","","","","",""
"","","","","","image-keyboard-response","169","549763","0.0-144.0","64135dd9d2ef675b8e1799ef","665500ab8938657b03fbdba8","665792535e5d094b79de45bb","744","stimuli/10111002.jpg"," ","","feedback_trial","1","","","","","","","","","","","","","","","","","","","","",""
"","","","","","image-keyboard-response","170","550402","0.0-145.0","64135dd9d2ef675b8e1799ef","665500ab8938657b03fbdba8","665792535e5d094b79de45bb","639","stimuli/0011000.jpg","0","","prediction_trial","0","","true","","0","true","true","true","true","true","true","[0]","011","000","1","","","","","","",""
"","","","","","image-keyboard-response","171","551003","0.0-146.0","64135dd9d2ef675b8e1799ef","665500ab8938657b03fbdba8","665792535e5d094b79de45bb","601","stimuli/00110000.jpg"," ","","feedback_trial","0","","","","","","","","","","","","","","","","","","","","",""
"","","","","","image-keyboard-response","172","552165","0.0-147.0","64135dd9d2ef675b8e1799ef","665500ab8938657b03fbdba8","665792535e5d094b79de45bb","1162","stimuli/2011101.jpg","0","","prediction_trial","1","","false","","2","false","false","false","false","false","false","[2,1]","011","101","0","","","","","","",""
"","","","","","image-keyboard-response","173","554568","0.0-148.0","64135dd9d2ef675b8e1799ef","665500ab8938657b03fbdba8","665792535e5d094b79de45bb","2403","stimuli/20111011.jpg"," ","","feedback_trial","2","","","","","","","","","","","","","","","","","","","","",""
"","","","","","image-keyboard-response","174","555467","0.0-149.0","64135dd9d2ef675b8e1799ef","665500ab8938657b03fbdba8","665792535e5d094b79de45bb","899","stimuli/1010001.jpg","1","","prediction_trial","1","","true","","1","true","true","false","true","false","true","[1]","010","001","1","","","","","","",""
"","","","","","image-keyboard-response","175","555796","0.0-150.0","64135dd9d2ef675b8e1799ef","665500ab8938657b03fbdba8","665792535e5d094b79de45bb","329","stimuli/10100011.jpg"," ","","feedback_trial","1","","","","","","","","","","","","","","","","","","","","",""
"","","","","","image-keyboard-response","176","556891","0.0-151.0","64135dd9d2ef675b8e1799ef","665500ab8938657b03fbdba8","665792535e5d094b79de45bb","1095","stimuli/1001111.jpg","1","","prediction_trial","1","","true","","1","false","false","true","true","false","false","[1]","001","111","1","","","","","","",""
"","","","","","image-keyboard-response","177","557272","0.0-152.0","64135dd9d2ef675b8e1799ef","665500ab8938657b03fbdba8","665792535e5d094b79de45bb","381","stimuli/10011111.jpg"," ","","feedback_trial","1","","","","","","","","","","","","","","","","","","","","",""
"","","","","","image-keyboard-response","178","558079","0.0-153.0","64135dd9d2ef675b8e1799ef","665500ab8938657b03fbdba8","665792535e5d094b79de45bb","807","stimuli/0011100.jpg","0","","prediction_trial","0","","true","","0","false","true","true","true","false","true","[0]","011","100","1","","","","","","",""
"","","","","","image-keyboard-response","179","558424","0.0-154.0","64135dd9d2ef675b8e1799ef","665500ab8938657b03fbdba8","665792535e5d094b79de45bb","345","stimuli/00111000.jpg"," ","","feedback_trial","0","","","","","","","","","","","","","","","","","","","","",""
"","","","","","image-keyboard-response","180","559794","0.0-155.0","64135dd9d2ef675b8e1799ef","665500ab8938657b03fbdba8","665792535e5d094b79de45bb","1370","stimuli/1010011.jpg","2","","prediction_trial","1","","false","","1","false","false","false","true","false","false","[1]","010","011","0","","","","","","",""
"","","","","","image-keyboard-response","181","560690","0.0-156.0","64135dd9d2ef675b8e1799ef","665500ab8938657b03fbdba8","665792535e5d094b79de45bb","895","stimuli/10100111.jpg"," ","","feedback_trial","1","","","","","","","","","","","","","","","","","","","","",""
"","","","","","image-keyboard-response","182","561637","0.0-157.0","64135dd9d2ef675b8e1799ef","665500ab8938657b03fbdba8","665792535e5d094b79de45bb","947","stimuli/0011001.jpg","0","","prediction_trial","0","","true","","0","true","true","true","true","true","true","[0]","011","001","1","","","","","","",""
"","","","","","image-keyboard-response","183","561967","0.0-158.0","64135dd9d2ef675b8e1799ef","665500ab8938657b03fbdba8","665792535e5d094b79de45bb","330","stimuli/00110010.jpg"," ","","feedback_trial","0","","","","","","","","","","","","","","","","","","","","",""
"","","","","","image-keyboard-response","184","563098","0.0-159.0","64135dd9d2ef675b8e1799ef","665500ab8938657b03fbdba8","665792535e5d094b79de45bb","1131","stimuli/0000101.jpg","2","","prediction_trial","0","","false","","0","false","false","true","true","false","false","[0]","000","101","0","","","","","","",""
"","","","","","image-keyboard-response","185","563589","0.0-160.0","64135dd9d2ef675b8e1799ef","665500ab8938657b03fbdba8","665792535e5d094b79de45bb","491","stimuli/00001010.jpg"," ","","feedback_trial","0","","","","","","","","","","","","","","","","","","","","",""
"","","","","","image-keyboard-response","186","564597","0.0-161.0","64135dd9d2ef675b8e1799ef","665500ab8938657b03fbdba8","665792535e5d094b79de45bb","1007","stimuli/1100011.jpg","1","","prediction_trial","1","","true","","1","false","false","true","true","false","false","[1]","100","011","1","","","","","","",""
"","","","","","image-keyboard-response","187","564953","0.0-162.0","64135dd9d2ef675b8e1799ef","665500ab8938657b03fbdba8","665792535e5d094b79de45bb","356","stimuli/11000111.jpg"," ","","feedback_trial","1","","","","","","","","","","","","","","","","","","","","",""
"","","","","","image-keyboard-response","188","566578","0.0-163.0","64135dd9d2ef675b8e1799ef","665500ab8938657b03fbdba8","665792535e5d094b79de45bb","1624","stimuli/0101101.jpg","0","","prediction_trial","0","","true","","0","false","false","false","false","false","false","[2,0]","101","101","1","","","","","","",""
"","","","","","image-keyboard-response","189","566936","0.0-164.0","64135dd9d2ef675b8e1799ef","665500ab8938657b03fbdba8","665792535e5d094b79de45bb","358","stimuli/01011010.jpg"," ","","feedback_trial","2","","","","","","","","","","","","","","","","","","","","",""
"","","","","","image-keyboard-response","190","568516","0.0-165.0","64135dd9d2ef675b8e1799ef","665500ab8938657b03fbdba8","665792535e5d094b79de45bb","1580","stimuli/1011110.jpg","0","","prediction_trial","1","","false","","1","false","false","false","false","false","false","[1,2]","011","110","0","","","","","","",""
"","","","","","image-keyboard-response","191","569109","0.0-166.0","64135dd9d2ef675b8e1799ef","665500ab8938657b03fbdba8","665792535e5d094b79de45bb","593","stimuli/10111101.jpg"," ","","feedback_trial","1","","","","","","","","","","","","","","","","","","","","",""
"","","","","","image-keyboard-response","192","570411","0.0-167.0","64135dd9d2ef675b8e1799ef","665500ab8938657b03fbdba8","665792535e5d094b79de45bb","1302","stimuli/1101001.jpg","1","","prediction_trial","1","","true","","1","true","true","true","true","true","true","[1]","101","001","1","","","","","","",""
"","","","","","image-keyboard-response","193","570744","0.0-168.0","64135dd9d2ef675b8e1799ef","665500ab8938657b03fbdba8","665792535e5d094b79de45bb","333","stimuli/11010011.jpg"," ","","feedback_trial","1","","","","","","","","","","","","","","","","","","","","",""
"","","","","","image-keyboard-response","194","571456","0.0-169.0","64135dd9d2ef675b8e1799ef","665500ab8938657b03fbdba8","665792535e5d094b79de45bb","712","stimuli/2000110.jpg","2","","prediction_trial","2","","true","","2","true","true","true","true","true","true","[2]","000","110","1","","","","","","",""
"","","","","","image-keyboard-response","195","572463","0.0-170.0","64135dd9d2ef675b8e1799ef","665500ab8938657b03fbdba8","665792535e5d094b79de45bb","1007","stimuli/20001102.jpg"," ","","feedback_trial","2","","","","","","","","","","","","","","","","","","","","",""
"","","","","","image-keyboard-response","196","573514","0.0-171.0","64135dd9d2ef675b8e1799ef","665500ab8938657b03fbdba8","665792535e5d094b79de45bb","1051","stimuli/1000010.jpg","1","","prediction_trial","1","","true","","1","false","true","true","true","false","true","[1]","000","010","1","","","","","","",""
"","","","","","image-keyboard-response","197","574325","0.0-172.0","64135dd9d2ef675b8e1799ef","665500ab8938657b03fbdba8","665792535e5d094b79de45bb","810","stimuli/10000101.jpg"," ","","feedback_trial","1","","","","","","","","","","","","","","","","","","","","",""
"","","","","","image-keyboard-response","198","576740","0.0-173.0","64135dd9d2ef675b8e1799ef","665500ab8938657b03fbdba8","665792535e5d094b79de45bb","2415","stimuli/0110110.jpg","1","","prediction_trial","0","","false","","0","false","false","false","false","false","false","[1,0]","110","110","0","","","","","","",""
"","","","","","image-keyboard-response","199","577280","0.0-174.0","64135dd9d2ef675b8e1799ef","665500ab8938657b03fbdba8","665792535e5d094b79de45bb","540","stimuli/01101100.jpg"," ","","feedback_trial","1","","","","","","","","","","","","","","","","","","","","",""
"","","","","","image-keyboard-response","200","578407","0.0-175.0","64135dd9d2ef675b8e1799ef","665500ab8938657b03fbdba8","665792535e5d094b79de45bb","1127","stimuli/2010100.jpg","2","","prediction_trial","2","","true","","2","true","true","true","true","true","true","[2]","010","100","1","","","","","","",""
"","","","","","image-keyboard-response","201","578696","0.0-176.0","64135dd9d2ef675b8e1799ef","665500ab8938657b03fbdba8","665792535e5d094b79de45bb","288","stimuli/20101002.jpg"," ","","feedback_trial","2","","","","","","","","","","","","","","","","","","","","",""
"","","","","","image-keyboard-response","202","579723","0.0-177.0","64135dd9d2ef675b8e1799ef","665500ab8938657b03fbdba8","665792535e5d094b79de45bb","1027","stimuli/2110100.jpg","2","","prediction_trial","2","","true","","2","true","true","true","true","true","true","[2]","110","100","1","","","","","","",""
"","","","","","image-keyboard-response","203","580072","0.0-178.0","64135dd9d2ef675b8e1799ef","665500ab8938657b03fbdba8","665792535e5d094b79de45bb","348","stimuli/21101002.jpg"," ","","feedback_trial","2","","","","","","","","","","","","","","","","","","","","",""
"","","","","","image-keyboard-response","204","580652","0.0-179.0","64135dd9d2ef675b8e1799ef","665500ab8938657b03fbdba8","665792535e5d094b79de45bb","580","stimuli/2010110.jpg","2","","prediction_trial","2","","true","","2","true","true","true","true","true","true","[2]","010","110","1","","","","","","",""
"","","","","","image-keyboard-response","205","581041","0.0-180.0","64135dd9d2ef675b8e1799ef","665500ab8938657b03fbdba8","665792535e5d094b79de45bb","388","stimuli/20101102.jpg"," ","","feedback_trial","2","","","","","","","","","","","","","","","","","","","","",""
"","","","","","image-keyboard-response","206","582175","0.0-181.0","64135dd9d2ef675b8e1799ef","665500ab8938657b03fbdba8","665792535e5d094b79de45bb","1134","stimuli/1110000.jpg","1","","prediction_trial","1","","true","","1","true","true","false","false","false","false","[1,0]","110","000","1","","","","","","",""
"","","","","","image-keyboard-response","207","582560","0.0-182.0","64135dd9d2ef675b8e1799ef","665500ab8938657b03fbdba8","665792535e5d094b79de45bb","385","stimuli/11100001.jpg"," ","","feedback_trial","1","","","","","","","","","","","","","","","","","","","","",""
"","","","","","image-keyboard-response","208","583284","0.0-183.0","64135dd9d2ef675b8e1799ef","665500ab8938657b03fbdba8","665792535e5d094b79de45bb","724","stimuli/1000001.jpg","1","","prediction_trial","1","","true","","1","true","true","true","true","true","true","[1]","000","001","1","","","","","","",""
"","","","","","image-keyboard-response","209","583713","0.0-184.0","64135dd9d2ef675b8e1799ef","665500ab8938657b03fbdba8","665792535e5d094b79de45bb","429","stimuli/10000011.jpg"," ","","feedback_trial","1","","","","","","","","","","","","","","","","","","","","",""
"","","","","","image-keyboard-response","210","585246","0.0-185.0","64135dd9d2ef675b8e1799ef","665500ab8938657b03fbdba8","665792535e5d094b79de45bb","1533","stimuli/0100001.jpg","2","","prediction_trial","0","","false","","0","true","true","false","true","false","true","[0]","100","001","0","","","","","","",""
"","","","","","image-keyboard-response","211","587055","0.0-186.0","64135dd9d2ef675b8e1799ef","665500ab8938657b03fbdba8","665792535e5d094b79de45bb","1809","stimuli/01000010.jpg"," ","","feedback_trial","0","","","","","","","","","","","","","","","","","","","","",""
"","","","","","image-keyboard-response","212","588720","0.0-187.0","64135dd9d2ef675b8e1799ef","665500ab8938657b03fbdba8","665792535e5d094b79de45bb","1665","stimuli/1011111.jpg","1","","prediction_trial","1","","true","","1","false","false","false","false","false","false","[1,2]","011","111","1","","","","","","",""
"","","","","","image-keyboard-response","213","589061","0.0-188.0","64135dd9d2ef675b8e1799ef","665500ab8938657b03fbdba8","665792535e5d094b79de45bb","341","stimuli/10111111.jpg"," ","","feedback_trial","1","","","","","","","","","","","","","","","","","","","","",""
"","","","","","image-keyboard-response","214","591101","0.0-189.0","64135dd9d2ef675b8e1799ef","665500ab8938657b03fbdba8","665792535e5d094b79de45bb","2040","stimuli/0001111.jpg","2","","prediction_trial","0","","false","","0","false","false","true","true","false","false","[0]","001","111","0","","","","","","",""
"","","","","","image-keyboard-response","215","592207","0.0-190.0","64135dd9d2ef675b8e1799ef","665500ab8938657b03fbdba8","665792535e5d094b79de45bb","1106","stimuli/00011110.jpg"," ","","feedback_trial","0","","","","","","","","","","","","","","","","","","","","",""
"","","","","","image-keyboard-response","216","593290","0.0-191.0","64135dd9d2ef675b8e1799ef","665500ab8938657b03fbdba8","665792535e5d094b79de45bb","1083","stimuli/1000110.jpg","1","","prediction_trial","1","","true","","1","false","false","true","true","false","false","[1]","000","110","1","","","","","","",""
"","","","","","image-keyboard-response","217","593623","0.0-192.0","64135dd9d2ef675b8e1799ef","665500ab8938657b03fbdba8","665792535e5d094b79de45bb","333","stimuli/10001101.jpg"," ","","feedback_trial","1","","","","","","","","","","","","","","","","","","","","",""
"","","","","","image-keyboard-response","218","595359","0.0-193.0","64135dd9d2ef675b8e1799ef","665500ab8938657b03fbdba8","665792535e5d094b79de45bb","1736","stimuli/2101101.jpg","0","","prediction_trial","0","","true","","2","false","false","false","false","false","false","[0,2]","101","101","1","","","","","","",""
"","","","","","image-keyboard-response","219","595713","0.0-194.0","64135dd9d2ef675b8e1799ef","665500ab8938657b03fbdba8","665792535e5d094b79de45bb","354","stimuli/21011010.jpg"," ","","feedback_trial","0","","","","","","","","","","","","","","","","","","","","",""
"","","","","","image-keyboard-response","220","597844","0.0-195.0","64135dd9d2ef675b8e1799ef","665500ab8938657b03fbdba8","665792535e5d094b79de45bb","2131","stimuli/1111110.jpg","1","","prediction_trial","2","","false","","1","false","false","false","false","false","false","[0,2,1]","111","110","0","","","","","","",""
"","","","","","image-keyboard-response","221","598326","0.0-196.0","64135dd9d2ef675b8e1799ef","665500ab8938657b03fbdba8","665792535e5d094b79de45bb","481","stimuli/11111102.jpg"," ","","feedback_trial","0","","","","","","","","","","","","","","","","","","","","",""
"","","","","","image-keyboard-response","222","600202","0.0-197.0","64135dd9d2ef675b8e1799ef","665500ab8938657b03fbdba8","665792535e5d094b79de45bb","1876","stimuli/2111111.jpg","1","","prediction_trial","1","","true","","2","false","false","false","false","false","false","[0,1,2]","111","111","1","","","","","","",""
"","","","","","image-keyboard-response","223","600559","0.0-198.0","64135dd9d2ef675b8e1799ef","665500ab8938657b03fbdba8","665792535e5d094b79de45bb","356","stimuli/21111111.jpg"," ","","feedback_trial","0","","","","","","","","","","","","","","","","","","","","",""
"","","","","","image-keyboard-response","224","602849","0.0-199.0","64135dd9d2ef675b8e1799ef","665500ab8938657b03fbdba8","665792535e5d094b79de45bb","2290","stimuli/0010101.jpg","0","","prediction_trial","0","","true","","0","false","false","true","true","false","false","[0]","010","101","1","","","","","","",""
"","","","","","image-keyboard-response","225","603207","0.0-200.0","64135dd9d2ef675b8e1799ef","665500ab8938657b03fbdba8","665792535e5d094b79de45bb","357","stimuli/00101010.jpg"," ","","feedback_trial","0","","","","","","","","","","","","","","","","","","","","",""
"","","","","","image-keyboard-response","226","604010","0.0-201.0","64135dd9d2ef675b8e1799ef","665500ab8938657b03fbdba8","665792535e5d094b79de45bb","803","stimuli/0000011.jpg","0","","prediction_trial","0","","true","","0","true","true","true","true","true","true","[0]","000","011","1","","","","","","",""
"","","","","","image-keyboard-response","227","604330","0.0-202.0","64135dd9d2ef675b8e1799ef","665500ab8938657b03fbdba8","665792535e5d094b79de45bb","320","stimuli/00000110.jpg"," ","","feedback_trial","0","","","","","","","","","","","","","","","","","","","","",""
"","","","","","image-keyboard-response","228","604944","0.0-203.0","64135dd9d2ef675b8e1799ef","665500ab8938657b03fbdba8","665792535e5d094b79de45bb","613","stimuli/1111001.jpg","1","","prediction_trial","0","","false","","1","true","true","false","false","false","false","[2,1,0]","111","001","0","","","","","","",""
"","","","","","image-keyboard-response","229","605659","0.0-204.0","64135dd9d2ef675b8e1799ef","665500ab8938657b03fbdba8","665792535e5d094b79de45bb","715","stimuli/11110010.jpg"," ","","feedback_trial","2","","","","","","","","","","","","","","","","","","","","",""
"","","","","","image-keyboard-response","230","606279","0.0-205.0","64135dd9d2ef675b8e1799ef","665500ab8938657b03fbdba8","665792535e5d094b79de45bb","619","stimuli/1010101.jpg","1","","prediction_trial","1","","true","","1","true","true","false","true","false","true","[1]","010","101","1","","","","","","",""
"","","","","","image-keyboard-response","231","606656","0.0-206.0","64135dd9d2ef675b8e1799ef","665500ab8938657b03fbdba8","665792535e5d094b79de45bb","376","stimuli/10101011.jpg"," ","","feedback_trial","1","","","","","","","","","","","","","","","","","","","","",""
"","","","","","image-keyboard-response","232","607360","0.0-207.0","64135dd9d2ef675b8e1799ef","665500ab8938657b03fbdba8","665792535e5d094b79de45bb","704","stimuli/1000101.jpg","1","","prediction_trial","1","","true","","1","true","true","true","true","true","true","[1]","000","101","1","","","","","","",""
"","","","","","image-keyboard-response","233","607701","0.0-208.0","64135dd9d2ef675b8e1799ef","665500ab8938657b03fbdba8","665792535e5d094b79de45bb","340","stimuli/10001011.jpg"," ","","feedback_trial","1","","","","","","","","","","","","","","","","","","","","",""
"","","","","","image-keyboard-response","234","608536","0.0-209.0","64135dd9d2ef675b8e1799ef","665500ab8938657b03fbdba8","665792535e5d094b79de45bb","835","stimuli/0000100.jpg","0","","prediction_trial","0","","true","","0","false","true","true","true","false","true","[0]","000","100","1","","","","","","",""
"","","","","","image-keyboard-response","235","608898","0.0-210.0","64135dd9d2ef675b8e1799ef","665500ab8938657b03fbdba8","665792535e5d094b79de45bb","362","stimuli/00001000.jpg"," ","","feedback_trial","0","","","","","","","","","","","","","","","","","","","","",""
"","","","","","image-keyboard-response","236","611129","0.0-211.0","64135dd9d2ef675b8e1799ef","665500ab8938657b03fbdba8","665792535e5d094b79de45bb","2231","stimuli/2110011.jpg","2","","prediction_trial","2","","true","","2","false","false","true","true","false","false","[2]","110","011","1","","","","","","",""
"","","","","","image-keyboard-response","237","611462","0.0-212.0","64135dd9d2ef675b8e1799ef","665500ab8938657b03fbdba8","665792535e5d094b79de45bb","332","stimuli/21100112.jpg"," ","","feedback_trial","2","","","","","","","","","","","","","","","","","","","","",""
"","","","","","image-keyboard-response","238","613027","0.0-213.0","64135dd9d2ef675b8e1799ef","665500ab8938657b03fbdba8","665792535e5d094b79de45bb","1565","stimuli/0110111.jpg","1","","prediction_trial","0","","false","","0","false","false","false","false","false","false","[1,0]","110","111","0","","","","","","",""
"","","","","","image-keyboard-response","239","613540","0.0-214.0","64135dd9d2ef675b8e1799ef","665500ab8938657b03fbdba8","665792535e5d094b79de45bb","512","stimuli/01101110.jpg"," ","","feedback_trial","1","","","","","","","","","","","","","","","","","","","","",""
"","","","","","image-keyboard-response","240","614243","0.0-215.0","64135dd9d2ef675b8e1799ef","665500ab8938657b03fbdba8","665792535e5d094b79de45bb","703","stimuli/2100111.jpg","1","","prediction_trial","2","","false","","2","false","false","true","true","false","false","[2]","100","111","0","","","","","","",""
"","","","","","image-keyboard-response","241","614776","0.0-216.0","64135dd9d2ef675b8e1799ef","665500ab8938657b03fbdba8","665792535e5d094b79de45bb","533","stimuli/21001112.jpg"," ","","feedback_trial","2","","","","","","","","","","","","","","","","","","","","",""
"","","","","","image-keyboard-response","242","616026","0.0-217.0","64135dd9d2ef675b8e1799ef","665500ab8938657b03fbdba8","665792535e5d094b79de45bb","1250","stimuli/0100000.jpg","0","","prediction_trial","0","","true","","0","true","true","false","true","false","true","[0]","100","000","1","","","","","","",""
"","","","","","image-keyboard-response","243","616427","0.0-218.0","64135dd9d2ef675b8e1799ef","665500ab8938657b03fbdba8","665792535e5d094b79de45bb","400","stimuli/01000000.jpg"," ","","feedback_trial","0","","","","","","","","","","","","","","","","","","","","",""
"","","","","","image-keyboard-response","244","617530","0.0-219.0","64135dd9d2ef675b8e1799ef","665500ab8938657b03fbdba8","665792535e5d094b79de45bb","1103","stimuli/2011010.jpg","2","","prediction_trial","1","","false","","2","true","true","false","false","false","false","[2,1]","011","010","0","","","","","","",""
"","","","","","image-keyboard-response","245","618014","0.0-220.0","64135dd9d2ef675b8e1799ef","665500ab8938657b03fbdba8","665792535e5d094b79de45bb","484","stimuli/20110101.jpg"," ","","feedback_trial","2","","","","","","","","","","","","","","","","","","","","",""
"","","","","","image-keyboard-response","246","618622","0.0-221.0","64135dd9d2ef675b8e1799ef","665500ab8938657b03fbdba8","665792535e5d094b79de45bb","608","stimuli/0011010.jpg","0","","prediction_trial","0","","true","","0","true","true","true","true","true","true","[0]","011","010","1","","","","","","",""
"","","","","","image-keyboard-response","247","618963","0.0-222.0","64135dd9d2ef675b8e1799ef","665500ab8938657b03fbdba8","665792535e5d094b79de45bb","341","stimuli/00110100.jpg"," ","","feedback_trial","0","","","","","","","","","","","","","","","","","","","","",""
"","","","","","image-keyboard-response","248","620073","0.0-223.0","64135dd9d2ef675b8e1799ef","665500ab8938657b03fbdba8","665792535e5d094b79de45bb","1109","stimuli/2010101.jpg","0","","prediction_trial","2","","false","","2","false","false","true","true","false","false","[2]","010","101","0","","","","","","",""
"","","","","","image-keyboard-response","249","620614","0.0-224.0","64135dd9d2ef675b8e1799ef","665500ab8938657b03fbdba8","665792535e5d094b79de45bb","541","stimuli/20101012.jpg"," ","","feedback_trial","2","","","","","","","","","","","","","","","","","","","","",""
"","","","","","image-keyboard-response","250","621421","0.0-225.0","64135dd9d2ef675b8e1799ef","665500ab8938657b03fbdba8","665792535e5d094b79de45bb","807","stimuli/0110000.jpg","0","","prediction_trial","0","","true","","0","true","true","false","false","false","false","[1,0]","110","000","1","","","","","","",""
"","","","","","image-keyboard-response","251","621751","0.0-226.0","64135dd9d2ef675b8e1799ef","665500ab8938657b03fbdba8","665792535e5d094b79de45bb","329","stimuli/01100000.jpg"," ","","feedback_trial","1","","","","","","","","","","","","","","","","","","","","",""
"","","","","","image-keyboard-response","252","623460","0.0-227.0","64135dd9d2ef675b8e1799ef","665500ab8938657b03fbdba8","665792535e5d094b79de45bb","1709","stimuli/2110111.jpg","2","","prediction_trial","2","","true","","2","false","false","true","true","false","false","[2]","110","111","1","","","","","","",""
"","","","","","image-keyboard-response","253","623836","0.0-228.0","64135dd9d2ef675b8e1799ef","665500ab8938657b03fbdba8","665792535e5d094b79de45bb","376","stimuli/21101112.jpg"," ","","feedback_trial","2","","","","","","","","","","","","","","","","","","","","",""
"","","","","","image-keyboard-response","254","624811","0.0-229.0","64135dd9d2ef675b8e1799ef","665500ab8938657b03fbdba8","665792535e5d094b79de45bb","975","stimuli/1001001.jpg","1","","prediction_trial","1","","true","","1","true","true","true","true","true","true","[1]","001","001","1","","","","","","",""
"","","","","","image-keyboard-response","255","625176","0.0-230.0","64135dd9d2ef675b8e1799ef","665500ab8938657b03fbdba8","665792535e5d094b79de45bb","365","stimuli/10010011.jpg"," ","","feedback_trial","1","","","","","","","","","","","","","","","","","","","","",""
"","","","","","image-keyboard-response","256","626119","0.0-231.0","64135dd9d2ef675b8e1799ef","665500ab8938657b03fbdba8","665792535e5d094b79de45bb","943","stimuli/1010110.jpg","0","","prediction_trial","1","","false","","1","false","false","false","true","false","false","[1]","010","110","0","","","","","","",""
"","","","","","image-keyboard-response","257","626536","0.0-232.0","64135dd9d2ef675b8e1799ef","665500ab8938657b03fbdba8","665792535e5d094b79de45bb","416","stimuli/10101101.jpg"," ","","feedback_trial","1","","","","","","","","","","","","","","","","","","","","",""
"","","","","","image-keyboard-response","258","628150","0.0-233.0","64135dd9d2ef675b8e1799ef","665500ab8938657b03fbdba8","665792535e5d094b79de45bb","1614","stimuli/2101001.jpg","2","","prediction_trial","0","","false","","2","false","true","false","false","false","false","[0,2]","101","001","0","","","","","","",""
"","","","","","image-keyboard-response","259","628817","0.0-234.0","64135dd9d2ef675b8e1799ef","665500ab8938657b03fbdba8","665792535e5d094b79de45bb","667","stimuli/21010010.jpg"," ","","feedback_trial","0","","","","","","","","","","","","","","","","","","","","",""
"","","","","","image-keyboard-response","260","629541","0.0-235.0","64135dd9d2ef675b8e1799ef","665500ab8938657b03fbdba8","665792535e5d094b79de45bb","724","stimuli/2101011.jpg","1","","prediction_trial","0","","false","","2","false","false","false","false","false","false","[0,2]","101","011","0","","","","","","",""
"","","","","","image-keyboard-response","261","630081","0.0-236.0","64135dd9d2ef675b8e1799ef","665500ab8938657b03fbdba8","665792535e5d094b79de45bb","540","stimuli/21010110.jpg"," ","","feedback_trial","0","","","","","","","","","","","","","","","","","","","","",""
"","","","","","image-keyboard-response","262","630805","0.0-237.0","64135dd9d2ef675b8e1799ef","665500ab8938657b03fbdba8","665792535e5d094b79de45bb","724","stimuli/1000111.jpg","1","","prediction_trial","1","","true","","1","false","false","true","true","false","false","[1]","000","111","1","","","","","","",""
"","","","","","image-keyboard-response","263","631230","0.0-238.0","64135dd9d2ef675b8e1799ef","665500ab8938657b03fbdba8","665792535e5d094b79de45bb","424","stimuli/10001111.jpg"," ","","feedback_trial","1","","","","","","","","","","","","","","","","","","","","",""
"","","","","","image-keyboard-response","264","632177","0.0-239.0","64135dd9d2ef675b8e1799ef","665500ab8938657b03fbdba8","665792535e5d094b79de45bb","947","stimuli/2100110.jpg","2","","prediction_trial","2","","true","","2","true","true","true","true","true","true","[2]","100","110","1","","","","","","",""
"","","","","","image-keyboard-response","265","632478","0.0-240.0","64135dd9d2ef675b8e1799ef","665500ab8938657b03fbdba8","665792535e5d094b79de45bb","301","stimuli/21001102.jpg"," ","","feedback_trial","2","","","","","","","","","","","","","","","","","","","","",""
"","","","","","image-keyboard-response","266","633485","0.0-241.0","64135dd9d2ef675b8e1799ef","665500ab8938657b03fbdba8","665792535e5d094b79de45bb","1007","stimuli/2111110.jpg","2","","prediction_trial","0","","false","","2","true","true","false","false","false","false","[2,1,0]","111","110","0","","","","","","",""
"","","","","","image-keyboard-response","267","633990","0.0-242.0","64135dd9d2ef675b8e1799ef","665500ab8938657b03fbdba8","665792535e5d094b79de45bb","504","stimuli/21111100.jpg"," ","","feedback_trial","2","","","","","","","","","","","","","","","","","","","","",""
"","","","","","image-keyboard-response","268","634993","0.0-243.0","64135dd9d2ef675b8e1799ef","665500ab8938657b03fbdba8","665792535e5d094b79de45bb","1003","stimuli/1101111.jpg","1","","prediction_trial","1","","true","","1","false","false","true","true","false","false","[1]","101","111","1","","","","","","",""
"","","","","","image-keyboard-response","269","635346","0.0-244.0","64135dd9d2ef675b8e1799ef","665500ab8938657b03fbdba8","665792535e5d094b79de45bb","353","stimuli/11011111.jpg"," ","","feedback_trial","1","","","","","","","","","","","","","","","","","","","","",""
"","","","","","image-keyboard-response","270","637369","0.0-245.0","64135dd9d2ef675b8e1799ef","665500ab8938657b03fbdba8","665792535e5d094b79de45bb","2023","stimuli/2011011.jpg","1","","prediction_trial","1","","true","","2","false","false","false","false","false","false","[1,2]","011","011","1","","","","","","",""
"","","","","","image-keyboard-response","271","637722","0.0-246.0","64135dd9d2ef675b8e1799ef","665500ab8938657b03fbdba8","665792535e5d094b79de45bb","352","stimuli/20110111.jpg"," ","","feedback_trial","1","","","","","","","","","","","","","","","","","","","","",""
"","","","","","image-keyboard-response","272","638725","0.0-247.0","64135dd9d2ef675b8e1799ef","665500ab8938657b03fbdba8","665792535e5d094b79de45bb","1003","stimuli/1110011.jpg","1","","prediction_trial","1","","true","","1","false","false","false","false","false","false","[1,0]","110","011","1","","","","","","",""
"","","","","","image-keyboard-response","273","639094","0.0-248.0","64135dd9d2ef675b8e1799ef","665500ab8938657b03fbdba8","665792535e5d094b79de45bb","369","stimuli/11100111.jpg"," ","","feedback_trial","1","","","","","","","","","","","","","","","","","","","","",""
"","","","","","image-keyboard-response","274","639926","0.0-249.0","64135dd9d2ef675b8e1799ef","665500ab8938657b03fbdba8","665792535e5d094b79de45bb","832","stimuli/2111001.jpg","2","","prediction_trial","1","","false","","2","false","true","false","false","false","false","[2,1,0]","111","001","0","","","","","","",""
"","","","","","image-keyboard-response","275","640422","0.0-250.0","64135dd9d2ef675b8e1799ef","665500ab8938657b03fbdba8","665792535e5d094b79de45bb","495","stimuli/21110011.jpg"," ","","feedback_trial","2","","","","","","","","","","","","","","","","","","","","",""
"","","","","","image-keyboard-response","276","641249","0.0-251.0","64135dd9d2ef675b8e1799ef","665500ab8938657b03fbdba8","665792535e5d094b79de45bb","827","stimuli/0111100.jpg","0","","prediction_trial","2","","false","","0","false","true","false","false","false","false","[1,0,2]","111","100","0","","","","","","",""
"","","","","","image-keyboard-response","277","641734","0.0-252.0","64135dd9d2ef675b8e1799ef","665500ab8938657b03fbdba8","665792535e5d094b79de45bb","484","stimuli/01111002.jpg"," ","","feedback_trial","1","","","","","","","","","","","","","","","","","","","","",""
"","","","","","image-keyboard-response","278","642346","0.0-253.0","64135dd9d2ef675b8e1799ef","665500ab8938657b03fbdba8","665792535e5d094b79de45bb","612","stimuli/0110001.jpg","0","","prediction_trial","0","","true","","0","true","true","false","false","false","false","[0,1]","110","001","1","","","","","","",""
"","","","","","image-keyboard-response","279","642671","0.0-254.0","64135dd9d2ef675b8e1799ef","665500ab8938657b03fbdba8","665792535e5d094b79de45bb","324","stimuli/01100010.jpg"," ","","feedback_trial","0","","","","","","","","","","","","","","","","","","","","",""
"","","","","","image-keyboard-response","280","643619","0.0-255.0","64135dd9d2ef675b8e1799ef","665500ab8938657b03fbdba8","665792535e5d094b79de45bb","948","stimuli/2010001.jpg","2","","prediction_trial","2","","true","","2","false","true","true","true","false","true","[2]","010","001","1","","","","","","",""
"","","","","","image-keyboard-response","281","643991","0.0-256.0","64135dd9d2ef675b8e1799ef","665500ab8938657b03fbdba8","665792535e5d094b79de45bb","372","stimuli/20100012.jpg"," ","","feedback_trial","2","","","","","","","","","","","","","","","","","","","","",""
"","","","","","image-keyboard-response","282","644715","0.0-257.0","64135dd9d2ef675b8e1799ef","665500ab8938657b03fbdba8","665792535e5d094b79de45bb","723","stimuli/1001000.jpg","1","","prediction_trial","1","","true","","1","true","true","true","true","true","true","[1]","001","000","1","","","","","","",""
"","","","","","image-keyboard-response","283","645076","0.0-258.0","64135dd9d2ef675b8e1799ef","665500ab8938657b03fbdba8","665792535e5d094b79de45bb","361","stimuli/10010001.jpg"," ","","feedback_trial","1","","","","","","","","","","","","","","","","","","","","",""
"","","","","","image-keyboard-response","284","645700","0.0-259.0","64135dd9d2ef675b8e1799ef","665500ab8938657b03fbdba8","665792535e5d094b79de45bb","624","stimuli/0101001.jpg","0","","prediction_trial","0","","true","","0","true","true","false","false","false","false","[2,0]","101","001","1","","","","","","",""
"","","","","","image-keyboard-response","285","646057","0.0-260.0","64135dd9d2ef675b8e1799ef","665500ab8938657b03fbdba8","665792535e5d094b79de45bb","357","stimuli/01010010.jpg"," ","","feedback_trial","2","","","","","","","","","","","","","","","","","","","","",""
"","","","","","image-keyboard-response","286","646677","0.0-261.0","64135dd9d2ef675b8e1799ef","665500ab8938657b03fbdba8","665792535e5d094b79de45bb","619","stimuli/1100111.jpg","1","","prediction_trial","1","","true","","1","false","false","true","true","false","false","[1]","100","111","1","","","","","","",""
"","","","","","image-keyboard-response","287","647026","0.0-262.0","64135dd9d2ef675b8e1799ef","665500ab8938657b03fbdba8","665792535e5d094b79de45bb","349","stimuli/11001111.jpg"," ","","feedback_trial","1","","","","","","","","","","","","","","","","","","","","",""
"","","","","","image-keyboard-response","288","647811","0.0-263.0","64135dd9d2ef675b8e1799ef","665500ab8938657b03fbdba8","665792535e5d094b79de45bb","784","stimuli/1110110.jpg","1","","prediction_trial","0","","false","","1","false","false","false","false","false","false","[1,0]","110","110","0","","","","","","",""
"","","","","","image-keyboard-response","289","648379","0.0-264.0","64135dd9d2ef675b8e1799ef","665500ab8938657b03fbdba8","665792535e5d094b79de45bb","567","stimuli/11101100.jpg"," ","","feedback_trial","1","","","","","","","","","","","","","","","","","","","","",""
"","","","","","image-keyboard-response","290","649306","0.0-265.0","64135dd9d2ef675b8e1799ef","665500ab8938657b03fbdba8","665792535e5d094b79de45bb","927","stimuli/1011010.jpg","1","","prediction_trial","1","","true","","1","false","true","false","false","false","false","[1,2]","011","010","1","","","","","","",""
"","","","","","image-keyboard-response","291","649929","0.0-266.0","64135dd9d2ef675b8e1799ef","665500ab8938657b03fbdba8","665792535e5d094b79de45bb","623","stimuli/10110101.jpg"," ","","feedback_trial","1","","","","","","","","","","","","","","","","","","","","",""
"","","","","","image-keyboard-response","292","650639","0.0-267.0","64135dd9d2ef675b8e1799ef","665500ab8938657b03fbdba8","665792535e5d094b79de45bb","709","stimuli/2110000.jpg","2","","prediction_trial","2","","true","","2","true","true","true","true","true","true","[2]","110","000","1","","","","","","",""
"","","","","","image-keyboard-response","293","651011","0.0-268.0","64135dd9d2ef675b8e1799ef","665500ab8938657b03fbdba8","665792535e5d094b79de45bb","371","stimuli/21100002.jpg"," ","","feedback_trial","2","","","","","","","","","","","","","","","","","","","","",""
"","","","","","image-keyboard-response","294","652150","0.0-269.0","64135dd9d2ef675b8e1799ef","665500ab8938657b03fbdba8","665792535e5d094b79de45bb","1139","stimuli/0110101.jpg","2","","prediction_trial","1","","false","","0","false","false","false","false","false","false","[1,0]","110","101","0","","","","","","",""
"","","","","","image-keyboard-response","295","652602","0.0-270.0","64135dd9d2ef675b8e1799ef","665500ab8938657b03fbdba8","665792535e5d094b79de45bb","452","stimuli/01101011.jpg"," ","","feedback_trial","1","","","","","","","","","","","","","","","","","","","","",""
"","","","","","image-keyboard-response","296","654383","0.0-271.0","64135dd9d2ef675b8e1799ef","665500ab8938657b03fbdba8","665792535e5d094b79de45bb","1780","stimuli/1111010.jpg","1","","prediction_trial","2","","false","","1","false","true","false","false","false","false","[1,0,2]","111","010","0","","","","","","",""
"","","","","","image-keyboard-response","297","654875","0.0-272.0","64135dd9d2ef675b8e1799ef","665500ab8938657b03fbdba8","665792535e5d094b79de45bb","492","stimuli/11110102.jpg"," ","","feedback_trial","1","","","","","","","","","","","","","","","","","","","","",""
"","","","","","image-keyboard-response","298","655484","0.0-273.0","64135dd9d2ef675b8e1799ef","665500ab8938657b03fbdba8","665792535e5d094b79de45bb","609","stimuli/2010111.jpg","1","","prediction_trial","2","","false","","2","false","false","true","true","false","false","[2]","010","111","0","","","","","","",""
"","","","","","image-keyboard-response","299","656084","0.0-274.0","64135dd9d2ef675b8e1799ef","665500ab8938657b03fbdba8","665792535e5d094b79de45bb","599","stimuli/20101112.jpg"," ","","feedback_trial","2","","","","","","","","","","","","","","","","","","","","",""
"","","","","","image-keyboard-response","300","656728","0.0-275.0","64135dd9d2ef675b8e1799ef","665500ab8938657b03fbdba8","665792535e5d094b79de45bb","644","stimuli/1110001.jpg","1","","prediction_trial","1","","true","","1","true","true","false","false","false","false","[0,1]","110","001","1","","","","","","",""
"","","","","","image-keyboard-response","301","657113","0.0-276.0","64135dd9d2ef675b8e1799ef","665500ab8938657b03fbdba8","665792535e5d094b79de45bb","385","stimuli/11100011.jpg"," ","","feedback_trial","0","","","","","","","","","","","","","","","","","","","","",""
"","","","","","image-keyboard-response","302","657964","0.0-277.0","64135dd9d2ef675b8e1799ef","665500ab8938657b03fbdba8","665792535e5d094b79de45bb","851","stimuli/1110111.jpg","2","","prediction_trial","0","","false","","1","false","false","false","false","false","false","[1,0]","110","111","0","","","","","","",""
"","","","","","image-keyboard-response","303","658524","0.0-278.0","64135dd9d2ef675b8e1799ef","665500ab8938657b03fbdba8","665792535e5d094b79de45bb","559","stimuli/11101110.jpg"," ","","feedback_trial","1","","","","","","","","","","","","","","","","","","","","",""
"","","","","","image-keyboard-response","304","659172","0.0-279.0","64135dd9d2ef675b8e1799ef","665500ab8938657b03fbdba8","665792535e5d094b79de45bb","648","stimuli/0000001.jpg","0","","prediction_trial","0","","true","","0","true","true","true","true","true","true","[0]","000","001","1","","","","","","",""
"","","","","","image-keyboard-response","305","659533","0.0-280.0","64135dd9d2ef675b8e1799ef","665500ab8938657b03fbdba8","665792535e5d094b79de45bb","360","stimuli/00000010.jpg"," ","","feedback_trial","0","","","","","","","","","","","","","","","","","","","","",""
"","","","","","image-keyboard-response","306","660245","0.0-281.0","64135dd9d2ef675b8e1799ef","665500ab8938657b03fbdba8","665792535e5d094b79de45bb","712","stimuli/0001001.jpg","0","","prediction_trial","0","","true","","0","true","true","true","true","true","true","[0]","001","001","1","","","","","","",""
"","","","","","image-keyboard-response","307","660562","0.0-282.0","64135dd9d2ef675b8e1799ef","665500ab8938657b03fbdba8","665792535e5d094b79de45bb","317","stimuli/00010010.jpg"," ","","feedback_trial","0","","","","","","","","","","","","","","","","","","","","",""
"","","","","","image-keyboard-response","308","661589","0.0-283.0","64135dd9d2ef675b8e1799ef","665500ab8938657b03fbdba8","665792535e5d094b79de45bb","1027","stimuli/0100110.jpg","1","","prediction_trial","0","","false","","0","false","false","false","true","false","false","[0]","100","110","0","","","","","","",""
"","","","","","image-keyboard-response","309","662098","0.0-284.0","64135dd9d2ef675b8e1799ef","665500ab8938657b03fbdba8","665792535e5d094b79de45bb","509","stimuli/01001100.jpg"," ","","feedback_trial","0","","","","","","","","","","","","","","","","","","","","",""
"","","","","","image-keyboard-response","310","663064","0.0-285.0","64135dd9d2ef675b8e1799ef","665500ab8938657b03fbdba8","665792535e5d094b79de45bb","966","stimuli/0111011.jpg","0","","prediction_trial","2","","false","","0","true","true","false","false","false","false","[0,1,2]","111","011","0","","","","","","",""
"","","","","","image-keyboard-response","311","663501","0.0-286.0","64135dd9d2ef675b8e1799ef","665500ab8938657b03fbdba8","665792535e5d094b79de45bb","436","stimuli/01110112.jpg"," ","","feedback_trial","0","","","","","","","","","","","","","","","","","","","","",""
"","","","","","image-keyboard-response","312","664073","0.0-287.0","64135dd9d2ef675b8e1799ef","665500ab8938657b03fbdba8","665792535e5d094b79de45bb","572","stimuli/0011011.jpg","0","","prediction_trial","0","","true","","0","true","true","true","true","true","true","[0]","011","011","1","","","","","","",""
"","","","","","image-keyboard-response","313","664438","0.0-288.0","64135dd9d2ef675b8e1799ef","665500ab8938657b03fbdba8","665792535e5d094b79de45bb","364","stimuli/00110110.jpg"," ","","feedback_trial","0","","","","","","","","","","","","","","","","","","","","",""
"","","","","","image-keyboard-response","314","665565","0.0-289.0","64135dd9d2ef675b8e1799ef","665500ab8938657b03fbdba8","665792535e5d094b79de45bb","1127","stimuli/2000011.jpg","1","","prediction_trial","2","","false","","2","false","false","true","true","false","false","[2]","000","011","0","","","","","","",""
"","","","","","image-keyboard-response","315","666073","0.0-290.0","64135dd9d2ef675b8e1799ef","665500ab8938657b03fbdba8","665792535e5d094b79de45bb","508","stimuli/20000112.jpg"," ","","feedback_trial","2","","","","","","","","","","","","","","","","","","","","",""
"","","","","","image-keyboard-response","316","666813","0.0-291.0","64135dd9d2ef675b8e1799ef","665500ab8938657b03fbdba8","665792535e5d094b79de45bb","739","stimuli/0000000.jpg","0","","prediction_trial","0","","true","","0","true","true","true","true","true","true","[0]","000","000","1","","","","","","",""
"","","","","","image-keyboard-response","317","667246","0.0-292.0","64135dd9d2ef675b8e1799ef","665500ab8938657b03fbdba8","665792535e5d094b79de45bb","432","stimuli/00000000.jpg"," ","","feedback_trial","0","","","","","","","","","","","","","","","","","","","","",""
"","","","","","survey-html-form","318","726859","0.0-293.0","64135dd9d2ef675b8e1799ef","665500ab8938657b03fbdba8","665792535e5d094b79de45bb","59612","","{""feedback"":""Whether I could see the ball and if Sam could see it. If neither of us could see it, it was just a random guess."",""age"":""32"",""gender"":""Male"",""other_gender"":"""",""race"":""White"",""other_race"":"""",""ethnicity"":""Non-Hispanic""}","","exit_survey","","","","","","","","","","","","","","","","Whether I could see the ball and if Sam could see it. If neither of us could see it, it was just a random guess.","32","Non-Hispanic","Male","White","0.6319444444444444","0.6319444444444444"
