"success","timeout","failed_images","failed_audio","failed_video","trial_type","trial_index","time_elapsed","internal_node_id","prolific_id","prolific_study_id","prolific_session_id","rt","stimulus","response","view_history","trial","character_choice","stimulus_dict","accuracy","correct_response","ball_pos","ego_ball_visible","ego_can_infer","alter_ball_visible","alter_can_infer","collective_ball_visible","collective_can_infer","search_locations","alter_occluders","ego_occluders","accuracy_bool","feedback","age","ethnicity","gender","race","overall_accuracy","bonus"
"true","false","[]","[]","[]","preload","0","6343","0.0-0.0","63d86d675509ff61463bddcd","665500ab8938657b03fbdba8","6657926eb08ee19093b53955","","","","","","","","","","","","","","","","","","","","","","","","","","",""
"true","","","","","fullscreen","1","239777","0.0-1.0","63d86d675509ff61463bddcd","665500ab8938657b03fbdba8","6657926eb08ee19093b53955","","","","","","","","","","","","","","","","","","","","","","","","","","",""
"","","","","","html-button-response","2","246144","0.0-2.0","63d86d675509ff61463bddcd","665500ab8938657b03fbdba8","6657926eb08ee19093b53955","6364","<p><b>Consent Form</b></p> <div style=""text-align:left;background-color:lightgrey; padding:20px; max-width:900px;""><p>Please consider this information carefully before deciding whether to participate in this research.</p> <p>The purpose of this research is to examine which factors influence social judgment and decision-making. You will be asked to make judgements about individuals and actions in social scenarios. We are simply interested in your judgement. The study will take less than 1 hour to complete, and you will receive less than $20 on Prolific. Your compensation and time commitment are specified in the study description. There are no anticipated risks associated with participating in this study. The effects of participating should be comparable to those you would ordinarily experience from viewing a computer monitor and using a mouse or keyboard for a similar amount of time. At the end of the study, we will provide an explanation of the questions that motivate this line of research and will describe the potential implications. </p><p> Your participation in this study is completely voluntary and you may refuse to participate or you may choose to withdraw at any time without penalty or loss of benefits to you which are otherwise entitled. Your participation in this study will remain confidential. No personally identifiable information will be associated with your data. Also, all analyses of the data will be averaged across all the participants, so your individual responses will never be specifically analyzed. </p><p> If you have questions or concerns about your participation or payment, or want to request a summary of research findings, please contact Dr. Jonathan Phillips at Jonathan.S.Phillips@dartmouth.edu. </p><p> Please save a copy of this form for your records. </p><p><b>Agreement: </b>The nature and purpose of this research have been sufficiently explained and I agree to participate in this study. I understand that I am free to withdraw at any time without incurring any penalty. Please consent by clicking the button below to continue. Otherwise, please exit the study at any time. </p>","0","","","","","","","","","","","","","","","","","","","","","","","",""
"","","","","","instructions","3","712915","0.0-3.0-0.0","63d86d675509ff61463bddcd","665500ab8938657b03fbdba8","6657926eb08ee19093b53955","466768","","","[{""page_index"":0,""viewing_time"":1601},{""page_index"":1,""viewing_time"":2079},{""page_index"":2,""viewing_time"":3557},{""page_index"":3,""viewing_time"":6822},{""page_index"":4,""viewing_time"":3103},{""page_index"":5,""viewing_time"":3978},{""page_index"":6,""viewing_time"":4940},{""page_index"":7,""viewing_time"":4588},{""page_index"":8,""viewing_time"":4295},{""page_index"":9,""viewing_time"":4231},{""page_index"":10,""viewing_time"":19734},{""page_index"":11,""viewing_time"":14430},{""page_index"":12,""viewing_time"":390476},{""page_index"":13,""viewing_time"":2934}]","intro","","","","","","","","","","","","","","","","","","","","","",""
"","","","","","image-keyboard-response","4","719922","0.0-3.0-1.0","63d86d675509ff61463bddcd","665500ab8938657b03fbdba8","6657926eb08ee19093b53955","6971","stimuli/2100000.jpg","2","","prediction_practice","2","{""filepath"":""stimuli/2100000.jpg"",""ball_pos"":2,""ego_ball_visible"":true,""ego_can_infer"":true,""alter_ball_visible"":true,""alter_can_infer"":true,""collective_ball_visible"":true,""collective_can_infer"":true,""search_locations"":[2],""alter_occluders"":""100"",""ego_occluders"":""000""}","true","","","","","","","","","","","","","","","","","","",""
"","","","","","image-keyboard-response","5","722291","0.0-3.0-2.0","63d86d675509ff61463bddcd","665500ab8938657b03fbdba8","6657926eb08ee19093b53955","2366","stimuli/21000002.jpg"," ","","practrice_feedback","2","","","","","","","","","","","","","","","","","","","","",""
"","","","","","image-keyboard-response","6","724011","0.0-3.0-3.0","63d86d675509ff61463bddcd","665500ab8938657b03fbdba8","6657926eb08ee19093b53955","1718","stimuli/0000001.jpg","0","","prediction_practice","0","{""filepath"":""stimuli/0000001.jpg"",""ball_pos"":0,""ego_ball_visible"":true,""ego_can_infer"":true,""alter_ball_visible"":true,""alter_can_infer"":true,""collective_ball_visible"":true,""collective_can_infer"":true,""search_locations"":[0],""alter_occluders"":""000"",""ego_occluders"":""001""}","true","","","","","","","","","","","","","","","","","","",""
"","","","","","image-keyboard-response","7","725479","0.0-3.0-4.0","63d86d675509ff61463bddcd","665500ab8938657b03fbdba8","6657926eb08ee19093b53955","1465","stimuli/00000010.jpg"," ","","practrice_feedback","0","","","","","","","","","","","","","","","","","","","","",""
"","","","","","image-keyboard-response","8","727638","0.0-3.0-5.0","63d86d675509ff61463bddcd","665500ab8938657b03fbdba8","6657926eb08ee19093b53955","2157","stimuli/2100100.jpg","2","","prediction_practice","2","{""filepath"":""stimuli/2100100.jpg"",""ball_pos"":2,""ego_ball_visible"":true,""ego_can_infer"":true,""alter_ball_visible"":true,""alter_can_infer"":true,""collective_ball_visible"":true,""collective_can_infer"":true,""search_locations"":[2],""alter_occluders"":""100"",""ego_occluders"":""100""}","true","","","","","","","","","","","","","","","","","","",""
"","","","","","image-keyboard-response","9","728952","0.0-3.0-6.0","63d86d675509ff61463bddcd","665500ab8938657b03fbdba8","6657926eb08ee19093b53955","1312","stimuli/21001002.jpg"," ","","practrice_feedback","2","","","","","","","","","","","","","","","","","","","","",""
"","","","","","image-keyboard-response","10","730655","0.0-3.0-7.0","63d86d675509ff61463bddcd","665500ab8938657b03fbdba8","6657926eb08ee19093b53955","1701","stimuli/0010011.jpg","0","","prediction_practice","0","{""filepath"":""stimuli/0010011.jpg"",""ball_pos"":0,""ego_ball_visible"":true,""ego_can_infer"":true,""alter_ball_visible"":true,""alter_can_infer"":true,""collective_ball_visible"":true,""collective_can_infer"":true,""search_locations"":[0],""alter_occluders"":""010"",""ego_occluders"":""011""}","true","","","","","","","","","","","","","","","","","","",""
"","","","","","image-keyboard-response","11","731407","0.0-3.0-8.0","63d86d675509ff61463bddcd","665500ab8938657b03fbdba8","6657926eb08ee19093b53955","750","stimuli/00100110.jpg"," ","","practrice_feedback","0","","","","","","","","","","","","","","","","","","","","",""
"","","","","","image-keyboard-response","12","733361","0.0-3.0-9.0","63d86d675509ff61463bddcd","665500ab8938657b03fbdba8","6657926eb08ee19093b53955","1951","stimuli/1111101.jpg","1","","prediction_practice","2","{""filepath"":""stimuli/1111101.jpg"",""ball_pos"":1,""ego_ball_visible"":true,""ego_can_infer"":true,""alter_ball_visible"":false,""alter_can_infer"":false,""collective_ball_visible"":false,""collective_can_infer"":false,""search_locations"":[2,1,0],""alter_occluders"":""111"",""ego_occluders"":""101""}","false","","","","","","","","","","","","","","","","","","",""
"","","","","","image-keyboard-response","13","737004","0.0-3.0-10.0","63d86d675509ff61463bddcd","665500ab8938657b03fbdba8","6657926eb08ee19093b53955","3642","stimuli/11111012.jpg"," ","","practrice_feedback","2","","","","","","","","","","","","","","","","","","","","",""
"","","","","","image-keyboard-response","14","739166","0.0-3.0-11.0","63d86d675509ff61463bddcd","665500ab8938657b03fbdba8","6657926eb08ee19093b53955","2160","stimuli/0011010.jpg","0","","prediction_practice","0","{""filepath"":""stimuli/0011010.jpg"",""ball_pos"":0,""ego_ball_visible"":true,""ego_can_infer"":true,""alter_ball_visible"":true,""alter_can_infer"":true,""collective_ball_visible"":true,""collective_can_infer"":true,""search_locations"":[0],""alter_occluders"":""011"",""ego_occluders"":""010""}","true","","","","","","","","","","","","","","","","","","",""
"","","","","","image-keyboard-response","15","740019","0.0-3.0-12.0","63d86d675509ff61463bddcd","665500ab8938657b03fbdba8","6657926eb08ee19093b53955","851","stimuli/00110100.jpg"," ","","practrice_feedback","0","","","","","","","","","","","","","","","","","","","","",""
"","","","","","image-keyboard-response","16","742081","0.0-3.0-13.0","63d86d675509ff61463bddcd","665500ab8938657b03fbdba8","6657926eb08ee19093b53955","2061","stimuli/1001010.jpg","1","","prediction_practice","1","{""filepath"":""stimuli/1001010.jpg"",""ball_pos"":1,""ego_ball_visible"":false,""ego_can_infer"":true,""alter_ball_visible"":true,""alter_can_infer"":true,""collective_ball_visible"":false,""collective_can_infer"":true,""search_locations"":[1],""alter_occluders"":""001"",""ego_occluders"":""010""}","true","","","","","","","","","","","","","","","","","","",""
"","","","","","image-keyboard-response","17","743023","0.0-3.0-14.0","63d86d675509ff61463bddcd","665500ab8938657b03fbdba8","6657926eb08ee19093b53955","940","stimuli/10010101.jpg"," ","","practrice_feedback","1","","","","","","","","","","","","","","","","","","","","",""
"","","","","","image-keyboard-response","18","744211","0.0-3.0-15.0","63d86d675509ff61463bddcd","665500ab8938657b03fbdba8","6657926eb08ee19093b53955","1187","stimuli/2001000.jpg","2","","prediction_practice","2","{""filepath"":""stimuli/2001000.jpg"",""ball_pos"":2,""ego_ball_visible"":true,""ego_can_infer"":true,""alter_ball_visible"":false,""alter_can_infer"":true,""collective_ball_visible"":false,""collective_can_infer"":true,""search_locations"":[2],""alter_occluders"":""001"",""ego_occluders"":""000""}","true","","","","","","","","","","","","","","","","","","",""
"","","","","","image-keyboard-response","19","745256","0.0-3.0-16.0","63d86d675509ff61463bddcd","665500ab8938657b03fbdba8","6657926eb08ee19093b53955","1044","stimuli/20010002.jpg"," ","","practrice_feedback","2","","","","","","","","","","","","","","","","","","","","",""
"","","","","","image-keyboard-response","20","748630","0.0-3.0-17.0","63d86d675509ff61463bddcd","665500ab8938657b03fbdba8","6657926eb08ee19093b53955","3372","stimuli/2011101.jpg","0","","prediction_practice","2","{""filepath"":""stimuli/2011101.jpg"",""ball_pos"":2,""ego_ball_visible"":false,""ego_can_infer"":false,""alter_ball_visible"":false,""alter_can_infer"":false,""collective_ball_visible"":false,""collective_can_infer"":false,""search_locations"":[1,2],""alter_occluders"":""011"",""ego_occluders"":""101""}","false","","","","","","","","","","","","","","","","","","",""
"","","","","","image-keyboard-response","21","750397","0.0-3.0-18.0","63d86d675509ff61463bddcd","665500ab8938657b03fbdba8","6657926eb08ee19093b53955","1747","stimuli/20111012.jpg"," ","","practrice_feedback","1","","","","","","","","","","","","","","","","","","","","",""
"","","","","","image-keyboard-response","22","752371","0.0-3.0-19.0","63d86d675509ff61463bddcd","665500ab8938657b03fbdba8","6657926eb08ee19093b53955","1973","stimuli/0100111.jpg","0","","prediction_practice","0","{""filepath"":""stimuli/0100111.jpg"",""ball_pos"":0,""ego_ball_visible"":false,""ego_can_infer"":false,""alter_ball_visible"":false,""alter_can_infer"":true,""collective_ball_visible"":false,""collective_can_infer"":false,""search_locations"":[0],""alter_occluders"":""100"",""ego_occluders"":""111""}","true","","","","","","","","","","","","","","","","","","",""
"","","","","","image-keyboard-response","23","753512","0.0-3.0-20.0","63d86d675509ff61463bddcd","665500ab8938657b03fbdba8","6657926eb08ee19093b53955","1139","stimuli/01001110.jpg"," ","","practrice_feedback","0","","","","","","","","","","","","","","","","","","","","",""
"","","","","","html-button-response","24","1377565","0.0-3.0-21.0","63d86d675509ff61463bddcd","665500ab8938657b03fbdba8","6657926eb08ee19093b53955","624053","Now that you've had some practice, you'll be tested with a couple of easy trials. If you correctly predict Sam's choice, you'll move on to complete the experiment!","0","","","","","","","","","","","","","","","","","","","","","","","",""
"","","","","","image-keyboard-response","25","1380091","0.0-3.0-22.0-0.0","63d86d675509ff61463bddcd","665500ab8938657b03fbdba8","6657926eb08ee19093b53955","2524","stimuli/0000011.jpg","arrowleft","","comprehension_quiz","","","true","arrowleft","","","","","","","","","","","","","","","","","",""
"","","","","","image-keyboard-response","26","1381469","0.0-3.0-22.0-1.0","63d86d675509ff61463bddcd","665500ab8938657b03fbdba8","6657926eb08ee19093b53955","1376","stimuli/00000110.jpg"," ","","comprehension_quiz","","","true"," ","","","","","","","","","","","","","","","","","",""
"","","","","","image-keyboard-response","27","1383085","0.0-3.0-22.0-2.0","63d86d675509ff61463bddcd","665500ab8938657b03fbdba8","6657926eb08ee19093b53955","1615","stimuli/1010010.jpg","arrowdown","","comprehension_quiz","","","true","arrowdown","","","","","","","","","","","","","","","","","",""
"","","","","","image-keyboard-response","28","1383912","0.0-3.0-22.0-3.0","63d86d675509ff61463bddcd","665500ab8938657b03fbdba8","6657926eb08ee19093b53955","825","stimuli/10100101.jpg"," ","","comprehension_quiz","","","true"," ","","","","","","","","","","","","","","","","","",""
"","","","","","html-button-response","29","1385940","0.0-4.0","63d86d675509ff61463bddcd","665500ab8938657b03fbdba8","6657926eb08ee19093b53955","2024","The experiment will now begin.","0","","","","","","","","","","","","","","","","","","","","","","","",""
"","","","","","image-keyboard-response","30","1387239","0.0-5.0","63d86d675509ff61463bddcd","665500ab8938657b03fbdba8","6657926eb08ee19093b53955","1298","stimuli/2110100.jpg","2","","prediction_trial","2","","true","","2","true","true","true","true","true","true","[2]","110","100","1","","","","","","",""
"","","","","","image-keyboard-response","31","1388473","0.0-6.0","63d86d675509ff61463bddcd","665500ab8938657b03fbdba8","6657926eb08ee19093b53955","1231","stimuli/21101002.jpg"," ","","feedback_trial","2","","","","","","","","","","","","","","","","","","","","",""
"","","","","","image-keyboard-response","32","1389533","0.0-7.0","63d86d675509ff61463bddcd","665500ab8938657b03fbdba8","6657926eb08ee19093b53955","1059","stimuli/1111000.jpg","1","","prediction_trial","2","","false","","1","true","true","false","false","false","false","[0,2,1]","111","000","0","","","","","","",""
"","","","","","image-keyboard-response","33","1391077","0.0-8.0","63d86d675509ff61463bddcd","665500ab8938657b03fbdba8","6657926eb08ee19093b53955","1542","stimuli/11110002.jpg"," ","","feedback_trial","0","","","","","","","","","","","","","","","","","","","","",""
"","","","","","image-keyboard-response","34","1392061","0.0-9.0","63d86d675509ff61463bddcd","665500ab8938657b03fbdba8","6657926eb08ee19093b53955","983","stimuli/2011100.jpg","2","","prediction_trial","1","","false","","2","true","true","false","false","false","false","[2,1]","011","100","0","","","","","","",""
"","","","","","image-keyboard-response","35","1393959","0.0-10.0","63d86d675509ff61463bddcd","665500ab8938657b03fbdba8","6657926eb08ee19093b53955","1897","stimuli/20111001.jpg"," ","","feedback_trial","2","","","","","","","","","","","","","","","","","","","","",""
"","","","","","image-keyboard-response","36","1395623","0.0-11.0","63d86d675509ff61463bddcd","665500ab8938657b03fbdba8","6657926eb08ee19093b53955","1661","stimuli/0000011.jpg","0","","prediction_trial","0","","true","","0","true","true","true","true","true","true","[0]","000","011","1","","","","","","",""
"","","","","","image-keyboard-response","37","1396790","0.0-12.0","63d86d675509ff61463bddcd","665500ab8938657b03fbdba8","6657926eb08ee19093b53955","1165","stimuli/00000110.jpg"," ","","feedback_trial","0","","","","","","","","","","","","","","","","","","","","",""
"","","","","","image-keyboard-response","38","1398861","0.0-13.0","63d86d675509ff61463bddcd","665500ab8938657b03fbdba8","6657926eb08ee19093b53955","2069","stimuli/0010111.jpg","1","","prediction_trial","0","","false","","0","false","false","true","true","false","false","[0]","010","111","0","","","","","","",""
"","","","","","image-keyboard-response","39","1399864","0.0-14.0","63d86d675509ff61463bddcd","665500ab8938657b03fbdba8","6657926eb08ee19093b53955","1001","stimuli/00101110.jpg"," ","","feedback_trial","0","","","","","","","","","","","","","","","","","","","","",""
"","","","","","image-keyboard-response","40","1402036","0.0-15.0","63d86d675509ff61463bddcd","665500ab8938657b03fbdba8","6657926eb08ee19093b53955","2171","stimuli/1000001.jpg","1","","prediction_trial","1","","true","","1","true","true","true","true","true","true","[1]","000","001","1","","","","","","",""
"","","","","","image-keyboard-response","41","1402975","0.0-16.0","63d86d675509ff61463bddcd","665500ab8938657b03fbdba8","6657926eb08ee19093b53955","937","stimuli/10000011.jpg"," ","","feedback_trial","1","","","","","","","","","","","","","","","","","","","","",""
"","","","","","image-keyboard-response","42","1405014","0.0-17.0","63d86d675509ff61463bddcd","665500ab8938657b03fbdba8","6657926eb08ee19093b53955","2037","stimuli/2100011.jpg","1","","prediction_trial","2","","false","","2","false","false","true","true","false","false","[2]","100","011","0","","","","","","",""
"","","","","","image-keyboard-response","43","1406159","0.0-18.0","63d86d675509ff61463bddcd","665500ab8938657b03fbdba8","6657926eb08ee19093b53955","1143","stimuli/21000112.jpg"," ","","feedback_trial","2","","","","","","","","","","","","","","","","","","","","",""
"","","","","","image-keyboard-response","44","1407883","0.0-19.0","63d86d675509ff61463bddcd","665500ab8938657b03fbdba8","6657926eb08ee19093b53955","1723","stimuli/1111111.jpg","2","","prediction_trial","1","","false","","1","false","false","false","false","false","false","[2,0,1]","111","111","0","","","","","","",""
"","","","","","image-keyboard-response","45","1409014","0.0-20.0","63d86d675509ff61463bddcd","665500ab8938657b03fbdba8","6657926eb08ee19093b53955","1129","stimuli/11111111.jpg"," ","","feedback_trial","2","","","","","","","","","","","","","","","","","","","","",""
"","","","","","image-keyboard-response","46","1410216","0.0-21.0","63d86d675509ff61463bddcd","665500ab8938657b03fbdba8","6657926eb08ee19093b53955","1200","stimuli/1111101.jpg","1","","prediction_trial","2","","false","","1","true","true","false","false","false","false","[2,1,0]","111","101","0","","","","","","",""
"","","","","","image-keyboard-response","47","1411018","0.0-22.0","63d86d675509ff61463bddcd","665500ab8938657b03fbdba8","6657926eb08ee19093b53955","800","stimuli/11111012.jpg"," ","","feedback_trial","2","","","","","","","","","","","","","","","","","","","","",""
"","","","","","image-keyboard-response","48","1414289","0.0-23.0","63d86d675509ff61463bddcd","665500ab8938657b03fbdba8","6657926eb08ee19093b53955","3270","stimuli/0101101.jpg","0","","prediction_trial","2","","false","","0","false","false","false","false","false","false","[2,0]","101","101","0","","","","","","",""
"","","","","","image-keyboard-response","49","1415382","0.0-24.0","63d86d675509ff61463bddcd","665500ab8938657b03fbdba8","6657926eb08ee19093b53955","1091","stimuli/01011012.jpg"," ","","feedback_trial","2","","","","","","","","","","","","","","","","","","","","",""
"","","","","","image-keyboard-response","50","1417382","0.0-25.0","63d86d675509ff61463bddcd","665500ab8938657b03fbdba8","6657926eb08ee19093b53955","1997","stimuli/2100010.jpg","2","","prediction_trial","2","","true","","2","true","true","true","true","true","true","[2]","100","010","1","","","","","","",""
"","","","","","image-keyboard-response","51","1418095","0.0-26.0","63d86d675509ff61463bddcd","665500ab8938657b03fbdba8","6657926eb08ee19093b53955","711","stimuli/21000102.jpg"," ","","feedback_trial","2","","","","","","","","","","","","","","","","","","","","",""
"","","","","","image-keyboard-response","52","1419956","0.0-27.0","63d86d675509ff61463bddcd","665500ab8938657b03fbdba8","6657926eb08ee19093b53955","1859","stimuli/1010100.jpg","1","","prediction_trial","1","","true","","1","true","true","false","true","false","true","[1]","010","100","1","","","","","","",""
"","","","","","image-keyboard-response","53","1420701","0.0-28.0","63d86d675509ff61463bddcd","665500ab8938657b03fbdba8","6657926eb08ee19093b53955","744","stimuli/10101001.jpg"," ","","feedback_trial","1","","","","","","","","","","","","","","","","","","","","",""
"","","","","","image-keyboard-response","54","1422494","0.0-29.0","63d86d675509ff61463bddcd","665500ab8938657b03fbdba8","6657926eb08ee19093b53955","1791","stimuli/0111110.jpg","1","","prediction_trial","2","","false","","0","false","false","false","false","false","false","[1,0,2]","111","110","0","","","","","","",""
"","","","","","image-keyboard-response","55","1423240","0.0-30.0","63d86d675509ff61463bddcd","665500ab8938657b03fbdba8","6657926eb08ee19093b53955","744","stimuli/01111102.jpg"," ","","feedback_trial","1","","","","","","","","","","","","","","","","","","","","",""
"","","","","","image-keyboard-response","56","1424820","0.0-31.0","63d86d675509ff61463bddcd","665500ab8938657b03fbdba8","6657926eb08ee19093b53955","1577","stimuli/2010010.jpg","2","","prediction_trial","2","","true","","2","true","true","true","true","true","true","[2]","010","010","1","","","","","","",""
"","","","","","image-keyboard-response","57","1425503","0.0-32.0","63d86d675509ff61463bddcd","665500ab8938657b03fbdba8","6657926eb08ee19093b53955","681","stimuli/20100102.jpg"," ","","feedback_trial","2","","","","","","","","","","","","","","","","","","","","",""
"","","","","","image-keyboard-response","58","1426695","0.0-33.0","63d86d675509ff61463bddcd","665500ab8938657b03fbdba8","6657926eb08ee19093b53955","1191","stimuli/1001100.jpg","1","","prediction_trial","1","","true","","1","true","true","true","true","true","true","[1]","001","100","1","","","","","","",""
"","","","","","image-keyboard-response","59","1427461","0.0-34.0","63d86d675509ff61463bddcd","665500ab8938657b03fbdba8","6657926eb08ee19093b53955","764","stimuli/10011001.jpg"," ","","feedback_trial","1","","","","","","","","","","","","","","","","","","","","",""
"","","","","","image-keyboard-response","60","1428797","0.0-35.0","63d86d675509ff61463bddcd","665500ab8938657b03fbdba8","6657926eb08ee19093b53955","1335","stimuli/0110000.jpg","0","","prediction_trial","1","","false","","0","true","true","false","false","false","false","[1,0]","110","000","0","","","","","","",""
"","","","","","image-keyboard-response","61","1431706","0.0-36.0","63d86d675509ff61463bddcd","665500ab8938657b03fbdba8","6657926eb08ee19093b53955","2907","stimuli/01100001.jpg"," ","","feedback_trial","1","","","","","","","","","","","","","","","","","","","","",""
"","","","","","image-keyboard-response","62","1433326","0.0-37.0","63d86d675509ff61463bddcd","665500ab8938657b03fbdba8","6657926eb08ee19093b53955","1618","stimuli/2000110.jpg","2","","prediction_trial","2","","true","","2","true","true","true","true","true","true","[2]","000","110","1","","","","","","",""
"","","","","","image-keyboard-response","63","1434126","0.0-38.0","63d86d675509ff61463bddcd","665500ab8938657b03fbdba8","6657926eb08ee19093b53955","798","stimuli/20001102.jpg"," ","","feedback_trial","2","","","","","","","","","","","","","","","","","","","","",""
"","","","","","image-keyboard-response","64","1436664","0.0-39.0","63d86d675509ff61463bddcd","665500ab8938657b03fbdba8","6657926eb08ee19093b53955","2537","stimuli/0101001.jpg","0","","prediction_trial","2","","false","","0","true","true","false","false","false","false","[2,0]","101","001","0","","","","","","",""
"","","","","","image-keyboard-response","65","1437475","0.0-40.0","63d86d675509ff61463bddcd","665500ab8938657b03fbdba8","6657926eb08ee19093b53955","809","stimuli/01010012.jpg"," ","","feedback_trial","2","","","","","","","","","","","","","","","","","","","","",""
"","","","","","image-keyboard-response","66","1440646","0.0-41.0","63d86d675509ff61463bddcd","665500ab8938657b03fbdba8","6657926eb08ee19093b53955","3169","stimuli/1011011.jpg","1","","prediction_trial","2","","false","","1","false","false","false","false","false","false","[2,1]","011","011","0","","","","","","",""
"","","","","","image-keyboard-response","67","1441427","0.0-42.0","63d86d675509ff61463bddcd","665500ab8938657b03fbdba8","6657926eb08ee19093b53955","780","stimuli/10110112.jpg"," ","","feedback_trial","2","","","","","","","","","","","","","","","","","","","","",""
"","","","","","image-keyboard-response","68","1444673","0.0-43.0","63d86d675509ff61463bddcd","665500ab8938657b03fbdba8","6657926eb08ee19093b53955","3243","stimuli/2000011.jpg","2","","prediction_trial","2","","true","","2","false","false","true","true","false","false","[2]","000","011","1","","","","","","",""
"","","","","","image-keyboard-response","69","1445378","0.0-44.0","63d86d675509ff61463bddcd","665500ab8938657b03fbdba8","6657926eb08ee19093b53955","704","stimuli/20000112.jpg"," ","","feedback_trial","2","","","","","","","","","","","","","","","","","","","","",""
"","","","","","image-keyboard-response","70","1447455","0.0-45.0","63d86d675509ff61463bddcd","665500ab8938657b03fbdba8","6657926eb08ee19093b53955","2076","stimuli/0111100.jpg","0","","prediction_trial","1","","false","","0","false","true","false","false","false","false","[1,2,0]","111","100","0","","","","","","",""
"","","","","","image-keyboard-response","71","1448179","0.0-46.0","63d86d675509ff61463bddcd","665500ab8938657b03fbdba8","6657926eb08ee19093b53955","722","stimuli/01111001.jpg"," ","","feedback_trial","1","","","","","","","","","","","","","","","","","","","","",""
"","","","","","image-keyboard-response","72","1451283","0.0-47.0","63d86d675509ff61463bddcd","665500ab8938657b03fbdba8","6657926eb08ee19093b53955","3101","stimuli/2000111.jpg","1","","prediction_trial","2","","false","","2","false","false","true","true","false","false","[2]","000","111","0","","","","","","",""
"","","","","","image-keyboard-response","73","1451980","0.0-48.0","63d86d675509ff61463bddcd","665500ab8938657b03fbdba8","6657926eb08ee19093b53955","695","stimuli/20001112.jpg"," ","","feedback_trial","2","","","","","","","","","","","","","","","","","","","","",""
"","","","","","image-keyboard-response","74","1453828","0.0-49.0","63d86d675509ff61463bddcd","665500ab8938657b03fbdba8","6657926eb08ee19093b53955","1846","stimuli/0000001.jpg","0","","prediction_trial","0","","true","","0","true","true","true","true","true","true","[0]","000","001","1","","","","","","",""
"","","","","","image-keyboard-response","75","1454539","0.0-50.0","63d86d675509ff61463bddcd","665500ab8938657b03fbdba8","6657926eb08ee19093b53955","711","stimuli/00000010.jpg"," ","","feedback_trial","0","","","","","","","","","","","","","","","","","","","","",""
"","","","","","image-keyboard-response","76","1457147","0.0-51.0","63d86d675509ff61463bddcd","665500ab8938657b03fbdba8","6657926eb08ee19093b53955","2607","stimuli/1111001.jpg","1","","prediction_trial","2","","false","","1","true","true","false","false","false","false","[1,2,0]","111","001","0","","","","","","",""
"","","","","","image-keyboard-response","77","1457857","0.0-52.0","63d86d675509ff61463bddcd","665500ab8938657b03fbdba8","6657926eb08ee19093b53955","709","stimuli/11110012.jpg"," ","","feedback_trial","1","","","","","","","","","","","","","","","","","","","","",""
"","","","","","image-keyboard-response","78","1459457","0.0-53.0","63d86d675509ff61463bddcd","665500ab8938657b03fbdba8","6657926eb08ee19093b53955","1598","stimuli/0000000.jpg","0","","prediction_trial","0","","true","","0","true","true","true","true","true","true","[0]","000","000","1","","","","","","",""
"","","","","","image-keyboard-response","79","1459977","0.0-54.0","63d86d675509ff61463bddcd","665500ab8938657b03fbdba8","6657926eb08ee19093b53955","518","stimuli/00000000.jpg"," ","","feedback_trial","0","","","","","","","","","","","","","","","","","","","","",""
"","","","","","image-keyboard-response","80","1461911","0.0-55.0","63d86d675509ff61463bddcd","665500ab8938657b03fbdba8","6657926eb08ee19093b53955","1933","stimuli/1011000.jpg","1","","prediction_trial","2","","false","","1","true","true","false","false","false","false","[1,2]","011","000","0","","","","","","",""
"","","","","","image-keyboard-response","81","1462937","0.0-56.0","63d86d675509ff61463bddcd","665500ab8938657b03fbdba8","6657926eb08ee19093b53955","1024","stimuli/10110002.jpg"," ","","feedback_trial","1","","","","","","","","","","","","","","","","","","","","",""
"","","","","","image-keyboard-response","82","1464138","0.0-57.0","63d86d675509ff61463bddcd","665500ab8938657b03fbdba8","6657926eb08ee19093b53955","1199","stimuli/0001010.jpg","0","","prediction_trial","0","","true","","0","true","true","true","true","true","true","[0]","001","010","1","","","","","","",""
"","","","","","image-keyboard-response","83","1465122","0.0-58.0","63d86d675509ff61463bddcd","665500ab8938657b03fbdba8","6657926eb08ee19093b53955","983","stimuli/00010100.jpg"," ","","feedback_trial","0","","","","","","","","","","","","","","","","","","","","",""
"","","","","","image-keyboard-response","84","1467362","0.0-59.0","63d86d675509ff61463bddcd","665500ab8938657b03fbdba8","6657926eb08ee19093b53955","2239","stimuli/0100100.jpg","0","","prediction_trial","0","","true","","0","false","true","false","true","false","true","[0]","100","100","1","","","","","","",""
"","","","","","image-keyboard-response","85","1467981","0.0-60.0","63d86d675509ff61463bddcd","665500ab8938657b03fbdba8","6657926eb08ee19093b53955","618","stimuli/01001000.jpg"," ","","feedback_trial","0","","","","","","","","","","","","","","","","","","","","",""
"","","","","","image-keyboard-response","86","1469008","0.0-61.0","63d86d675509ff61463bddcd","665500ab8938657b03fbdba8","6657926eb08ee19093b53955","1025","stimuli/2100000.jpg","2","","prediction_trial","2","","true","","2","true","true","true","true","true","true","[2]","100","000","1","","","","","","",""
"","","","","","image-keyboard-response","87","1469605","0.0-62.0","63d86d675509ff61463bddcd","665500ab8938657b03fbdba8","6657926eb08ee19093b53955","595","stimuli/21000002.jpg"," ","","feedback_trial","2","","","","","","","","","","","","","","","","","","","","",""
"","","","","","image-keyboard-response","88","1470813","0.0-63.0","63d86d675509ff61463bddcd","665500ab8938657b03fbdba8","6657926eb08ee19093b53955","1207","stimuli/1100101.jpg","1","","prediction_trial","1","","true","","1","true","true","true","true","true","true","[1]","100","101","1","","","","","","",""
"","","","","","image-keyboard-response","89","1471416","0.0-64.0","63d86d675509ff61463bddcd","665500ab8938657b03fbdba8","6657926eb08ee19093b53955","601","stimuli/11001011.jpg"," ","","feedback_trial","1","","","","","","","","","","","","","","","","","","","","",""
"","","","","","image-keyboard-response","90","1472401","0.0-65.0","63d86d675509ff61463bddcd","665500ab8938657b03fbdba8","6657926eb08ee19093b53955","984","stimuli/1101001.jpg","1","","prediction_trial","1","","true","","1","true","true","true","true","true","true","[1]","101","001","1","","","","","","",""
"","","","","","image-keyboard-response","91","1473007","0.0-66.0","63d86d675509ff61463bddcd","665500ab8938657b03fbdba8","6657926eb08ee19093b53955","604","stimuli/11010011.jpg"," ","","feedback_trial","1","","","","","","","","","","","","","","","","","","","","",""
"","","","","","image-keyboard-response","92","1475640","0.0-67.0","63d86d675509ff61463bddcd","665500ab8938657b03fbdba8","6657926eb08ee19093b53955","2630","stimuli/0000111.jpg","2","","prediction_trial","0","","false","","0","false","false","true","true","false","false","[0]","000","111","0","","","","","","",""
"","","","","","image-keyboard-response","93","1476463","0.0-68.0","63d86d675509ff61463bddcd","665500ab8938657b03fbdba8","6657926eb08ee19093b53955","821","stimuli/00001110.jpg"," ","","feedback_trial","0","","","","","","","","","","","","","","","","","","","","",""
"","","","","","image-keyboard-response","94","1477550","0.0-69.0","63d86d675509ff61463bddcd","665500ab8938657b03fbdba8","6657926eb08ee19093b53955","1085","stimuli/1100100.jpg","1","","prediction_trial","1","","true","","1","true","true","true","true","true","true","[1]","100","100","1","","","","","","",""
"","","","","","image-keyboard-response","95","1478142","0.0-70.0","63d86d675509ff61463bddcd","665500ab8938657b03fbdba8","6657926eb08ee19093b53955","590","stimuli/11001001.jpg"," ","","feedback_trial","1","","","","","","","","","","","","","","","","","","","","",""
"","","","","","image-keyboard-response","96","1481333","0.0-71.0","63d86d675509ff61463bddcd","665500ab8938657b03fbdba8","6657926eb08ee19093b53955","3189","stimuli/0100010.jpg","0","","prediction_trial","0","","true","","0","true","true","false","true","false","true","[0]","100","010","1","","","","","","",""
"","","","","","image-keyboard-response","97","1482441","0.0-72.0","63d86d675509ff61463bddcd","665500ab8938657b03fbdba8","6657926eb08ee19093b53955","1107","stimuli/01000100.jpg"," ","","feedback_trial","0","","","","","","","","","","","","","","","","","","","","",""
"","","","","","image-keyboard-response","98","1486240","0.0-73.0","63d86d675509ff61463bddcd","665500ab8938657b03fbdba8","6657926eb08ee19093b53955","3797","stimuli/0111101.jpg","2","","prediction_trial","1","","false","","0","false","false","false","false","false","false","[2,0,1]","111","101","0","","","","","","",""
"","","","","","image-keyboard-response","99","1487110","0.0-74.0","63d86d675509ff61463bddcd","665500ab8938657b03fbdba8","6657926eb08ee19093b53955","868","stimuli/01111011.jpg"," ","","feedback_trial","2","","","","","","","","","","","","","","","","","","","","",""
"","","","","","image-keyboard-response","100","1488309","0.0-75.0","63d86d675509ff61463bddcd","665500ab8938657b03fbdba8","6657926eb08ee19093b53955","1195","stimuli/1000000.jpg","1","","prediction_trial","1","","true","","1","true","true","true","true","true","true","[1]","000","000","1","","","","","","",""
"","","","","","image-keyboard-response","101","1488881","0.0-76.0","63d86d675509ff61463bddcd","665500ab8938657b03fbdba8","6657926eb08ee19093b53955","570","stimuli/10000001.jpg"," ","","feedback_trial","1","","","","","","","","","","","","","","","","","","","","",""
"","","","","","image-keyboard-response","102","1491420","0.0-77.0","63d86d675509ff61463bddcd","665500ab8938657b03fbdba8","6657926eb08ee19093b53955","2538","stimuli/1110110.jpg","1","","prediction_trial","0","","false","","1","false","false","false","false","false","false","[1,0]","110","110","0","","","","","","",""
"","","","","","image-keyboard-response","103","1492036","0.0-78.0","63d86d675509ff61463bddcd","665500ab8938657b03fbdba8","6657926eb08ee19093b53955","613","stimuli/11101100.jpg"," ","","feedback_trial","1","","","","","","","","","","","","","","","","","","","","",""
"","","","","","image-keyboard-response","104","1494334","0.0-79.0","63d86d675509ff61463bddcd","665500ab8938657b03fbdba8","6657926eb08ee19093b53955","2296","stimuli/0111010.jpg","0","","prediction_trial","0","","true","","0","true","true","false","false","false","false","[1,0,2]","111","010","1","","","","","","",""
"","","","","","image-keyboard-response","105","1495044","0.0-80.0","63d86d675509ff61463bddcd","665500ab8938657b03fbdba8","6657926eb08ee19093b53955","707","stimuli/01110100.jpg"," ","","feedback_trial","1","","","","","","","","","","","","","","","","","","","","",""
"","","","","","image-keyboard-response","106","1496254","0.0-81.0","63d86d675509ff61463bddcd","665500ab8938657b03fbdba8","6657926eb08ee19093b53955","1207","stimuli/0001000.jpg","0","","prediction_trial","0","","true","","0","true","true","true","true","true","true","[0]","001","000","1","","","","","","",""
"","","","","","image-keyboard-response","107","1496988","0.0-82.0","63d86d675509ff61463bddcd","665500ab8938657b03fbdba8","6657926eb08ee19093b53955","733","stimuli/00010000.jpg"," ","","feedback_trial","0","","","","","","","","","","","","","","","","","","","","",""
"","","","","","image-keyboard-response","108","1498502","0.0-83.0","63d86d675509ff61463bddcd","665500ab8938657b03fbdba8","6657926eb08ee19093b53955","1512","stimuli/1110000.jpg","1","","prediction_trial","1","","true","","1","true","true","false","false","false","false","[1,0]","110","000","1","","","","","","",""
"","","","","","image-keyboard-response","109","1499292","0.0-84.0","63d86d675509ff61463bddcd","665500ab8938657b03fbdba8","6657926eb08ee19093b53955","788","stimuli/11100001.jpg"," ","","feedback_trial","1","","","","","","","","","","","","","","","","","","","","",""
"","","","","","image-keyboard-response","110","1502431","0.0-85.0","63d86d675509ff61463bddcd","665500ab8938657b03fbdba8","6657926eb08ee19093b53955","3137","stimuli/0101100.jpg","0","","prediction_trial","0","","true","","0","false","true","false","false","false","false","[0,2]","101","100","1","","","","","","",""
"","","","","","image-keyboard-response","111","1503389","0.0-86.0","63d86d675509ff61463bddcd","665500ab8938657b03fbdba8","6657926eb08ee19093b53955","956","stimuli/01011000.jpg"," ","","feedback_trial","0","","","","","","","","","","","","","","","","","","","","",""
"","","","","","image-keyboard-response","112","1504461","0.0-87.0","63d86d675509ff61463bddcd","665500ab8938657b03fbdba8","6657926eb08ee19093b53955","1070","stimuli/0011011.jpg","0","","prediction_trial","0","","true","","0","true","true","true","true","true","true","[0]","011","011","1","","","","","","",""
"","","","","","image-keyboard-response","113","1505020","0.0-88.0","63d86d675509ff61463bddcd","665500ab8938657b03fbdba8","6657926eb08ee19093b53955","557","stimuli/00110110.jpg"," ","","feedback_trial","0","","","","","","","","","","","","","","","","","","","","",""
"","","","","","image-keyboard-response","114","1506103","0.0-89.0","63d86d675509ff61463bddcd","665500ab8938657b03fbdba8","6657926eb08ee19093b53955","1082","stimuli/0001001.jpg","0","","prediction_trial","0","","true","","0","true","true","true","true","true","true","[0]","001","001","1","","","","","","",""
"","","","","","image-keyboard-response","115","1506592","0.0-90.0","63d86d675509ff61463bddcd","665500ab8938657b03fbdba8","6657926eb08ee19093b53955","487","stimuli/00010010.jpg"," ","","feedback_trial","0","","","","","","","","","","","","","","","","","","","","",""
"","","","","","image-keyboard-response","116","1507560","0.0-91.0","63d86d675509ff61463bddcd","665500ab8938657b03fbdba8","6657926eb08ee19093b53955","966","stimuli/2000000.jpg","2","","prediction_trial","2","","true","","2","true","true","true","true","true","true","[2]","000","000","1","","","","","","",""
"","","","","","image-keyboard-response","117","1508132","0.0-92.0","63d86d675509ff61463bddcd","665500ab8938657b03fbdba8","6657926eb08ee19093b53955","570","stimuli/20000002.jpg"," ","","feedback_trial","2","","","","","","","","","","","","","","","","","","","","",""
"","","","","","image-keyboard-response","118","1510849","0.0-93.0","63d86d675509ff61463bddcd","665500ab8938657b03fbdba8","6657926eb08ee19093b53955","2715","stimuli/0000101.jpg","2","","prediction_trial","0","","false","","0","false","false","true","true","false","false","[0]","000","101","0","","","","","","",""
"","","","","","image-keyboard-response","119","1511455","0.0-94.0","63d86d675509ff61463bddcd","665500ab8938657b03fbdba8","6657926eb08ee19093b53955","605","stimuli/00001010.jpg"," ","","feedback_trial","0","","","","","","","","","","","","","","","","","","","","",""
"","","","","","image-keyboard-response","120","1513458","0.0-95.0","63d86d675509ff61463bddcd","665500ab8938657b03fbdba8","6657926eb08ee19093b53955","2000","stimuli/0001101.jpg","2","","prediction_trial","0","","false","","0","false","false","true","true","false","false","[0]","001","101","0","","","","","","",""
"","","","","","image-keyboard-response","121","1514266","0.0-96.0","63d86d675509ff61463bddcd","665500ab8938657b03fbdba8","6657926eb08ee19093b53955","806","stimuli/00011010.jpg"," ","","feedback_trial","0","","","","","","","","","","","","","","","","","","","","",""
"","","","","","image-keyboard-response","122","1517890","0.0-97.0","63d86d675509ff61463bddcd","665500ab8938657b03fbdba8","6657926eb08ee19093b53955","3622","stimuli/1000110.jpg","0","","prediction_trial","1","","false","","1","false","false","true","true","false","false","[1]","000","110","0","","","","","","",""
"","","","","","image-keyboard-response","123","1518492","0.0-98.0","63d86d675509ff61463bddcd","665500ab8938657b03fbdba8","6657926eb08ee19093b53955","601","stimuli/10001101.jpg"," ","","feedback_trial","1","","","","","","","","","","","","","","","","","","","","",""
"","","","","","image-keyboard-response","124","1520668","0.0-99.0","63d86d675509ff61463bddcd","665500ab8938657b03fbdba8","6657926eb08ee19093b53955","2174","stimuli/1100011.jpg","2","","prediction_trial","1","","false","","1","false","false","true","true","false","false","[1]","100","011","0","","","","","","",""
"","","","","","image-keyboard-response","125","1521331","0.0-100.0","63d86d675509ff61463bddcd","665500ab8938657b03fbdba8","6657926eb08ee19093b53955","661","stimuli/11000111.jpg"," ","","feedback_trial","1","","","","","","","","","","","","","","","","","","","","",""
"","","","","","image-keyboard-response","126","1523217","0.0-101.0","63d86d675509ff61463bddcd","665500ab8938657b03fbdba8","6657926eb08ee19093b53955","1884","stimuli/0001111.jpg","1","","prediction_trial","0","","false","","0","false","false","true","true","false","false","[0]","001","111","0","","","","","","",""
"","","","","","image-keyboard-response","127","1524052","0.0-102.0","63d86d675509ff61463bddcd","665500ab8938657b03fbdba8","6657926eb08ee19093b53955","833","stimuli/00011110.jpg"," ","","feedback_trial","0","","","","","","","","","","","","","","","","","","","","",""
"","","","","","image-keyboard-response","128","1524986","0.0-103.0","63d86d675509ff61463bddcd","665500ab8938657b03fbdba8","6657926eb08ee19093b53955","933","stimuli/1000100.jpg","1","","prediction_trial","1","","true","","1","true","true","true","true","true","true","[1]","000","100","1","","","","","","",""
"","","","","","image-keyboard-response","129","1525651","0.0-104.0","63d86d675509ff61463bddcd","665500ab8938657b03fbdba8","6657926eb08ee19093b53955","663","stimuli/10001001.jpg"," ","","feedback_trial","1","","","","","","","","","","","","","","","","","","","","",""
"","","","","","image-keyboard-response","130","1526842","0.0-105.0","63d86d675509ff61463bddcd","665500ab8938657b03fbdba8","6657926eb08ee19093b53955","1189","stimuli/2011101.jpg","2","","prediction_trial","1","","false","","2","false","false","false","false","false","false","[1,2]","011","101","0","","","","","","",""
"","","","","","image-keyboard-response","131","1527634","0.0-106.0","63d86d675509ff61463bddcd","665500ab8938657b03fbdba8","6657926eb08ee19093b53955","791","stimuli/20111011.jpg"," ","","feedback_trial","1","","","","","","","","","","","","","","","","","","","","",""
"","","","","","image-keyboard-response","132","1528516","0.0-107.0","63d86d675509ff61463bddcd","665500ab8938657b03fbdba8","6657926eb08ee19093b53955","880","stimuli/1011001.jpg","1","","prediction_trial","2","","false","","1","true","true","false","false","false","false","[1,2]","011","001","0","","","","","","",""
"","","","","","image-keyboard-response","133","1530569","0.0-108.0","63d86d675509ff61463bddcd","665500ab8938657b03fbdba8","6657926eb08ee19093b53955","2051","stimuli/10110012.jpg"," ","","feedback_trial","1","","","","","","","","","","","","","","","","","","","","",""
"","","","","","image-keyboard-response","134","1535797","0.0-109.0","63d86d675509ff61463bddcd","665500ab8938657b03fbdba8","6657926eb08ee19093b53955","5226","stimuli/1011010.jpg","1","","prediction_trial","1","","true","","1","false","true","false","false","false","false","[1,2]","011","010","1","","","","","","",""
"","","","","","image-keyboard-response","135","1536476","0.0-110.0","63d86d675509ff61463bddcd","665500ab8938657b03fbdba8","6657926eb08ee19093b53955","677","stimuli/10110101.jpg"," ","","feedback_trial","1","","","","","","","","","","","","","","","","","","","","",""
"","","","","","image-keyboard-response","136","1538486","0.0-111.0","63d86d675509ff61463bddcd","665500ab8938657b03fbdba8","6657926eb08ee19093b53955","2008","stimuli/0101000.jpg","0","","prediction_trial","2","","false","","0","true","true","false","false","false","false","[0,2]","101","000","0","","","","","","",""
"","","","","","image-keyboard-response","137","1539061","0.0-112.0","63d86d675509ff61463bddcd","665500ab8938657b03fbdba8","6657926eb08ee19093b53955","573","stimuli/01010002.jpg"," ","","feedback_trial","0","","","","","","","","","","","","","","","","","","","","",""
"","","","","","image-keyboard-response","138","1543316","0.0-113.0","63d86d675509ff61463bddcd","665500ab8938657b03fbdba8","6657926eb08ee19093b53955","4253","stimuli/2101001.jpg","2","","prediction_trial","0","","false","","2","false","true","false","false","false","false","[0,2]","101","001","0","","","","","","",""
"","","","","","image-keyboard-response","139","1544085","0.0-114.0","63d86d675509ff61463bddcd","665500ab8938657b03fbdba8","6657926eb08ee19093b53955","767","stimuli/21010010.jpg"," ","","feedback_trial","0","","","","","","","","","","","","","","","","","","","","",""
"","","","","","image-keyboard-response","140","1547525","0.0-115.0","63d86d675509ff61463bddcd","665500ab8938657b03fbdba8","6657926eb08ee19093b53955","3438","stimuli/2010111.jpg","2","","prediction_trial","2","","true","","2","false","false","true","true","false","false","[2]","010","111","1","","","","","","",""
"","","","","","image-keyboard-response","141","1548233","0.0-116.0","63d86d675509ff61463bddcd","665500ab8938657b03fbdba8","6657926eb08ee19093b53955","706","stimuli/20101112.jpg"," ","","feedback_trial","2","","","","","","","","","","","","","","","","","","","","",""
"","","","","","image-keyboard-response","142","1549328","0.0-117.0","63d86d675509ff61463bddcd","665500ab8938657b03fbdba8","6657926eb08ee19093b53955","1093","stimuli/2110110.jpg","2","","prediction_trial","2","","true","","2","true","true","true","true","true","true","[2]","110","110","1","","","","","","",""
"","","","","","image-keyboard-response","143","1549892","0.0-118.0","63d86d675509ff61463bddcd","665500ab8938657b03fbdba8","6657926eb08ee19093b53955","562","stimuli/21101102.jpg"," ","","feedback_trial","2","","","","","","","","","","","","","","","","","","","","",""
"","","","","","image-keyboard-response","144","1550675","0.0-119.0","63d86d675509ff61463bddcd","665500ab8938657b03fbdba8","6657926eb08ee19093b53955","782","stimuli/2110010.jpg","2","","prediction_trial","2","","true","","2","true","true","true","true","true","true","[2]","110","010","1","","","","","","",""
"","","","","","image-keyboard-response","145","1551241","0.0-120.0","63d86d675509ff61463bddcd","665500ab8938657b03fbdba8","6657926eb08ee19093b53955","565","stimuli/21100102.jpg"," ","","feedback_trial","2","","","","","","","","","","","","","","","","","","","","",""
"","","","","","image-keyboard-response","146","1553079","0.0-121.0","63d86d675509ff61463bddcd","665500ab8938657b03fbdba8","6657926eb08ee19093b53955","1837","stimuli/0101110.jpg","1","","prediction_trial","0","","false","","0","false","false","false","false","false","false","[2,0]","101","110","0","","","","","","",""
"","","","","","image-keyboard-response","147","1553926","0.0-122.0","63d86d675509ff61463bddcd","665500ab8938657b03fbdba8","6657926eb08ee19093b53955","846","stimuli/01011100.jpg"," ","","feedback_trial","2","","","","","","","","","","","","","","","","","","","","",""
"","","","","","image-keyboard-response","148","1556786","0.0-123.0","63d86d675509ff61463bddcd","665500ab8938657b03fbdba8","6657926eb08ee19093b53955","2858","stimuli/2010001.jpg","2","","prediction_trial","2","","true","","2","false","true","true","true","false","true","[2]","010","001","1","","","","","","",""
"","","","","","image-keyboard-response","149","1557538","0.0-124.0","63d86d675509ff61463bddcd","665500ab8938657b03fbdba8","6657926eb08ee19093b53955","751","stimuli/20100012.jpg"," ","","feedback_trial","2","","","","","","","","","","","","","","","","","","","","",""
"","","","","","image-keyboard-response","150","1558838","0.0-125.0","63d86d675509ff61463bddcd","665500ab8938657b03fbdba8","6657926eb08ee19093b53955","1298","stimuli/2110001.jpg","2","","prediction_trial","2","","true","","2","false","true","true","true","false","true","[2]","110","001","1","","","","","","",""
"","","","","","image-keyboard-response","151","1559400","0.0-126.0","63d86d675509ff61463bddcd","665500ab8938657b03fbdba8","6657926eb08ee19093b53955","561","stimuli/21100012.jpg"," ","","feedback_trial","2","","","","","","","","","","","","","","","","","","","","",""
"","","","","","image-keyboard-response","152","1562450","0.0-127.0","63d86d675509ff61463bddcd","665500ab8938657b03fbdba8","6657926eb08ee19093b53955","3048","stimuli/1010101.jpg","0","","prediction_trial","1","","false","","1","true","true","false","true","false","true","[1]","010","101","0","","","","","","",""
"","","","","","image-keyboard-response","153","1563664","0.0-128.0","63d86d675509ff61463bddcd","665500ab8938657b03fbdba8","6657926eb08ee19093b53955","1212","stimuli/10101011.jpg"," ","","feedback_trial","1","","","","","","","","","","","","","","","","","","","","",""
"","","","","","image-keyboard-response","154","1564790","0.0-129.0","63d86d675509ff61463bddcd","665500ab8938657b03fbdba8","6657926eb08ee19093b53955","1124","stimuli/1100000.jpg","1","","prediction_trial","1","","true","","1","true","true","true","true","true","true","[1]","100","000","1","","","","","","",""
"","","","","","image-keyboard-response","155","1565214","0.0-130.0","63d86d675509ff61463bddcd","665500ab8938657b03fbdba8","6657926eb08ee19093b53955","423","stimuli/11000001.jpg"," ","","feedback_trial","1","","","","","","","","","","","","","","","","","","","","",""
"","","","","","image-keyboard-response","156","1566914","0.0-131.0","63d86d675509ff61463bddcd","665500ab8938657b03fbdba8","6657926eb08ee19093b53955","1697","stimuli/1111100.jpg","1","","prediction_trial","1","","true","","1","true","true","false","false","false","false","[2,0,1]","111","100","1","","","","","","",""
"","","","","","image-keyboard-response","157","1567464","0.0-132.0","63d86d675509ff61463bddcd","665500ab8938657b03fbdba8","6657926eb08ee19093b53955","548","stimuli/11111001.jpg"," ","","feedback_trial","2","","","","","","","","","","","","","","","","","","","","",""
"","","","","","image-keyboard-response","158","1568435","0.0-133.0","63d86d675509ff61463bddcd","665500ab8938657b03fbdba8","6657926eb08ee19093b53955","969","stimuli/1110100.jpg","1","","prediction_trial","1","","true","","1","true","true","false","false","false","false","[0,1]","110","100","1","","","","","","",""
"","","","","","image-keyboard-response","159","1568981","0.0-134.0","63d86d675509ff61463bddcd","665500ab8938657b03fbdba8","6657926eb08ee19093b53955","545","stimuli/11101001.jpg"," ","","feedback_trial","0","","","","","","","","","","","","","","","","","","","","",""
"","","","","","image-keyboard-response","160","1570819","0.0-135.0","63d86d675509ff61463bddcd","665500ab8938657b03fbdba8","6657926eb08ee19093b53955","1835","stimuli/2111110.jpg","2","","prediction_trial","0","","false","","2","true","true","false","false","false","false","[1,0,2]","111","110","0","","","","","","",""
"","","","","","image-keyboard-response","161","1572328","0.0-136.0","63d86d675509ff61463bddcd","665500ab8938657b03fbdba8","6657926eb08ee19093b53955","1506","stimuli/21111100.jpg"," ","","feedback_trial","1","","","","","","","","","","","","","","","","","","","","",""
"","","","","","image-keyboard-response","162","1573366","0.0-137.0","63d86d675509ff61463bddcd","665500ab8938657b03fbdba8","6657926eb08ee19093b53955","1036","stimuli/2100110.jpg","2","","prediction_trial","2","","true","","2","true","true","true","true","true","true","[2]","100","110","1","","","","","","",""
"","","","","","image-keyboard-response","163","1574132","0.0-138.0","63d86d675509ff61463bddcd","665500ab8938657b03fbdba8","6657926eb08ee19093b53955","764","stimuli/21001102.jpg"," ","","feedback_trial","2","","","","","","","","","","","","","","","","","","","","",""
"","","","","","image-keyboard-response","164","1576540","0.0-139.0","63d86d675509ff61463bddcd","665500ab8938657b03fbdba8","6657926eb08ee19093b53955","2407","stimuli/1110111.jpg","2","","prediction_trial","1","","false","","1","false","false","false","false","false","false","[0,1]","110","111","0","","","","","","",""
"","","","","","image-keyboard-response","165","1577146","0.0-140.0","63d86d675509ff61463bddcd","665500ab8938657b03fbdba8","6657926eb08ee19093b53955","604","stimuli/11101111.jpg"," ","","feedback_trial","0","","","","","","","","","","","","","","","","","","","","",""
"","","","","","image-keyboard-response","166","1579299","0.0-141.0","63d86d675509ff61463bddcd","665500ab8938657b03fbdba8","6657926eb08ee19093b53955","2152","stimuli/2101000.jpg","2","","prediction_trial","0","","false","","2","true","true","false","false","false","false","[2,0]","101","000","0","","","","","","",""
"","","","","","image-keyboard-response","167","1580035","0.0-142.0","63d86d675509ff61463bddcd","665500ab8938657b03fbdba8","6657926eb08ee19093b53955","734","stimuli/21010000.jpg"," ","","feedback_trial","2","","","","","","","","","","","","","","","","","","","","",""
"","","","","","image-keyboard-response","168","1581668","0.0-143.0","63d86d675509ff61463bddcd","665500ab8938657b03fbdba8","6657926eb08ee19093b53955","1631","stimuli/0111011.jpg","0","","prediction_trial","0","","true","","0","true","true","false","false","false","false","[0,2,1]","111","011","1","","","","","","",""
"","","","","","image-keyboard-response","169","1582244","0.0-144.0","63d86d675509ff61463bddcd","665500ab8938657b03fbdba8","6657926eb08ee19093b53955","574","stimuli/01110110.jpg"," ","","feedback_trial","0","","","","","","","","","","","","","","","","","","","","",""
"","","","","","image-keyboard-response","170","1583293","0.0-145.0","63d86d675509ff61463bddcd","665500ab8938657b03fbdba8","6657926eb08ee19093b53955","1048","stimuli/1100001.jpg","1","","prediction_trial","1","","true","","1","true","true","true","true","true","true","[1]","100","001","1","","","","","","",""
"","","","","","image-keyboard-response","171","1583743","0.0-146.0","63d86d675509ff61463bddcd","665500ab8938657b03fbdba8","6657926eb08ee19093b53955","448","stimuli/11000011.jpg"," ","","feedback_trial","1","","","","","","","","","","","","","","","","","","","","",""
"","","","","","image-keyboard-response","172","1588225","0.0-147.0","63d86d675509ff61463bddcd","665500ab8938657b03fbdba8","6657926eb08ee19093b53955","4481","stimuli/0011001.jpg","0","","prediction_trial","0","","true","","0","true","true","true","true","true","true","[0]","011","001","1","","","","","","",""
"","","","","","image-keyboard-response","173","1589011","0.0-148.0","63d86d675509ff61463bddcd","665500ab8938657b03fbdba8","6657926eb08ee19093b53955","784","stimuli/00110010.jpg"," ","","feedback_trial","0","","","","","","","","","","","","","","","","","","","","",""
"","","","","","image-keyboard-response","174","1591495","0.0-149.0","63d86d675509ff61463bddcd","665500ab8938657b03fbdba8","6657926eb08ee19093b53955","2483","stimuli/0000100.jpg","0","","prediction_trial","0","","true","","0","false","true","true","true","false","true","[0]","000","100","1","","","","","","",""
"","","","","","image-keyboard-response","175","1600315","0.0-150.0","63d86d675509ff61463bddcd","665500ab8938657b03fbdba8","6657926eb08ee19093b53955","8818","stimuli/00001000.jpg"," ","","feedback_trial","0","","","","","","","","","","","","","","","","","","","","",""
"","","","","","image-keyboard-response","176","1601209","0.0-151.0","63d86d675509ff61463bddcd","665500ab8938657b03fbdba8","6657926eb08ee19093b53955","892","stimuli/2001110.jpg","2","","prediction_trial","2","","true","","2","true","true","false","true","false","true","[2]","001","110","1","","","","","","",""
"","","","","","image-keyboard-response","177","1601846","0.0-152.0","63d86d675509ff61463bddcd","665500ab8938657b03fbdba8","6657926eb08ee19093b53955","635","stimuli/20011102.jpg"," ","","feedback_trial","2","","","","","","","","","","","","","","","","","","","","",""
"","","","","","image-keyboard-response","178","1604484","0.0-153.0","63d86d675509ff61463bddcd","665500ab8938657b03fbdba8","6657926eb08ee19093b53955","2637","stimuli/1010111.jpg","0","","prediction_trial","1","","false","","1","false","false","false","true","false","false","[1]","010","111","0","","","","","","",""
"","","","","","image-keyboard-response","179","1605188","0.0-154.0","63d86d675509ff61463bddcd","665500ab8938657b03fbdba8","6657926eb08ee19093b53955","702","stimuli/10101111.jpg"," ","","feedback_trial","1","","","","","","","","","","","","","","","","","","","","",""
"","","","","","image-keyboard-response","180","1607288","0.0-155.0","63d86d675509ff61463bddcd","665500ab8938657b03fbdba8","6657926eb08ee19093b53955","2099","stimuli/1001011.jpg","1","","prediction_trial","1","","true","","1","false","false","true","true","false","false","[1]","001","011","1","","","","","","",""
"","","","","","image-keyboard-response","181","1607901","0.0-156.0","63d86d675509ff61463bddcd","665500ab8938657b03fbdba8","6657926eb08ee19093b53955","611","stimuli/10010111.jpg"," ","","feedback_trial","1","","","","","","","","","","","","","","","","","","","","",""
"","","","","","image-keyboard-response","182","1608912","0.0-157.0","63d86d675509ff61463bddcd","665500ab8938657b03fbdba8","6657926eb08ee19093b53955","1009","stimuli/0011000.jpg","0","","prediction_trial","0","","true","","0","true","true","true","true","true","true","[0]","011","000","1","","","","","","",""
"","","","","","image-keyboard-response","183","1609345","0.0-158.0","63d86d675509ff61463bddcd","665500ab8938657b03fbdba8","6657926eb08ee19093b53955","432","stimuli/00110000.jpg"," ","","feedback_trial","0","","","","","","","","","","","","","","","","","","","","",""
"","","","","","image-keyboard-response","184","1610969","0.0-159.0","63d86d675509ff61463bddcd","665500ab8938657b03fbdba8","6657926eb08ee19093b53955","1622","stimuli/2011111.jpg","0","","prediction_trial","1","","false","","2","false","false","false","false","false","false","[2,1]","011","111","0","","","","","","",""
"","","","","","image-keyboard-response","185","1611558","0.0-160.0","63d86d675509ff61463bddcd","665500ab8938657b03fbdba8","6657926eb08ee19093b53955","587","stimuli/20111111.jpg"," ","","feedback_trial","2","","","","","","","","","","","","","","","","","","","","",""
"","","","","","image-keyboard-response","186","1612824","0.0-161.0","63d86d675509ff61463bddcd","665500ab8938657b03fbdba8","6657926eb08ee19093b53955","1264","stimuli/0001110.jpg","1","","prediction_trial","0","","false","","0","false","false","true","true","false","false","[0]","001","110","0","","","","","","",""
"","","","","","image-keyboard-response","187","1613410","0.0-162.0","63d86d675509ff61463bddcd","665500ab8938657b03fbdba8","6657926eb08ee19093b53955","583","stimuli/00011100.jpg"," ","","feedback_trial","0","","","","","","","","","","","","","","","","","","","","",""
"","","","","","image-keyboard-response","188","1615311","0.0-163.0","63d86d675509ff61463bddcd","665500ab8938657b03fbdba8","6657926eb08ee19093b53955","1899","stimuli/0100101.jpg","2","","prediction_trial","0","","false","","0","false","false","false","true","false","false","[0]","100","101","0","","","","","","",""
"","","","","","image-keyboard-response","189","1616057","0.0-164.0","63d86d675509ff61463bddcd","665500ab8938657b03fbdba8","6657926eb08ee19093b53955","745","stimuli/01001010.jpg"," ","","feedback_trial","0","","","","","","","","","","","","","","","","","","","","",""
"","","","","","image-keyboard-response","190","1617622","0.0-165.0","63d86d675509ff61463bddcd","665500ab8938657b03fbdba8","6657926eb08ee19093b53955","1563","stimuli/0111111.jpg","2","","prediction_trial","2","","true","","0","false","false","false","false","false","false","[0,1,2]","111","111","1","","","","","","",""
"","","","","","image-keyboard-response","191","1618391","0.0-166.0","63d86d675509ff61463bddcd","665500ab8938657b03fbdba8","6657926eb08ee19093b53955","766","stimuli/01111112.jpg"," ","","feedback_trial","0","","","","","","","","","","","","","","","","","","","","",""
"","","","","","image-keyboard-response","192","1620031","0.0-167.0","63d86d675509ff61463bddcd","665500ab8938657b03fbdba8","6657926eb08ee19093b53955","1638","stimuli/0010110.jpg","0","","prediction_trial","0","","true","","0","false","false","true","true","false","false","[0]","010","110","1","","","","","","",""
"","","","","","image-keyboard-response","193","1620681","0.0-168.0","63d86d675509ff61463bddcd","665500ab8938657b03fbdba8","6657926eb08ee19093b53955","649","stimuli/00101100.jpg"," ","","feedback_trial","0","","","","","","","","","","","","","","","","","","","","",""
"","","","","","image-keyboard-response","194","1622595","0.0-169.0","63d86d675509ff61463bddcd","665500ab8938657b03fbdba8","6657926eb08ee19093b53955","1912","stimuli/0001100.jpg","0","","prediction_trial","0","","true","","0","false","true","true","true","false","true","[0]","001","100","1","","","","","","",""
"","","","","","image-keyboard-response","195","1623220","0.0-170.0","63d86d675509ff61463bddcd","665500ab8938657b03fbdba8","6657926eb08ee19093b53955","624","stimuli/00011000.jpg"," ","","feedback_trial","0","","","","","","","","","","","","","","","","","","","","",""
"","","","","","image-keyboard-response","196","1625389","0.0-171.0","63d86d675509ff61463bddcd","665500ab8938657b03fbdba8","6657926eb08ee19093b53955","2166","stimuli/1000011.jpg","1","","prediction_trial","1","","true","","1","false","false","true","true","false","false","[1]","000","011","1","","","","","","",""
"","","","","","image-keyboard-response","197","1625996","0.0-172.0","63d86d675509ff61463bddcd","665500ab8938657b03fbdba8","6657926eb08ee19093b53955","605","stimuli/10000111.jpg"," ","","feedback_trial","1","","","","","","","","","","","","","","","","","","","","",""
"","","","","","image-keyboard-response","198","1626884","0.0-173.0","63d86d675509ff61463bddcd","665500ab8938657b03fbdba8","6657926eb08ee19093b53955","886","stimuli/2010110.jpg","2","","prediction_trial","2","","true","","2","true","true","true","true","true","true","[2]","010","110","1","","","","","","",""
"","","","","","image-keyboard-response","199","1627527","0.0-174.0","63d86d675509ff61463bddcd","665500ab8938657b03fbdba8","6657926eb08ee19093b53955","641","stimuli/20101102.jpg"," ","","feedback_trial","2","","","","","","","","","","","","","","","","","","","","",""
"","","","","","image-keyboard-response","200","1629446","0.0-175.0","63d86d675509ff61463bddcd","665500ab8938657b03fbdba8","6657926eb08ee19093b53955","1917","stimuli/1101010.jpg","1","","prediction_trial","1","","true","","1","false","true","true","true","false","true","[1]","101","010","1","","","","","","",""
"","","","","","image-keyboard-response","201","1629950","0.0-176.0","63d86d675509ff61463bddcd","665500ab8938657b03fbdba8","6657926eb08ee19093b53955","503","stimuli/11010101.jpg"," ","","feedback_trial","1","","","","","","","","","","","","","","","","","","","","",""
"","","","","","image-keyboard-response","202","1632042","0.0-177.0","63d86d675509ff61463bddcd","665500ab8938657b03fbdba8","6657926eb08ee19093b53955","2089","stimuli/1111110.jpg","1","","prediction_trial","2","","false","","1","false","false","false","false","false","false","[0,1,2]","111","110","0","","","","","","",""
"","","","","","image-keyboard-response","203","1632776","0.0-178.0","63d86d675509ff61463bddcd","665500ab8938657b03fbdba8","6657926eb08ee19093b53955","732","stimuli/11111102.jpg"," ","","feedback_trial","0","","","","","","","","","","","","","","","","","","","","",""
"","","","","","image-keyboard-response","204","1633899","0.0-179.0","63d86d675509ff61463bddcd","665500ab8938657b03fbdba8","6657926eb08ee19093b53955","1121","stimuli/2000001.jpg","2","","prediction_trial","2","","true","","2","false","true","true","true","false","true","[2]","000","001","1","","","","","","",""
"","","","","","image-keyboard-response","205","1634501","0.0-180.0","63d86d675509ff61463bddcd","665500ab8938657b03fbdba8","6657926eb08ee19093b53955","600","stimuli/20000012.jpg"," ","","feedback_trial","2","","","","","","","","","","","","","","","","","","","","",""
"","","","","","image-keyboard-response","206","1635344","0.0-181.0","63d86d675509ff61463bddcd","665500ab8938657b03fbdba8","6657926eb08ee19093b53955","841","stimuli/2111010.jpg","2","","prediction_trial","1","","false","","2","true","true","false","false","false","false","[0,1,2]","111","010","0","","","","","","",""
"","","","","","image-keyboard-response","207","1636932","0.0-182.0","63d86d675509ff61463bddcd","665500ab8938657b03fbdba8","6657926eb08ee19093b53955","1585","stimuli/21110101.jpg"," ","","feedback_trial","0","","","","","","","","","","","","","","","","","","","","",""
"","","","","","image-keyboard-response","208","1638510","0.0-183.0","63d86d675509ff61463bddcd","665500ab8938657b03fbdba8","6657926eb08ee19093b53955","1577","stimuli/2110101.jpg","2","","prediction_trial","2","","true","","2","false","false","true","true","false","false","[2]","110","101","1","","","","","","",""
"","","","","","image-keyboard-response","209","1639192","0.0-184.0","63d86d675509ff61463bddcd","665500ab8938657b03fbdba8","6657926eb08ee19093b53955","680","stimuli/21101012.jpg"," ","","feedback_trial","2","","","","","","","","","","","","","","","","","","","","",""
"","","","","","image-keyboard-response","210","1639967","0.0-185.0","63d86d675509ff61463bddcd","665500ab8938657b03fbdba8","6657926eb08ee19093b53955","774","stimuli/2000100.jpg","2","","prediction_trial","2","","true","","2","true","true","true","true","true","true","[2]","000","100","1","","","","","","",""
"","","","","","image-keyboard-response","211","1640507","0.0-186.0","63d86d675509ff61463bddcd","665500ab8938657b03fbdba8","6657926eb08ee19093b53955","538","stimuli/20001002.jpg"," ","","feedback_trial","2","","","","","","","","","","","","","","","","","","","","",""
"","","","","","image-keyboard-response","212","1641854","0.0-187.0","63d86d675509ff61463bddcd","665500ab8938657b03fbdba8","6657926eb08ee19093b53955","1345","stimuli/0010100.jpg","0","","prediction_trial","0","","true","","0","false","true","true","true","false","true","[0]","010","100","1","","","","","","",""
"","","","","","image-keyboard-response","213","1642345","0.0-188.0","63d86d675509ff61463bddcd","665500ab8938657b03fbdba8","6657926eb08ee19093b53955","490","stimuli/00101000.jpg"," ","","feedback_trial","0","","","","","","","","","","","","","","","","","","","","",""
"","","","","","image-keyboard-response","214","1645431","0.0-189.0","63d86d675509ff61463bddcd","665500ab8938657b03fbdba8","6657926eb08ee19093b53955","3083","stimuli/0011101.jpg","0","","prediction_trial","0","","true","","0","false","false","true","true","false","false","[0]","011","101","1","","","","","","",""
"","","","","","image-keyboard-response","215","1646019","0.0-190.0","63d86d675509ff61463bddcd","665500ab8938657b03fbdba8","6657926eb08ee19093b53955","586","stimuli/00111010.jpg"," ","","feedback_trial","0","","","","","","","","","","","","","","","","","","","","",""
"","","","","","image-keyboard-response","216","1648099","0.0-191.0","63d86d675509ff61463bddcd","665500ab8938657b03fbdba8","6657926eb08ee19093b53955","2078","stimuli/2001111.jpg","0","","prediction_trial","2","","false","","2","false","false","false","true","false","false","[2]","001","111","0","","","","","","",""
"","","","","","image-keyboard-response","217","1648782","0.0-192.0","63d86d675509ff61463bddcd","665500ab8938657b03fbdba8","6657926eb08ee19093b53955","681","stimuli/20011112.jpg"," ","","feedback_trial","2","","","","","","","","","","","","","","","","","","","","",""
"","","","","","image-keyboard-response","218","1651570","0.0-193.0","63d86d675509ff61463bddcd","665500ab8938657b03fbdba8","6657926eb08ee19093b53955","2787","stimuli/2101010.jpg","1","","prediction_trial","2","","false","","2","true","true","false","false","false","false","[2,0]","101","010","0","","","","","","",""
"","","","","","image-keyboard-response","219","1652351","0.0-194.0","63d86d675509ff61463bddcd","665500ab8938657b03fbdba8","6657926eb08ee19093b53955","778","stimuli/21010102.jpg"," ","","feedback_trial","2","","","","","","","","","","","","","","","","","","","","",""
"","","","","","image-keyboard-response","220","1653746","0.0-195.0","63d86d675509ff61463bddcd","665500ab8938657b03fbdba8","6657926eb08ee19093b53955","1394","stimuli/2100101.jpg","2","","prediction_trial","2","","true","","2","false","false","true","true","false","false","[2]","100","101","1","","","","","","",""
"","","","","","image-keyboard-response","221","1654297","0.0-196.0","63d86d675509ff61463bddcd","665500ab8938657b03fbdba8","6657926eb08ee19093b53955","549","stimuli/21001012.jpg"," ","","feedback_trial","2","","","","","","","","","","","","","","","","","","","","",""
"","","","","","image-keyboard-response","222","1655500","0.0-197.0","63d86d675509ff61463bddcd","665500ab8938657b03fbdba8","6657926eb08ee19093b53955","1203","stimuli/2101100.jpg","2","","prediction_trial","0","","false","","2","true","true","false","false","false","false","[0,2]","101","100","0","","","","","","",""
"","","","","","image-keyboard-response","223","1656285","0.0-198.0","63d86d675509ff61463bddcd","665500ab8938657b03fbdba8","6657926eb08ee19093b53955","782","stimuli/21011000.jpg"," ","","feedback_trial","0","","","","","","","","","","","","","","","","","","","","",""
"","","","","","image-keyboard-response","224","1658180","0.0-199.0","63d86d675509ff61463bddcd","665500ab8938657b03fbdba8","6657926eb08ee19093b53955","1893","stimuli/1111010.jpg","1","","prediction_trial","2","","false","","1","false","true","false","false","false","false","[0,2,1]","111","010","0","","","","","","",""
"","","","","","image-keyboard-response","225","1658774","0.0-200.0","63d86d675509ff61463bddcd","665500ab8938657b03fbdba8","6657926eb08ee19093b53955","593","stimuli/11110102.jpg"," ","","feedback_trial","0","","","","","","","","","","","","","","","","","","","","",""
"","","","","","image-keyboard-response","226","1660374","0.0-201.0","63d86d675509ff61463bddcd","665500ab8938657b03fbdba8","6657926eb08ee19093b53955","1598","stimuli/1110101.jpg","1","","prediction_trial","1","","true","","1","true","true","false","false","false","false","[1,0]","110","101","1","","","","","","",""
"","","","","","image-keyboard-response","227","1660964","0.0-202.0","63d86d675509ff61463bddcd","665500ab8938657b03fbdba8","6657926eb08ee19093b53955","589","stimuli/11101011.jpg"," ","","feedback_trial","1","","","","","","","","","","","","","","","","","","","","",""
"","","","","","image-keyboard-response","228","1662063","0.0-203.0","63d86d675509ff61463bddcd","665500ab8938657b03fbdba8","6657926eb08ee19093b53955","1097","stimuli/2111000.jpg","2","","prediction_trial","1","","false","","2","true","true","false","false","false","false","[2,1,0]","111","000","0","","","","","","",""
"","","","","","image-keyboard-response","229","1662761","0.0-204.0","63d86d675509ff61463bddcd","665500ab8938657b03fbdba8","6657926eb08ee19093b53955","696","stimuli/21110001.jpg"," ","","feedback_trial","2","","","","","","","","","","","","","","","","","","","","",""
"","","","","","image-keyboard-response","230","1664276","0.0-205.0","63d86d675509ff61463bddcd","665500ab8938657b03fbdba8","6657926eb08ee19093b53955","1513","stimuli/1110011.jpg","2","","prediction_trial","1","","false","","1","false","false","false","false","false","false","[1,0]","110","011","0","","","","","","",""
"","","","","","image-keyboard-response","231","1665048","0.0-206.0","63d86d675509ff61463bddcd","665500ab8938657b03fbdba8","6657926eb08ee19093b53955","770","stimuli/11100111.jpg"," ","","feedback_trial","1","","","","","","","","","","","","","","","","","","","","",""
"","","","","","image-keyboard-response","232","1666621","0.0-207.0","63d86d675509ff61463bddcd","665500ab8938657b03fbdba8","6657926eb08ee19093b53955","1571","stimuli/0100110.jpg","1","","prediction_trial","0","","false","","0","false","false","false","true","false","false","[0]","100","110","0","","","","","","",""
"","","","","","image-keyboard-response","233","1667326","0.0-208.0","63d86d675509ff61463bddcd","665500ab8938657b03fbdba8","6657926eb08ee19093b53955","703","stimuli/01001100.jpg"," ","","feedback_trial","0","","","","","","","","","","","","","","","","","","","","",""
"","","","","","image-keyboard-response","234","1668301","0.0-209.0","63d86d675509ff61463bddcd","665500ab8938657b03fbdba8","6657926eb08ee19093b53955","974","stimuli/2011110.jpg","2","","prediction_trial","1","","false","","2","true","true","false","false","false","false","[1,2]","011","110","0","","","","","","",""
"","","","","","image-keyboard-response","235","1669034","0.0-210.0","63d86d675509ff61463bddcd","665500ab8938657b03fbdba8","6657926eb08ee19093b53955","732","stimuli/20111101.jpg"," ","","feedback_trial","1","","","","","","","","","","","","","","","","","","","","",""
"","","","","","image-keyboard-response","236","1670370","0.0-211.0","63d86d675509ff61463bddcd","665500ab8938657b03fbdba8","6657926eb08ee19093b53955","1334","stimuli/0100111.jpg","0","","prediction_trial","0","","true","","0","false","false","false","true","false","false","[0]","100","111","1","","","","","","",""
"","","","","","image-keyboard-response","237","1671077","0.0-212.0","63d86d675509ff61463bddcd","665500ab8938657b03fbdba8","6657926eb08ee19093b53955","705","stimuli/01001110.jpg"," ","","feedback_trial","0","","","","","","","","","","","","","","","","","","","","",""
"","","","","","image-keyboard-response","238","1672577","0.0-213.0","63d86d675509ff61463bddcd","665500ab8938657b03fbdba8","6657926eb08ee19093b53955","1499","stimuli/1000010.jpg","1","","prediction_trial","1","","true","","1","false","true","true","true","false","true","[1]","000","010","1","","","","","","",""
"","","","","","image-keyboard-response","239","1673190","0.0-214.0","63d86d675509ff61463bddcd","665500ab8938657b03fbdba8","6657926eb08ee19093b53955","612","stimuli/10000101.jpg"," ","","feedback_trial","1","","","","","","","","","","","","","","","","","","","","",""
"","","","","","image-keyboard-response","240","1674514","0.0-215.0","63d86d675509ff61463bddcd","665500ab8938657b03fbdba8","6657926eb08ee19093b53955","1323","stimuli/0110011.jpg","0","","prediction_trial","0","","true","","0","true","true","false","false","false","false","[1,0]","110","011","1","","","","","","",""
"","","","","","image-keyboard-response","241","1674994","0.0-216.0","63d86d675509ff61463bddcd","665500ab8938657b03fbdba8","6657926eb08ee19093b53955","478","stimuli/01100110.jpg"," ","","feedback_trial","1","","","","","","","","","","","","","","","","","","","","",""
"","","","","","image-keyboard-response","242","1676176","0.0-217.0","63d86d675509ff61463bddcd","665500ab8938657b03fbdba8","6657926eb08ee19093b53955","1179","stimuli/0010011.jpg","0","","prediction_trial","0","","true","","0","true","true","true","true","true","true","[0]","010","011","1","","","","","","",""
"","","","","","image-keyboard-response","243","1676607","0.0-218.0","63d86d675509ff61463bddcd","665500ab8938657b03fbdba8","6657926eb08ee19093b53955","429","stimuli/00100110.jpg"," ","","feedback_trial","0","","","","","","","","","","","","","","","","","","","","",""
"","","","","","image-keyboard-response","244","1678480","0.0-219.0","63d86d675509ff61463bddcd","665500ab8938657b03fbdba8","6657926eb08ee19093b53955","1871","stimuli/2111100.jpg","1","","prediction_trial","0","","false","","2","true","true","false","false","false","false","[2,0,1]","111","100","0","","","","","","",""
"","","","","","image-keyboard-response","245","1679071","0.0-220.0","63d86d675509ff61463bddcd","665500ab8938657b03fbdba8","6657926eb08ee19093b53955","589","stimuli/21111000.jpg"," ","","feedback_trial","2","","","","","","","","","","","","","","","","","","","","",""
"","","","","","image-keyboard-response","246","1680155","0.0-221.0","63d86d675509ff61463bddcd","665500ab8938657b03fbdba8","6657926eb08ee19093b53955","1082","stimuli/2100001.jpg","2","","prediction_trial","2","","true","","2","false","true","true","true","false","true","[2]","100","001","1","","","","","","",""
"","","","","","image-keyboard-response","247","1680748","0.0-222.0","63d86d675509ff61463bddcd","665500ab8938657b03fbdba8","6657926eb08ee19093b53955","592","stimuli/21000012.jpg"," ","","feedback_trial","2","","","","","","","","","","","","","","","","","","","","",""
"","","","","","image-keyboard-response","248","1681673","0.0-223.0","63d86d675509ff61463bddcd","665500ab8938657b03fbdba8","6657926eb08ee19093b53955","923","stimuli/0011010.jpg","0","","prediction_trial","0","","true","","0","true","true","true","true","true","true","[0]","011","010","1","","","","","","",""
"","","","","","image-keyboard-response","249","1682159","0.0-224.0","63d86d675509ff61463bddcd","665500ab8938657b03fbdba8","6657926eb08ee19093b53955","486","stimuli/00110100.jpg"," ","","feedback_trial","0","","","","","","","","","","","","","","","","","","","","",""
"","","","","","image-keyboard-response","250","1682871","0.0-225.0","63d86d675509ff61463bddcd","665500ab8938657b03fbdba8","6657926eb08ee19093b53955","710","stimuli/1010011.jpg","2","","prediction_trial","1","","false","","1","false","false","false","true","false","false","[1]","010","011","0","","","","","","",""
"","","","","","image-keyboard-response","251","1683728","0.0-226.0","63d86d675509ff61463bddcd","665500ab8938657b03fbdba8","6657926eb08ee19093b53955","856","stimuli/10100111.jpg"," ","","feedback_trial","1","","","","","","","","","","","","","","","","","","","","",""
"","","","","","image-keyboard-response","252","1685037","0.0-227.0","63d86d675509ff61463bddcd","665500ab8938657b03fbdba8","6657926eb08ee19093b53955","1308","stimuli/1001110.jpg","1","","prediction_trial","1","","true","","1","false","false","true","true","false","false","[1]","001","110","1","","","","","","",""
"","","","","","image-keyboard-response","253","1685468","0.0-228.0","63d86d675509ff61463bddcd","665500ab8938657b03fbdba8","6657926eb08ee19093b53955","428","stimuli/10011101.jpg"," ","","feedback_trial","1","","","","","","","","","","","","","","","","","","","","",""
"","","","","","image-keyboard-response","254","1686421","0.0-229.0","63d86d675509ff61463bddcd","665500ab8938657b03fbdba8","6657926eb08ee19093b53955","951","stimuli/1011101.jpg","1","","prediction_trial","1","","true","","1","true","true","false","false","false","false","[1,2]","011","101","1","","","","","","",""
"","","","","","image-keyboard-response","255","1686847","0.0-230.0","63d86d675509ff61463bddcd","665500ab8938657b03fbdba8","6657926eb08ee19093b53955","424","stimuli/10111011.jpg"," ","","feedback_trial","1","","","","","","","","","","","","","","","","","","","","",""
"","","","","","image-keyboard-response","256","1688088","0.0-231.0","63d86d675509ff61463bddcd","665500ab8938657b03fbdba8","6657926eb08ee19093b53955","1238","stimuli/1010010.jpg","1","","prediction_trial","1","","true","","1","false","true","false","true","false","true","[1]","010","010","1","","","","","","",""
"","","","","","image-keyboard-response","257","1688582","0.0-232.0","63d86d675509ff61463bddcd","665500ab8938657b03fbdba8","6657926eb08ee19093b53955","492","stimuli/10100101.jpg"," ","","feedback_trial","1","","","","","","","","","","","","","","","","","","","","",""
"","","","","","image-keyboard-response","258","1692320","0.0-233.0","63d86d675509ff61463bddcd","665500ab8938657b03fbdba8","6657926eb08ee19093b53955","3736","stimuli/2110011.jpg","2","","prediction_trial","2","","true","","2","false","false","true","true","false","false","[2]","110","011","1","","","","","","",""
"","","","","","image-keyboard-response","259","1692977","0.0-234.0","63d86d675509ff61463bddcd","665500ab8938657b03fbdba8","6657926eb08ee19093b53955","655","stimuli/21100112.jpg"," ","","feedback_trial","2","","","","","","","","","","","","","","","","","","","","",""
"","","","","","image-keyboard-response","260","1696348","0.0-235.0","63d86d675509ff61463bddcd","665500ab8938657b03fbdba8","6657926eb08ee19093b53955","3368","stimuli/1010110.jpg","0","","prediction_trial","1","","false","","1","false","false","false","true","false","false","[1]","010","110","0","","","","","","",""
"","","","","","image-keyboard-response","261","1696929","0.0-236.0","63d86d675509ff61463bddcd","665500ab8938657b03fbdba8","6657926eb08ee19093b53955","579","stimuli/10101101.jpg"," ","","feedback_trial","1","","","","","","","","","","","","","","","","","","","","",""
"","","","","","image-keyboard-response","262","1698604","0.0-237.0","63d86d675509ff61463bddcd","665500ab8938657b03fbdba8","6657926eb08ee19093b53955","1673","stimuli/1011111.jpg","0","","prediction_trial","2","","false","","1","false","false","false","false","false","false","[1,2]","011","111","0","","","","","","",""
"","","","","","image-keyboard-response","263","1699306","0.0-238.0","63d86d675509ff61463bddcd","665500ab8938657b03fbdba8","6657926eb08ee19093b53955","702","stimuli/10111112.jpg"," ","","feedback_trial","1","","","","","","","","","","","","","","","","","","","","",""
"","","","","","image-keyboard-response","264","1700941","0.0-239.0","63d86d675509ff61463bddcd","665500ab8938657b03fbdba8","6657926eb08ee19093b53955","1632","stimuli/2001001.jpg","2","","prediction_trial","2","","true","","2","false","true","false","true","false","true","[2]","001","001","1","","","","","","",""
"","","","","","image-keyboard-response","265","1701532","0.0-240.0","63d86d675509ff61463bddcd","665500ab8938657b03fbdba8","6657926eb08ee19093b53955","590","stimuli/20010012.jpg"," ","","feedback_trial","2","","","","","","","","","","","","","","","","","","","","",""
"","","","","","image-keyboard-response","266","1704324","0.0-241.0","63d86d675509ff61463bddcd","665500ab8938657b03fbdba8","6657926eb08ee19093b53955","2789","stimuli/0110010.jpg","0","","prediction_trial","1","","false","","0","true","true","false","false","false","false","[0,1]","110","010","0","","","","","","",""
"","","","","","image-keyboard-response","267","1704851","0.0-242.0","63d86d675509ff61463bddcd","665500ab8938657b03fbdba8","6657926eb08ee19093b53955","525","stimuli/01100101.jpg"," ","","feedback_trial","0","","","","","","","","","","","","","","","","","","","","",""
"","","","","","image-keyboard-response","268","1705897","0.0-243.0","63d86d675509ff61463bddcd","665500ab8938657b03fbdba8","6657926eb08ee19093b53955","1044","stimuli/1010000.jpg","1","","prediction_trial","1","","true","","1","true","true","false","true","false","true","[1]","010","000","1","","","","","","",""
"","","","","","image-keyboard-response","269","1706440","0.0-244.0","63d86d675509ff61463bddcd","665500ab8938657b03fbdba8","6657926eb08ee19093b53955","542","stimuli/10100001.jpg"," ","","feedback_trial","1","","","","","","","","","","","","","","","","","","","","",""
"","","","","","image-keyboard-response","270","1707939","0.0-245.0","63d86d675509ff61463bddcd","665500ab8938657b03fbdba8","6657926eb08ee19093b53955","1497","stimuli/2001000.jpg","2","","prediction_trial","2","","true","","2","true","true","false","true","false","true","[2]","001","000","1","","","","","","",""
"","","","","","image-keyboard-response","271","1708401","0.0-246.0","63d86d675509ff61463bddcd","665500ab8938657b03fbdba8","6657926eb08ee19093b53955","460","stimuli/20010002.jpg"," ","","feedback_trial","2","","","","","","","","","","","","","","","","","","","","",""
"","","","","","image-keyboard-response","272","1709859","0.0-247.0","63d86d675509ff61463bddcd","665500ab8938657b03fbdba8","6657926eb08ee19093b53955","1456","stimuli/0101111.jpg","1","","prediction_trial","2","","false","","0","false","false","false","false","false","false","[0,2]","101","111","0","","","","","","",""
"","","","","","image-keyboard-response","273","1710394","0.0-248.0","63d86d675509ff61463bddcd","665500ab8938657b03fbdba8","6657926eb08ee19093b53955","532","stimuli/01011112.jpg"," ","","feedback_trial","0","","","","","","","","","","","","","","","","","","","","",""
"","","","","","image-keyboard-response","274","1711604","0.0-249.0","63d86d675509ff61463bddcd","665500ab8938657b03fbdba8","6657926eb08ee19093b53955","1208","stimuli/2101011.jpg","2","","prediction_trial","2","","true","","2","false","false","false","false","false","false","[0,2]","101","011","1","","","","","","",""
"","","","","","image-keyboard-response","275","1712188","0.0-250.0","63d86d675509ff61463bddcd","665500ab8938657b03fbdba8","6657926eb08ee19093b53955","583","stimuli/21010112.jpg"," ","","feedback_trial","0","","","","","","","","","","","","","","","","","","","","",""
"","","","","","image-keyboard-response","276","1713143","0.0-251.0","63d86d675509ff61463bddcd","665500ab8938657b03fbdba8","6657926eb08ee19093b53955","953","stimuli/0010001.jpg","0","","prediction_trial","0","","true","","0","true","true","true","true","true","true","[0]","010","001","1","","","","","","",""
"","","","","","image-keyboard-response","277","1713655","0.0-252.0","63d86d675509ff61463bddcd","665500ab8938657b03fbdba8","6657926eb08ee19093b53955","510","stimuli/00100010.jpg"," ","","feedback_trial","0","","","","","","","","","","","","","","","","","","","","",""
"","","","","","image-keyboard-response","278","1714377","0.0-253.0","63d86d675509ff61463bddcd","665500ab8938657b03fbdba8","6657926eb08ee19093b53955","721","stimuli/2010100.jpg","2","","prediction_trial","2","","true","","2","true","true","true","true","true","true","[2]","010","100","1","","","","","","",""
"","","","","","image-keyboard-response","279","1714987","0.0-254.0","63d86d675509ff61463bddcd","665500ab8938657b03fbdba8","6657926eb08ee19093b53955","608","stimuli/20101002.jpg"," ","","feedback_trial","2","","","","","","","","","","","","","","","","","","","","",""
"","","","","","image-keyboard-response","280","1716008","0.0-255.0","63d86d675509ff61463bddcd","665500ab8938657b03fbdba8","6657926eb08ee19093b53955","1019","stimuli/2000010.jpg","2","","prediction_trial","2","","true","","2","true","true","true","true","true","true","[2]","000","010","1","","","","","","",""
"","","","","","image-keyboard-response","281","1716830","0.0-256.0","63d86d675509ff61463bddcd","665500ab8938657b03fbdba8","6657926eb08ee19093b53955","821","stimuli/20000102.jpg"," ","","feedback_trial","2","","","","","","","","","","","","","","","","","","","","",""
"","","","","","image-keyboard-response","282","1724822","0.0-257.0","63d86d675509ff61463bddcd","665500ab8938657b03fbdba8","6657926eb08ee19093b53955","7990","stimuli/2111101.jpg","2","","prediction_trial","1","","false","","2","false","false","false","false","false","false","[0,2,1]","111","101","0","","","","","","",""
"","","","","","image-keyboard-response","283","1725598","0.0-258.0","63d86d675509ff61463bddcd","665500ab8938657b03fbdba8","6657926eb08ee19093b53955","775","stimuli/21111011.jpg"," ","","feedback_trial","0","","","","","","","","","","","","","","","","","","","","",""
"","","","","","image-keyboard-response","284","1726588","0.0-259.0","63d86d675509ff61463bddcd","665500ab8938657b03fbdba8","6657926eb08ee19093b53955","989","stimuli/0011100.jpg","0","","prediction_trial","0","","true","","0","false","true","true","true","false","true","[0]","011","100","1","","","","","","",""
"","","","","","image-keyboard-response","285","1727004","0.0-260.0","63d86d675509ff61463bddcd","665500ab8938657b03fbdba8","6657926eb08ee19093b53955","414","stimuli/00111000.jpg"," ","","feedback_trial","0","","","","","","","","","","","","","","","","","","","","",""
"","","","","","image-keyboard-response","286","1727646","0.0-261.0","63d86d675509ff61463bddcd","665500ab8938657b03fbdba8","6657926eb08ee19093b53955","642","stimuli/2001100.jpg","2","","prediction_trial","2","","true","","2","true","true","false","true","false","true","[2]","001","100","1","","","","","","",""
"","","","","","image-keyboard-response","287","1728048","0.0-262.0","63d86d675509ff61463bddcd","665500ab8938657b03fbdba8","6657926eb08ee19093b53955","400","stimuli/20011002.jpg"," ","","feedback_trial","2","","","","","","","","","","","","","","","","","","","","",""
"","","","","","image-keyboard-response","288","1729148","0.0-263.0","63d86d675509ff61463bddcd","665500ab8938657b03fbdba8","6657926eb08ee19093b53955","1098","stimuli/0110110.jpg","0","","prediction_trial","1","","false","","0","false","false","false","false","false","false","[0,1]","110","110","0","","","","","","",""
"","","","","","image-keyboard-response","289","1729629","0.0-264.0","63d86d675509ff61463bddcd","665500ab8938657b03fbdba8","6657926eb08ee19093b53955","478","stimuli/01101101.jpg"," ","","feedback_trial","0","","","","","","","","","","","","","","","","","","","","",""
"","","","","","image-keyboard-response","290","1730869","0.0-265.0","63d86d675509ff61463bddcd","665500ab8938657b03fbdba8","6657926eb08ee19093b53955","1238","stimuli/1001010.jpg","1","","prediction_trial","1","","true","","1","false","true","true","true","false","true","[1]","001","010","1","","","","","","",""
"","","","","","image-keyboard-response","291","1731469","0.0-266.0","63d86d675509ff61463bddcd","665500ab8938657b03fbdba8","6657926eb08ee19093b53955","599","stimuli/10010101.jpg"," ","","feedback_trial","1","","","","","","","","","","","","","","","","","","","","",""
"","","","","","image-keyboard-response","292","1732274","0.0-267.0","63d86d675509ff61463bddcd","665500ab8938657b03fbdba8","6657926eb08ee19093b53955","803","stimuli/2011010.jpg","2","","prediction_trial","1","","false","","2","true","true","false","false","false","false","[2,1]","011","010","0","","","","","","",""
"","","","","","image-keyboard-response","293","1732950","0.0-268.0","63d86d675509ff61463bddcd","665500ab8938657b03fbdba8","6657926eb08ee19093b53955","675","stimuli/20110101.jpg"," ","","feedback_trial","2","","","","","","","","","","","","","","","","","","","","",""
"","","","","","image-keyboard-response","294","1734261","0.0-269.0","63d86d675509ff61463bddcd","665500ab8938657b03fbdba8","6657926eb08ee19093b53955","1310","stimuli/2011000.jpg","2","","prediction_trial","1","","false","","2","true","true","false","false","false","false","[2,1]","011","000","0","","","","","","",""
"","","","","","image-keyboard-response","295","1734793","0.0-270.0","63d86d675509ff61463bddcd","665500ab8938657b03fbdba8","6657926eb08ee19093b53955","529","stimuli/20110001.jpg"," ","","feedback_trial","2","","","","","","","","","","","","","","","","","","","","",""
"","","","","","image-keyboard-response","296","1735657","0.0-271.0","63d86d675509ff61463bddcd","665500ab8938657b03fbdba8","6657926eb08ee19093b53955","862","stimuli/0010010.jpg","0","","prediction_trial","0","","true","","0","true","true","true","true","true","true","[0]","010","010","1","","","","","","",""
"","","","","","image-keyboard-response","297","1736061","0.0-272.0","63d86d675509ff61463bddcd","665500ab8938657b03fbdba8","6657926eb08ee19093b53955","402","stimuli/00100100.jpg"," ","","feedback_trial","0","","","","","","","","","","","","","","","","","","","","",""
"","","","","","image-keyboard-response","298","1737111","0.0-273.0","63d86d675509ff61463bddcd","665500ab8938657b03fbdba8","6657926eb08ee19093b53955","1048","stimuli/1100010.jpg","1","","prediction_trial","1","","true","","1","false","true","true","true","false","true","[1]","100","010","1","","","","","","",""
"","","","","","image-keyboard-response","299","1737590","0.0-274.0","63d86d675509ff61463bddcd","665500ab8938657b03fbdba8","6657926eb08ee19093b53955","477","stimuli/11000101.jpg"," ","","feedback_trial","1","","","","","","","","","","","","","","","","","","","","",""
"","","","","","image-keyboard-response","300","1738483","0.0-275.0","63d86d675509ff61463bddcd","665500ab8938657b03fbdba8","6657926eb08ee19093b53955","891","stimuli/0010000.jpg","0","","prediction_trial","0","","true","","0","true","true","true","true","true","true","[0]","010","000","1","","","","","","",""
"","","","","","image-keyboard-response","301","1738956","0.0-276.0","63d86d675509ff61463bddcd","665500ab8938657b03fbdba8","6657926eb08ee19093b53955","471","stimuli/00100000.jpg"," ","","feedback_trial","0","","","","","","","","","","","","","","","","","","","","",""
"","","","","","image-keyboard-response","302","1740124","0.0-277.0","63d86d675509ff61463bddcd","665500ab8938657b03fbdba8","6657926eb08ee19093b53955","1165","stimuli/2101111.jpg","1","","prediction_trial","0","","false","","2","false","false","false","false","false","false","[0,2]","101","111","0","","","","","","",""
"","","","","","image-keyboard-response","303","1741177","0.0-278.0","63d86d675509ff61463bddcd","665500ab8938657b03fbdba8","6657926eb08ee19093b53955","1051","stimuli/21011110.jpg"," ","","feedback_trial","0","","","","","","","","","","","","","","","","","","","","",""
"","","","","","image-keyboard-response","304","1743066","0.0-279.0","63d86d675509ff61463bddcd","665500ab8938657b03fbdba8","6657926eb08ee19093b53955","1887","stimuli/1111011.jpg","1","","prediction_trial","0","","false","","1","false","false","false","false","false","false","[2,1,0]","111","011","0","","","","","","",""
"","","","","","image-keyboard-response","305","1744288","0.0-280.0","63d86d675509ff61463bddcd","665500ab8938657b03fbdba8","6657926eb08ee19093b53955","1220","stimuli/11110110.jpg"," ","","feedback_trial","2","","","","","","","","","","","","","","","","","","","","",""
"","","","","","image-keyboard-response","306","1745132","0.0-281.0","63d86d675509ff61463bddcd","665500ab8938657b03fbdba8","6657926eb08ee19093b53955","842","stimuli/2110111.jpg","2","","prediction_trial","2","","true","","2","false","false","true","true","false","false","[2]","110","111","1","","","","","","",""
"","","","","","image-keyboard-response","307","1745699","0.0-282.0","63d86d675509ff61463bddcd","665500ab8938657b03fbdba8","6657926eb08ee19093b53955","565","stimuli/21101112.jpg"," ","","feedback_trial","2","","","","","","","","","","","","","","","","","","","","",""
"","","","","","image-keyboard-response","308","1746676","0.0-283.0","63d86d675509ff61463bddcd","665500ab8938657b03fbdba8","6657926eb08ee19093b53955","976","stimuli/0110100.jpg","0","","prediction_trial","1","","false","","0","false","true","false","false","false","false","[1,0]","110","100","0","","","","","","",""
"","","","","","image-keyboard-response","309","1747509","0.0-284.0","63d86d675509ff61463bddcd","665500ab8938657b03fbdba8","6657926eb08ee19093b53955","831","stimuli/01101001.jpg"," ","","feedback_trial","1","","","","","","","","","","","","","","","","","","","","",""
"","","","","","image-keyboard-response","310","1748677","0.0-285.0","63d86d675509ff61463bddcd","665500ab8938657b03fbdba8","6657926eb08ee19093b53955","1167","stimuli/1101011.jpg","1","","prediction_trial","1","","true","","1","false","false","true","true","false","false","[1]","101","011","1","","","","","","",""
"","","","","","image-keyboard-response","311","1749172","0.0-286.0","63d86d675509ff61463bddcd","665500ab8938657b03fbdba8","6657926eb08ee19093b53955","493","stimuli/11010111.jpg"," ","","feedback_trial","1","","","","","","","","","","","","","","","","","","","","",""
"","","","","","image-keyboard-response","312","1750267","0.0-287.0","63d86d675509ff61463bddcd","665500ab8938657b03fbdba8","6657926eb08ee19093b53955","1093","stimuli/1011100.jpg","1","","prediction_trial","1","","true","","1","true","true","false","false","false","false","[2,1]","011","100","1","","","","","","",""
"","","","","","image-keyboard-response","313","1750763","0.0-288.0","63d86d675509ff61463bddcd","665500ab8938657b03fbdba8","6657926eb08ee19093b53955","495","stimuli/10111001.jpg"," ","","feedback_trial","2","","","","","","","","","","","","","","","","","","","","",""
"","","","","","image-keyboard-response","314","1754284","0.0-289.0","63d86d675509ff61463bddcd","665500ab8938657b03fbdba8","6657926eb08ee19093b53955","3518","stimuli/0110111.jpg","1","","prediction_trial","1","","true","","0","false","false","false","false","false","false","[0,1]","110","111","1","","","","","","",""
"","","","","","image-keyboard-response","315","1754732","0.0-290.0","63d86d675509ff61463bddcd","665500ab8938657b03fbdba8","6657926eb08ee19093b53955","445","stimuli/01101111.jpg"," ","","feedback_trial","0","","","","","","","","","","","","","","","","","","","","",""
"","","","","","image-keyboard-response","316","1755720","0.0-291.0","63d86d675509ff61463bddcd","665500ab8938657b03fbdba8","6657926eb08ee19093b53955","988","stimuli/0100000.jpg","0","","prediction_trial","0","","true","","0","true","true","false","true","false","true","[0]","100","000","1","","","","","","",""
"","","","","","image-keyboard-response","317","1756177","0.0-292.0","63d86d675509ff61463bddcd","665500ab8938657b03fbdba8","6657926eb08ee19093b53955","455","stimuli/01000000.jpg"," ","","feedback_trial","0","","","","","","","","","","","","","","","","","","","","",""
"","","","","","survey-html-form","318","1773128","0.0-293.0","63d86d675509ff61463bddcd","665500ab8938657b03fbdba8","6657926eb08ee19093b53955","16945","","{""feedback"":"""",""age"":""27"",""gender"":""Female"",""other_gender"":"""",""race"":""Black/African American"",""other_race"":"""",""ethnicity"":""Non-Hispanic""}","","exit_survey","","","","","","","","","","","","","","","","","27","Non-Hispanic","Female","Black/African American","0.5902777777777778","0.5902777777777778"
