"success","timeout","failed_images","failed_audio","failed_video","trial_type","trial_index","time_elapsed","internal_node_id","prolific_id","prolific_study_id","prolific_session_id","rt","stimulus","response","view_history","trial","character_choice","stimulus_dict","accuracy","correct_response","ball_pos","ego_ball_visible","ego_can_infer","alter_ball_visible","alter_can_infer","collective_ball_visible","collective_can_infer","search_locations","alter_occluders","ego_occluders","accuracy_bool","feedback","age","ethnicity","gender","race","overall_accuracy","bonus"
"true","false","[]","[]","[]","preload","0","1418","0.0-0.0","6485009845ccd180b889dcb9","665500ab8938657b03fbdba8","665792d907def77763fb3ef9","","","","","","","","","","","","","","","","","","","","","","","","","","",""
"true","","","","","fullscreen","1","5056","0.0-1.0","6485009845ccd180b889dcb9","665500ab8938657b03fbdba8","665792d907def77763fb3ef9","","","","","","","","","","","","","","","","","","","","","","","","","","",""
"","","","","","html-button-response","2","21751","0.0-2.0","6485009845ccd180b889dcb9","665500ab8938657b03fbdba8","665792d907def77763fb3ef9","16692","<p><b>Consent Form</b></p> <div style=""text-align:left;background-color:lightgrey; padding:20px; max-width:900px;""><p>Please consider this information carefully before deciding whether to participate in this research.</p> <p>The purpose of this research is to examine which factors influence social judgment and decision-making. You will be asked to make judgements about individuals and actions in social scenarios. We are simply interested in your judgement. The study will take less than 1 hour to complete, and you will receive less than $20 on Prolific. Your compensation and time commitment are specified in the study description. There are no anticipated risks associated with participating in this study. The effects of participating should be comparable to those you would ordinarily experience from viewing a computer monitor and using a mouse or keyboard for a similar amount of time. At the end of the study, we will provide an explanation of the questions that motivate this line of research and will describe the potential implications. </p><p> Your participation in this study is completely voluntary and you may refuse to participate or you may choose to withdraw at any time without penalty or loss of benefits to you which are otherwise entitled. Your participation in this study will remain confidential. No personally identifiable information will be associated with your data. Also, all analyses of the data will be averaged across all the participants, so your individual responses will never be specifically analyzed. </p><p> If you have questions or concerns about your participation or payment, or want to request a summary of research findings, please contact Dr. Jonathan Phillips at Jonathan.S.Phillips@dartmouth.edu. </p><p> Please save a copy of this form for your records. </p><p><b>Agreement: </b>The nature and purpose of this research have been sufficiently explained and I agree to participate in this study. I understand that I am free to withdraw at any time without incurring any penalty. Please consent by clicking the button below to continue. Otherwise, please exit the study at any time. </p>","0","","","","","","","","","","","","","","","","","","","","","","","",""
"","","","","","instructions","3","82372","0.0-3.0-0.0","6485009845ccd180b889dcb9","665500ab8938657b03fbdba8","665792d907def77763fb3ef9","60619","","","[{""page_index"":0,""viewing_time"":2950},{""page_index"":1,""viewing_time"":2561},{""page_index"":2,""viewing_time"":2596},{""page_index"":3,""viewing_time"":5306},{""page_index"":4,""viewing_time"":2601},{""page_index"":5,""viewing_time"":2308},{""page_index"":6,""viewing_time"":3705},{""page_index"":7,""viewing_time"":3028},{""page_index"":8,""viewing_time"":3666},{""page_index"":9,""viewing_time"":2621},{""page_index"":10,""viewing_time"":11037},{""page_index"":11,""viewing_time"":9844},{""page_index"":12,""viewing_time"":6652},{""page_index"":13,""viewing_time"":1744}]","intro","","","","","","","","","","","","","","","","","","","","","",""
"","","","","","image-keyboard-response","4","89980","0.0-3.0-1.0","6485009845ccd180b889dcb9","665500ab8938657b03fbdba8","665792d907def77763fb3ef9","7602","stimuli/0110010.jpg","2","","prediction_practice","0","{""filepath"":""stimuli/0110010.jpg"",""ball_pos"":0,""ego_ball_visible"":true,""ego_can_infer"":true,""alter_ball_visible"":false,""alter_can_infer"":false,""collective_ball_visible"":false,""collective_can_infer"":false,""search_locations"":[0,1],""alter_occluders"":""110"",""ego_occluders"":""010""}","false","","","","","","","","","","","","","","","","","","",""
"","","","","","image-keyboard-response","5","94562","0.0-3.0-2.0","6485009845ccd180b889dcb9","665500ab8938657b03fbdba8","665792d907def77763fb3ef9","4579","stimuli/01100100.jpg"," ","","practrice_feedback","0","","","","","","","","","","","","","","","","","","","","",""
"","","","","","image-keyboard-response","6","100455","0.0-3.0-3.0","6485009845ccd180b889dcb9","665500ab8938657b03fbdba8","665792d907def77763fb3ef9","5891","stimuli/1101101.jpg","1","","prediction_practice","1","{""filepath"":""stimuli/1101101.jpg"",""ball_pos"":1,""ego_ball_visible"":true,""ego_can_infer"":true,""alter_ball_visible"":true,""alter_can_infer"":true,""collective_ball_visible"":true,""collective_can_infer"":true,""search_locations"":[1],""alter_occluders"":""101"",""ego_occluders"":""101""}","true","","","","","","","","","","","","","","","","","","",""
"","","","","","image-keyboard-response","7","102630","0.0-3.0-4.0","6485009845ccd180b889dcb9","665500ab8938657b03fbdba8","665792d907def77763fb3ef9","2174","stimuli/11011011.jpg"," ","","practrice_feedback","1","","","","","","","","","","","","","","","","","","","","",""
"","","","","","image-keyboard-response","8","106331","0.0-3.0-5.0","6485009845ccd180b889dcb9","665500ab8938657b03fbdba8","665792d907def77763fb3ef9","3700","stimuli/2101010.jpg","2","","prediction_practice","0","{""filepath"":""stimuli/2101010.jpg"",""ball_pos"":2,""ego_ball_visible"":true,""ego_can_infer"":true,""alter_ball_visible"":false,""alter_can_infer"":false,""collective_ball_visible"":false,""collective_can_infer"":false,""search_locations"":[2,0],""alter_occluders"":""101"",""ego_occluders"":""010""}","false","","","","","","","","","","","","","","","","","","",""
"","","","","","image-keyboard-response","9","107567","0.0-3.0-6.0","6485009845ccd180b889dcb9","665500ab8938657b03fbdba8","665792d907def77763fb3ef9","1235","stimuli/21010100.jpg"," ","","practrice_feedback","2","","","","","","","","","","","","","","","","","","","","",""
"","","","","","image-keyboard-response","10","110502","0.0-3.0-7.0","6485009845ccd180b889dcb9","665500ab8938657b03fbdba8","665792d907def77763fb3ef9","2934","stimuli/1111011.jpg","1","","prediction_practice","1","{""filepath"":""stimuli/1111011.jpg"",""ball_pos"":1,""ego_ball_visible"":false,""ego_can_infer"":false,""alter_ball_visible"":false,""alter_can_infer"":false,""collective_ball_visible"":false,""collective_can_infer"":false,""search_locations"":[0,2,1],""alter_occluders"":""111"",""ego_occluders"":""011""}","true","","","","","","","","","","","","","","","","","","",""
"","","","","","image-keyboard-response","11","111793","0.0-3.0-8.0","6485009845ccd180b889dcb9","665500ab8938657b03fbdba8","665792d907def77763fb3ef9","1289","stimuli/11110111.jpg"," ","","practrice_feedback","0","","","","","","","","","","","","","","","","","","","","",""
"","","","","","image-keyboard-response","12","114888","0.0-3.0-9.0","6485009845ccd180b889dcb9","665500ab8938657b03fbdba8","665792d907def77763fb3ef9","3093","stimuli/2100001.jpg","2","","prediction_practice","2","{""filepath"":""stimuli/2100001.jpg"",""ball_pos"":2,""ego_ball_visible"":false,""ego_can_infer"":true,""alter_ball_visible"":true,""alter_can_infer"":true,""collective_ball_visible"":false,""collective_can_infer"":true,""search_locations"":[2],""alter_occluders"":""100"",""ego_occluders"":""001""}","true","","","","","","","","","","","","","","","","","","",""
"","","","","","image-keyboard-response","13","115801","0.0-3.0-10.0","6485009845ccd180b889dcb9","665500ab8938657b03fbdba8","665792d907def77763fb3ef9","912","stimuli/21000012.jpg"," ","","practrice_feedback","2","","","","","","","","","","","","","","","","","","","","",""
"","","","","","image-keyboard-response","14","120690","0.0-3.0-11.0","6485009845ccd180b889dcb9","665500ab8938657b03fbdba8","665792d907def77763fb3ef9","4887","stimuli/2100011.jpg","1","","prediction_practice","2","{""filepath"":""stimuli/2100011.jpg"",""ball_pos"":2,""ego_ball_visible"":false,""ego_can_infer"":false,""alter_ball_visible"":true,""alter_can_infer"":true,""collective_ball_visible"":false,""collective_can_infer"":false,""search_locations"":[2],""alter_occluders"":""100"",""ego_occluders"":""011""}","false","","","","","","","","","","","","","","","","","","",""
"","","","","","image-keyboard-response","15","122459","0.0-3.0-12.0","6485009845ccd180b889dcb9","665500ab8938657b03fbdba8","665792d907def77763fb3ef9","1766","stimuli/21000112.jpg"," ","","practrice_feedback","2","","","","","","","","","","","","","","","","","","","","",""
"","","","","","image-keyboard-response","16","124967","0.0-3.0-13.0","6485009845ccd180b889dcb9","665500ab8938657b03fbdba8","665792d907def77763fb3ef9","2492","stimuli/2000011.jpg","1","","prediction_practice","2","{""filepath"":""stimuli/2000011.jpg"",""ball_pos"":2,""ego_ball_visible"":false,""ego_can_infer"":false,""alter_ball_visible"":true,""alter_can_infer"":true,""collective_ball_visible"":false,""collective_can_infer"":false,""search_locations"":[2],""alter_occluders"":""000"",""ego_occluders"":""011""}","false","","","","","","","","","","","","","","","","","","",""
"","","","","","image-keyboard-response","17","125695","0.0-3.0-14.0","6485009845ccd180b889dcb9","665500ab8938657b03fbdba8","665792d907def77763fb3ef9","726","stimuli/20000112.jpg"," ","","practrice_feedback","2","","","","","","","","","","","","","","","","","","","","",""
"","","","","","image-keyboard-response","18","128718","0.0-3.0-15.0","6485009845ccd180b889dcb9","665500ab8938657b03fbdba8","665792d907def77763fb3ef9","3021","stimuli/0100000.jpg","0","","prediction_practice","0","{""filepath"":""stimuli/0100000.jpg"",""ball_pos"":0,""ego_ball_visible"":true,""ego_can_infer"":true,""alter_ball_visible"":false,""alter_can_infer"":true,""collective_ball_visible"":false,""collective_can_infer"":true,""search_locations"":[0],""alter_occluders"":""100"",""ego_occluders"":""000""}","true","","","","","","","","","","","","","","","","","","",""
"","","","","","image-keyboard-response","19","129582","0.0-3.0-16.0","6485009845ccd180b889dcb9","665500ab8938657b03fbdba8","665792d907def77763fb3ef9","864","stimuli/01000000.jpg"," ","","practrice_feedback","0","","","","","","","","","","","","","","","","","","","","",""
"","","","","","image-keyboard-response","20","142664","0.0-3.0-17.0","6485009845ccd180b889dcb9","665500ab8938657b03fbdba8","665792d907def77763fb3ef9","13080","stimuli/2011101.jpg","0","","prediction_practice","1","{""filepath"":""stimuli/2011101.jpg"",""ball_pos"":2,""ego_ball_visible"":false,""ego_can_infer"":false,""alter_ball_visible"":false,""alter_can_infer"":false,""collective_ball_visible"":false,""collective_can_infer"":false,""search_locations"":[1,2],""alter_occluders"":""011"",""ego_occluders"":""101""}","false","","","","","","","","","","","","","","","","","","",""
"","","","","","image-keyboard-response","21","145744","0.0-3.0-18.0","6485009845ccd180b889dcb9","665500ab8938657b03fbdba8","665792d907def77763fb3ef9","3078","stimuli/20111011.jpg"," ","","practrice_feedback","1","","","","","","","","","","","","","","","","","","","","",""
"","","","","","image-keyboard-response","22","150250","0.0-3.0-19.0","6485009845ccd180b889dcb9","665500ab8938657b03fbdba8","665792d907def77763fb3ef9","4505","stimuli/2001100.jpg","2","","prediction_practice","2","{""filepath"":""stimuli/2001100.jpg"",""ball_pos"":2,""ego_ball_visible"":true,""ego_can_infer"":true,""alter_ball_visible"":false,""alter_can_infer"":true,""collective_ball_visible"":false,""collective_can_infer"":true,""search_locations"":[2],""alter_occluders"":""001"",""ego_occluders"":""100""}","true","","","","","","","","","","","","","","","","","","",""
"","","","","","image-keyboard-response","23","150983","0.0-3.0-20.0","6485009845ccd180b889dcb9","665500ab8938657b03fbdba8","665792d907def77763fb3ef9","731","stimuli/20011002.jpg"," ","","practrice_feedback","2","","","","","","","","","","","","","","","","","","","","",""
"","","","","","html-button-response","24","179281","0.0-3.0-21.0","6485009845ccd180b889dcb9","665500ab8938657b03fbdba8","665792d907def77763fb3ef9","28297","Now that you've had some practice, you'll be tested with a couple of easy trials. If you correctly predict Sam's choice, you'll move on to complete the experiment!","0","","","","","","","","","","","","","","","","","","","","","","","",""
"","","","","","image-keyboard-response","25","182788","0.0-3.0-22.0-0.0","6485009845ccd180b889dcb9","665500ab8938657b03fbdba8","665792d907def77763fb3ef9","3505","stimuli/0000011.jpg","arrowleft","","comprehension_quiz","","","true","arrowleft","","","","","","","","","","","","","","","","","",""
"","","","","","image-keyboard-response","26","184149","0.0-3.0-22.0-1.0","6485009845ccd180b889dcb9","665500ab8938657b03fbdba8","665792d907def77763fb3ef9","1358","stimuli/00000110.jpg"," ","","comprehension_quiz","","","true"," ","","","","","","","","","","","","","","","","","",""
"","","","","","image-keyboard-response","27","186742","0.0-3.0-22.0-2.0","6485009845ccd180b889dcb9","665500ab8938657b03fbdba8","665792d907def77763fb3ef9","2592","stimuli/1010010.jpg","arrowdown","","comprehension_quiz","","","true","arrowdown","","","","","","","","","","","","","","","","","",""
"","","","","","image-keyboard-response","28","187333","0.0-3.0-22.0-3.0","6485009845ccd180b889dcb9","665500ab8938657b03fbdba8","665792d907def77763fb3ef9","590","stimuli/10100101.jpg"," ","","comprehension_quiz","","","true"," ","","","","","","","","","","","","","","","","","",""
"","","","","","html-button-response","29","190052","0.0-4.0","6485009845ccd180b889dcb9","665500ab8938657b03fbdba8","665792d907def77763fb3ef9","2716","The experiment will now begin.","0","","","","","","","","","","","","","","","","","","","","","","","",""
"","","","","","image-keyboard-response","30","193865","0.0-5.0","6485009845ccd180b889dcb9","665500ab8938657b03fbdba8","665792d907def77763fb3ef9","3812","stimuli/1001111.jpg","0","","prediction_trial","1","","false","","1","false","false","true","true","false","false","[1]","001","111","0","","","","","","",""
"","","","","","image-keyboard-response","31","195171","0.0-6.0","6485009845ccd180b889dcb9","665500ab8938657b03fbdba8","665792d907def77763fb3ef9","1303","stimuli/10011111.jpg"," ","","feedback_trial","1","","","","","","","","","","","","","","","","","","","","",""
"","","","","","image-keyboard-response","32","201641","0.0-7.0","6485009845ccd180b889dcb9","665500ab8938657b03fbdba8","665792d907def77763fb3ef9","6468","stimuli/2011100.jpg","1","","prediction_trial","1","","true","","2","true","true","false","false","false","false","[2,1]","011","100","1","","","","","","",""
"","","","","","image-keyboard-response","33","203937","0.0-8.0","6485009845ccd180b889dcb9","665500ab8938657b03fbdba8","665792d907def77763fb3ef9","2294","stimuli/20111001.jpg"," ","","feedback_trial","2","","","","","","","","","","","","","","","","","","","","",""
"","","","","","image-keyboard-response","34","208222","0.0-9.0","6485009845ccd180b889dcb9","665500ab8938657b03fbdba8","665792d907def77763fb3ef9","4284","stimuli/2100101.jpg","2","","prediction_trial","2","","true","","2","false","false","true","true","false","false","[2]","100","101","1","","","","","","",""
"","","","","","image-keyboard-response","35","209086","0.0-10.0","6485009845ccd180b889dcb9","665500ab8938657b03fbdba8","665792d907def77763fb3ef9","862","stimuli/21001012.jpg"," ","","feedback_trial","2","","","","","","","","","","","","","","","","","","","","",""
"","","","","","image-keyboard-response","36","210889","0.0-11.0","6485009845ccd180b889dcb9","665500ab8938657b03fbdba8","665792d907def77763fb3ef9","1802","stimuli/1101001.jpg","1","","prediction_trial","1","","true","","1","true","true","true","true","true","true","[1]","101","001","1","","","","","","",""
"","","","","","image-keyboard-response","37","211397","0.0-12.0","6485009845ccd180b889dcb9","665500ab8938657b03fbdba8","665792d907def77763fb3ef9","506","stimuli/11010011.jpg"," ","","feedback_trial","1","","","","","","","","","","","","","","","","","","","","",""
"","","","","","image-keyboard-response","38","212928","0.0-13.0","6485009845ccd180b889dcb9","665500ab8938657b03fbdba8","665792d907def77763fb3ef9","1530","stimuli/1100011.jpg","1","","prediction_trial","1","","true","","1","false","false","true","true","false","false","[1]","100","011","1","","","","","","",""
"","","","","","image-keyboard-response","39","213612","0.0-14.0","6485009845ccd180b889dcb9","665500ab8938657b03fbdba8","665792d907def77763fb3ef9","683","stimuli/11000111.jpg"," ","","feedback_trial","1","","","","","","","","","","","","","","","","","","","","",""
"","","","","","image-keyboard-response","40","216214","0.0-15.0","6485009845ccd180b889dcb9","665500ab8938657b03fbdba8","665792d907def77763fb3ef9","2601","stimuli/1110101.jpg","0","","prediction_trial","1","","false","","1","true","true","false","false","false","false","[0,1]","110","101","0","","","","","","",""
"","","","","","image-keyboard-response","41","217239","0.0-16.0","6485009845ccd180b889dcb9","665500ab8938657b03fbdba8","665792d907def77763fb3ef9","1023","stimuli/11101011.jpg"," ","","feedback_trial","0","","","","","","","","","","","","","","","","","","","","",""
"","","","","","image-keyboard-response","42","219363","0.0-17.0","6485009845ccd180b889dcb9","665500ab8938657b03fbdba8","665792d907def77763fb3ef9","2123","stimuli/2001000.jpg","2","","prediction_trial","2","","true","","2","true","true","false","true","false","true","[2]","001","000","1","","","","","","",""
"","","","","","image-keyboard-response","43","220012","0.0-18.0","6485009845ccd180b889dcb9","665500ab8938657b03fbdba8","665792d907def77763fb3ef9","647","stimuli/20010002.jpg"," ","","feedback_trial","2","","","","","","","","","","","","","","","","","","","","",""
"","","","","","image-keyboard-response","44","223428","0.0-19.0","6485009845ccd180b889dcb9","665500ab8938657b03fbdba8","665792d907def77763fb3ef9","3403","stimuli/0111100.jpg","1","","prediction_trial","1","","true","","0","false","true","false","false","false","false","[0,1,2]","111","100","1","","","","","","",""
"","","","","","image-keyboard-response","45","224543","0.0-20.0","6485009845ccd180b889dcb9","665500ab8938657b03fbdba8","665792d907def77763fb3ef9","1114","stimuli/01111001.jpg"," ","","feedback_trial","0","","","","","","","","","","","","","","","","","","","","",""
"","","","","","image-keyboard-response","46","226260","0.0-21.0","6485009845ccd180b889dcb9","665500ab8938657b03fbdba8","665792d907def77763fb3ef9","1716","stimuli/1111111.jpg","1","","prediction_trial","2","","false","","1","false","false","false","false","false","false","[1,2,0]","111","111","0","","","","","","",""
"","","","","","image-keyboard-response","47","227251","0.0-22.0","6485009845ccd180b889dcb9","665500ab8938657b03fbdba8","665792d907def77763fb3ef9","989","stimuli/11111112.jpg"," ","","feedback_trial","1","","","","","","","","","","","","","","","","","","","","",""
"","","","","","image-keyboard-response","48","230802","0.0-23.0","6485009845ccd180b889dcb9","665500ab8938657b03fbdba8","665792d907def77763fb3ef9","3549","stimuli/0100011.jpg","0","","prediction_trial","0","","true","","0","true","true","false","true","false","true","[0]","100","011","1","","","","","","",""
"","","","","","image-keyboard-response","49","231284","0.0-24.0","6485009845ccd180b889dcb9","665500ab8938657b03fbdba8","665792d907def77763fb3ef9","481","stimuli/01000110.jpg"," ","","feedback_trial","0","","","","","","","","","","","","","","","","","","","","",""
"","","","","","image-keyboard-response","50","233258","0.0-25.0","6485009845ccd180b889dcb9","665500ab8938657b03fbdba8","665792d907def77763fb3ef9","1972","stimuli/2010010.jpg","2","","prediction_trial","2","","true","","2","true","true","true","true","true","true","[2]","010","010","1","","","","","","",""
"","","","","","image-keyboard-response","51","233811","0.0-26.0","6485009845ccd180b889dcb9","665500ab8938657b03fbdba8","665792d907def77763fb3ef9","552","stimuli/20100102.jpg"," ","","feedback_trial","2","","","","","","","","","","","","","","","","","","","","",""
"","","","","","image-keyboard-response","52","235413","0.0-27.0","6485009845ccd180b889dcb9","665500ab8938657b03fbdba8","665792d907def77763fb3ef9","1601","stimuli/0011111.jpg","1","","prediction_trial","0","","false","","0","false","false","true","true","false","false","[0]","011","111","0","","","","","","",""
"","","","","","image-keyboard-response","53","236101","0.0-28.0","6485009845ccd180b889dcb9","665500ab8938657b03fbdba8","665792d907def77763fb3ef9","687","stimuli/00111110.jpg"," ","","feedback_trial","0","","","","","","","","","","","","","","","","","","","","",""
"","","","","","image-keyboard-response","54","238804","0.0-29.0","6485009845ccd180b889dcb9","665500ab8938657b03fbdba8","665792d907def77763fb3ef9","2701","stimuli/0010111.jpg","1","","prediction_trial","0","","false","","0","false","false","true","true","false","false","[0]","010","111","0","","","","","","",""
"","","","","","image-keyboard-response","55","239578","0.0-30.0","6485009845ccd180b889dcb9","665500ab8938657b03fbdba8","665792d907def77763fb3ef9","773","stimuli/00101110.jpg"," ","","feedback_trial","0","","","","","","","","","","","","","","","","","","","","",""
"","","","","","image-keyboard-response","56","240548","0.0-31.0","6485009845ccd180b889dcb9","665500ab8938657b03fbdba8","665792d907def77763fb3ef9","968","stimuli/2111111.jpg","1","","prediction_trial","0","","false","","2","false","false","false","false","false","false","[0,1,2]","111","111","0","","","","","","",""
"","","","","","image-keyboard-response","57","241496","0.0-32.0","6485009845ccd180b889dcb9","665500ab8938657b03fbdba8","665792d907def77763fb3ef9","946","stimuli/21111110.jpg"," ","","feedback_trial","0","","","","","","","","","","","","","","","","","","","","",""
"","","","","","image-keyboard-response","58","244110","0.0-33.0","6485009845ccd180b889dcb9","665500ab8938657b03fbdba8","665792d907def77763fb3ef9","2612","stimuli/0110010.jpg","1","","prediction_trial","0","","false","","0","true","true","false","false","false","false","[0,1]","110","010","0","","","","","","",""
"","","","","","image-keyboard-response","59","244862","0.0-34.0","6485009845ccd180b889dcb9","665500ab8938657b03fbdba8","665792d907def77763fb3ef9","750","stimuli/01100100.jpg"," ","","feedback_trial","0","","","","","","","","","","","","","","","","","","","","",""
"","","","","","image-keyboard-response","60","246878","0.0-35.0","6485009845ccd180b889dcb9","665500ab8938657b03fbdba8","665792d907def77763fb3ef9","2014","stimuli/0101101.jpg","0","","prediction_trial","2","","false","","0","false","false","false","false","false","false","[0,2]","101","101","0","","","","","","",""
"","","","","","image-keyboard-response","61","247686","0.0-36.0","6485009845ccd180b889dcb9","665500ab8938657b03fbdba8","665792d907def77763fb3ef9","807","stimuli/01011012.jpg"," ","","feedback_trial","0","","","","","","","","","","","","","","","","","","","","",""
"","","","","","image-keyboard-response","62","248821","0.0-37.0","6485009845ccd180b889dcb9","665500ab8938657b03fbdba8","665792d907def77763fb3ef9","1134","stimuli/0111110.jpg","1","","prediction_trial","2","","false","","0","false","false","false","false","false","false","[2,1,0]","111","110","0","","","","","","",""
"","","","","","image-keyboard-response","63","249614","0.0-38.0","6485009845ccd180b889dcb9","665500ab8938657b03fbdba8","665792d907def77763fb3ef9","791","stimuli/01111102.jpg"," ","","feedback_trial","2","","","","","","","","","","","","","","","","","","","","",""
"","","","","","image-keyboard-response","64","251433","0.0-39.0","6485009845ccd180b889dcb9","665500ab8938657b03fbdba8","665792d907def77763fb3ef9","1817","stimuli/2000001.jpg","2","","prediction_trial","2","","true","","2","false","true","true","true","false","true","[2]","000","001","1","","","","","","",""
"","","","","","image-keyboard-response","65","251966","0.0-40.0","6485009845ccd180b889dcb9","665500ab8938657b03fbdba8","665792d907def77763fb3ef9","532","stimuli/20000012.jpg"," ","","feedback_trial","2","","","","","","","","","","","","","","","","","","","","",""
"","","","","","image-keyboard-response","66","253973","0.0-41.0","6485009845ccd180b889dcb9","665500ab8938657b03fbdba8","665792d907def77763fb3ef9","2005","stimuli/0001100.jpg","0","","prediction_trial","0","","true","","0","false","true","true","true","false","true","[0]","001","100","1","","","","","","",""
"","","","","","image-keyboard-response","67","254396","0.0-42.0","6485009845ccd180b889dcb9","665500ab8938657b03fbdba8","665792d907def77763fb3ef9","422","stimuli/00011000.jpg"," ","","feedback_trial","0","","","","","","","","","","","","","","","","","","","","",""
"","","","","","image-keyboard-response","68","256044","0.0-43.0","6485009845ccd180b889dcb9","665500ab8938657b03fbdba8","665792d907def77763fb3ef9","1646","stimuli/0011011.jpg","0","","prediction_trial","0","","true","","0","true","true","true","true","true","true","[0]","011","011","1","","","","","","",""
"","","","","","image-keyboard-response","69","256425","0.0-44.0","6485009845ccd180b889dcb9","665500ab8938657b03fbdba8","665792d907def77763fb3ef9","380","stimuli/00110110.jpg"," ","","feedback_trial","0","","","","","","","","","","","","","","","","","","","","",""
"","","","","","image-keyboard-response","70","258174","0.0-45.0","6485009845ccd180b889dcb9","665500ab8938657b03fbdba8","665792d907def77763fb3ef9","1743","stimuli/2011110.jpg","1","","prediction_trial","1","","true","","2","true","true","false","false","false","false","[2,1]","011","110","1","","","","","","",""
"","","","","","image-keyboard-response","71","258672","0.0-46.0","6485009845ccd180b889dcb9","665500ab8938657b03fbdba8","665792d907def77763fb3ef9","496","stimuli/20111101.jpg"," ","","feedback_trial","2","","","","","","","","","","","","","","","","","","","","",""
"","","","","","image-keyboard-response","72","259622","0.0-47.0","6485009845ccd180b889dcb9","665500ab8938657b03fbdba8","665792d907def77763fb3ef9","948","stimuli/1100100.jpg","1","","prediction_trial","1","","true","","1","true","true","true","true","true","true","[1]","100","100","1","","","","","","",""
"","","","","","image-keyboard-response","73","260012","0.0-48.0","6485009845ccd180b889dcb9","665500ab8938657b03fbdba8","665792d907def77763fb3ef9","389","stimuli/11001001.jpg"," ","","feedback_trial","1","","","","","","","","","","","","","","","","","","","","",""
"","","","","","image-keyboard-response","74","261836","0.0-49.0","6485009845ccd180b889dcb9","665500ab8938657b03fbdba8","665792d907def77763fb3ef9","1824","stimuli/2001001.jpg","2","","prediction_trial","2","","true","","2","false","true","false","true","false","true","[2]","001","001","1","","","","","","",""
"","","","","","image-keyboard-response","75","262245","0.0-50.0","6485009845ccd180b889dcb9","665500ab8938657b03fbdba8","665792d907def77763fb3ef9","408","stimuli/20010012.jpg"," ","","feedback_trial","2","","","","","","","","","","","","","","","","","","","","",""
"","","","","","image-keyboard-response","76","263499","0.0-51.0","6485009845ccd180b889dcb9","665500ab8938657b03fbdba8","665792d907def77763fb3ef9","1253","stimuli/0001110.jpg","1","","prediction_trial","0","","false","","0","false","false","true","true","false","false","[0]","001","110","0","","","","","","",""
"","","","","","image-keyboard-response","77","264209","0.0-52.0","6485009845ccd180b889dcb9","665500ab8938657b03fbdba8","665792d907def77763fb3ef9","708","stimuli/00011100.jpg"," ","","feedback_trial","0","","","","","","","","","","","","","","","","","","","","",""
"","","","","","image-keyboard-response","78","266201","0.0-53.0","6485009845ccd180b889dcb9","665500ab8938657b03fbdba8","665792d907def77763fb3ef9","1991","stimuli/0110001.jpg","1","","prediction_trial","1","","true","","0","true","true","false","false","false","false","[1,0]","110","001","1","","","","","","",""
"","","","","","image-keyboard-response","79","267099","0.0-54.0","6485009845ccd180b889dcb9","665500ab8938657b03fbdba8","665792d907def77763fb3ef9","895","stimuli/01100011.jpg"," ","","feedback_trial","1","","","","","","","","","","","","","","","","","","","","",""
"","","","","","image-keyboard-response","80","269543","0.0-55.0","6485009845ccd180b889dcb9","665500ab8938657b03fbdba8","665792d907def77763fb3ef9","2442","stimuli/1010100.jpg","1","","prediction_trial","1","","true","","1","true","true","false","true","false","true","[1]","010","100","1","","","","","","",""
"","","","","","image-keyboard-response","81","270060","0.0-56.0","6485009845ccd180b889dcb9","665500ab8938657b03fbdba8","665792d907def77763fb3ef9","516","stimuli/10101001.jpg"," ","","feedback_trial","1","","","","","","","","","","","","","","","","","","","","",""
"","","","","","image-keyboard-response","82","271280","0.0-57.0","6485009845ccd180b889dcb9","665500ab8938657b03fbdba8","665792d907def77763fb3ef9","1219","stimuli/0101111.jpg","1","","prediction_trial","0","","false","","0","false","false","false","false","false","false","[0,2]","101","111","0","","","","","","",""
"","","","","","image-keyboard-response","83","271758","0.0-58.0","6485009845ccd180b889dcb9","665500ab8938657b03fbdba8","665792d907def77763fb3ef9","476","stimuli/01011110.jpg"," ","","feedback_trial","0","","","","","","","","","","","","","","","","","","","","",""
"","","","","","image-keyboard-response","84","274731","0.0-59.0","6485009845ccd180b889dcb9","665500ab8938657b03fbdba8","665792d907def77763fb3ef9","2972","stimuli/2001100.jpg","2","","prediction_trial","2","","true","","2","true","true","false","true","false","true","[2]","001","100","1","","","","","","",""
"","","","","","image-keyboard-response","85","275164","0.0-60.0","6485009845ccd180b889dcb9","665500ab8938657b03fbdba8","665792d907def77763fb3ef9","431","stimuli/20011002.jpg"," ","","feedback_trial","2","","","","","","","","","","","","","","","","","","","","",""
"","","","","","image-keyboard-response","86","276851","0.0-61.0","6485009845ccd180b889dcb9","665500ab8938657b03fbdba8","665792d907def77763fb3ef9","1685","stimuli/2011101.jpg","1","","prediction_trial","1","","true","","2","false","false","false","false","false","false","[1,2]","011","101","1","","","","","","",""
"","","","","","image-keyboard-response","87","278072","0.0-62.0","6485009845ccd180b889dcb9","665500ab8938657b03fbdba8","665792d907def77763fb3ef9","1219","stimuli/20111011.jpg"," ","","feedback_trial","1","","","","","","","","","","","","","","","","","","","","",""
"","","","","","image-keyboard-response","88","279293","0.0-63.0","6485009845ccd180b889dcb9","665500ab8938657b03fbdba8","665792d907def77763fb3ef9","1219","stimuli/2110000.jpg","2","","prediction_trial","2","","true","","2","true","true","true","true","true","true","[2]","110","000","1","","","","","","",""
"","","","","","image-keyboard-response","89","279690","0.0-64.0","6485009845ccd180b889dcb9","665500ab8938657b03fbdba8","665792d907def77763fb3ef9","396","stimuli/21100002.jpg"," ","","feedback_trial","2","","","","","","","","","","","","","","","","","","","","",""
"","","","","","image-keyboard-response","90","280585","0.0-65.0","6485009845ccd180b889dcb9","665500ab8938657b03fbdba8","665792d907def77763fb3ef9","893","stimuli/1001110.jpg","1","","prediction_trial","1","","true","","1","false","false","true","true","false","false","[1]","001","110","1","","","","","","",""
"","","","","","image-keyboard-response","91","281202","0.0-66.0","6485009845ccd180b889dcb9","665500ab8938657b03fbdba8","665792d907def77763fb3ef9","616","stimuli/10011101.jpg"," ","","feedback_trial","1","","","","","","","","","","","","","","","","","","","","",""
"","","","","","image-keyboard-response","92","281976","0.0-67.0","6485009845ccd180b889dcb9","665500ab8938657b03fbdba8","665792d907def77763fb3ef9","772","stimuli/1000111.jpg","1","","prediction_trial","1","","true","","1","false","false","true","true","false","false","[1]","000","111","1","","","","","","",""
"","","","","","image-keyboard-response","93","282498","0.0-68.0","6485009845ccd180b889dcb9","665500ab8938657b03fbdba8","665792d907def77763fb3ef9","521","stimuli/10001111.jpg"," ","","feedback_trial","1","","","","","","","","","","","","","","","","","","","","",""
"","","","","","image-keyboard-response","94","283527","0.0-69.0","6485009845ccd180b889dcb9","665500ab8938657b03fbdba8","665792d907def77763fb3ef9","1028","stimuli/2100110.jpg","2","","prediction_trial","2","","true","","2","true","true","true","true","true","true","[2]","100","110","1","","","","","","",""
"","","","","","image-keyboard-response","95","283980","0.0-70.0","6485009845ccd180b889dcb9","665500ab8938657b03fbdba8","665792d907def77763fb3ef9","452","stimuli/21001102.jpg"," ","","feedback_trial","2","","","","","","","","","","","","","","","","","","","","",""
"","","","","","image-keyboard-response","96","285040","0.0-71.0","6485009845ccd180b889dcb9","665500ab8938657b03fbdba8","665792d907def77763fb3ef9","1045","stimuli/0101110.jpg","1","","prediction_trial","2","","false","","0","false","false","false","false","false","false","[0,2]","101","110","0","","","","","","",""
"","","","","","image-keyboard-response","97","285527","0.0-72.0","6485009845ccd180b889dcb9","665500ab8938657b03fbdba8","665792d907def77763fb3ef9","486","stimuli/01011102.jpg"," ","","feedback_trial","0","","","","","","","","","","","","","","","","","","","","",""
"","","","","","image-keyboard-response","98","287060","0.0-73.0","6485009845ccd180b889dcb9","665500ab8938657b03fbdba8","665792d907def77763fb3ef9","1530","stimuli/0110000.jpg","1","","prediction_trial","0","","false","","0","true","true","false","false","false","false","[1,0]","110","000","0","","","","","","",""
"","","","","","image-keyboard-response","99","287502","0.0-74.0","6485009845ccd180b889dcb9","665500ab8938657b03fbdba8","665792d907def77763fb3ef9","441","stimuli/01100000.jpg"," ","","feedback_trial","1","","","","","","","","","","","","","","","","","","","","",""
"","","","","","image-keyboard-response","100","288546","0.0-75.0","6485009845ccd180b889dcb9","665500ab8938657b03fbdba8","665792d907def77763fb3ef9","1043","stimuli/1101100.jpg","1","","prediction_trial","1","","true","","1","true","true","true","true","true","true","[1]","101","100","1","","","","","","",""
"","","","","","image-keyboard-response","101","288879","0.0-76.0","6485009845ccd180b889dcb9","665500ab8938657b03fbdba8","665792d907def77763fb3ef9","331","stimuli/11011001.jpg"," ","","feedback_trial","1","","","","","","","","","","","","","","","","","","","","",""
"","","","","","image-keyboard-response","102","291374","0.0-77.0","6485009845ccd180b889dcb9","665500ab8938657b03fbdba8","665792d907def77763fb3ef9","2494","stimuli/1110111.jpg","2","","prediction_trial","1","","false","","1","false","false","false","false","false","false","[1,0]","110","111","0","","","","","","",""
"","","","","","image-keyboard-response","103","292022","0.0-78.0","6485009845ccd180b889dcb9","665500ab8938657b03fbdba8","665792d907def77763fb3ef9","647","stimuli/11101111.jpg"," ","","feedback_trial","1","","","","","","","","","","","","","","","","","","","","",""
"","","","","","image-keyboard-response","104","292870","0.0-79.0","6485009845ccd180b889dcb9","665500ab8938657b03fbdba8","665792d907def77763fb3ef9","847","stimuli/1100001.jpg","1","","prediction_trial","1","","true","","1","true","true","true","true","true","true","[1]","100","001","1","","","","","","",""
"","","","","","image-keyboard-response","105","293216","0.0-80.0","6485009845ccd180b889dcb9","665500ab8938657b03fbdba8","665792d907def77763fb3ef9","345","stimuli/11000011.jpg"," ","","feedback_trial","1","","","","","","","","","","","","","","","","","","","","",""
"","","","","","image-keyboard-response","106","294986","0.0-81.0","6485009845ccd180b889dcb9","665500ab8938657b03fbdba8","665792d907def77763fb3ef9","1769","stimuli/0100100.jpg","0","","prediction_trial","0","","true","","0","false","true","false","true","false","true","[0]","100","100","1","","","","","","",""
"","","","","","image-keyboard-response","107","295337","0.0-82.0","6485009845ccd180b889dcb9","665500ab8938657b03fbdba8","665792d907def77763fb3ef9","349","stimuli/01001000.jpg"," ","","feedback_trial","0","","","","","","","","","","","","","","","","","","","","",""
"","","","","","image-keyboard-response","108","296327","0.0-83.0","6485009845ccd180b889dcb9","665500ab8938657b03fbdba8","665792d907def77763fb3ef9","989","stimuli/2011111.jpg","1","","prediction_trial","2","","false","","2","false","false","false","false","false","false","[2,1]","011","111","0","","","","","","",""
"","","","","","image-keyboard-response","109","296764","0.0-84.0","6485009845ccd180b889dcb9","665500ab8938657b03fbdba8","665792d907def77763fb3ef9","434","stimuli/20111112.jpg"," ","","feedback_trial","2","","","","","","","","","","","","","","","","","","","","",""
"","","","","","image-keyboard-response","110","297929","0.0-85.0","6485009845ccd180b889dcb9","665500ab8938657b03fbdba8","665792d907def77763fb3ef9","1165","stimuli/1011111.jpg","1","","prediction_trial","1","","true","","1","false","false","false","false","false","false","[1,2]","011","111","1","","","","","","",""
"","","","","","image-keyboard-response","111","298599","0.0-86.0","6485009845ccd180b889dcb9","665500ab8938657b03fbdba8","665792d907def77763fb3ef9","668","stimuli/10111111.jpg"," ","","feedback_trial","1","","","","","","","","","","","","","","","","","","","","",""
"","","","","","image-keyboard-response","112","301567","0.0-87.0","6485009845ccd180b889dcb9","665500ab8938657b03fbdba8","665792d907def77763fb3ef9","2967","stimuli/0101011.jpg","0","","prediction_trial","2","","false","","0","true","true","false","false","false","false","[2,0]","101","011","0","","","","","","",""
"","","","","","image-keyboard-response","113","302029","0.0-88.0","6485009845ccd180b889dcb9","665500ab8938657b03fbdba8","665792d907def77763fb3ef9","461","stimuli/01010112.jpg"," ","","feedback_trial","2","","","","","","","","","","","","","","","","","","","","",""
"","","","","","image-keyboard-response","114","303551","0.0-89.0","6485009845ccd180b889dcb9","665500ab8938657b03fbdba8","665792d907def77763fb3ef9","1520","stimuli/1110000.jpg","1","","prediction_trial","0","","false","","1","true","true","false","false","false","false","[1,0]","110","000","0","","","","","","",""
"","","","","","image-keyboard-response","115","304039","0.0-90.0","6485009845ccd180b889dcb9","665500ab8938657b03fbdba8","665792d907def77763fb3ef9","486","stimuli/11100000.jpg"," ","","feedback_trial","1","","","","","","","","","","","","","","","","","","","","",""
"","","","","","image-keyboard-response","116","305075","0.0-91.0","6485009845ccd180b889dcb9","665500ab8938657b03fbdba8","665792d907def77763fb3ef9","1034","stimuli/1111001.jpg","1","","prediction_trial","2","","false","","1","true","true","false","false","false","false","[0,1,2]","111","001","0","","","","","","",""
"","","","","","image-keyboard-response","117","305607","0.0-92.0","6485009845ccd180b889dcb9","665500ab8938657b03fbdba8","665792d907def77763fb3ef9","531","stimuli/11110012.jpg"," ","","feedback_trial","0","","","","","","","","","","","","","","","","","","","","",""
"","","","","","image-keyboard-response","118","306400","0.0-93.0","6485009845ccd180b889dcb9","665500ab8938657b03fbdba8","665792d907def77763fb3ef9","791","stimuli/1100101.jpg","1","","prediction_trial","1","","true","","1","true","true","true","true","true","true","[1]","100","101","1","","","","","","",""
"","","","","","image-keyboard-response","119","306802","0.0-94.0","6485009845ccd180b889dcb9","665500ab8938657b03fbdba8","665792d907def77763fb3ef9","401","stimuli/11001011.jpg"," ","","feedback_trial","1","","","","","","","","","","","","","","","","","","","","",""
"","","","","","image-keyboard-response","120","308469","0.0-95.0","6485009845ccd180b889dcb9","665500ab8938657b03fbdba8","665792d907def77763fb3ef9","1666","stimuli/1100110.jpg","1","","prediction_trial","1","","true","","1","false","false","true","true","false","false","[1]","100","110","1","","","","","","",""
"","","","","","image-keyboard-response","121","308916","0.0-96.0","6485009845ccd180b889dcb9","665500ab8938657b03fbdba8","665792d907def77763fb3ef9","445","stimuli/11001101.jpg"," ","","feedback_trial","1","","","","","","","","","","","","","","","","","","","","",""
"","","","","","image-keyboard-response","122","310197","0.0-97.0","6485009845ccd180b889dcb9","665500ab8938657b03fbdba8","665792d907def77763fb3ef9","1279","stimuli/1011000.jpg","1","","prediction_trial","2","","false","","1","true","true","false","false","false","false","[2,1]","011","000","0","","","","","","",""
"","","","","","image-keyboard-response","123","310580","0.0-98.0","6485009845ccd180b889dcb9","665500ab8938657b03fbdba8","665792d907def77763fb3ef9","381","stimuli/10110002.jpg"," ","","feedback_trial","2","","","","","","","","","","","","","","","","","","","","",""
"","","","","","image-keyboard-response","124","311966","0.0-99.0","6485009845ccd180b889dcb9","665500ab8938657b03fbdba8","665792d907def77763fb3ef9","1385","stimuli/0010011.jpg","0","","prediction_trial","0","","true","","0","true","true","true","true","true","true","[0]","010","011","1","","","","","","",""
"","","","","","image-keyboard-response","125","312398","0.0-100.0","6485009845ccd180b889dcb9","665500ab8938657b03fbdba8","665792d907def77763fb3ef9","431","stimuli/00100110.jpg"," ","","feedback_trial","0","","","","","","","","","","","","","","","","","","","","",""
"","","","","","image-keyboard-response","126","313248","0.0-101.0","6485009845ccd180b889dcb9","665500ab8938657b03fbdba8","665792d907def77763fb3ef9","848","stimuli/2110100.jpg","2","","prediction_trial","2","","true","","2","true","true","true","true","true","true","[2]","110","100","1","","","","","","",""
"","","","","","image-keyboard-response","127","313654","0.0-102.0","6485009845ccd180b889dcb9","665500ab8938657b03fbdba8","665792d907def77763fb3ef9","404","stimuli/21101002.jpg"," ","","feedback_trial","2","","","","","","","","","","","","","","","","","","","","",""
"","","","","","image-keyboard-response","128","314453","0.0-103.0","6485009845ccd180b889dcb9","665500ab8938657b03fbdba8","665792d907def77763fb3ef9","797","stimuli/1011001.jpg","1","","prediction_trial","2","","false","","1","true","true","false","false","false","false","[2,1]","011","001","0","","","","","","",""
"","","","","","image-keyboard-response","129","314860","0.0-104.0","6485009845ccd180b889dcb9","665500ab8938657b03fbdba8","665792d907def77763fb3ef9","406","stimuli/10110012.jpg"," ","","feedback_trial","2","","","","","","","","","","","","","","","","","","","","",""
"","","","","","image-keyboard-response","130","315788","0.0-105.0","6485009845ccd180b889dcb9","665500ab8938657b03fbdba8","665792d907def77763fb3ef9","927","stimuli/2010000.jpg","2","","prediction_trial","2","","true","","2","true","true","true","true","true","true","[2]","010","000","1","","","","","","",""
"","","","","","image-keyboard-response","131","316075","0.0-106.0","6485009845ccd180b889dcb9","665500ab8938657b03fbdba8","665792d907def77763fb3ef9","285","stimuli/20100002.jpg"," ","","feedback_trial","2","","","","","","","","","","","","","","","","","","","","",""
"","","","","","image-keyboard-response","132","316959","0.0-107.0","6485009845ccd180b889dcb9","665500ab8938657b03fbdba8","665792d907def77763fb3ef9","882","stimuli/0010110.jpg","1","","prediction_trial","0","","false","","0","false","false","true","true","false","false","[0]","010","110","0","","","","","","",""
"","","","","","image-keyboard-response","133","317371","0.0-108.0","6485009845ccd180b889dcb9","665500ab8938657b03fbdba8","665792d907def77763fb3ef9","410","stimuli/00101100.jpg"," ","","feedback_trial","0","","","","","","","","","","","","","","","","","","","","",""
"","","","","","image-keyboard-response","134","318175","0.0-109.0","6485009845ccd180b889dcb9","665500ab8938657b03fbdba8","665792d907def77763fb3ef9","802","stimuli/0101001.jpg","0","","prediction_trial","0","","true","","0","true","true","false","false","false","false","[2,0]","101","001","1","","","","","","",""
"","","","","","image-keyboard-response","135","318697","0.0-110.0","6485009845ccd180b889dcb9","665500ab8938657b03fbdba8","665792d907def77763fb3ef9","506","stimuli/01010010.jpg"," ","","feedback_trial","2","","","","","","","","","","","","","","","","","","","","",""
"","","","","","image-keyboard-response","136","321383","0.0-111.0","6485009845ccd180b889dcb9","665500ab8938657b03fbdba8","665792d907def77763fb3ef9","2685","stimuli/2101010.jpg","2","","prediction_trial","2","","true","","2","true","true","false","false","false","false","[2,0]","101","010","1","","","","","","",""
"","","","","","image-keyboard-response","137","322475","0.0-112.0","6485009845ccd180b889dcb9","665500ab8938657b03fbdba8","665792d907def77763fb3ef9","1090","stimuli/21010102.jpg"," ","","feedback_trial","2","","","","","","","","","","","","","","","","","","","","",""
"","","","","","image-keyboard-response","138","323681","0.0-113.0","6485009845ccd180b889dcb9","665500ab8938657b03fbdba8","665792d907def77763fb3ef9","1204","stimuli/0001000.jpg","0","","prediction_trial","0","","true","","0","true","true","true","true","true","true","[0]","001","000","1","","","","","","",""
"","","","","","image-keyboard-response","139","324033","0.0-114.0","6485009845ccd180b889dcb9","665500ab8938657b03fbdba8","665792d907def77763fb3ef9","351","stimuli/00010000.jpg"," ","","feedback_trial","0","","","","","","","","","","","","","","","","","","","","",""
"","","","","","image-keyboard-response","140","325073","0.0-115.0","6485009845ccd180b889dcb9","665500ab8938657b03fbdba8","665792d907def77763fb3ef9","1039","stimuli/1111110.jpg","1","","prediction_trial","2","","false","","1","false","false","false","false","false","false","[0,2,1]","111","110","0","","","","","","",""
"","","","","","image-keyboard-response","141","325489","0.0-116.0","6485009845ccd180b889dcb9","665500ab8938657b03fbdba8","665792d907def77763fb3ef9","414","stimuli/11111102.jpg"," ","","feedback_trial","0","","","","","","","","","","","","","","","","","","","","",""
"","","","","","image-keyboard-response","142","326348","0.0-117.0","6485009845ccd180b889dcb9","665500ab8938657b03fbdba8","665792d907def77763fb3ef9","856","stimuli/1111100.jpg","1","","prediction_trial","0","","false","","1","true","true","false","false","false","false","[0,2,1]","111","100","0","","","","","","",""
"","","","","","image-keyboard-response","143","326645","0.0-118.0","6485009845ccd180b889dcb9","665500ab8938657b03fbdba8","665792d907def77763fb3ef9","296","stimuli/11111000.jpg"," ","","feedback_trial","0","","","","","","","","","","","","","","","","","","","","",""
"","","","","","image-keyboard-response","144","327800","0.0-119.0","6485009845ccd180b889dcb9","665500ab8938657b03fbdba8","665792d907def77763fb3ef9","1153","stimuli/1011011.jpg","1","","prediction_trial","1","","true","","1","false","false","false","false","false","false","[1,2]","011","011","1","","","","","","",""
"","","","","","image-keyboard-response","145","328096","0.0-120.0","6485009845ccd180b889dcb9","665500ab8938657b03fbdba8","665792d907def77763fb3ef9","295","stimuli/10110111.jpg"," ","","feedback_trial","1","","","","","","","","","","","","","","","","","","","","",""
"","","","","","image-keyboard-response","146","328704","0.0-121.0","6485009845ccd180b889dcb9","665500ab8938657b03fbdba8","665792d907def77763fb3ef9","607","stimuli/1001101.jpg","1","","prediction_trial","1","","true","","1","true","true","true","true","true","true","[1]","001","101","1","","","","","","",""
"","","","","","image-keyboard-response","147","328971","0.0-122.0","6485009845ccd180b889dcb9","665500ab8938657b03fbdba8","665792d907def77763fb3ef9","265","stimuli/10011011.jpg"," ","","feedback_trial","1","","","","","","","","","","","","","","","","","","","","",""
"","","","","","image-keyboard-response","148","330699","0.0-123.0","6485009845ccd180b889dcb9","665500ab8938657b03fbdba8","665792d907def77763fb3ef9","1716","stimuli/0011100.jpg","0","","prediction_trial","0","","true","","0","false","true","true","true","false","true","[0]","011","100","1","","","","","","",""
"","","","","","image-keyboard-response","149","330960","0.0-124.0","6485009845ccd180b889dcb9","665500ab8938657b03fbdba8","665792d907def77763fb3ef9","259","stimuli/00111000.jpg"," ","","feedback_trial","0","","","","","","","","","","","","","","","","","","","","",""
"","","","","","image-keyboard-response","150","333109","0.0-125.0","6485009845ccd180b889dcb9","665500ab8938657b03fbdba8","665792d907def77763fb3ef9","2148","stimuli/1110001.jpg","1","","prediction_trial","1","","true","","1","true","true","false","false","false","false","[0,1]","110","001","1","","","","","","",""
"","","","","","image-keyboard-response","151","333763","0.0-126.0","6485009845ccd180b889dcb9","665500ab8938657b03fbdba8","665792d907def77763fb3ef9","652","stimuli/11100011.jpg"," ","","feedback_trial","0","","","","","","","","","","","","","","","","","","","","",""
"","","","","","image-keyboard-response","152","335395","0.0-127.0","6485009845ccd180b889dcb9","665500ab8938657b03fbdba8","665792d907def77763fb3ef9","1631","stimuli/0100001.jpg","0","","prediction_trial","0","","true","","0","true","true","false","true","false","true","[0]","100","001","1","","","","","","",""
"","","","","","image-keyboard-response","153","335717","0.0-128.0","6485009845ccd180b889dcb9","665500ab8938657b03fbdba8","665792d907def77763fb3ef9","320","stimuli/01000010.jpg"," ","","feedback_trial","0","","","","","","","","","","","","","","","","","","","","",""
"","","","","","image-keyboard-response","154","336420","0.0-129.0","6485009845ccd180b889dcb9","665500ab8938657b03fbdba8","665792d907def77763fb3ef9","703","stimuli/1000001.jpg","1","","prediction_trial","1","","true","","1","true","true","true","true","true","true","[1]","000","001","1","","","","","","",""
"","","","","","image-keyboard-response","155","336742","0.0-130.0","6485009845ccd180b889dcb9","665500ab8938657b03fbdba8","665792d907def77763fb3ef9","320","stimuli/10000011.jpg"," ","","feedback_trial","1","","","","","","","","","","","","","","","","","","","","",""
"","","","","","image-keyboard-response","156","337635","0.0-131.0","6485009845ccd180b889dcb9","665500ab8938657b03fbdba8","665792d907def77763fb3ef9","892","stimuli/2111101.jpg","1","","prediction_trial","1","","true","","2","false","false","false","false","false","false","[2,0,1]","111","101","1","","","","","","",""
"","","","","","image-keyboard-response","157","338007","0.0-132.0","6485009845ccd180b889dcb9","665500ab8938657b03fbdba8","665792d907def77763fb3ef9","371","stimuli/21111011.jpg"," ","","feedback_trial","2","","","","","","","","","","","","","","","","","","","","",""
"","","","","","image-keyboard-response","158","339153","0.0-133.0","6485009845ccd180b889dcb9","665500ab8938657b03fbdba8","665792d907def77763fb3ef9","1144","stimuli/0111000.jpg","1","","prediction_trial","0","","false","","0","true","true","false","false","false","false","[1,0,2]","111","000","0","","","","","","",""
"","","","","","image-keyboard-response","159","339525","0.0-134.0","6485009845ccd180b889dcb9","665500ab8938657b03fbdba8","665792d907def77763fb3ef9","371","stimuli/01110000.jpg"," ","","feedback_trial","1","","","","","","","","","","","","","","","","","","","","",""
"","","","","","image-keyboard-response","160","341614","0.0-135.0","6485009845ccd180b889dcb9","665500ab8938657b03fbdba8","665792d907def77763fb3ef9","2088","stimuli/1001011.jpg","1","","prediction_trial","1","","true","","1","false","false","true","true","false","false","[1]","001","011","1","","","","","","",""
"","","","","","image-keyboard-response","161","342137","0.0-136.0","6485009845ccd180b889dcb9","665500ab8938657b03fbdba8","665792d907def77763fb3ef9","521","stimuli/10010111.jpg"," ","","feedback_trial","1","","","","","","","","","","","","","","","","","","","","",""
"","","","","","image-keyboard-response","162","343573","0.0-137.0","6485009845ccd180b889dcb9","665500ab8938657b03fbdba8","665792d907def77763fb3ef9","1434","stimuli/0111011.jpg","1","","prediction_trial","1","","true","","0","true","true","false","false","false","false","[1,0,2]","111","011","1","","","","","","",""
"","","","","","image-keyboard-response","163","343936","0.0-138.0","6485009845ccd180b889dcb9","665500ab8938657b03fbdba8","665792d907def77763fb3ef9","362","stimuli/01110111.jpg"," ","","feedback_trial","1","","","","","","","","","","","","","","","","","","","","",""
"","","","","","image-keyboard-response","164","345150","0.0-139.0","6485009845ccd180b889dcb9","665500ab8938657b03fbdba8","665792d907def77763fb3ef9","1213","stimuli/0001011.jpg","0","","prediction_trial","0","","true","","0","true","true","true","true","true","true","[0]","001","011","1","","","","","","",""
"","","","","","image-keyboard-response","165","345483","0.0-140.0","6485009845ccd180b889dcb9","665500ab8938657b03fbdba8","665792d907def77763fb3ef9","331","stimuli/00010110.jpg"," ","","feedback_trial","0","","","","","","","","","","","","","","","","","","","","",""
"","","","","","image-keyboard-response","166","347884","0.0-141.0","6485009845ccd180b889dcb9","665500ab8938657b03fbdba8","665792d907def77763fb3ef9","2399","stimuli/0101010.jpg","0","","prediction_trial","0","","true","","0","true","true","false","false","false","false","[2,0]","101","010","1","","","","","","",""
"","","","","","image-keyboard-response","167","348180","0.0-142.0","6485009845ccd180b889dcb9","665500ab8938657b03fbdba8","665792d907def77763fb3ef9","295","stimuli/01010100.jpg"," ","","feedback_trial","2","","","","","","","","","","","","","","","","","","","","",""
"","","","","","image-keyboard-response","168","349777","0.0-143.0","6485009845ccd180b889dcb9","665500ab8938657b03fbdba8","665792d907def77763fb3ef9","1596","stimuli/2010001.jpg","2","","prediction_trial","2","","true","","2","false","true","true","true","false","true","[2]","010","001","1","","","","","","",""
"","","","","","image-keyboard-response","169","350099","0.0-144.0","6485009845ccd180b889dcb9","665500ab8938657b03fbdba8","665792d907def77763fb3ef9","321","stimuli/20100012.jpg"," ","","feedback_trial","2","","","","","","","","","","","","","","","","","","","","",""
"","","","","","image-keyboard-response","170","351666","0.0-145.0","6485009845ccd180b889dcb9","665500ab8938657b03fbdba8","665792d907def77763fb3ef9","1566","stimuli/2101011.jpg","1","","prediction_trial","2","","false","","2","false","false","false","false","false","false","[0,2]","101","011","0","","","","","","",""
"","","","","","image-keyboard-response","171","352103","0.0-146.0","6485009845ccd180b889dcb9","665500ab8938657b03fbdba8","665792d907def77763fb3ef9","435","stimuli/21010112.jpg"," ","","feedback_trial","0","","","","","","","","","","","","","","","","","","","","",""
"","","","","","image-keyboard-response","172","353038","0.0-147.0","6485009845ccd180b889dcb9","665500ab8938657b03fbdba8","665792d907def77763fb3ef9","933","stimuli/1011010.jpg","1","","prediction_trial","2","","false","","1","false","true","false","false","false","false","[2,1]","011","010","0","","","","","","",""
"","","","","","image-keyboard-response","173","353379","0.0-148.0","6485009845ccd180b889dcb9","665500ab8938657b03fbdba8","665792d907def77763fb3ef9","340","stimuli/10110102.jpg"," ","","feedback_trial","2","","","","","","","","","","","","","","","","","","","","",""
"","","","","","image-keyboard-response","174","354519","0.0-149.0","6485009845ccd180b889dcb9","665500ab8938657b03fbdba8","665792d907def77763fb3ef9","1138","stimuli/0000110.jpg","1","","prediction_trial","0","","false","","0","false","false","true","true","false","false","[0]","000","110","0","","","","","","",""
"","","","","","image-keyboard-response","175","355063","0.0-150.0","6485009845ccd180b889dcb9","665500ab8938657b03fbdba8","665792d907def77763fb3ef9","542","stimuli/00001100.jpg"," ","","feedback_trial","0","","","","","","","","","","","","","","","","","","","","",""
"","","","","","image-keyboard-response","176","356181","0.0-151.0","6485009845ccd180b889dcb9","665500ab8938657b03fbdba8","665792d907def77763fb3ef9","1117","stimuli/1100010.jpg","1","","prediction_trial","1","","true","","1","false","true","true","true","false","true","[1]","100","010","1","","","","","","",""
"","","","","","image-keyboard-response","177","356568","0.0-152.0","6485009845ccd180b889dcb9","665500ab8938657b03fbdba8","665792d907def77763fb3ef9","386","stimuli/11000101.jpg"," ","","feedback_trial","1","","","","","","","","","","","","","","","","","","","","",""
"","","","","","image-keyboard-response","178","357589","0.0-153.0","6485009845ccd180b889dcb9","665500ab8938657b03fbdba8","665792d907def77763fb3ef9","1020","stimuli/0111010.jpg","1","","prediction_trial","2","","false","","0","true","true","false","false","false","false","[0,1,2]","111","010","0","","","","","","",""
"","","","","","image-keyboard-response","179","357973","0.0-154.0","6485009845ccd180b889dcb9","665500ab8938657b03fbdba8","665792d907def77763fb3ef9","383","stimuli/01110102.jpg"," ","","feedback_trial","0","","","","","","","","","","","","","","","","","","","","",""
"","","","","","image-keyboard-response","180","358624","0.0-155.0","6485009845ccd180b889dcb9","665500ab8938657b03fbdba8","665792d907def77763fb3ef9","649","stimuli/2111000.jpg","1","","prediction_trial","1","","true","","2","true","true","false","false","false","false","[1,2,0]","111","000","1","","","","","","",""
"","","","","","image-keyboard-response","181","358945","0.0-156.0","6485009845ccd180b889dcb9","665500ab8938657b03fbdba8","665792d907def77763fb3ef9","320","stimuli/21110001.jpg"," ","","feedback_trial","1","","","","","","","","","","","","","","","","","","","","",""
"","","","","","image-keyboard-response","182","360101","0.0-157.0","6485009845ccd180b889dcb9","665500ab8938657b03fbdba8","665792d907def77763fb3ef9","1155","stimuli/1010000.jpg","1","","prediction_trial","1","","true","","1","true","true","false","true","false","true","[1]","010","000","1","","","","","","",""
"","","","","","image-keyboard-response","183","360432","0.0-158.0","6485009845ccd180b889dcb9","665500ab8938657b03fbdba8","665792d907def77763fb3ef9","330","stimuli/10100001.jpg"," ","","feedback_trial","1","","","","","","","","","","","","","","","","","","","","",""
"","","","","","image-keyboard-response","184","361251","0.0-159.0","6485009845ccd180b889dcb9","665500ab8938657b03fbdba8","665792d907def77763fb3ef9","817","stimuli/2100111.jpg","1","","prediction_trial","2","","false","","2","false","false","true","true","false","false","[2]","100","111","0","","","","","","",""
"","","","","","image-keyboard-response","185","361654","0.0-160.0","6485009845ccd180b889dcb9","665500ab8938657b03fbdba8","665792d907def77763fb3ef9","402","stimuli/21001112.jpg"," ","","feedback_trial","2","","","","","","","","","","","","","","","","","","","","",""
"","","","","","image-keyboard-response","186","362331","0.0-161.0","6485009845ccd180b889dcb9","665500ab8938657b03fbdba8","665792d907def77763fb3ef9","676","stimuli/1001100.jpg","1","","prediction_trial","1","","true","","1","true","true","true","true","true","true","[1]","001","100","1","","","","","","",""
"","","","","","image-keyboard-response","187","362693","0.0-162.0","6485009845ccd180b889dcb9","665500ab8938657b03fbdba8","665792d907def77763fb3ef9","348","stimuli/10011001.jpg"," ","","feedback_trial","1","","","","","","","","","","","","","","","","","","","","",""
"","","","","","image-keyboard-response","188","363502","0.0-163.0","6485009845ccd180b889dcb9","665500ab8938657b03fbdba8","665792d907def77763fb3ef9","808","stimuli/0010010.jpg","0","","prediction_trial","0","","true","","0","true","true","true","true","true","true","[0]","010","010","1","","","","","","",""
"","","","","","image-keyboard-response","189","363779","0.0-164.0","6485009845ccd180b889dcb9","665500ab8938657b03fbdba8","665792d907def77763fb3ef9","275","stimuli/00100100.jpg"," ","","feedback_trial","0","","","","","","","","","","","","","","","","","","","","",""
"","","","","","image-keyboard-response","190","364542","0.0-165.0","6485009845ccd180b889dcb9","665500ab8938657b03fbdba8","665792d907def77763fb3ef9","761","stimuli/1100111.jpg","1","","prediction_trial","1","","true","","1","false","false","true","true","false","false","[1]","100","111","1","","","","","","",""
"","","","","","image-keyboard-response","191","365627","0.0-166.0","6485009845ccd180b889dcb9","665500ab8938657b03fbdba8","665792d907def77763fb3ef9","1084","stimuli/11001111.jpg"," ","","feedback_trial","1","","","","","","","","","","","","","","","","","","","","",""
"","","","","","image-keyboard-response","192","367350","0.0-167.0","6485009845ccd180b889dcb9","665500ab8938657b03fbdba8","665792d907def77763fb3ef9","1722","stimuli/1010101.jpg","1","","prediction_trial","1","","true","","1","true","true","false","true","false","true","[1]","010","101","1","","","","","","",""
"","","","","","image-keyboard-response","193","367892","0.0-168.0","6485009845ccd180b889dcb9","665500ab8938657b03fbdba8","665792d907def77763fb3ef9","540","stimuli/10101011.jpg"," ","","feedback_trial","1","","","","","","","","","","","","","","","","","","","","",""
"","","","","","image-keyboard-response","194","368782","0.0-169.0","6485009845ccd180b889dcb9","665500ab8938657b03fbdba8","665792d907def77763fb3ef9","888","stimuli/0001001.jpg","0","","prediction_trial","0","","true","","0","true","true","true","true","true","true","[0]","001","001","1","","","","","","",""
"","","","","","image-keyboard-response","195","369053","0.0-170.0","6485009845ccd180b889dcb9","665500ab8938657b03fbdba8","665792d907def77763fb3ef9","269","stimuli/00010010.jpg"," ","","feedback_trial","0","","","","","","","","","","","","","","","","","","","","",""
"","","","","","image-keyboard-response","196","370128","0.0-171.0","6485009845ccd180b889dcb9","665500ab8938657b03fbdba8","665792d907def77763fb3ef9","1074","stimuli/1110011.jpg","1","","prediction_trial","0","","false","","1","false","false","false","false","false","false","[0,1]","110","011","0","","","","","","",""
"","","","","","image-keyboard-response","197","370414","0.0-172.0","6485009845ccd180b889dcb9","665500ab8938657b03fbdba8","665792d907def77763fb3ef9","285","stimuli/11100110.jpg"," ","","feedback_trial","0","","","","","","","","","","","","","","","","","","","","",""
"","","","","","image-keyboard-response","198","371248","0.0-173.0","6485009845ccd180b889dcb9","665500ab8938657b03fbdba8","665792d907def77763fb3ef9","832","stimuli/0010000.jpg","0","","prediction_trial","0","","true","","0","true","true","true","true","true","true","[0]","010","000","1","","","","","","",""
"","","","","","image-keyboard-response","199","371529","0.0-174.0","6485009845ccd180b889dcb9","665500ab8938657b03fbdba8","665792d907def77763fb3ef9","279","stimuli/00100000.jpg"," ","","feedback_trial","0","","","","","","","","","","","","","","","","","","","","",""
"","","","","","image-keyboard-response","200","372558","0.0-175.0","6485009845ccd180b889dcb9","665500ab8938657b03fbdba8","665792d907def77763fb3ef9","1028","stimuli/2011010.jpg","1","","prediction_trial","2","","false","","2","true","true","false","false","false","false","[2,1]","011","010","0","","","","","","",""
"","","","","","image-keyboard-response","201","372910","0.0-176.0","6485009845ccd180b889dcb9","665500ab8938657b03fbdba8","665792d907def77763fb3ef9","351","stimuli/20110102.jpg"," ","","feedback_trial","2","","","","","","","","","","","","","","","","","","","","",""
"","","","","","image-keyboard-response","202","373804","0.0-177.0","6485009845ccd180b889dcb9","665500ab8938657b03fbdba8","665792d907def77763fb3ef9","892","stimuli/2101111.jpg","1","","prediction_trial","2","","false","","2","false","false","false","false","false","false","[2,0]","101","111","0","","","","","","",""
"","","","","","image-keyboard-response","203","374090","0.0-178.0","6485009845ccd180b889dcb9","665500ab8938657b03fbdba8","665792d907def77763fb3ef9","285","stimuli/21011112.jpg"," ","","feedback_trial","2","","","","","","","","","","","","","","","","","","","","",""
"","","","","","image-keyboard-response","204","374608","0.0-179.0","6485009845ccd180b889dcb9","665500ab8938657b03fbdba8","665792d907def77763fb3ef9","516","stimuli/2010111.jpg","1","","prediction_trial","2","","false","","2","false","false","true","true","false","false","[2]","010","111","0","","","","","","",""
"","","","","","image-keyboard-response","205","375196","0.0-180.0","6485009845ccd180b889dcb9","665500ab8938657b03fbdba8","665792d907def77763fb3ef9","587","stimuli/20101112.jpg"," ","","feedback_trial","2","","","","","","","","","","","","","","","","","","","","",""
"","","","","","image-keyboard-response","206","377145","0.0-181.0","6485009845ccd180b889dcb9","665500ab8938657b03fbdba8","665792d907def77763fb3ef9","1947","stimuli/0101100.jpg","0","","prediction_trial","0","","true","","0","false","true","false","false","false","false","[0,2]","101","100","1","","","","","","",""
"","","","","","image-keyboard-response","207","377407","0.0-182.0","6485009845ccd180b889dcb9","665500ab8938657b03fbdba8","665792d907def77763fb3ef9","260","stimuli/01011000.jpg"," ","","feedback_trial","0","","","","","","","","","","","","","","","","","","","","",""
"","","","","","image-keyboard-response","208","380275","0.0-183.0","6485009845ccd180b889dcb9","665500ab8938657b03fbdba8","665792d907def77763fb3ef9","2867","stimuli/2101110.jpg","0","","prediction_trial","0","","true","","2","true","true","false","false","false","false","[0,2]","101","110","1","","","","","","",""
"","","","","","image-keyboard-response","209","380627","0.0-184.0","6485009845ccd180b889dcb9","665500ab8938657b03fbdba8","665792d907def77763fb3ef9","351","stimuli/21011100.jpg"," ","","feedback_trial","0","","","","","","","","","","","","","","","","","","","","",""
"","","","","","image-keyboard-response","210","381632","0.0-185.0","6485009845ccd180b889dcb9","665500ab8938657b03fbdba8","665792d907def77763fb3ef9","1003","stimuli/0000011.jpg","0","","prediction_trial","0","","true","","0","true","true","true","true","true","true","[0]","000","011","1","","","","","","",""
"","","","","","image-keyboard-response","211","381917","0.0-186.0","6485009845ccd180b889dcb9","665500ab8938657b03fbdba8","665792d907def77763fb3ef9","284","stimuli/00000110.jpg"," ","","feedback_trial","0","","","","","","","","","","","","","","","","","","","","",""
"","","","","","image-keyboard-response","212","383248","0.0-187.0","6485009845ccd180b889dcb9","665500ab8938657b03fbdba8","665792d907def77763fb3ef9","1330","stimuli/2100001.jpg","2","","prediction_trial","2","","true","","2","false","true","true","true","false","true","[2]","100","001","1","","","","","","",""
"","","","","","image-keyboard-response","213","383650","0.0-188.0","6485009845ccd180b889dcb9","665500ab8938657b03fbdba8","665792d907def77763fb3ef9","386","stimuli/21000012.jpg"," ","","feedback_trial","2","","","","","","","","","","","","","","","","","","","","",""
"","","","","","image-keyboard-response","214","385620","0.0-189.0","6485009845ccd180b889dcb9","665500ab8938657b03fbdba8","665792d907def77763fb3ef9","1968","stimuli/2110011.jpg","1","","prediction_trial","2","","false","","2","false","false","true","true","false","false","[2]","110","011","0","","","","","","",""
"","","","","","image-keyboard-response","215","385955","0.0-190.0","6485009845ccd180b889dcb9","665500ab8938657b03fbdba8","665792d907def77763fb3ef9","334","stimuli/21100112.jpg"," ","","feedback_trial","2","","","","","","","","","","","","","","","","","","","","",""
"","","","","","image-keyboard-response","216","387709","0.0-191.0","6485009845ccd180b889dcb9","665500ab8938657b03fbdba8","665792d907def77763fb3ef9","1752","stimuli/2110001.jpg","1","","prediction_trial","2","","false","","2","false","true","true","true","false","true","[2]","110","001","0","","","","","","",""
"","","","","","image-keyboard-response","217","387950","0.0-192.0","6485009845ccd180b889dcb9","665500ab8938657b03fbdba8","665792d907def77763fb3ef9","240","stimuli/21100012.jpg"," ","","feedback_trial","2","","","","","","","","","","","","","","","","","","","","",""
"","","","","","image-keyboard-response","218","388829","0.0-193.0","6485009845ccd180b889dcb9","665500ab8938657b03fbdba8","665792d907def77763fb3ef9","877","stimuli/1111000.jpg","1","","prediction_trial","1","","true","","1","true","true","false","false","false","false","[2,1,0]","111","000","1","","","","","","",""
"","","","","","image-keyboard-response","219","389172","0.0-194.0","6485009845ccd180b889dcb9","665500ab8938657b03fbdba8","665792d907def77763fb3ef9","341","stimuli/11110001.jpg"," ","","feedback_trial","2","","","","","","","","","","","","","","","","","","","","",""
"","","","","","image-keyboard-response","220","390843","0.0-195.0","6485009845ccd180b889dcb9","665500ab8938657b03fbdba8","665792d907def77763fb3ef9","1670","stimuli/2100000.jpg","2","","prediction_trial","2","","true","","2","true","true","true","true","true","true","[2]","100","000","1","","","","","","",""
"","","","","","image-keyboard-response","221","391125","0.0-196.0","6485009845ccd180b889dcb9","665500ab8938657b03fbdba8","665792d907def77763fb3ef9","280","stimuli/21000002.jpg"," ","","feedback_trial","2","","","","","","","","","","","","","","","","","","","","",""
"","","","","","image-keyboard-response","222","392124","0.0-197.0","6485009845ccd180b889dcb9","665500ab8938657b03fbdba8","665792d907def77763fb3ef9","998","stimuli/2111011.jpg","1","","prediction_trial","1","","true","","2","false","false","false","false","false","false","[2,1,0]","111","011","1","","","","","","",""
"","","","","","image-keyboard-response","223","392447","0.0-198.0","6485009845ccd180b889dcb9","665500ab8938657b03fbdba8","665792d907def77763fb3ef9","321","stimuli/21110111.jpg"," ","","feedback_trial","2","","","","","","","","","","","","","","","","","","","","",""
"","","","","","image-keyboard-response","224","393215","0.0-199.0","6485009845ccd180b889dcb9","665500ab8938657b03fbdba8","665792d907def77763fb3ef9","767","stimuli/2001111.jpg","1","","prediction_trial","2","","false","","2","false","false","false","true","false","false","[2]","001","111","0","","","","","","",""
"","","","","","image-keyboard-response","225","393592","0.0-200.0","6485009845ccd180b889dcb9","665500ab8938657b03fbdba8","665792d907def77763fb3ef9","375","stimuli/20011112.jpg"," ","","feedback_trial","2","","","","","","","","","","","","","","","","","","","","",""
"","","","","","image-keyboard-response","226","394350","0.0-201.0","6485009845ccd180b889dcb9","665500ab8938657b03fbdba8","665792d907def77763fb3ef9","744","stimuli/1101000.jpg","1","","prediction_trial","1","","true","","1","true","true","true","true","true","true","[1]","101","000","1","","","","","","",""
"","","","","","image-keyboard-response","227","394636","0.0-202.0","6485009845ccd180b889dcb9","665500ab8938657b03fbdba8","665792d907def77763fb3ef9","285","stimuli/11010001.jpg"," ","","feedback_trial","1","","","","","","","","","","","","","","","","","","","","",""
"","","","","","image-keyboard-response","228","396445","0.0-203.0","6485009845ccd180b889dcb9","665500ab8938657b03fbdba8","665792d907def77763fb3ef9","1808","stimuli/0010100.jpg","1","","prediction_trial","0","","false","","0","false","true","true","true","false","true","[0]","010","100","0","","","","","","",""
"","","","","","image-keyboard-response","229","396762","0.0-204.0","6485009845ccd180b889dcb9","665500ab8938657b03fbdba8","665792d907def77763fb3ef9","315","stimuli/00101000.jpg"," ","","feedback_trial","0","","","","","","","","","","","","","","","","","","","","",""
"","","","","","image-keyboard-response","230","397736","0.0-205.0","6485009845ccd180b889dcb9","665500ab8938657b03fbdba8","665792d907def77763fb3ef9","973","stimuli/2000011.jpg","1","","prediction_trial","2","","false","","2","false","false","true","true","false","false","[2]","000","011","0","","","","","","",""
"","","","","","image-keyboard-response","231","398073","0.0-206.0","6485009845ccd180b889dcb9","665500ab8938657b03fbdba8","665792d907def77763fb3ef9","335","stimuli/20000112.jpg"," ","","feedback_trial","2","","","","","","","","","","","","","","","","","","","","",""
"","","","","","image-keyboard-response","232","398671","0.0-207.0","6485009845ccd180b889dcb9","665500ab8938657b03fbdba8","665792d907def77763fb3ef9","596","stimuli/1000010.jpg","1","","prediction_trial","1","","true","","1","false","true","true","true","false","true","[1]","000","010","1","","","","","","",""
"","","","","","image-keyboard-response","233","399077","0.0-208.0","6485009845ccd180b889dcb9","665500ab8938657b03fbdba8","665792d907def77763fb3ef9","405","stimuli/10000101.jpg"," ","","feedback_trial","1","","","","","","","","","","","","","","","","","","","","",""
"","","","","","image-keyboard-response","234","399855","0.0-209.0","6485009845ccd180b889dcb9","665500ab8938657b03fbdba8","665792d907def77763fb3ef9","777","stimuli/1110010.jpg","1","","prediction_trial","0","","false","","1","false","true","false","false","false","false","[1,0]","110","010","0","","","","","","",""
"","","","","","image-keyboard-response","235","400524","0.0-210.0","6485009845ccd180b889dcb9","665500ab8938657b03fbdba8","665792d907def77763fb3ef9","667","stimuli/11100100.jpg"," ","","feedback_trial","1","","","","","","","","","","","","","","","","","","","","",""
"","","","","","image-keyboard-response","236","401554","0.0-211.0","6485009845ccd180b889dcb9","665500ab8938657b03fbdba8","665792d907def77763fb3ef9","1029","stimuli/2010011.jpg","1","","prediction_trial","2","","false","","2","false","false","true","true","false","false","[2]","010","011","0","","","","","","",""
"","","","","","image-keyboard-response","237","402146","0.0-212.0","6485009845ccd180b889dcb9","665500ab8938657b03fbdba8","665792d907def77763fb3ef9","591","stimuli/20100112.jpg"," ","","feedback_trial","2","","","","","","","","","","","","","","","","","","","","",""
"","","","","","image-keyboard-response","238","402871","0.0-213.0","6485009845ccd180b889dcb9","665500ab8938657b03fbdba8","665792d907def77763fb3ef9","723","stimuli/0011110.jpg","1","","prediction_trial","0","","false","","0","false","false","true","true","false","false","[0]","011","110","0","","","","","","",""
"","","","","","image-keyboard-response","239","403584","0.0-214.0","6485009845ccd180b889dcb9","665500ab8938657b03fbdba8","665792d907def77763fb3ef9","711","stimuli/00111100.jpg"," ","","feedback_trial","0","","","","","","","","","","","","","","","","","","","","",""
"","","","","","image-keyboard-response","240","404431","0.0-215.0","6485009845ccd180b889dcb9","665500ab8938657b03fbdba8","665792d907def77763fb3ef9","846","stimuli/2110111.jpg","1","","prediction_trial","2","","false","","2","false","false","true","true","false","false","[2]","110","111","0","","","","","","",""
"","","","","","image-keyboard-response","241","404837","0.0-216.0","6485009845ccd180b889dcb9","665500ab8938657b03fbdba8","665792d907def77763fb3ef9","405","stimuli/21101112.jpg"," ","","feedback_trial","2","","","","","","","","","","","","","","","","","","","","",""
"","","","","","image-keyboard-response","242","405698","0.0-217.0","6485009845ccd180b889dcb9","665500ab8938657b03fbdba8","665792d907def77763fb3ef9","859","stimuli/0001111.jpg","1","","prediction_trial","0","","false","","0","false","false","true","true","false","false","[0]","001","111","0","","","","","","",""
"","","","","","image-keyboard-response","243","406200","0.0-218.0","6485009845ccd180b889dcb9","665500ab8938657b03fbdba8","665792d907def77763fb3ef9","501","stimuli/00011110.jpg"," ","","feedback_trial","0","","","","","","","","","","","","","","","","","","","","",""
"","","","","","image-keyboard-response","244","407475","0.0-219.0","6485009845ccd180b889dcb9","665500ab8938657b03fbdba8","665792d907def77763fb3ef9","1274","stimuli/2011000.jpg","1","","prediction_trial","1","","true","","2","true","true","false","false","false","false","[1,2]","011","000","1","","","","","","",""
"","","","","","image-keyboard-response","245","408190","0.0-220.0","6485009845ccd180b889dcb9","665500ab8938657b03fbdba8","665792d907def77763fb3ef9","714","stimuli/20110001.jpg"," ","","feedback_trial","1","","","","","","","","","","","","","","","","","","","","",""
"","","","","","image-keyboard-response","246","409405","0.0-221.0","6485009845ccd180b889dcb9","665500ab8938657b03fbdba8","665792d907def77763fb3ef9","1214","stimuli/1011100.jpg","1","","prediction_trial","2","","false","","1","true","true","false","false","false","false","[1,2]","011","100","0","","","","","","",""
"","","","","","image-keyboard-response","247","409948","0.0-222.0","6485009845ccd180b889dcb9","665500ab8938657b03fbdba8","665792d907def77763fb3ef9","541","stimuli/10111002.jpg"," ","","feedback_trial","1","","","","","","","","","","","","","","","","","","","","",""
"","","","","","image-keyboard-response","248","412078","0.0-223.0","6485009845ccd180b889dcb9","665500ab8938657b03fbdba8","665792d907def77763fb3ef9","2128","stimuli/0100101.jpg","0","","prediction_trial","0","","true","","0","false","false","false","true","false","false","[0]","100","101","1","","","","","","",""
"","","","","","image-keyboard-response","249","412385","0.0-224.0","6485009845ccd180b889dcb9","665500ab8938657b03fbdba8","665792d907def77763fb3ef9","305","stimuli/01001010.jpg"," ","","feedback_trial","0","","","","","","","","","","","","","","","","","","","","",""
"","","","","","image-keyboard-response","250","413703","0.0-225.0","6485009845ccd180b889dcb9","665500ab8938657b03fbdba8","665792d907def77763fb3ef9","1316","stimuli/2000010.jpg","2","","prediction_trial","2","","true","","2","true","true","true","true","true","true","[2]","000","010","1","","","","","","",""
"","","","","","image-keyboard-response","251","414018","0.0-226.0","6485009845ccd180b889dcb9","665500ab8938657b03fbdba8","665792d907def77763fb3ef9","314","stimuli/20000102.jpg"," ","","feedback_trial","2","","","","","","","","","","","","","","","","","","","","",""
"","","","","","image-keyboard-response","252","415001","0.0-227.0","6485009845ccd180b889dcb9","665500ab8938657b03fbdba8","665792d907def77763fb3ef9","967","stimuli/2011011.jpg","1","","prediction_trial","1","","true","","2","false","false","false","false","false","false","[1,2]","011","011","1","","","","","","",""
"","","","","","image-keyboard-response","253","415314","0.0-228.0","6485009845ccd180b889dcb9","665500ab8938657b03fbdba8","665792d907def77763fb3ef9","311","stimuli/20110111.jpg"," ","","feedback_trial","1","","","","","","","","","","","","","","","","","","","","",""
"","","","","","image-keyboard-response","254","415987","0.0-229.0","6485009845ccd180b889dcb9","665500ab8938657b03fbdba8","665792d907def77763fb3ef9","671","stimuli/1001001.jpg","1","","prediction_trial","1","","true","","1","true","true","true","true","true","true","[1]","001","001","1","","","","","","",""
"","","","","","image-keyboard-response","255","416272","0.0-230.0","6485009845ccd180b889dcb9","665500ab8938657b03fbdba8","665792d907def77763fb3ef9","284","stimuli/10010011.jpg"," ","","feedback_trial","1","","","","","","","","","","","","","","","","","","","","",""
"","","","","","image-keyboard-response","256","417432","0.0-231.0","6485009845ccd180b889dcb9","665500ab8938657b03fbdba8","665792d907def77763fb3ef9","1158","stimuli/2110101.jpg","1","","prediction_trial","2","","false","","2","false","false","true","true","false","false","[2]","110","101","0","","","","","","",""
"","","","","","image-keyboard-response","257","417704","0.0-232.0","6485009845ccd180b889dcb9","665500ab8938657b03fbdba8","665792d907def77763fb3ef9","271","stimuli/21101012.jpg"," ","","feedback_trial","2","","","","","","","","","","","","","","","","","","","","",""
"","","","","","image-keyboard-response","258","418457","0.0-233.0","6485009845ccd180b889dcb9","665500ab8938657b03fbdba8","665792d907def77763fb3ef9","752","stimuli/1010110.jpg","1","","prediction_trial","1","","true","","1","false","false","false","true","false","false","[1]","010","110","1","","","","","","",""
"","","","","","image-keyboard-response","259","420331","0.0-234.0","6485009845ccd180b889dcb9","665500ab8938657b03fbdba8","665792d907def77763fb3ef9","1873","stimuli/10101101.jpg"," ","","feedback_trial","1","","","","","","","","","","","","","","","","","","","","",""
"","","","","","image-keyboard-response","260","421878","0.0-235.0","6485009845ccd180b889dcb9","665500ab8938657b03fbdba8","665792d907def77763fb3ef9","1545","stimuli/1000110.jpg","1","","prediction_trial","1","","true","","1","false","false","true","true","false","false","[1]","000","110","1","","","","","","",""
"","","","","","image-keyboard-response","261","422326","0.0-236.0","6485009845ccd180b889dcb9","665500ab8938657b03fbdba8","665792d907def77763fb3ef9","446","stimuli/10001101.jpg"," ","","feedback_trial","1","","","","","","","","","","","","","","","","","","","","",""
"","","","","","image-keyboard-response","262","424219","0.0-237.0","6485009845ccd180b889dcb9","665500ab8938657b03fbdba8","665792d907def77763fb3ef9","1891","stimuli/2100010.jpg","2","","prediction_trial","2","","true","","2","true","true","true","true","true","true","[2]","100","010","1","","","","","","",""
"","","","","","image-keyboard-response","263","424501","0.0-238.0","6485009845ccd180b889dcb9","665500ab8938657b03fbdba8","665792d907def77763fb3ef9","281","stimuli/21000102.jpg"," ","","feedback_trial","2","","","","","","","","","","","","","","","","","","","","",""
"","","","","","image-keyboard-response","264","425643","0.0-239.0","6485009845ccd180b889dcb9","665500ab8938657b03fbdba8","665792d907def77763fb3ef9","1147","stimuli/2111001.jpg","1","","prediction_trial","2","","false","","2","false","true","false","false","false","false","[2,1,0]","111","001","0","","","","","","",""
"","","","","","image-keyboard-response","265","426040","0.0-240.0","6485009845ccd180b889dcb9","665500ab8938657b03fbdba8","665792d907def77763fb3ef9","395","stimuli/21110012.jpg"," ","","feedback_trial","2","","","","","","","","","","","","","","","","","","","","",""
"","","","","","image-keyboard-response","266","426794","0.0-241.0","6485009845ccd180b889dcb9","665500ab8938657b03fbdba8","665792d907def77763fb3ef9","752","stimuli/0000111.jpg","1","","prediction_trial","0","","false","","0","false","false","true","true","false","false","[0]","000","111","0","","","","","","",""
"","","","","","image-keyboard-response","267","427181","0.0-242.0","6485009845ccd180b889dcb9","665500ab8938657b03fbdba8","665792d907def77763fb3ef9","386","stimuli/00001110.jpg"," ","","feedback_trial","0","","","","","","","","","","","","","","","","","","","","",""
"","","","","","image-keyboard-response","268","427818","0.0-243.0","6485009845ccd180b889dcb9","665500ab8938657b03fbdba8","665792d907def77763fb3ef9","636","stimuli/0011101.jpg","1","","prediction_trial","0","","false","","0","false","false","true","true","false","false","[0]","011","101","0","","","","","","",""
"","","","","","image-keyboard-response","269","428300","0.0-244.0","6485009845ccd180b889dcb9","665500ab8938657b03fbdba8","665792d907def77763fb3ef9","481","stimuli/00111010.jpg"," ","","feedback_trial","0","","","","","","","","","","","","","","","","","","","","",""
"","","","","","image-keyboard-response","270","429139","0.0-245.0","6485009845ccd180b889dcb9","665500ab8938657b03fbdba8","665792d907def77763fb3ef9","837","stimuli/1111010.jpg","1","","prediction_trial","0","","false","","1","false","true","false","false","false","false","[0,2,1]","111","010","0","","","","","","",""
"","","","","","image-keyboard-response","271","429532","0.0-246.0","6485009845ccd180b889dcb9","665500ab8938657b03fbdba8","665792d907def77763fb3ef9","391","stimuli/11110100.jpg"," ","","feedback_trial","0","","","","","","","","","","","","","","","","","","","","",""
"","","","","","image-keyboard-response","272","430139","0.0-247.0","6485009845ccd180b889dcb9","665500ab8938657b03fbdba8","665792d907def77763fb3ef9","606","stimuli/0111101.jpg","1","","prediction_trial","0","","false","","0","false","false","false","false","false","false","[0,2,1]","111","101","0","","","","","","",""
"","","","","","image-keyboard-response","273","430486","0.0-248.0","6485009845ccd180b889dcb9","665500ab8938657b03fbdba8","665792d907def77763fb3ef9","345","stimuli/01111010.jpg"," ","","feedback_trial","0","","","","","","","","","","","","","","","","","","","","",""
"","","","","","image-keyboard-response","274","431988","0.0-249.0","6485009845ccd180b889dcb9","665500ab8938657b03fbdba8","665792d907def77763fb3ef9","1501","stimuli/0011010.jpg","0","","prediction_trial","0","","true","","0","true","true","true","true","true","true","[0]","011","010","1","","","","","","",""
"","","","","","image-keyboard-response","275","432275","0.0-250.0","6485009845ccd180b889dcb9","665500ab8938657b03fbdba8","665792d907def77763fb3ef9","285","stimuli/00110100.jpg"," ","","feedback_trial","0","","","","","","","","","","","","","","","","","","","","",""
"","","","","","image-keyboard-response","276","432977","0.0-251.0","6485009845ccd180b889dcb9","665500ab8938657b03fbdba8","665792d907def77763fb3ef9","701","stimuli/1011101.jpg","1","","prediction_trial","1","","true","","1","true","true","false","false","false","false","[2,1]","011","101","1","","","","","","",""
"","","","","","image-keyboard-response","277","433249","0.0-252.0","6485009845ccd180b889dcb9","665500ab8938657b03fbdba8","665792d907def77763fb3ef9","270","stimuli/10111011.jpg"," ","","feedback_trial","2","","","","","","","","","","","","","","","","","","","","",""
"","","","","","image-keyboard-response","278","433897","0.0-253.0","6485009845ccd180b889dcb9","665500ab8938657b03fbdba8","665792d907def77763fb3ef9","634","stimuli/0011001.jpg","0","","prediction_trial","0","","true","","0","true","true","true","true","true","true","[0]","011","001","1","","","","","","",""
"","","","","","image-keyboard-response","279","434169","0.0-254.0","6485009845ccd180b889dcb9","665500ab8938657b03fbdba8","665792d907def77763fb3ef9","271","stimuli/00110010.jpg"," ","","feedback_trial","0","","","","","","","","","","","","","","","","","","","","",""
"","","","","","image-keyboard-response","280","435514","0.0-255.0","6485009845ccd180b889dcb9","665500ab8938657b03fbdba8","665792d907def77763fb3ef9","1344","stimuli/2000101.jpg","2","","prediction_trial","2","","true","","2","false","false","true","true","false","false","[2]","000","101","1","","","","","","",""
"","","","","","image-keyboard-response","281","435740","0.0-256.0","6485009845ccd180b889dcb9","665500ab8938657b03fbdba8","665792d907def77763fb3ef9","224","stimuli/20001012.jpg"," ","","feedback_trial","2","","","","","","","","","","","","","","","","","","","","",""
"","","","","","image-keyboard-response","282","436821","0.0-257.0","6485009845ccd180b889dcb9","665500ab8938657b03fbdba8","665792d907def77763fb3ef9","1080","stimuli/0111001.jpg","1","","prediction_trial","0","","false","","0","true","true","false","false","false","false","[0,2,1]","111","001","0","","","","","","",""
"","","","","","image-keyboard-response","283","437106","0.0-258.0","6485009845ccd180b889dcb9","665500ab8938657b03fbdba8","665792d907def77763fb3ef9","284","stimuli/01110010.jpg"," ","","feedback_trial","0","","","","","","","","","","","","","","","","","","","","",""
"","","","","","image-keyboard-response","284","438423","0.0-259.0","6485009845ccd180b889dcb9","665500ab8938657b03fbdba8","665792d907def77763fb3ef9","1315","stimuli/2101000.jpg","2","","prediction_trial","0","","false","","2","true","true","false","false","false","false","[0,2]","101","000","0","","","","","","",""
"","","","","","image-keyboard-response","285","438714","0.0-260.0","6485009845ccd180b889dcb9","665500ab8938657b03fbdba8","665792d907def77763fb3ef9","290","stimuli/21010000.jpg"," ","","feedback_trial","0","","","","","","","","","","","","","","","","","","","","",""
"","","","","","image-keyboard-response","286","439593","0.0-261.0","6485009845ccd180b889dcb9","665500ab8938657b03fbdba8","665792d907def77763fb3ef9","878","stimuli/2000000.jpg","2","","prediction_trial","2","","true","","2","true","true","true","true","true","true","[2]","000","000","1","","","","","","",""
"","","","","","image-keyboard-response","287","440026","0.0-262.0","6485009845ccd180b889dcb9","665500ab8938657b03fbdba8","665792d907def77763fb3ef9","431","stimuli/20000002.jpg"," ","","feedback_trial","2","","","","","","","","","","","","","","","","","","","","",""
"","","","","","image-keyboard-response","288","440774","0.0-263.0","6485009845ccd180b889dcb9","665500ab8938657b03fbdba8","665792d907def77763fb3ef9","746","stimuli/1001000.jpg","1","","prediction_trial","1","","true","","1","true","true","true","true","true","true","[1]","001","000","1","","","","","","",""
"","","","","","image-keyboard-response","289","441122","0.0-264.0","6485009845ccd180b889dcb9","665500ab8938657b03fbdba8","665792d907def77763fb3ef9","347","stimuli/10010001.jpg"," ","","feedback_trial","1","","","","","","","","","","","","","","","","","","","","",""
"","","","","","image-keyboard-response","290","443743","0.0-265.0","6485009845ccd180b889dcb9","665500ab8938657b03fbdba8","665792d907def77763fb3ef9","2620","stimuli/1010011.jpg","1","","prediction_trial","1","","true","","1","false","false","false","true","false","false","[1]","010","011","1","","","","","","",""
"","","","","","image-keyboard-response","291","444034","0.0-266.0","6485009845ccd180b889dcb9","665500ab8938657b03fbdba8","665792d907def77763fb3ef9","290","stimuli/10100111.jpg"," ","","feedback_trial","1","","","","","","","","","","","","","","","","","","","","",""
"","","","","","image-keyboard-response","292","444968","0.0-267.0","6485009845ccd180b889dcb9","665500ab8938657b03fbdba8","665792d907def77763fb3ef9","932","stimuli/2111110.jpg","1","","prediction_trial","1","","true","","2","true","true","false","false","false","false","[2,0,1]","111","110","1","","","","","","",""
"","","","","","image-keyboard-response","293","445269","0.0-268.0","6485009845ccd180b889dcb9","665500ab8938657b03fbdba8","665792d907def77763fb3ef9","300","stimuli/21111101.jpg"," ","","feedback_trial","2","","","","","","","","","","","","","","","","","","","","",""
"","","","","","image-keyboard-response","294","446239","0.0-269.0","6485009845ccd180b889dcb9","665500ab8938657b03fbdba8","665792d907def77763fb3ef9","968","stimuli/0110101.jpg","1","","prediction_trial","0","","false","","0","false","false","false","false","false","false","[0,1]","110","101","0","","","","","","",""
"","","","","","image-keyboard-response","295","446566","0.0-270.0","6485009845ccd180b889dcb9","665500ab8938657b03fbdba8","665792d907def77763fb3ef9","325","stimuli/01101010.jpg"," ","","feedback_trial","0","","","","","","","","","","","","","","","","","","","","",""
"","","","","","image-keyboard-response","296","447309","0.0-271.0","6485009845ccd180b889dcb9","665500ab8938657b03fbdba8","665792d907def77763fb3ef9","741","stimuli/1101101.jpg","1","","prediction_trial","1","","true","","1","true","true","true","true","true","true","[1]","101","101","1","","","","","","",""
"","","","","","image-keyboard-response","297","447625","0.0-272.0","6485009845ccd180b889dcb9","665500ab8938657b03fbdba8","665792d907def77763fb3ef9","315","stimuli/11011011.jpg"," ","","feedback_trial","1","","","","","","","","","","","","","","","","","","","","",""
"","","","","","image-keyboard-response","298","448650","0.0-273.0","6485009845ccd180b889dcb9","665500ab8938657b03fbdba8","665792d907def77763fb3ef9","1024","stimuli/0011000.jpg","0","","prediction_trial","0","","true","","0","true","true","true","true","true","true","[0]","011","000","1","","","","","","",""
"","","","","","image-keyboard-response","299","448907","0.0-274.0","6485009845ccd180b889dcb9","665500ab8938657b03fbdba8","665792d907def77763fb3ef9","256","stimuli/00110000.jpg"," ","","feedback_trial","0","","","","","","","","","","","","","","","","","","","","",""
"","","","","","image-keyboard-response","300","449509","0.0-275.0","6485009845ccd180b889dcb9","665500ab8938657b03fbdba8","665792d907def77763fb3ef9","600","stimuli/1111011.jpg","1","","prediction_trial","0","","false","","1","false","false","false","false","false","false","[0,2,1]","111","011","0","","","","","","",""
"","","","","","image-keyboard-response","301","449830","0.0-276.0","6485009845ccd180b889dcb9","665500ab8938657b03fbdba8","665792d907def77763fb3ef9","320","stimuli/11110110.jpg"," ","","feedback_trial","0","","","","","","","","","","","","","","","","","","","","",""
"","","","","","image-keyboard-response","302","450745","0.0-277.0","6485009845ccd180b889dcb9","665500ab8938657b03fbdba8","665792d907def77763fb3ef9","913","stimuli/0000010.jpg","0","","prediction_trial","0","","true","","0","true","true","true","true","true","true","[0]","000","010","1","","","","","","",""
"","","","","","image-keyboard-response","303","451042","0.0-278.0","6485009845ccd180b889dcb9","665500ab8938657b03fbdba8","665792d907def77763fb3ef9","295","stimuli/00000100.jpg"," ","","feedback_trial","0","","","","","","","","","","","","","","","","","","","","",""
"","","","","","image-keyboard-response","304","451635","0.0-279.0","6485009845ccd180b889dcb9","665500ab8938657b03fbdba8","665792d907def77763fb3ef9","579","stimuli/2001101.jpg","1","","prediction_trial","2","","false","","2","false","false","false","true","false","false","[2]","001","101","0","","","","","","",""
"","","","","","image-keyboard-response","305","453482","0.0-280.0","6485009845ccd180b889dcb9","665500ab8938657b03fbdba8","665792d907def77763fb3ef9","1845","stimuli/20011012.jpg"," ","","feedback_trial","2","","","","","","","","","","","","","","","","","","","","",""
"","","","","","image-keyboard-response","306","454277","0.0-281.0","6485009845ccd180b889dcb9","665500ab8938657b03fbdba8","665792d907def77763fb3ef9","793","stimuli/0110111.jpg","1","","prediction_trial","0","","false","","0","false","false","false","false","false","false","[1,0]","110","111","0","","","","","","",""
"","","","","","image-keyboard-response","307","454824","0.0-282.0","6485009845ccd180b889dcb9","665500ab8938657b03fbdba8","665792d907def77763fb3ef9","546","stimuli/01101110.jpg"," ","","feedback_trial","1","","","","","","","","","","","","","","","","","","","","",""
"","","","","","image-keyboard-response","308","457456","0.0-283.0","6485009845ccd180b889dcb9","665500ab8938657b03fbdba8","665792d907def77763fb3ef9","2630","stimuli/1101011.jpg","1","","prediction_trial","1","","true","","1","false","false","true","true","false","false","[1]","101","011","1","","","","","","",""
"","","","","","image-keyboard-response","309","457843","0.0-284.0","6485009845ccd180b889dcb9","665500ab8938657b03fbdba8","665792d907def77763fb3ef9","385","stimuli/11010111.jpg"," ","","feedback_trial","1","","","","","","","","","","","","","","","","","","","","",""
"","","","","","image-keyboard-response","310","458897","0.0-285.0","6485009845ccd180b889dcb9","665500ab8938657b03fbdba8","665792d907def77763fb3ef9","1053","stimuli/0000001.jpg","0","","prediction_trial","0","","true","","0","true","true","true","true","true","true","[0]","000","001","1","","","","","","",""
"","","","","","image-keyboard-response","311","459205","0.0-286.0","6485009845ccd180b889dcb9","665500ab8938657b03fbdba8","665792d907def77763fb3ef9","306","stimuli/00000010.jpg"," ","","feedback_trial","0","","","","","","","","","","","","","","","","","","","","",""
"","","","","","image-keyboard-response","312","460133","0.0-287.0","6485009845ccd180b889dcb9","665500ab8938657b03fbdba8","665792d907def77763fb3ef9","927","stimuli/0110011.jpg","1","","prediction_trial","0","","false","","0","true","true","false","false","false","false","[0,1]","110","011","0","","","","","","",""
"","","","","","image-keyboard-response","313","460526","0.0-288.0","6485009845ccd180b889dcb9","665500ab8938657b03fbdba8","665792d907def77763fb3ef9","392","stimuli/01100110.jpg"," ","","feedback_trial","0","","","","","","","","","","","","","","","","","","","","",""
"","","","","","image-keyboard-response","314","461626","0.0-289.0","6485009845ccd180b889dcb9","665500ab8938657b03fbdba8","665792d907def77763fb3ef9","1098","stimuli/1101111.jpg","1","","prediction_trial","1","","true","","1","false","false","true","true","false","false","[1]","101","111","1","","","","","","",""
"","","","","","image-keyboard-response","315","462002","0.0-290.0","6485009845ccd180b889dcb9","665500ab8938657b03fbdba8","665792d907def77763fb3ef9","374","stimuli/11011111.jpg"," ","","feedback_trial","1","","","","","","","","","","","","","","","","","","","","",""
"","","","","","image-keyboard-response","316","462761","0.0-291.0","6485009845ccd180b889dcb9","665500ab8938657b03fbdba8","665792d907def77763fb3ef9","757","stimuli/1111101.jpg","1","","prediction_trial","2","","false","","1","true","true","false","false","false","false","[1,2,0]","111","101","0","","","","","","",""
"","","","","","image-keyboard-response","317","463078","0.0-292.0","6485009845ccd180b889dcb9","665500ab8938657b03fbdba8","665792d907def77763fb3ef9","315","stimuli/11111012.jpg"," ","","feedback_trial","1","","","","","","","","","","","","","","","","","","","","",""
"","","","","","survey-html-form","318","502161","0.0-293.0","6485009845ccd180b889dcb9","665500ab8938657b03fbdba8","665792d907def77763fb3ef9","39073","","{""feedback"":""Whether the ball was visible to him.  If not, I chose the middle option."",""age"":""49"",""gender"":""Female"",""other_gender"":"""",""race"":""White"",""other_race"":"""",""ethnicity"":""Non-Hispanic""}","","exit_survey","","","","","","","","","","","","","","","","Whether the ball was visible to him.  If not, I chose the middle option.","49","Non-Hispanic","Female","White","0.5972222222222222","0.5972222222222222"
