"success","timeout","failed_images","failed_audio","failed_video","trial_type","trial_index","time_elapsed","internal_node_id","prolific_id","prolific_study_id","prolific_session_id","rt","stimulus","response","view_history","trial","character_choice","stimulus_dict","accuracy","correct_response","ball_pos","ego_ball_visible","ego_can_infer","alter_ball_visible","alter_can_infer","collective_ball_visible","collective_can_infer","search_locations","alter_occluders","ego_occluders","accuracy_bool","feedback","age","ethnicity","gender","race","overall_accuracy","bonus"
"true","false","[]","[]","[]","preload","0","21801","0.0-0.0","628de7e8ff1744a9717d7883","665500ab8938657b03fbdba8","665792a6da597cba6f1cf468","","","","","","","","","","","","","","","","","","","","","","","","","","",""
"true","","","","","fullscreen","1","29748","0.0-1.0","628de7e8ff1744a9717d7883","665500ab8938657b03fbdba8","665792a6da597cba6f1cf468","","","","","","","","","","","","","","","","","","","","","","","","","","",""
"","","","","","html-button-response","2","83927","0.0-2.0","628de7e8ff1744a9717d7883","665500ab8938657b03fbdba8","665792a6da597cba6f1cf468","54176","<p><b>Consent Form</b></p> <div style=""text-align:left;background-color:lightgrey; padding:20px; max-width:900px;""><p>Please consider this information carefully before deciding whether to participate in this research.</p> <p>The purpose of this research is to examine which factors influence social judgment and decision-making. You will be asked to make judgements about individuals and actions in social scenarios. We are simply interested in your judgement. The study will take less than 1 hour to complete, and you will receive less than $20 on Prolific. Your compensation and time commitment are specified in the study description. There are no anticipated risks associated with participating in this study. The effects of participating should be comparable to those you would ordinarily experience from viewing a computer monitor and using a mouse or keyboard for a similar amount of time. At the end of the study, we will provide an explanation of the questions that motivate this line of research and will describe the potential implications. </p><p> Your participation in this study is completely voluntary and you may refuse to participate or you may choose to withdraw at any time without penalty or loss of benefits to you which are otherwise entitled. Your participation in this study will remain confidential. No personally identifiable information will be associated with your data. Also, all analyses of the data will be averaged across all the participants, so your individual responses will never be specifically analyzed. </p><p> If you have questions or concerns about your participation or payment, or want to request a summary of research findings, please contact Dr. Jonathan Phillips at Jonathan.S.Phillips@dartmouth.edu. </p><p> Please save a copy of this form for your records. </p><p><b>Agreement: </b>The nature and purpose of this research have been sufficiently explained and I agree to participate in this study. I understand that I am free to withdraw at any time without incurring any penalty. Please consent by clicking the button below to continue. Otherwise, please exit the study at any time. </p>","0","","","","","","","","","","","","","","","","","","","","","","","",""
"","","","","","instructions","3","348357","0.0-3.0-0.0","628de7e8ff1744a9717d7883","665500ab8938657b03fbdba8","665792a6da597cba6f1cf468","264429","","","[{""page_index"":0,""viewing_time"":6048},{""page_index"":1,""viewing_time"":2261},{""page_index"":2,""viewing_time"":3967},{""page_index"":3,""viewing_time"":12476},{""page_index"":4,""viewing_time"":7804},{""page_index"":5,""viewing_time"":7776},{""page_index"":6,""viewing_time"":9276},{""page_index"":7,""viewing_time"":5448},{""page_index"":8,""viewing_time"":9850},{""page_index"":9,""viewing_time"":10336},{""page_index"":10,""viewing_time"":159059},{""page_index"":11,""viewing_time"":20013},{""page_index"":12,""viewing_time"":7668},{""page_index"":13,""viewing_time"":2446}]","intro","","","","","","","","","","","","","","","","","","","","","",""
"","","","","","image-keyboard-response","4","358206","0.0-3.0-1.0","628de7e8ff1744a9717d7883","665500ab8938657b03fbdba8","665792a6da597cba6f1cf468","9834","stimuli/0111101.jpg","2","","prediction_practice","1","{""filepath"":""stimuli/0111101.jpg"",""ball_pos"":0,""ego_ball_visible"":false,""ego_can_infer"":false,""alter_ball_visible"":false,""alter_can_infer"":false,""collective_ball_visible"":false,""collective_can_infer"":false,""search_locations"":[1,2,0],""alter_occluders"":""111"",""ego_occluders"":""101""}","false","","","","","","","","","","","","","","","","","","",""
"","","","","","image-keyboard-response","5","361610","0.0-3.0-2.0","628de7e8ff1744a9717d7883","665500ab8938657b03fbdba8","665792a6da597cba6f1cf468","3402","stimuli/01111011.jpg"," ","","practrice_feedback","1","","","","","","","","","","","","","","","","","","","","",""
"","","","","","image-keyboard-response","6","365124","0.0-3.0-3.0","628de7e8ff1744a9717d7883","665500ab8938657b03fbdba8","665792a6da597cba6f1cf468","3513","stimuli/1110010.jpg","1","","prediction_practice","0","{""filepath"":""stimuli/1110010.jpg"",""ball_pos"":1,""ego_ball_visible"":false,""ego_can_infer"":true,""alter_ball_visible"":false,""alter_can_infer"":false,""collective_ball_visible"":false,""collective_can_infer"":false,""search_locations"":[0,1],""alter_occluders"":""110"",""ego_occluders"":""010""}","false","","","","","","","","","","","","","","","","","","",""
"","","","","","image-keyboard-response","7","366752","0.0-3.0-4.0","628de7e8ff1744a9717d7883","665500ab8938657b03fbdba8","665792a6da597cba6f1cf468","1626","stimuli/11100100.jpg"," ","","practrice_feedback","0","","","","","","","","","","","","","","","","","","","","",""
"","","","","","image-keyboard-response","8","368926","0.0-3.0-5.0","628de7e8ff1744a9717d7883","665500ab8938657b03fbdba8","665792a6da597cba6f1cf468","2188","stimuli/0101001.jpg","0","","prediction_practice","2","{""filepath"":""stimuli/0101001.jpg"",""ball_pos"":0,""ego_ball_visible"":true,""ego_can_infer"":true,""alter_ball_visible"":false,""alter_can_infer"":false,""collective_ball_visible"":false,""collective_can_infer"":false,""search_locations"":[0,2],""alter_occluders"":""101"",""ego_occluders"":""001""}","false","","","","","","","","","","","","","","","","","","",""
"","","","","","image-keyboard-response","9","370409","0.0-3.0-6.0","628de7e8ff1744a9717d7883","665500ab8938657b03fbdba8","665792a6da597cba6f1cf468","1481","stimuli/01010012.jpg"," ","","practrice_feedback","0","","","","","","","","","","","","","","","","","","","","",""
"","","","","","image-keyboard-response","10","374148","0.0-3.0-7.0","628de7e8ff1744a9717d7883","665500ab8938657b03fbdba8","665792a6da597cba6f1cf468","3738","stimuli/1111000.jpg","1","","prediction_practice","0","{""filepath"":""stimuli/1111000.jpg"",""ball_pos"":1,""ego_ball_visible"":true,""ego_can_infer"":true,""alter_ball_visible"":false,""alter_can_infer"":false,""collective_ball_visible"":false,""collective_can_infer"":false,""search_locations"":[0,1,2],""alter_occluders"":""111"",""ego_occluders"":""000""}","false","","","","","","","","","","","","","","","","","","",""
"","","","","","image-keyboard-response","11","375672","0.0-3.0-8.0","628de7e8ff1744a9717d7883","665500ab8938657b03fbdba8","665792a6da597cba6f1cf468","1522","stimuli/11110000.jpg"," ","","practrice_feedback","0","","","","","","","","","","","","","","","","","","","","",""
"","","","","","image-keyboard-response","12","376840","0.0-3.0-9.0","628de7e8ff1744a9717d7883","665500ab8938657b03fbdba8","665792a6da597cba6f1cf468","1151","stimuli/1011000.jpg","1","","prediction_practice","2","{""filepath"":""stimuli/1011000.jpg"",""ball_pos"":1,""ego_ball_visible"":true,""ego_can_infer"":true,""alter_ball_visible"":false,""alter_can_infer"":false,""collective_ball_visible"":false,""collective_can_infer"":false,""search_locations"":[2,1],""alter_occluders"":""011"",""ego_occluders"":""000""}","false","","","","","","","","","","","","","","","","","","",""
"","","","","","image-keyboard-response","13","377594","0.0-3.0-10.0","628de7e8ff1744a9717d7883","665500ab8938657b03fbdba8","665792a6da597cba6f1cf468","753","stimuli/10110002.jpg"," ","","practrice_feedback","2","","","","","","","","","","","","","","","","","","","","",""
"","","","","","image-keyboard-response","14","378059","0.0-3.0-11.0","628de7e8ff1744a9717d7883","665500ab8938657b03fbdba8","665792a6da597cba6f1cf468","463","stimuli/2010100.jpg","1","","prediction_practice","2","{""filepath"":""stimuli/2010100.jpg"",""ball_pos"":2,""ego_ball_visible"":true,""ego_can_infer"":true,""alter_ball_visible"":true,""alter_can_infer"":true,""collective_ball_visible"":true,""collective_can_infer"":true,""search_locations"":[2],""alter_occluders"":""010"",""ego_occluders"":""100""}","false","","","","","","","","","","","","","","","","","","",""
"","","","","","image-keyboard-response","15","378975","0.0-3.0-12.0","628de7e8ff1744a9717d7883","665500ab8938657b03fbdba8","665792a6da597cba6f1cf468","914","stimuli/20101002.jpg"," ","","practrice_feedback","2","","","","","","","","","","","","","","","","","","","","",""
"","","","","","image-keyboard-response","16","380190","0.0-3.0-13.0","628de7e8ff1744a9717d7883","665500ab8938657b03fbdba8","665792a6da597cba6f1cf468","1214","stimuli/1111101.jpg","0","","prediction_practice","2","{""filepath"":""stimuli/1111101.jpg"",""ball_pos"":1,""ego_ball_visible"":true,""ego_can_infer"":true,""alter_ball_visible"":false,""alter_can_infer"":false,""collective_ball_visible"":false,""collective_can_infer"":false,""search_locations"":[0,2,1],""alter_occluders"":""111"",""ego_occluders"":""101""}","false","","","","","","","","","","","","","","","","","","",""
"","","","","","image-keyboard-response","17","380829","0.0-3.0-14.0","628de7e8ff1744a9717d7883","665500ab8938657b03fbdba8","665792a6da597cba6f1cf468","638","stimuli/11111012.jpg"," ","","practrice_feedback","0","","","","","","","","","","","","","","","","","","","","",""
"","","","","","image-keyboard-response","18","381389","0.0-3.0-15.0","628de7e8ff1744a9717d7883","665500ab8938657b03fbdba8","665792a6da597cba6f1cf468","558","stimuli/1010010.jpg","2","","prediction_practice","1","{""filepath"":""stimuli/1010010.jpg"",""ball_pos"":1,""ego_ball_visible"":false,""ego_can_infer"":true,""alter_ball_visible"":false,""alter_can_infer"":true,""collective_ball_visible"":false,""collective_can_infer"":true,""search_locations"":[1],""alter_occluders"":""010"",""ego_occluders"":""010""}","false","","","","","","","","","","","","","","","","","","",""
"","","","","","image-keyboard-response","19","382666","0.0-3.0-16.0","628de7e8ff1744a9717d7883","665500ab8938657b03fbdba8","665792a6da597cba6f1cf468","1276","stimuli/10100101.jpg"," ","","practrice_feedback","1","","","","","","","","","","","","","","","","","","","","",""
"","","","","","image-keyboard-response","20","383165","0.0-3.0-17.0","628de7e8ff1744a9717d7883","665500ab8938657b03fbdba8","665792a6da597cba6f1cf468","482","stimuli/2110111.jpg","0","","prediction_practice","2","{""filepath"":""stimuli/2110111.jpg"",""ball_pos"":2,""ego_ball_visible"":false,""ego_can_infer"":false,""alter_ball_visible"":true,""alter_can_infer"":true,""collective_ball_visible"":false,""collective_can_infer"":false,""search_locations"":[2],""alter_occluders"":""110"",""ego_occluders"":""111""}","false","","","","","","","","","","","","","","","","","","",""
"","","","","","image-keyboard-response","21","383776","0.0-3.0-18.0","628de7e8ff1744a9717d7883","665500ab8938657b03fbdba8","665792a6da597cba6f1cf468","610","stimuli/21101112.jpg"," ","","practrice_feedback","2","","","","","","","","","","","","","","","","","","","","",""
"","","","","","image-keyboard-response","22","384294","0.0-3.0-19.0","628de7e8ff1744a9717d7883","665500ab8938657b03fbdba8","665792a6da597cba6f1cf468","516","stimuli/0011000.jpg","1","","prediction_practice","0","{""filepath"":""stimuli/0011000.jpg"",""ball_pos"":0,""ego_ball_visible"":true,""ego_can_infer"":true,""alter_ball_visible"":true,""alter_can_infer"":true,""collective_ball_visible"":true,""collective_can_infer"":true,""search_locations"":[0],""alter_occluders"":""011"",""ego_occluders"":""000""}","false","","","","","","","","","","","","","","","","","","",""
"","","","","","image-keyboard-response","23","385071","0.0-3.0-20.0","628de7e8ff1744a9717d7883","665500ab8938657b03fbdba8","665792a6da597cba6f1cf468","775","stimuli/00110000.jpg"," ","","practrice_feedback","0","","","","","","","","","","","","","","","","","","","","",""
"","","","","","html-button-response","24","401966","0.0-3.0-21.0","628de7e8ff1744a9717d7883","665500ab8938657b03fbdba8","665792a6da597cba6f1cf468","16894","Now that you've had some practice, you'll be tested with a couple of easy trials. If you correctly predict Sam's choice, you'll move on to complete the experiment!","0","","","","","","","","","","","","","","","","","","","","","","","",""
"","","","","","image-keyboard-response","25","405312","0.0-3.0-22.0-0.0","628de7e8ff1744a9717d7883","665500ab8938657b03fbdba8","665792a6da597cba6f1cf468","3345","stimuli/0000011.jpg","arrowleft","","comprehension_quiz","","","true","arrowleft","","","","","","","","","","","","","","","","","",""
"","","","","","image-keyboard-response","26","407111","0.0-3.0-22.0-1.0","628de7e8ff1744a9717d7883","665500ab8938657b03fbdba8","665792a6da597cba6f1cf468","1797","stimuli/00000110.jpg"," ","","comprehension_quiz","","","true"," ","","","","","","","","","","","","","","","","","",""
"","","","","","image-keyboard-response","27","409878","0.0-3.0-22.0-2.0","628de7e8ff1744a9717d7883","665500ab8938657b03fbdba8","665792a6da597cba6f1cf468","2766","stimuli/1010010.jpg","arrowdown","","comprehension_quiz","","","true","arrowdown","","","","","","","","","","","","","","","","","",""
"","","","","","image-keyboard-response","28","410815","0.0-3.0-22.0-3.0","628de7e8ff1744a9717d7883","665500ab8938657b03fbdba8","665792a6da597cba6f1cf468","935","stimuli/10100101.jpg"," ","","comprehension_quiz","","","true"," ","","","","","","","","","","","","","","","","","",""
"","","","","","html-button-response","29","413091","0.0-4.0","628de7e8ff1744a9717d7883","665500ab8938657b03fbdba8","665792a6da597cba6f1cf468","2273","The experiment will now begin.","0","","","","","","","","","","","","","","","","","","","","","","","",""
"","","","","","image-keyboard-response","30","415167","0.0-5.0","628de7e8ff1744a9717d7883","665500ab8938657b03fbdba8","665792a6da597cba6f1cf468","2058","stimuli/1100001.jpg","1","","prediction_trial","1","","true","","1","true","true","true","true","true","true","[1]","100","001","1","","","","","","",""
"","","","","","image-keyboard-response","31","416213","0.0-6.0","628de7e8ff1744a9717d7883","665500ab8938657b03fbdba8","665792a6da597cba6f1cf468","1044","stimuli/11000011.jpg"," ","","feedback_trial","1","","","","","","","","","","","","","","","","","","","","",""
"","","","","","image-keyboard-response","32","424904","0.0-7.0","628de7e8ff1744a9717d7883","665500ab8938657b03fbdba8","665792a6da597cba6f1cf468","8690","stimuli/2011111.jpg","1","","prediction_trial","2","","false","","2","false","false","false","false","false","false","[2,1]","011","111","0","","","","","","",""
"","","","","","image-keyboard-response","33","427873","0.0-8.0","628de7e8ff1744a9717d7883","665500ab8938657b03fbdba8","665792a6da597cba6f1cf468","2968","stimuli/20111112.jpg"," ","","feedback_trial","2","","","","","","","","","","","","","","","","","","","","",""
"","","","","","image-keyboard-response","34","429907","0.0-9.0","628de7e8ff1744a9717d7883","665500ab8938657b03fbdba8","665792a6da597cba6f1cf468","2017","stimuli/2001000.jpg","2","","prediction_trial","2","","true","","2","true","true","false","true","false","true","[2]","001","000","1","","","","","","",""
"","","","","","image-keyboard-response","35","430752","0.0-10.0","628de7e8ff1744a9717d7883","665500ab8938657b03fbdba8","665792a6da597cba6f1cf468","843","stimuli/20010002.jpg"," ","","feedback_trial","2","","","","","","","","","","","","","","","","","","","","",""
"","","","","","image-keyboard-response","36","434075","0.0-11.0","628de7e8ff1744a9717d7883","665500ab8938657b03fbdba8","665792a6da597cba6f1cf468","3321","stimuli/0110100.jpg","0","","prediction_trial","1","","false","","0","false","true","false","false","false","false","[1,0]","110","100","0","","","","","","",""
"","","","","","image-keyboard-response","37","435162","0.0-12.0","628de7e8ff1744a9717d7883","665500ab8938657b03fbdba8","665792a6da597cba6f1cf468","1086","stimuli/01101001.jpg"," ","","feedback_trial","1","","","","","","","","","","","","","","","","","","","","",""
"","","","","","image-keyboard-response","38","439203","0.0-13.0","628de7e8ff1744a9717d7883","665500ab8938657b03fbdba8","665792a6da597cba6f1cf468","4021","stimuli/0111001.jpg","0","","prediction_trial","1","","false","","0","true","true","false","false","false","false","[0,1,2]","111","001","0","","","","","","",""
"","","","","","image-keyboard-response","39","440035","0.0-14.0","628de7e8ff1744a9717d7883","665500ab8938657b03fbdba8","665792a6da597cba6f1cf468","831","stimuli/01110011.jpg"," ","","feedback_trial","0","","","","","","","","","","","","","","","","","","","","",""
"","","","","","image-keyboard-response","40","441136","0.0-15.0","628de7e8ff1744a9717d7883","665500ab8938657b03fbdba8","665792a6da597cba6f1cf468","1100","stimuli/0000000.jpg","0","","prediction_trial","0","","true","","0","true","true","true","true","true","true","[0]","000","000","1","","","","","","",""
"","","","","","image-keyboard-response","41","441634","0.0-16.0","628de7e8ff1744a9717d7883","665500ab8938657b03fbdba8","665792a6da597cba6f1cf468","497","stimuli/00000000.jpg"," ","","feedback_trial","0","","","","","","","","","","","","","","","","","","","","",""
"","","","","","image-keyboard-response","42","443181","0.0-17.0","628de7e8ff1744a9717d7883","665500ab8938657b03fbdba8","665792a6da597cba6f1cf468","1546","stimuli/1100101.jpg","1","","prediction_trial","1","","true","","1","true","true","true","true","true","true","[1]","100","101","1","","","","","","",""
"","","","","","image-keyboard-response","43","443640","0.0-18.0","628de7e8ff1744a9717d7883","665500ab8938657b03fbdba8","665792a6da597cba6f1cf468","458","stimuli/11001011.jpg"," ","","feedback_trial","1","","","","","","","","","","","","","","","","","","","","",""
"","","","","","image-keyboard-response","44","446719","0.0-19.0","628de7e8ff1744a9717d7883","665500ab8938657b03fbdba8","665792a6da597cba6f1cf468","3078","stimuli/0110010.jpg","1","","prediction_trial","0","","false","","0","true","true","false","false","false","false","[0,1]","110","010","0","","","","","","",""
"","","","","","image-keyboard-response","45","447655","0.0-20.0","628de7e8ff1744a9717d7883","665500ab8938657b03fbdba8","665792a6da597cba6f1cf468","935","stimuli/01100100.jpg"," ","","feedback_trial","0","","","","","","","","","","","","","","","","","","","","",""
"","","","","","image-keyboard-response","46","450085","0.0-21.0","628de7e8ff1744a9717d7883","665500ab8938657b03fbdba8","665792a6da597cba6f1cf468","2415","stimuli/2100011.jpg","1","","prediction_trial","2","","false","","2","false","false","true","true","false","false","[2]","100","011","0","","","","","","",""
"","","","","","image-keyboard-response","47","451057","0.0-22.0","628de7e8ff1744a9717d7883","665500ab8938657b03fbdba8","665792a6da597cba6f1cf468","970","stimuli/21000112.jpg"," ","","feedback_trial","2","","","","","","","","","","","","","","","","","","","","",""
"","","","","","image-keyboard-response","48","453021","0.0-23.0","628de7e8ff1744a9717d7883","665500ab8938657b03fbdba8","665792a6da597cba6f1cf468","1963","stimuli/1110000.jpg","1","","prediction_trial","1","","true","","1","true","true","false","false","false","false","[0,1]","110","000","1","","","","","","",""
"","","","","","image-keyboard-response","49","453736","0.0-24.0","628de7e8ff1744a9717d7883","665500ab8938657b03fbdba8","665792a6da597cba6f1cf468","714","stimuli/11100001.jpg"," ","","feedback_trial","0","","","","","","","","","","","","","","","","","","","","",""
"","","","","","image-keyboard-response","50","456822","0.0-25.0","628de7e8ff1744a9717d7883","665500ab8938657b03fbdba8","665792a6da597cba6f1cf468","3085","stimuli/0111110.jpg","2","","prediction_trial","1","","false","","0","false","false","false","false","false","false","[2,1,0]","111","110","0","","","","","","",""
"","","","","","image-keyboard-response","51","457579","0.0-26.0","628de7e8ff1744a9717d7883","665500ab8938657b03fbdba8","665792a6da597cba6f1cf468","756","stimuli/01111101.jpg"," ","","feedback_trial","2","","","","","","","","","","","","","","","","","","","","",""
"","","","","","image-keyboard-response","52","460015","0.0-27.0","628de7e8ff1744a9717d7883","665500ab8938657b03fbdba8","665792a6da597cba6f1cf468","2435","stimuli/1101011.jpg","1","","prediction_trial","1","","true","","1","false","false","true","true","false","false","[1]","101","011","1","","","","","","",""
"","","","","","image-keyboard-response","53","460724","0.0-28.0","628de7e8ff1744a9717d7883","665500ab8938657b03fbdba8","665792a6da597cba6f1cf468","707","stimuli/11010111.jpg"," ","","feedback_trial","1","","","","","","","","","","","","","","","","","","","","",""
"","","","","","image-keyboard-response","54","461990","0.0-29.0","628de7e8ff1744a9717d7883","665500ab8938657b03fbdba8","665792a6da597cba6f1cf468","1252","stimuli/2100000.jpg","2","","prediction_trial","2","","true","","2","true","true","true","true","true","true","[2]","100","000","1","","","","","","",""
"","","","","","image-keyboard-response","55","462577","0.0-30.0","628de7e8ff1744a9717d7883","665500ab8938657b03fbdba8","665792a6da597cba6f1cf468","584","stimuli/21000002.jpg"," ","","feedback_trial","2","","","","","","","","","","","","","","","","","","","","",""
"","","","","","image-keyboard-response","56","466044","0.0-31.0","628de7e8ff1744a9717d7883","665500ab8938657b03fbdba8","665792a6da597cba6f1cf468","3467","stimuli/2101110.jpg","2","","prediction_trial","0","","false","","2","true","true","false","false","false","false","[0,2]","101","110","0","","","","","","",""
"","","","","","image-keyboard-response","57","466710","0.0-32.0","628de7e8ff1744a9717d7883","665500ab8938657b03fbdba8","665792a6da597cba6f1cf468","664","stimuli/21011100.jpg"," ","","feedback_trial","0","","","","","","","","","","","","","","","","","","","","",""
"","","","","","image-keyboard-response","58","467705","0.0-33.0","628de7e8ff1744a9717d7883","665500ab8938657b03fbdba8","665792a6da597cba6f1cf468","994","stimuli/1101000.jpg","1","","prediction_trial","1","","true","","1","true","true","true","true","true","true","[1]","101","000","1","","","","","","",""
"","","","","","image-keyboard-response","59","468270","0.0-34.0","628de7e8ff1744a9717d7883","665500ab8938657b03fbdba8","665792a6da597cba6f1cf468","563","stimuli/11010001.jpg"," ","","feedback_trial","1","","","","","","","","","","","","","","","","","","","","",""
"","","","","","image-keyboard-response","60","470354","0.0-35.0","628de7e8ff1744a9717d7883","665500ab8938657b03fbdba8","665792a6da597cba6f1cf468","2083","stimuli/2101001.jpg","2","","prediction_trial","2","","true","","2","false","true","false","false","false","false","[2,0]","101","001","1","","","","","","",""
"","","","","","image-keyboard-response","61","471034","0.0-36.0","628de7e8ff1744a9717d7883","665500ab8938657b03fbdba8","665792a6da597cba6f1cf468","678","stimuli/21010012.jpg"," ","","feedback_trial","2","","","","","","","","","","","","","","","","","","","","",""
"","","","","","image-keyboard-response","62","473775","0.0-37.0","628de7e8ff1744a9717d7883","665500ab8938657b03fbdba8","665792a6da597cba6f1cf468","2727","stimuli/0010111.jpg","1","","prediction_trial","0","","false","","0","false","false","true","true","false","false","[0]","010","111","0","","","","","","",""
"","","","","","image-keyboard-response","63","474436","0.0-38.0","628de7e8ff1744a9717d7883","665500ab8938657b03fbdba8","665792a6da597cba6f1cf468","660","stimuli/00101110.jpg"," ","","feedback_trial","0","","","","","","","","","","","","","","","","","","","","",""
"","","","","","image-keyboard-response","64","476274","0.0-39.0","628de7e8ff1744a9717d7883","665500ab8938657b03fbdba8","665792a6da597cba6f1cf468","1836","stimuli/0101110.jpg","1","","prediction_trial","0","","false","","0","false","false","false","false","false","false","[2,0]","101","110","0","","","","","","",""
"","","","","","image-keyboard-response","65","476864","0.0-40.0","628de7e8ff1744a9717d7883","665500ab8938657b03fbdba8","665792a6da597cba6f1cf468","589","stimuli/01011100.jpg"," ","","feedback_trial","2","","","","","","","","","","","","","","","","","","","","",""
"","","","","","image-keyboard-response","66","480167","0.0-41.0","628de7e8ff1744a9717d7883","665500ab8938657b03fbdba8","665792a6da597cba6f1cf468","3301","stimuli/1010111.jpg","1","","prediction_trial","1","","true","","1","false","false","false","true","false","false","[1]","010","111","1","","","","","","",""
"","","","","","image-keyboard-response","67","480723","0.0-42.0","628de7e8ff1744a9717d7883","665500ab8938657b03fbdba8","665792a6da597cba6f1cf468","555","stimuli/10101111.jpg"," ","","feedback_trial","1","","","","","","","","","","","","","","","","","","","","",""
"","","","","","image-keyboard-response","68","485304","0.0-43.0","628de7e8ff1744a9717d7883","665500ab8938657b03fbdba8","665792a6da597cba6f1cf468","4580","stimuli/0100110.jpg","1","","prediction_trial","0","","false","","0","false","false","false","true","false","false","[0]","100","110","0","","","","","","",""
"","","","","","image-keyboard-response","69","485854","0.0-44.0","628de7e8ff1744a9717d7883","665500ab8938657b03fbdba8","665792a6da597cba6f1cf468","549","stimuli/01001100.jpg"," ","","feedback_trial","0","","","","","","","","","","","","","","","","","","","","",""
"","","","","","image-keyboard-response","70","488565","0.0-45.0","628de7e8ff1744a9717d7883","665500ab8938657b03fbdba8","665792a6da597cba6f1cf468","2697","stimuli/1101010.jpg","1","","prediction_trial","1","","true","","1","false","true","true","true","false","true","[1]","101","010","1","","","","","","",""
"","","","","","image-keyboard-response","71","489055","0.0-46.0","628de7e8ff1744a9717d7883","665500ab8938657b03fbdba8","665792a6da597cba6f1cf468","488","stimuli/11010101.jpg"," ","","feedback_trial","1","","","","","","","","","","","","","","","","","","","","",""
"","","","","","image-keyboard-response","72","491870","0.0-47.0","628de7e8ff1744a9717d7883","665500ab8938657b03fbdba8","665792a6da597cba6f1cf468","2821","stimuli/2010011.jpg","2","","prediction_trial","2","","true","","2","false","false","true","true","false","false","[2]","010","011","1","","","","","","",""
"","","","","","image-keyboard-response","73","492495","0.0-48.0","628de7e8ff1744a9717d7883","665500ab8938657b03fbdba8","665792a6da597cba6f1cf468","623","stimuli/20100112.jpg"," ","","feedback_trial","2","","","","","","","","","","","","","","","","","","","","",""
"","","","","","image-keyboard-response","74","495423","0.0-49.0","628de7e8ff1744a9717d7883","665500ab8938657b03fbdba8","665792a6da597cba6f1cf468","2927","stimuli/2000101.jpg","0","","prediction_trial","2","","false","","2","false","false","true","true","false","false","[2]","000","101","0","","","","","","",""
"","","","","","image-keyboard-response","75","496072","0.0-50.0","628de7e8ff1744a9717d7883","665500ab8938657b03fbdba8","665792a6da597cba6f1cf468","648","stimuli/20001012.jpg"," ","","feedback_trial","2","","","","","","","","","","","","","","","","","","","","",""
"","","","","","image-keyboard-response","76","498638","0.0-51.0","628de7e8ff1744a9717d7883","665500ab8938657b03fbdba8","665792a6da597cba6f1cf468","2566","stimuli/0111101.jpg","2","","prediction_trial","2","","true","","0","false","false","false","false","false","false","[1,2,0]","111","101","1","","","","","","",""
"","","","","","image-keyboard-response","77","499233","0.0-52.0","628de7e8ff1744a9717d7883","665500ab8938657b03fbdba8","665792a6da597cba6f1cf468","593","stimuli/01111012.jpg"," ","","feedback_trial","1","","","","","","","","","","","","","","","","","","","","",""
"","","","","","image-keyboard-response","78","502045","0.0-53.0","628de7e8ff1744a9717d7883","665500ab8938657b03fbdba8","665792a6da597cba6f1cf468","2798","stimuli/0111010.jpg","0","","prediction_trial","1","","false","","0","true","true","false","false","false","false","[2,0,1]","111","010","0","","","","","","",""
"","","","","","image-keyboard-response","79","502583","0.0-54.0","628de7e8ff1744a9717d7883","665500ab8938657b03fbdba8","665792a6da597cba6f1cf468","537","stimuli/01110101.jpg"," ","","feedback_trial","2","","","","","","","","","","","","","","","","","","","","",""
"","","","","","image-keyboard-response","80","503739","0.0-55.0","628de7e8ff1744a9717d7883","665500ab8938657b03fbdba8","665792a6da597cba6f1cf468","1154","stimuli/0001010.jpg","0","","prediction_trial","0","","true","","0","true","true","true","true","true","true","[0]","001","010","1","","","","","","",""
"","","","","","image-keyboard-response","81","504171","0.0-56.0","628de7e8ff1744a9717d7883","665500ab8938657b03fbdba8","665792a6da597cba6f1cf468","431","stimuli/00010100.jpg"," ","","feedback_trial","0","","","","","","","","","","","","","","","","","","","","",""
"","","","","","image-keyboard-response","82","505000","0.0-57.0","628de7e8ff1744a9717d7883","665500ab8938657b03fbdba8","665792a6da597cba6f1cf468","829","stimuli/2110110.jpg","2","","prediction_trial","2","","true","","2","true","true","true","true","true","true","[2]","110","110","1","","","","","","",""
"","","","","","image-keyboard-response","83","505459","0.0-58.0","628de7e8ff1744a9717d7883","665500ab8938657b03fbdba8","665792a6da597cba6f1cf468","457","stimuli/21101102.jpg"," ","","feedback_trial","2","","","","","","","","","","","","","","","","","","","","",""
"","","","","","image-keyboard-response","84","506786","0.0-59.0","628de7e8ff1744a9717d7883","665500ab8938657b03fbdba8","665792a6da597cba6f1cf468","1325","stimuli/2011001.jpg","2","","prediction_trial","1","","false","","2","false","true","false","false","false","false","[2,1]","011","001","0","","","","","","",""
"","","","","","image-keyboard-response","85","507497","0.0-60.0","628de7e8ff1744a9717d7883","665500ab8938657b03fbdba8","665792a6da597cba6f1cf468","710","stimuli/20110011.jpg"," ","","feedback_trial","2","","","","","","","","","","","","","","","","","","","","",""
"","","","","","image-keyboard-response","86","509265","0.0-61.0","628de7e8ff1744a9717d7883","665500ab8938657b03fbdba8","665792a6da597cba6f1cf468","1750","stimuli/0101000.jpg","0","","prediction_trial","0","","true","","0","true","true","false","false","false","false","[0,2]","101","000","1","","","","","","",""
"","","","","","image-keyboard-response","87","509839","0.0-62.0","628de7e8ff1744a9717d7883","665500ab8938657b03fbdba8","665792a6da597cba6f1cf468","573","stimuli/01010000.jpg"," ","","feedback_trial","0","","","","","","","","","","","","","","","","","","","","",""
"","","","","","image-keyboard-response","88","511947","0.0-63.0","628de7e8ff1744a9717d7883","665500ab8938657b03fbdba8","665792a6da597cba6f1cf468","2107","stimuli/0110111.jpg","1","","prediction_trial","0","","false","","0","false","false","false","false","false","false","[1,0]","110","111","0","","","","","","",""
"","","","","","image-keyboard-response","89","512498","0.0-64.0","628de7e8ff1744a9717d7883","665500ab8938657b03fbdba8","665792a6da597cba6f1cf468","550","stimuli/01101110.jpg"," ","","feedback_trial","1","","","","","","","","","","","","","","","","","","","","",""
"","","","","","image-keyboard-response","90","513272","0.0-65.0","628de7e8ff1744a9717d7883","665500ab8938657b03fbdba8","665792a6da597cba6f1cf468","772","stimuli/0010001.jpg","0","","prediction_trial","0","","true","","0","true","true","true","true","true","true","[0]","010","001","1","","","","","","",""
"","","","","","image-keyboard-response","91","513617","0.0-66.0","628de7e8ff1744a9717d7883","665500ab8938657b03fbdba8","665792a6da597cba6f1cf468","344","stimuli/00100010.jpg"," ","","feedback_trial","0","","","","","","","","","","","","","","","","","","","","",""
"","","","","","image-keyboard-response","92","516008","0.0-67.0","628de7e8ff1744a9717d7883","665500ab8938657b03fbdba8","665792a6da597cba6f1cf468","2389","stimuli/0101111.jpg","2","","prediction_trial","0","","false","","0","false","false","false","false","false","false","[2,0]","101","111","0","","","","","","",""
"","","","","","image-keyboard-response","93","516526","0.0-68.0","628de7e8ff1744a9717d7883","665500ab8938657b03fbdba8","665792a6da597cba6f1cf468","517","stimuli/01011110.jpg"," ","","feedback_trial","2","","","","","","","","","","","","","","","","","","","","",""
"","","","","","image-keyboard-response","94","517707","0.0-69.0","628de7e8ff1744a9717d7883","665500ab8938657b03fbdba8","665792a6da597cba6f1cf468","1167","stimuli/1111101.jpg","0","","prediction_trial","2","","false","","1","true","true","false","false","false","false","[0,2,1]","111","101","0","","","","","","",""
"","","","","","image-keyboard-response","95","518078","0.0-70.0","628de7e8ff1744a9717d7883","665500ab8938657b03fbdba8","665792a6da597cba6f1cf468","369","stimuli/11111012.jpg"," ","","feedback_trial","0","","","","","","","","","","","","","","","","","","","","",""
"","","","","","image-keyboard-response","96","519489","0.0-71.0","628de7e8ff1744a9717d7883","665500ab8938657b03fbdba8","665792a6da597cba6f1cf468","1410","stimuli/0000100.jpg","0","","prediction_trial","0","","true","","0","false","true","true","true","false","true","[0]","000","100","1","","","","","","",""
"","","","","","image-keyboard-response","97","519907","0.0-72.0","628de7e8ff1744a9717d7883","665500ab8938657b03fbdba8","665792a6da597cba6f1cf468","417","stimuli/00001000.jpg"," ","","feedback_trial","0","","","","","","","","","","","","","","","","","","","","",""
"","","","","","image-keyboard-response","98","521612","0.0-73.0","628de7e8ff1744a9717d7883","665500ab8938657b03fbdba8","665792a6da597cba6f1cf468","1703","stimuli/2111011.jpg","1","","prediction_trial","0","","false","","2","false","false","false","false","false","false","[2,0,1]","111","011","0","","","","","","",""
"","","","","","image-keyboard-response","99","522396","0.0-74.0","628de7e8ff1744a9717d7883","665500ab8938657b03fbdba8","665792a6da597cba6f1cf468","783","stimuli/21110110.jpg"," ","","feedback_trial","2","","","","","","","","","","","","","","","","","","","","",""
"","","","","","image-keyboard-response","100","523047","0.0-75.0","628de7e8ff1744a9717d7883","665500ab8938657b03fbdba8","665792a6da597cba6f1cf468","650","stimuli/2000010.jpg","2","","prediction_trial","2","","true","","2","true","true","true","true","true","true","[2]","000","010","1","","","","","","",""
"","","","","","image-keyboard-response","101","523752","0.0-76.0","628de7e8ff1744a9717d7883","665500ab8938657b03fbdba8","665792a6da597cba6f1cf468","703","stimuli/20000102.jpg"," ","","feedback_trial","2","","","","","","","","","","","","","","","","","","","","",""
"","","","","","image-keyboard-response","102","525157","0.0-77.0","628de7e8ff1744a9717d7883","665500ab8938657b03fbdba8","665792a6da597cba6f1cf468","1388","stimuli/0111100.jpg","0","","prediction_trial","2","","false","","0","false","true","false","false","false","false","[2,0,1]","111","100","0","","","","","","",""
"","","","","","image-keyboard-response","103","525587","0.0-78.0","628de7e8ff1744a9717d7883","665500ab8938657b03fbdba8","665792a6da597cba6f1cf468","429","stimuli/01111002.jpg"," ","","feedback_trial","2","","","","","","","","","","","","","","","","","","","","",""
"","","","","","image-keyboard-response","104","526447","0.0-79.0","628de7e8ff1744a9717d7883","665500ab8938657b03fbdba8","665792a6da597cba6f1cf468","858","stimuli/0011000.jpg","0","","prediction_trial","0","","true","","0","true","true","true","true","true","true","[0]","011","000","1","","","","","","",""
"","","","","","image-keyboard-response","105","526851","0.0-80.0","628de7e8ff1744a9717d7883","665500ab8938657b03fbdba8","665792a6da597cba6f1cf468","403","stimuli/00110000.jpg"," ","","feedback_trial","0","","","","","","","","","","","","","","","","","","","","",""
"","","","","","image-keyboard-response","106","528855","0.0-81.0","628de7e8ff1744a9717d7883","665500ab8938657b03fbdba8","665792a6da597cba6f1cf468","2002","stimuli/2000011.jpg","1","","prediction_trial","2","","false","","2","false","false","true","true","false","false","[2]","000","011","0","","","","","","",""
"","","","","","image-keyboard-response","107","529460","0.0-82.0","628de7e8ff1744a9717d7883","665500ab8938657b03fbdba8","665792a6da597cba6f1cf468","603","stimuli/20000112.jpg"," ","","feedback_trial","2","","","","","","","","","","","","","","","","","","","","",""
"","","","","","image-keyboard-response","108","530517","0.0-83.0","628de7e8ff1744a9717d7883","665500ab8938657b03fbdba8","665792a6da597cba6f1cf468","1056","stimuli/0000110.jpg","1","","prediction_trial","0","","false","","0","false","false","true","true","false","false","[0]","000","110","0","","","","","","",""
"","","","","","image-keyboard-response","109","531331","0.0-84.0","628de7e8ff1744a9717d7883","665500ab8938657b03fbdba8","665792a6da597cba6f1cf468","813","stimuli/00001100.jpg"," ","","feedback_trial","0","","","","","","","","","","","","","","","","","","","","",""
"","","","","","image-keyboard-response","110","532964","0.0-85.0","628de7e8ff1744a9717d7883","665500ab8938657b03fbdba8","665792a6da597cba6f1cf468","1617","stimuli/2110011.jpg","2","","prediction_trial","2","","true","","2","false","false","true","true","false","false","[2]","110","011","1","","","","","","",""
"","","","","","image-keyboard-response","111","533493","0.0-86.0","628de7e8ff1744a9717d7883","665500ab8938657b03fbdba8","665792a6da597cba6f1cf468","528","stimuli/21100112.jpg"," ","","feedback_trial","2","","","","","","","","","","","","","","","","","","","","",""
"","","","","","image-keyboard-response","112","534886","0.0-87.0","628de7e8ff1744a9717d7883","665500ab8938657b03fbdba8","665792a6da597cba6f1cf468","1392","stimuli/2111010.jpg","2","","prediction_trial","0","","false","","2","true","true","false","false","false","false","[0,2,1]","111","010","0","","","","","","",""
"","","","","","image-keyboard-response","113","535536","0.0-88.0","628de7e8ff1744a9717d7883","665500ab8938657b03fbdba8","665792a6da597cba6f1cf468","648","stimuli/21110100.jpg"," ","","feedback_trial","0","","","","","","","","","","","","","","","","","","","","",""
"","","","","","image-keyboard-response","114","536727","0.0-89.0","628de7e8ff1744a9717d7883","665500ab8938657b03fbdba8","665792a6da597cba6f1cf468","1190","stimuli/1011001.jpg","1","","prediction_trial","2","","false","","1","true","true","false","false","false","false","[2,1]","011","001","0","","","","","","",""
"","","","","","image-keyboard-response","115","537718","0.0-90.0","628de7e8ff1744a9717d7883","665500ab8938657b03fbdba8","665792a6da597cba6f1cf468","989","stimuli/10110012.jpg"," ","","feedback_trial","2","","","","","","","","","","","","","","","","","","","","",""
"","","","","","image-keyboard-response","116","538734","0.0-91.0","628de7e8ff1744a9717d7883","665500ab8938657b03fbdba8","665792a6da597cba6f1cf468","1014","stimuli/0110000.jpg","0","","prediction_trial","0","","true","","0","true","true","false","false","false","false","[0,1]","110","000","1","","","","","","",""
"","","","","","image-keyboard-response","117","539223","0.0-92.0","628de7e8ff1744a9717d7883","665500ab8938657b03fbdba8","665792a6da597cba6f1cf468","488","stimuli/01100000.jpg"," ","","feedback_trial","0","","","","","","","","","","","","","","","","","","","","",""
"","","","","","image-keyboard-response","118","540022","0.0-93.0","628de7e8ff1744a9717d7883","665500ab8938657b03fbdba8","665792a6da597cba6f1cf468","785","stimuli/1011100.jpg","1","","prediction_trial","2","","false","","1","true","true","false","false","false","false","[2,1]","011","100","0","","","","","","",""
"","","","","","image-keyboard-response","119","540577","0.0-94.0","628de7e8ff1744a9717d7883","665500ab8938657b03fbdba8","665792a6da597cba6f1cf468","553","stimuli/10111002.jpg"," ","","feedback_trial","2","","","","","","","","","","","","","","","","","","","","",""
"","","","","","image-keyboard-response","120","541368","0.0-95.0","628de7e8ff1744a9717d7883","665500ab8938657b03fbdba8","665792a6da597cba6f1cf468","789","stimuli/2001100.jpg","2","","prediction_trial","2","","true","","2","true","true","false","true","false","true","[2]","001","100","1","","","","","","",""
"","","","","","image-keyboard-response","121","541917","0.0-96.0","628de7e8ff1744a9717d7883","665500ab8938657b03fbdba8","665792a6da597cba6f1cf468","548","stimuli/20011002.jpg"," ","","feedback_trial","2","","","","","","","","","","","","","","","","","","","","",""
"","","","","","image-keyboard-response","122","542558","0.0-97.0","628de7e8ff1744a9717d7883","665500ab8938657b03fbdba8","665792a6da597cba6f1cf468","639","stimuli/0001001.jpg","0","","prediction_trial","0","","true","","0","true","true","true","true","true","true","[0]","001","001","1","","","","","","",""
"","","","","","image-keyboard-response","123","542945","0.0-98.0","628de7e8ff1744a9717d7883","665500ab8938657b03fbdba8","665792a6da597cba6f1cf468","386","stimuli/00010010.jpg"," ","","feedback_trial","0","","","","","","","","","","","","","","","","","","","","",""
"","","","","","image-keyboard-response","124","543550","0.0-99.0","628de7e8ff1744a9717d7883","665500ab8938657b03fbdba8","665792a6da597cba6f1cf468","603","stimuli/2000000.jpg","2","","prediction_trial","2","","true","","2","true","true","true","true","true","true","[2]","000","000","1","","","","","","",""
"","","","","","image-keyboard-response","125","543964","0.0-100.0","628de7e8ff1744a9717d7883","665500ab8938657b03fbdba8","665792a6da597cba6f1cf468","413","stimuli/20000002.jpg"," ","","feedback_trial","2","","","","","","","","","","","","","","","","","","","","",""
"","","","","","image-keyboard-response","126","544685","0.0-101.0","628de7e8ff1744a9717d7883","665500ab8938657b03fbdba8","665792a6da597cba6f1cf468","707","stimuli/0011001.jpg","0","","prediction_trial","0","","true","","0","true","true","true","true","true","true","[0]","011","001","1","","","","","","",""
"","","","","","image-keyboard-response","127","544992","0.0-102.0","628de7e8ff1744a9717d7883","665500ab8938657b03fbdba8","665792a6da597cba6f1cf468","305","stimuli/00110010.jpg"," ","","feedback_trial","0","","","","","","","","","","","","","","","","","","","","",""
"","","","","","image-keyboard-response","128","547580","0.0-103.0","628de7e8ff1744a9717d7883","665500ab8938657b03fbdba8","665792a6da597cba6f1cf468","2586","stimuli/2011110.jpg","1","","prediction_trial","1","","true","","2","true","true","false","false","false","false","[2,1]","011","110","1","","","","","","",""
"","","","","","image-keyboard-response","129","547977","0.0-104.0","628de7e8ff1744a9717d7883","665500ab8938657b03fbdba8","665792a6da597cba6f1cf468","396","stimuli/20111101.jpg"," ","","feedback_trial","2","","","","","","","","","","","","","","","","","","","","",""
"","","","","","image-keyboard-response","130","548953","0.0-105.0","628de7e8ff1744a9717d7883","665500ab8938657b03fbdba8","665792a6da597cba6f1cf468","974","stimuli/2111001.jpg","2","","prediction_trial","0","","false","","2","false","true","false","false","false","false","[1,0,2]","111","001","0","","","","","","",""
"","","","","","image-keyboard-response","131","549518","0.0-106.0","628de7e8ff1744a9717d7883","665500ab8938657b03fbdba8","665792a6da597cba6f1cf468","564","stimuli/21110010.jpg"," ","","feedback_trial","1","","","","","","","","","","","","","","","","","","","","",""
"","","","","","image-keyboard-response","132","550177","0.0-107.0","628de7e8ff1744a9717d7883","665500ab8938657b03fbdba8","665792a6da597cba6f1cf468","658","stimuli/0000011.jpg","0","","prediction_trial","0","","true","","0","true","true","true","true","true","true","[0]","000","011","1","","","","","","",""
"","","","","","image-keyboard-response","133","550492","0.0-108.0","628de7e8ff1744a9717d7883","665500ab8938657b03fbdba8","665792a6da597cba6f1cf468","314","stimuli/00000110.jpg"," ","","feedback_trial","0","","","","","","","","","","","","","","","","","","","","",""
"","","","","","image-keyboard-response","134","552566","0.0-109.0","628de7e8ff1744a9717d7883","665500ab8938657b03fbdba8","665792a6da597cba6f1cf468","2057","stimuli/1111001.jpg","2","","prediction_trial","1","","false","","1","true","true","false","false","false","false","[1,2,0]","111","001","0","","","","","","",""
"","","","","","image-keyboard-response","135","553071","0.0-110.0","628de7e8ff1744a9717d7883","665500ab8938657b03fbdba8","665792a6da597cba6f1cf468","503","stimuli/11110011.jpg"," ","","feedback_trial","1","","","","","","","","","","","","","","","","","","","","",""
"","","","","","image-keyboard-response","136","554118","0.0-111.0","628de7e8ff1744a9717d7883","665500ab8938657b03fbdba8","665792a6da597cba6f1cf468","1046","stimuli/1110011.jpg","1","","prediction_trial","0","","false","","1","false","false","false","false","false","false","[0,1]","110","011","0","","","","","","",""
"","","","","","image-keyboard-response","137","554501","0.0-112.0","628de7e8ff1744a9717d7883","665500ab8938657b03fbdba8","665792a6da597cba6f1cf468","382","stimuli/11100110.jpg"," ","","feedback_trial","0","","","","","","","","","","","","","","","","","","","","",""
"","","","","","image-keyboard-response","138","555246","0.0-113.0","628de7e8ff1744a9717d7883","665500ab8938657b03fbdba8","665792a6da597cba6f1cf468","743","stimuli/1110111.jpg","2","","prediction_trial","0","","false","","1","false","false","false","false","false","false","[1,0]","110","111","0","","","","","","",""
"","","","","","image-keyboard-response","139","556172","0.0-114.0","628de7e8ff1744a9717d7883","665500ab8938657b03fbdba8","665792a6da597cba6f1cf468","925","stimuli/11101110.jpg"," ","","feedback_trial","1","","","","","","","","","","","","","","","","","","","","",""
"","","","","","image-keyboard-response","140","557689","0.0-115.0","628de7e8ff1744a9717d7883","665500ab8938657b03fbdba8","665792a6da597cba6f1cf468","1516","stimuli/1010011.jpg","1","","prediction_trial","1","","true","","1","false","false","false","true","false","false","[1]","010","011","1","","","","","","",""
"","","","","","image-keyboard-response","141","558321","0.0-116.0","628de7e8ff1744a9717d7883","665500ab8938657b03fbdba8","665792a6da597cba6f1cf468","630","stimuli/10100111.jpg"," ","","feedback_trial","1","","","","","","","","","","","","","","","","","","","","",""
"","","","","","image-keyboard-response","142","559054","0.0-117.0","628de7e8ff1744a9717d7883","665500ab8938657b03fbdba8","665792a6da597cba6f1cf468","718","stimuli/2100010.jpg","2","","prediction_trial","2","","true","","2","true","true","true","true","true","true","[2]","100","010","1","","","","","","",""
"","","","","","image-keyboard-response","143","559525","0.0-118.0","628de7e8ff1744a9717d7883","665500ab8938657b03fbdba8","665792a6da597cba6f1cf468","469","stimuli/21000102.jpg"," ","","feedback_trial","2","","","","","","","","","","","","","","","","","","","","",""
"","","","","","image-keyboard-response","144","561518","0.0-119.0","628de7e8ff1744a9717d7883","665500ab8938657b03fbdba8","665792a6da597cba6f1cf468","1991","stimuli/1010101.jpg","1","","prediction_trial","1","","true","","1","true","true","false","true","false","true","[1]","010","101","1","","","","","","",""
"","","","","","image-keyboard-response","145","561937","0.0-120.0","628de7e8ff1744a9717d7883","665500ab8938657b03fbdba8","665792a6da597cba6f1cf468","418","stimuli/10101011.jpg"," ","","feedback_trial","1","","","","","","","","","","","","","","","","","","","","",""
"","","","","","image-keyboard-response","146","563914","0.0-121.0","628de7e8ff1744a9717d7883","665500ab8938657b03fbdba8","665792a6da597cba6f1cf468","1976","stimuli/1011110.jpg","1","","prediction_trial","2","","false","","1","false","false","false","false","false","false","[2,1]","011","110","0","","","","","","",""
"","","","","","image-keyboard-response","147","564607","0.0-122.0","628de7e8ff1744a9717d7883","665500ab8938657b03fbdba8","665792a6da597cba6f1cf468","691","stimuli/10111102.jpg"," ","","feedback_trial","2","","","","","","","","","","","","","","","","","","","","",""
"","","","","","image-keyboard-response","148","565592","0.0-123.0","628de7e8ff1744a9717d7883","665500ab8938657b03fbdba8","665792a6da597cba6f1cf468","984","stimuli/1100100.jpg","1","","prediction_trial","1","","true","","1","true","true","true","true","true","true","[1]","100","100","1","","","","","","",""
"","","","","","image-keyboard-response","149","565921","0.0-124.0","628de7e8ff1744a9717d7883","665500ab8938657b03fbdba8","665792a6da597cba6f1cf468","328","stimuli/11001001.jpg"," ","","feedback_trial","1","","","","","","","","","","","","","","","","","","","","",""
"","","","","","image-keyboard-response","150","567654","0.0-125.0","628de7e8ff1744a9717d7883","665500ab8938657b03fbdba8","665792a6da597cba6f1cf468","1715","stimuli/0001111.jpg","2","","prediction_trial","0","","false","","0","false","false","true","true","false","false","[0]","001","111","0","","","","","","",""
"","","","","","image-keyboard-response","151","568425","0.0-126.0","628de7e8ff1744a9717d7883","665500ab8938657b03fbdba8","665792a6da597cba6f1cf468","770","stimuli/00011110.jpg"," ","","feedback_trial","0","","","","","","","","","","","","","","","","","","","","",""
"","","","","","image-keyboard-response","152","570077","0.0-127.0","628de7e8ff1744a9717d7883","665500ab8938657b03fbdba8","665792a6da597cba6f1cf468","1651","stimuli/1010010.jpg","1","","prediction_trial","1","","true","","1","false","true","false","true","false","true","[1]","010","010","1","","","","","","",""
"","","","","","image-keyboard-response","153","570326","0.0-128.0","628de7e8ff1744a9717d7883","665500ab8938657b03fbdba8","665792a6da597cba6f1cf468","248","stimuli/10100101.jpg"," ","","feedback_trial","1","","","","","","","","","","","","","","","","","","","","",""
"","","","","","image-keyboard-response","154","571045","0.0-129.0","628de7e8ff1744a9717d7883","665500ab8938657b03fbdba8","665792a6da597cba6f1cf468","718","stimuli/1000101.jpg","1","","prediction_trial","1","","true","","1","true","true","true","true","true","true","[1]","000","101","1","","","","","","",""
"","","","","","image-keyboard-response","155","571259","0.0-130.0","628de7e8ff1744a9717d7883","665500ab8938657b03fbdba8","665792a6da597cba6f1cf468","213","stimuli/10001011.jpg"," ","","feedback_trial","1","","","","","","","","","","","","","","","","","","","","",""
"","","","","","image-keyboard-response","156","572838","0.0-131.0","628de7e8ff1744a9717d7883","665500ab8938657b03fbdba8","665792a6da597cba6f1cf468","1578","stimuli/2101000.jpg","2","","prediction_trial","2","","true","","2","true","true","false","false","false","false","[2,0]","101","000","1","","","","","","",""
"","","","","","image-keyboard-response","157","573241","0.0-132.0","628de7e8ff1744a9717d7883","665500ab8938657b03fbdba8","665792a6da597cba6f1cf468","402","stimuli/21010002.jpg"," ","","feedback_trial","2","","","","","","","","","","","","","","","","","","","","",""
"","","","","","image-keyboard-response","158","575185","0.0-133.0","628de7e8ff1744a9717d7883","665500ab8938657b03fbdba8","665792a6da597cba6f1cf468","1924","stimuli/2011100.jpg","1","","prediction_trial","1","","true","","2","true","true","false","false","false","false","[2,1]","011","100","1","","","","","","",""
"","","","","","image-keyboard-response","159","575609","0.0-134.0","628de7e8ff1744a9717d7883","665500ab8938657b03fbdba8","665792a6da597cba6f1cf468","423","stimuli/20111001.jpg"," ","","feedback_trial","2","","","","","","","","","","","","","","","","","","","","",""
"","","","","","image-keyboard-response","160","577031","0.0-135.0","628de7e8ff1744a9717d7883","665500ab8938657b03fbdba8","665792a6da597cba6f1cf468","1420","stimuli/2001110.jpg","2","","prediction_trial","2","","true","","2","true","true","false","true","false","true","[2]","001","110","1","","","","","","",""
"","","","","","image-keyboard-response","161","577505","0.0-136.0","628de7e8ff1744a9717d7883","665500ab8938657b03fbdba8","665792a6da597cba6f1cf468","474","stimuli/20011102.jpg"," ","","feedback_trial","2","","","","","","","","","","","","","","","","","","","","",""
"","","","","","image-keyboard-response","162","578210","0.0-137.0","628de7e8ff1744a9717d7883","665500ab8938657b03fbdba8","665792a6da597cba6f1cf468","703","stimuli/1001101.jpg","1","","prediction_trial","1","","true","","1","true","true","true","true","true","true","[1]","001","101","1","","","","","","",""
"","","","","","image-keyboard-response","163","578445","0.0-138.0","628de7e8ff1744a9717d7883","665500ab8938657b03fbdba8","665792a6da597cba6f1cf468","234","stimuli/10011011.jpg"," ","","feedback_trial","1","","","","","","","","","","","","","","","","","","","","",""
"","","","","","image-keyboard-response","164","579242","0.0-139.0","628de7e8ff1744a9717d7883","665500ab8938657b03fbdba8","665792a6da597cba6f1cf468","796","stimuli/0001000.jpg","0","","prediction_trial","0","","true","","0","true","true","true","true","true","true","[0]","001","000","1","","","","","","",""
"","","","","","image-keyboard-response","165","579553","0.0-140.0","628de7e8ff1744a9717d7883","665500ab8938657b03fbdba8","665792a6da597cba6f1cf468","309","stimuli/00010000.jpg"," ","","feedback_trial","0","","","","","","","","","","","","","","","","","","","","",""
"","","","","","image-keyboard-response","166","581031","0.0-141.0","628de7e8ff1744a9717d7883","665500ab8938657b03fbdba8","665792a6da597cba6f1cf468","1463","stimuli/1011011.jpg","1","","prediction_trial","1","","true","","1","false","false","false","false","false","false","[2,1]","011","011","1","","","","","","",""
"","","","","","image-keyboard-response","167","581424","0.0-142.0","628de7e8ff1744a9717d7883","665500ab8938657b03fbdba8","665792a6da597cba6f1cf468","392","stimuli/10110111.jpg"," ","","feedback_trial","2","","","","","","","","","","","","","","","","","","","","",""
"","","","","","image-keyboard-response","168","583935","0.0-143.0","628de7e8ff1744a9717d7883","665500ab8938657b03fbdba8","665792a6da597cba6f1cf468","2509","stimuli/0101100.jpg","0","","prediction_trial","2","","false","","0","false","true","false","false","false","false","[0,2]","101","100","0","","","","","","",""
"","","","","","image-keyboard-response","169","584349","0.0-144.0","628de7e8ff1744a9717d7883","665500ab8938657b03fbdba8","665792a6da597cba6f1cf468","413","stimuli/01011002.jpg"," ","","feedback_trial","0","","","","","","","","","","","","","","","","","","","","",""
"","","","","","image-keyboard-response","170","585672","0.0-145.0","628de7e8ff1744a9717d7883","665500ab8938657b03fbdba8","665792a6da597cba6f1cf468","1322","stimuli/1000110.jpg","1","","prediction_trial","1","","true","","1","false","false","true","true","false","false","[1]","000","110","1","","","","","","",""
"","","","","","image-keyboard-response","171","586070","0.0-146.0","628de7e8ff1744a9717d7883","665500ab8938657b03fbdba8","665792a6da597cba6f1cf468","397","stimuli/10001101.jpg"," ","","feedback_trial","1","","","","","","","","","","","","","","","","","","","","",""
"","","","","","image-keyboard-response","172","586721","0.0-147.0","628de7e8ff1744a9717d7883","665500ab8938657b03fbdba8","665792a6da597cba6f1cf468","649","stimuli/1001001.jpg","1","","prediction_trial","1","","true","","1","true","true","true","true","true","true","[1]","001","001","1","","","","","","",""
"","","","","","image-keyboard-response","173","586949","0.0-148.0","628de7e8ff1744a9717d7883","665500ab8938657b03fbdba8","665792a6da597cba6f1cf468","226","stimuli/10010011.jpg"," ","","feedback_trial","1","","","","","","","","","","","","","","","","","","","","",""
"","","","","","image-keyboard-response","174","587954","0.0-149.0","628de7e8ff1744a9717d7883","665500ab8938657b03fbdba8","665792a6da597cba6f1cf468","989","stimuli/0011100.jpg","0","","prediction_trial","0","","true","","0","false","true","true","true","false","true","[0]","011","100","1","","","","","","",""
"","","","","","image-keyboard-response","175","588383","0.0-150.0","628de7e8ff1744a9717d7883","665500ab8938657b03fbdba8","665792a6da597cba6f1cf468","428","stimuli/00111000.jpg"," ","","feedback_trial","0","","","","","","","","","","","","","","","","","","","","",""
"","","","","","image-keyboard-response","176","589193","0.0-151.0","628de7e8ff1744a9717d7883","665500ab8938657b03fbdba8","665792a6da597cba6f1cf468","809","stimuli/1000100.jpg","1","","prediction_trial","1","","true","","1","true","true","true","true","true","true","[1]","000","100","1","","","","","","",""
"","","","","","image-keyboard-response","177","589432","0.0-152.0","628de7e8ff1744a9717d7883","665500ab8938657b03fbdba8","665792a6da597cba6f1cf468","237","stimuli/10001001.jpg"," ","","feedback_trial","1","","","","","","","","","","","","","","","","","","","","",""
"","","","","","image-keyboard-response","178","595655","0.0-153.0","628de7e8ff1744a9717d7883","665500ab8938657b03fbdba8","665792a6da597cba6f1cf468","6222","stimuli/0110001.jpg","1","","prediction_trial","0","","false","","0","true","true","false","false","false","false","[0,1]","110","001","0","","","","","","",""
"","","","","","image-keyboard-response","179","596141","0.0-154.0","628de7e8ff1744a9717d7883","665500ab8938657b03fbdba8","665792a6da597cba6f1cf468","484","stimuli/01100010.jpg"," ","","feedback_trial","0","","","","","","","","","","","","","","","","","","","","",""
"","","","","","image-keyboard-response","180","597674","0.0-155.0","628de7e8ff1744a9717d7883","665500ab8938657b03fbdba8","665792a6da597cba6f1cf468","1532","stimuli/2000111.jpg","1","","prediction_trial","2","","false","","2","false","false","true","true","false","false","[2]","000","111","0","","","","","","",""
"","","","","","image-keyboard-response","181","598137","0.0-156.0","628de7e8ff1744a9717d7883","665500ab8938657b03fbdba8","665792a6da597cba6f1cf468","461","stimuli/20001112.jpg"," ","","feedback_trial","2","","","","","","","","","","","","","","","","","","","","",""
"","","","","","image-keyboard-response","182","598761","0.0-157.0","628de7e8ff1744a9717d7883","665500ab8938657b03fbdba8","665792a6da597cba6f1cf468","608","stimuli/2000110.jpg","2","","prediction_trial","2","","true","","2","true","true","true","true","true","true","[2]","000","110","1","","","","","","",""
"","","","","","image-keyboard-response","183","599040","0.0-158.0","628de7e8ff1744a9717d7883","665500ab8938657b03fbdba8","665792a6da597cba6f1cf468","278","stimuli/20001102.jpg"," ","","feedback_trial","2","","","","","","","","","","","","","","","","","","","","",""
"","","","","","image-keyboard-response","184","599865","0.0-159.0","628de7e8ff1744a9717d7883","665500ab8938657b03fbdba8","665792a6da597cba6f1cf468","823","stimuli/1010000.jpg","1","","prediction_trial","1","","true","","1","true","true","false","true","false","true","[1]","010","000","1","","","","","","",""
"","","","","","image-keyboard-response","185","600210","0.0-160.0","628de7e8ff1744a9717d7883","665500ab8938657b03fbdba8","665792a6da597cba6f1cf468","344","stimuli/10100001.jpg"," ","","feedback_trial","1","","","","","","","","","","","","","","","","","","","","",""
"","","","","","image-keyboard-response","186","601305","0.0-161.0","628de7e8ff1744a9717d7883","665500ab8938657b03fbdba8","665792a6da597cba6f1cf468","1093","stimuli/1001110.jpg","1","","prediction_trial","1","","true","","1","false","false","true","true","false","false","[1]","001","110","1","","","","","","",""
"","","","","","image-keyboard-response","187","601644","0.0-162.0","628de7e8ff1744a9717d7883","665500ab8938657b03fbdba8","665792a6da597cba6f1cf468","337","stimuli/10011101.jpg"," ","","feedback_trial","1","","","","","","","","","","","","","","","","","","","","",""
"","","","","","image-keyboard-response","188","603504","0.0-163.0","628de7e8ff1744a9717d7883","665500ab8938657b03fbdba8","665792a6da597cba6f1cf468","1859","stimuli/0000101.jpg","0","","prediction_trial","0","","true","","0","false","false","true","true","false","false","[0]","000","101","1","","","","","","",""
"","","","","","image-keyboard-response","189","603888","0.0-164.0","628de7e8ff1744a9717d7883","665500ab8938657b03fbdba8","665792a6da597cba6f1cf468","382","stimuli/00001010.jpg"," ","","feedback_trial","0","","","","","","","","","","","","","","","","","","","","",""
"","","","","","image-keyboard-response","190","605510","0.0-165.0","628de7e8ff1744a9717d7883","665500ab8938657b03fbdba8","665792a6da597cba6f1cf468","1608","stimuli/1000111.jpg","1","","prediction_trial","1","","true","","1","false","false","true","true","false","false","[1]","000","111","1","","","","","","",""
"","","","","","image-keyboard-response","191","605949","0.0-166.0","628de7e8ff1744a9717d7883","665500ab8938657b03fbdba8","665792a6da597cba6f1cf468","438","stimuli/10001111.jpg"," ","","feedback_trial","1","","","","","","","","","","","","","","","","","","","","",""
"","","","","","image-keyboard-response","192","608159","0.0-167.0","628de7e8ff1744a9717d7883","665500ab8938657b03fbdba8","665792a6da597cba6f1cf468","2208","stimuli/1011101.jpg","0","","prediction_trial","2","","false","","1","true","true","false","false","false","false","[2,1]","011","101","0","","","","","","",""
"","","","","","image-keyboard-response","193","613311","0.0-168.0","628de7e8ff1744a9717d7883","665500ab8938657b03fbdba8","665792a6da597cba6f1cf468","5145","stimuli/10111012.jpg"," ","","feedback_trial","2","","","","","","","","","","","","","","","","","","","","",""
"","","","","","image-keyboard-response","194","615685","0.0-169.0","628de7e8ff1744a9717d7883","665500ab8938657b03fbdba8","665792a6da597cba6f1cf468","2372","stimuli/0111011.jpg","1","","prediction_trial","2","","false","","0","true","true","false","false","false","false","[0,1,2]","111","011","0","","","","","","",""
"","","","","","image-keyboard-response","195","616326","0.0-170.0","628de7e8ff1744a9717d7883","665500ab8938657b03fbdba8","665792a6da597cba6f1cf468","639","stimuli/01110112.jpg"," ","","feedback_trial","0","","","","","","","","","","","","","","","","","","","","",""
"","","","","","image-keyboard-response","196","617386","0.0-171.0","628de7e8ff1744a9717d7883","665500ab8938657b03fbdba8","665792a6da597cba6f1cf468","1059","stimuli/1111010.jpg","1","","prediction_trial","0","","false","","1","false","true","false","false","false","false","[0,1,2]","111","010","0","","","","","","",""
"","","","","","image-keyboard-response","197","617901","0.0-172.0","628de7e8ff1744a9717d7883","665500ab8938657b03fbdba8","665792a6da597cba6f1cf468","513","stimuli/11110100.jpg"," ","","feedback_trial","0","","","","","","","","","","","","","","","","","","","","",""
"","","","","","image-keyboard-response","198","618812","0.0-173.0","628de7e8ff1744a9717d7883","665500ab8938657b03fbdba8","665792a6da597cba6f1cf468","898","stimuli/1011010.jpg","1","","prediction_trial","1","","true","","1","false","true","false","false","false","false","[1,2]","011","010","1","","","","","","",""
"","","","","","image-keyboard-response","199","619236","0.0-174.0","628de7e8ff1744a9717d7883","665500ab8938657b03fbdba8","665792a6da597cba6f1cf468","423","stimuli/10110101.jpg"," ","","feedback_trial","1","","","","","","","","","","","","","","","","","","","","",""
"","","","","","image-keyboard-response","200","620960","0.0-175.0","628de7e8ff1744a9717d7883","665500ab8938657b03fbdba8","665792a6da597cba6f1cf468","1723","stimuli/1000010.jpg","1","","prediction_trial","1","","true","","1","false","true","true","true","false","true","[1]","000","010","1","","","","","","",""
"","","","","","image-keyboard-response","201","621317","0.0-176.0","628de7e8ff1744a9717d7883","665500ab8938657b03fbdba8","665792a6da597cba6f1cf468","356","stimuli/10000101.jpg"," ","","feedback_trial","1","","","","","","","","","","","","","","","","","","","","",""
"","","","","","image-keyboard-response","202","622895","0.0-177.0","628de7e8ff1744a9717d7883","665500ab8938657b03fbdba8","665792a6da597cba6f1cf468","1577","stimuli/2001101.jpg","2","","prediction_trial","2","","true","","2","false","false","false","true","false","false","[2]","001","101","1","","","","","","",""
"","","","","","image-keyboard-response","203","623410","0.0-178.0","628de7e8ff1744a9717d7883","665500ab8938657b03fbdba8","665792a6da597cba6f1cf468","513","stimuli/20011012.jpg"," ","","feedback_trial","2","","","","","","","","","","","","","","","","","","","","",""
"","","","","","image-keyboard-response","204","624871","0.0-179.0","628de7e8ff1744a9717d7883","665500ab8938657b03fbdba8","665792a6da597cba6f1cf468","1461","stimuli/0001100.jpg","0","","prediction_trial","0","","true","","0","false","true","true","true","false","true","[0]","001","100","1","","","","","","",""
"","","","","","image-keyboard-response","205","625241","0.0-180.0","628de7e8ff1744a9717d7883","665500ab8938657b03fbdba8","665792a6da597cba6f1cf468","368","stimuli/00011000.jpg"," ","","feedback_trial","0","","","","","","","","","","","","","","","","","","","","",""
"","","","","","image-keyboard-response","206","626503","0.0-181.0","628de7e8ff1744a9717d7883","665500ab8938657b03fbdba8","665792a6da597cba6f1cf468","1240","stimuli/1100010.jpg","1","","prediction_trial","1","","true","","1","false","true","true","true","false","true","[1]","100","010","1","","","","","","",""
"","","","","","image-keyboard-response","207","626782","0.0-182.0","628de7e8ff1744a9717d7883","665500ab8938657b03fbdba8","665792a6da597cba6f1cf468","277","stimuli/11000101.jpg"," ","","feedback_trial","1","","","","","","","","","","","","","","","","","","","","",""
"","","","","","image-keyboard-response","208","628009","0.0-183.0","628de7e8ff1744a9717d7883","665500ab8938657b03fbdba8","665792a6da597cba6f1cf468","1226","stimuli/2011010.jpg","2","","prediction_trial","2","","true","","2","true","true","false","false","false","false","[2,1]","011","010","1","","","","","","",""
"","","","","","image-keyboard-response","209","628452","0.0-184.0","628de7e8ff1744a9717d7883","665500ab8938657b03fbdba8","665792a6da597cba6f1cf468","442","stimuli/20110102.jpg"," ","","feedback_trial","2","","","","","","","","","","","","","","","","","","","","",""
"","","","","","image-keyboard-response","210","630292","0.0-185.0","628de7e8ff1744a9717d7883","665500ab8938657b03fbdba8","665792a6da597cba6f1cf468","1838","stimuli/1100111.jpg","0","","prediction_trial","1","","false","","1","false","false","true","true","false","false","[1]","100","111","0","","","","","","",""
"","","","","","image-keyboard-response","211","630991","0.0-186.0","628de7e8ff1744a9717d7883","665500ab8938657b03fbdba8","665792a6da597cba6f1cf468","698","stimuli/11001111.jpg"," ","","feedback_trial","1","","","","","","","","","","","","","","","","","","","","",""
"","","","","","image-keyboard-response","212","631812","0.0-187.0","628de7e8ff1744a9717d7883","665500ab8938657b03fbdba8","665792a6da597cba6f1cf468","820","stimuli/2010111.jpg","1","","prediction_trial","2","","false","","2","false","false","true","true","false","false","[2]","010","111","0","","","","","","",""
"","","","","","image-keyboard-response","213","632497","0.0-188.0","628de7e8ff1744a9717d7883","665500ab8938657b03fbdba8","665792a6da597cba6f1cf468","684","stimuli/20101112.jpg"," ","","feedback_trial","2","","","","","","","","","","","","","","","","","","","","",""
"","","","","","image-keyboard-response","214","633165","0.0-189.0","628de7e8ff1744a9717d7883","665500ab8938657b03fbdba8","665792a6da597cba6f1cf468","650","stimuli/1001100.jpg","1","","prediction_trial","1","","true","","1","true","true","true","true","true","true","[1]","001","100","1","","","","","","",""
"","","","","","image-keyboard-response","215","633439","0.0-190.0","628de7e8ff1744a9717d7883","665500ab8938657b03fbdba8","665792a6da597cba6f1cf468","272","stimuli/10011001.jpg"," ","","feedback_trial","1","","","","","","","","","","","","","","","","","","","","",""
"","","","","","image-keyboard-response","216","634189","0.0-191.0","628de7e8ff1744a9717d7883","665500ab8938657b03fbdba8","665792a6da597cba6f1cf468","749","stimuli/2011000.jpg","2","","prediction_trial","1","","false","","2","true","true","false","false","false","false","[1,2]","011","000","0","","","","","","",""
"","","","","","image-keyboard-response","217","634734","0.0-192.0","628de7e8ff1744a9717d7883","665500ab8938657b03fbdba8","665792a6da597cba6f1cf468","544","stimuli/20110001.jpg"," ","","feedback_trial","1","","","","","","","","","","","","","","","","","","","","",""
"","","","","","image-keyboard-response","218","636702","0.0-193.0","628de7e8ff1744a9717d7883","665500ab8938657b03fbdba8","665792a6da597cba6f1cf468","1966","stimuli/2010101.jpg","0","","prediction_trial","2","","false","","2","false","false","true","true","false","false","[2]","010","101","0","","","","","","",""
"","","","","","image-keyboard-response","219","637167","0.0-194.0","628de7e8ff1744a9717d7883","665500ab8938657b03fbdba8","665792a6da597cba6f1cf468","463","stimuli/20101012.jpg"," ","","feedback_trial","2","","","","","","","","","","","","","","","","","","","","",""
"","","","","","image-keyboard-response","220","639286","0.0-195.0","628de7e8ff1744a9717d7883","665500ab8938657b03fbdba8","665792a6da597cba6f1cf468","2118","stimuli/0100011.jpg","0","","prediction_trial","0","","true","","0","true","true","false","true","false","true","[0]","100","011","1","","","","","","",""
"","","","","","image-keyboard-response","221","639499","0.0-196.0","628de7e8ff1744a9717d7883","665500ab8938657b03fbdba8","665792a6da597cba6f1cf468","213","stimuli/01000110.jpg"," ","","feedback_trial","0","","","","","","","","","","","","","","","","","","","","",""
"","","","","","image-keyboard-response","222","641544","0.0-197.0","628de7e8ff1744a9717d7883","665500ab8938657b03fbdba8","665792a6da597cba6f1cf468","2030","stimuli/0100010.jpg","0","","prediction_trial","0","","true","","0","true","true","false","true","false","true","[0]","100","010","1","","","","","","",""
"","","","","","image-keyboard-response","223","641793","0.0-198.0","628de7e8ff1744a9717d7883","665500ab8938657b03fbdba8","665792a6da597cba6f1cf468","247","stimuli/01000100.jpg"," ","","feedback_trial","0","","","","","","","","","","","","","","","","","","","","",""
"","","","","","image-keyboard-response","224","647719","0.0-199.0","628de7e8ff1744a9717d7883","665500ab8938657b03fbdba8","665792a6da597cba6f1cf468","5925","stimuli/1111100.jpg","1","","prediction_trial","1","","true","","1","true","true","false","false","false","false","[2,0,1]","111","100","1","","","","","","",""
"","","","","","image-keyboard-response","225","648264","0.0-200.0","628de7e8ff1744a9717d7883","665500ab8938657b03fbdba8","665792a6da597cba6f1cf468","544","stimuli/11111001.jpg"," ","","feedback_trial","2","","","","","","","","","","","","","","","","","","","","",""
"","","","","","image-keyboard-response","226","649946","0.0-201.0","628de7e8ff1744a9717d7883","665500ab8938657b03fbdba8","665792a6da597cba6f1cf468","1681","stimuli/0110101.jpg","2","","prediction_trial","0","","false","","0","false","false","false","false","false","false","[1,0]","110","101","0","","","","","","",""
"","","","","","image-keyboard-response","227","650466","0.0-202.0","628de7e8ff1744a9717d7883","665500ab8938657b03fbdba8","665792a6da597cba6f1cf468","519","stimuli/01101010.jpg"," ","","feedback_trial","1","","","","","","","","","","","","","","","","","","","","",""
"","","","","","image-keyboard-response","228","651764","0.0-203.0","628de7e8ff1744a9717d7883","665500ab8938657b03fbdba8","665792a6da597cba6f1cf468","1296","stimuli/1000011.jpg","1","","prediction_trial","1","","true","","1","false","false","true","true","false","false","[1]","000","011","1","","","","","","",""
"","","","","","image-keyboard-response","229","652197","0.0-204.0","628de7e8ff1744a9717d7883","665500ab8938657b03fbdba8","665792a6da597cba6f1cf468","432","stimuli/10000111.jpg"," ","","feedback_trial","1","","","","","","","","","","","","","","","","","","","","",""
"","","","","","image-keyboard-response","230","653249","0.0-205.0","628de7e8ff1744a9717d7883","665500ab8938657b03fbdba8","665792a6da597cba6f1cf468","1035","stimuli/1001011.jpg","2","","prediction_trial","1","","false","","1","false","false","true","true","false","false","[1]","001","011","0","","","","","","",""
"","","","","","image-keyboard-response","231","654725","0.0-206.0","628de7e8ff1744a9717d7883","665500ab8938657b03fbdba8","665792a6da597cba6f1cf468","1475","stimuli/10010111.jpg"," ","","feedback_trial","1","","","","","","","","","","","","","","","","","","","","",""
"","","","","","image-keyboard-response","232","656405","0.0-207.0","628de7e8ff1744a9717d7883","665500ab8938657b03fbdba8","665792a6da597cba6f1cf468","1678","stimuli/1011111.jpg","2","","prediction_trial","1","","false","","1","false","false","false","false","false","false","[2,1]","011","111","0","","","","","","",""
"","","","","","image-keyboard-response","233","656963","0.0-208.0","628de7e8ff1744a9717d7883","665500ab8938657b03fbdba8","665792a6da597cba6f1cf468","557","stimuli/10111111.jpg"," ","","feedback_trial","2","","","","","","","","","","","","","","","","","","","","",""
"","","","","","image-keyboard-response","234","658597","0.0-209.0","628de7e8ff1744a9717d7883","665500ab8938657b03fbdba8","665792a6da597cba6f1cf468","1633","stimuli/0110110.jpg","1","","prediction_trial","1","","true","","0","false","false","false","false","false","false","[1,0]","110","110","1","","","","","","",""
"","","","","","image-keyboard-response","235","659045","0.0-210.0","628de7e8ff1744a9717d7883","665500ab8938657b03fbdba8","665792a6da597cba6f1cf468","446","stimuli/01101101.jpg"," ","","feedback_trial","1","","","","","","","","","","","","","","","","","","","","",""
"","","","","","image-keyboard-response","236","660669","0.0-211.0","628de7e8ff1744a9717d7883","665500ab8938657b03fbdba8","665792a6da597cba6f1cf468","1622","stimuli/1001111.jpg","2","","prediction_trial","1","","false","","1","false","false","true","true","false","false","[1]","001","111","0","","","","","","",""
"","","","","","image-keyboard-response","237","661117","0.0-212.0","628de7e8ff1744a9717d7883","665500ab8938657b03fbdba8","665792a6da597cba6f1cf468","447","stimuli/10011111.jpg"," ","","feedback_trial","1","","","","","","","","","","","","","","","","","","","","",""
"","","","","","image-keyboard-response","238","661863","0.0-213.0","628de7e8ff1744a9717d7883","665500ab8938657b03fbdba8","665792a6da597cba6f1cf468","732","stimuli/0011111.jpg","1","","prediction_trial","0","","false","","0","false","false","true","true","false","false","[0]","011","111","0","","","","","","",""
"","","","","","image-keyboard-response","239","662433","0.0-214.0","628de7e8ff1744a9717d7883","665500ab8938657b03fbdba8","665792a6da597cba6f1cf468","568","stimuli/00111110.jpg"," ","","feedback_trial","0","","","","","","","","","","","","","","","","","","","","",""
"","","","","","image-keyboard-response","240","663599","0.0-215.0","628de7e8ff1744a9717d7883","665500ab8938657b03fbdba8","665792a6da597cba6f1cf468","1164","stimuli/1011000.jpg","2","","prediction_trial","1","","false","","1","true","true","false","false","false","false","[2,1]","011","000","0","","","","","","",""
"","","","","","image-keyboard-response","241","664038","0.0-216.0","628de7e8ff1744a9717d7883","665500ab8938657b03fbdba8","665792a6da597cba6f1cf468","437","stimuli/10110001.jpg"," ","","feedback_trial","2","","","","","","","","","","","","","","","","","","","","",""
"","","","","","image-keyboard-response","242","665028","0.0-217.0","628de7e8ff1744a9717d7883","665500ab8938657b03fbdba8","665792a6da597cba6f1cf468","988","stimuli/2001001.jpg","2","","prediction_trial","2","","true","","2","false","true","false","true","false","true","[2]","001","001","1","","","","","","",""
"","","","","","image-keyboard-response","243","665438","0.0-218.0","628de7e8ff1744a9717d7883","665500ab8938657b03fbdba8","665792a6da597cba6f1cf468","408","stimuli/20010012.jpg"," ","","feedback_trial","2","","","","","","","","","","","","","","","","","","","","",""
"","","","","","image-keyboard-response","244","666126","0.0-219.0","628de7e8ff1744a9717d7883","665500ab8938657b03fbdba8","665792a6da597cba6f1cf468","687","stimuli/2000100.jpg","2","","prediction_trial","2","","true","","2","true","true","true","true","true","true","[2]","000","100","1","","","","","","",""
"","","","","","image-keyboard-response","245","666390","0.0-220.0","628de7e8ff1744a9717d7883","665500ab8938657b03fbdba8","665792a6da597cba6f1cf468","262","stimuli/20001002.jpg"," ","","feedback_trial","2","","","","","","","","","","","","","","","","","","","","",""
"","","","","","image-keyboard-response","246","668800","0.0-221.0","628de7e8ff1744a9717d7883","665500ab8938657b03fbdba8","665792a6da597cba6f1cf468","2396","stimuli/1010100.jpg","1","","prediction_trial","1","","true","","1","true","true","false","true","false","true","[1]","010","100","1","","","","","","",""
"","","","","","image-keyboard-response","247","669205","0.0-222.0","628de7e8ff1744a9717d7883","665500ab8938657b03fbdba8","665792a6da597cba6f1cf468","403","stimuli/10101001.jpg"," ","","feedback_trial","1","","","","","","","","","","","","","","","","","","","","",""
"","","","","","image-keyboard-response","248","669808","0.0-223.0","628de7e8ff1744a9717d7883","665500ab8938657b03fbdba8","665792a6da597cba6f1cf468","601","stimuli/1000000.jpg","1","","prediction_trial","1","","true","","1","true","true","true","true","true","true","[1]","000","000","1","","","","","","",""
"","","","","","image-keyboard-response","249","670092","0.0-224.0","628de7e8ff1744a9717d7883","665500ab8938657b03fbdba8","665792a6da597cba6f1cf468","282","stimuli/10000001.jpg"," ","","feedback_trial","1","","","","","","","","","","","","","","","","","","","","",""
"","","","","","image-keyboard-response","250","671073","0.0-225.0","628de7e8ff1744a9717d7883","665500ab8938657b03fbdba8","665792a6da597cba6f1cf468","980","stimuli/0010100.jpg","0","","prediction_trial","0","","true","","0","false","true","true","true","false","true","[0]","010","100","1","","","","","","",""
"","","","","","image-keyboard-response","251","671346","0.0-226.0","628de7e8ff1744a9717d7883","665500ab8938657b03fbdba8","665792a6da597cba6f1cf468","272","stimuli/00101000.jpg"," ","","feedback_trial","0","","","","","","","","","","","","","","","","","","","","",""
"","","","","","image-keyboard-response","252","672588","0.0-227.0","628de7e8ff1744a9717d7883","665500ab8938657b03fbdba8","665792a6da597cba6f1cf468","1241","stimuli/1110101.jpg","0","","prediction_trial","0","","true","","1","true","true","false","false","false","false","[0,1]","110","101","1","","","","","","",""
"","","","","","image-keyboard-response","253","673011","0.0-228.0","628de7e8ff1744a9717d7883","665500ab8938657b03fbdba8","665792a6da597cba6f1cf468","421","stimuli/11101010.jpg"," ","","feedback_trial","0","","","","","","","","","","","","","","","","","","","","",""
"","","","","","image-keyboard-response","254","674046","0.0-229.0","628de7e8ff1744a9717d7883","665500ab8938657b03fbdba8","665792a6da597cba6f1cf468","1023","stimuli/2110111.jpg","1","","prediction_trial","2","","false","","2","false","false","true","true","false","false","[2]","110","111","0","","","","","","",""
"","","","","","image-keyboard-response","255","674441","0.0-230.0","628de7e8ff1744a9717d7883","665500ab8938657b03fbdba8","665792a6da597cba6f1cf468","393","stimuli/21101112.jpg"," ","","feedback_trial","2","","","","","","","","","","","","","","","","","","","","",""
"","","","","","image-keyboard-response","256","675172","0.0-231.0","628de7e8ff1744a9717d7883","665500ab8938657b03fbdba8","665792a6da597cba6f1cf468","731","stimuli/0011010.jpg","0","","prediction_trial","0","","true","","0","true","true","true","true","true","true","[0]","011","010","1","","","","","","",""
"","","","","","image-keyboard-response","257","675441","0.0-232.0","628de7e8ff1744a9717d7883","665500ab8938657b03fbdba8","665792a6da597cba6f1cf468","267","stimuli/00110100.jpg"," ","","feedback_trial","0","","","","","","","","","","","","","","","","","","","","",""
"","","","","","image-keyboard-response","258","676070","0.0-233.0","628de7e8ff1744a9717d7883","665500ab8938657b03fbdba8","665792a6da597cba6f1cf468","628","stimuli/0000001.jpg","0","","prediction_trial","0","","true","","0","true","true","true","true","true","true","[0]","000","001","1","","","","","","",""
"","","","","","image-keyboard-response","259","676339","0.0-234.0","628de7e8ff1744a9717d7883","665500ab8938657b03fbdba8","665792a6da597cba6f1cf468","268","stimuli/00000010.jpg"," ","","feedback_trial","0","","","","","","","","","","","","","","","","","","","","",""
"","","","","","image-keyboard-response","260","679205","0.0-235.0","628de7e8ff1744a9717d7883","665500ab8938657b03fbdba8","665792a6da597cba6f1cf468","2864","stimuli/0110011.jpg","1","","prediction_trial","1","","true","","0","true","true","false","false","false","false","[1,0]","110","011","1","","","","","","",""
"","","","","","image-keyboard-response","261","679912","0.0-236.0","628de7e8ff1744a9717d7883","665500ab8938657b03fbdba8","665792a6da597cba6f1cf468","706","stimuli/01100111.jpg"," ","","feedback_trial","1","","","","","","","","","","","","","","","","","","","","",""
"","","","","","image-keyboard-response","262","680504","0.0-237.0","628de7e8ff1744a9717d7883","665500ab8938657b03fbdba8","665792a6da597cba6f1cf468","572","stimuli/1001000.jpg","1","","prediction_trial","1","","true","","1","true","true","true","true","true","true","[1]","001","000","1","","","","","","",""
"","","","","","image-keyboard-response","263","680703","0.0-238.0","628de7e8ff1744a9717d7883","665500ab8938657b03fbdba8","665792a6da597cba6f1cf468","198","stimuli/10010001.jpg"," ","","feedback_trial","1","","","","","","","","","","","","","","","","","","","","",""
"","","","","","image-keyboard-response","264","682837","0.0-239.0","628de7e8ff1744a9717d7883","665500ab8938657b03fbdba8","665792a6da597cba6f1cf468","2133","stimuli/0100101.jpg","2","","prediction_trial","0","","false","","0","false","false","false","true","false","false","[0]","100","101","0","","","","","","",""
"","","","","","image-keyboard-response","265","683431","0.0-240.0","628de7e8ff1744a9717d7883","665500ab8938657b03fbdba8","665792a6da597cba6f1cf468","593","stimuli/01001010.jpg"," ","","feedback_trial","0","","","","","","","","","","","","","","","","","","","","",""
"","","","","","image-keyboard-response","266","684187","0.0-241.0","628de7e8ff1744a9717d7883","665500ab8938657b03fbdba8","665792a6da597cba6f1cf468","754","stimuli/2011101.jpg","1","","prediction_trial","1","","true","","2","false","false","false","false","false","false","[2,1]","011","101","1","","","","","","",""
"","","","","","image-keyboard-response","267","684591","0.0-242.0","628de7e8ff1744a9717d7883","665500ab8938657b03fbdba8","665792a6da597cba6f1cf468","402","stimuli/20111011.jpg"," ","","feedback_trial","2","","","","","","","","","","","","","","","","","","","","",""
"","","","","","image-keyboard-response","268","685405","0.0-243.0","628de7e8ff1744a9717d7883","665500ab8938657b03fbdba8","665792a6da597cba6f1cf468","813","stimuli/0000010.jpg","0","","prediction_trial","0","","true","","0","true","true","true","true","true","true","[0]","000","010","1","","","","","","",""
"","","","","","image-keyboard-response","269","685644","0.0-244.0","628de7e8ff1744a9717d7883","665500ab8938657b03fbdba8","665792a6da597cba6f1cf468","237","stimuli/00000100.jpg"," ","","feedback_trial","0","","","","","","","","","","","","","","","","","","","","",""
"","","","","","image-keyboard-response","270","687693","0.0-245.0","628de7e8ff1744a9717d7883","665500ab8938657b03fbdba8","665792a6da597cba6f1cf468","2035","stimuli/2111101.jpg","0","","prediction_trial","2","","false","","2","false","false","false","false","false","false","[2,1,0]","111","101","0","","","","","","",""
"","","","","","image-keyboard-response","271","688268","0.0-246.0","628de7e8ff1744a9717d7883","665500ab8938657b03fbdba8","665792a6da597cba6f1cf468","573","stimuli/21111012.jpg"," ","","feedback_trial","2","","","","","","","","","","","","","","","","","","","","",""
"","","","","","image-keyboard-response","272","689842","0.0-247.0","628de7e8ff1744a9717d7883","665500ab8938657b03fbdba8","665792a6da597cba6f1cf468","1573","stimuli/1010001.jpg","1","","prediction_trial","1","","true","","1","true","true","false","true","false","true","[1]","010","001","1","","","","","","",""
"","","","","","image-keyboard-response","273","690100","0.0-248.0","628de7e8ff1744a9717d7883","665500ab8938657b03fbdba8","665792a6da597cba6f1cf468","256","stimuli/10100011.jpg"," ","","feedback_trial","1","","","","","","","","","","","","","","","","","","","","",""
"","","","","","image-keyboard-response","274","691135","0.0-249.0","628de7e8ff1744a9717d7883","665500ab8938657b03fbdba8","665792a6da597cba6f1cf468","1030","stimuli/0100111.jpg","0","","prediction_trial","0","","true","","0","false","false","false","true","false","false","[0]","100","111","1","","","","","","",""
"","","","","","image-keyboard-response","275","691640","0.0-250.0","628de7e8ff1744a9717d7883","665500ab8938657b03fbdba8","665792a6da597cba6f1cf468","504","stimuli/01001110.jpg"," ","","feedback_trial","0","","","","","","","","","","","","","","","","","","","","",""
"","","","","","image-keyboard-response","276","692459","0.0-251.0","628de7e8ff1744a9717d7883","665500ab8938657b03fbdba8","665792a6da597cba6f1cf468","818","stimuli/1101100.jpg","1","","prediction_trial","1","","true","","1","true","true","true","true","true","true","[1]","101","100","1","","","","","","",""
"","","","","","image-keyboard-response","277","692677","0.0-252.0","628de7e8ff1744a9717d7883","665500ab8938657b03fbdba8","665792a6da597cba6f1cf468","217","stimuli/11011001.jpg"," ","","feedback_trial","1","","","","","","","","","","","","","","","","","","","","",""
"","","","","","image-keyboard-response","278","693730","0.0-253.0","628de7e8ff1744a9717d7883","665500ab8938657b03fbdba8","665792a6da597cba6f1cf468","1036","stimuli/1110010.jpg","1","","prediction_trial","0","","false","","1","false","true","false","false","false","false","[0,1]","110","010","0","","","","","","",""
"","","","","","image-keyboard-response","279","694279","0.0-254.0","628de7e8ff1744a9717d7883","665500ab8938657b03fbdba8","665792a6da597cba6f1cf468","548","stimuli/11100100.jpg"," ","","feedback_trial","0","","","","","","","","","","","","","","","","","","","","",""
"","","","","","image-keyboard-response","280","694999","0.0-255.0","628de7e8ff1744a9717d7883","665500ab8938657b03fbdba8","665792a6da597cba6f1cf468","719","stimuli/2010100.jpg","2","","prediction_trial","2","","true","","2","true","true","true","true","true","true","[2]","010","100","1","","","","","","",""
"","","","","","image-keyboard-response","281","695272","0.0-256.0","628de7e8ff1744a9717d7883","665500ab8938657b03fbdba8","665792a6da597cba6f1cf468","271","stimuli/20101002.jpg"," ","","feedback_trial","2","","","","","","","","","","","","","","","","","","","","",""
"","","","","","image-keyboard-response","282","697130","0.0-257.0","628de7e8ff1744a9717d7883","665500ab8938657b03fbdba8","665792a6da597cba6f1cf468","1857","stimuli/1111000.jpg","1","","prediction_trial","2","","false","","1","true","true","false","false","false","false","[0,1,2]","111","000","0","","","","","","",""
"","","","","","image-keyboard-response","283","697539","0.0-258.0","628de7e8ff1744a9717d7883","665500ab8938657b03fbdba8","665792a6da597cba6f1cf468","407","stimuli/11110002.jpg"," ","","feedback_trial","0","","","","","","","","","","","","","","","","","","","","",""
"","","","","","image-keyboard-response","284","699281","0.0-259.0","628de7e8ff1744a9717d7883","665500ab8938657b03fbdba8","665792a6da597cba6f1cf468","1741","stimuli/2101101.jpg","0","","prediction_trial","0","","true","","2","false","false","false","false","false","false","[2,0]","101","101","1","","","","","","",""
"","","","","","image-keyboard-response","285","699692","0.0-260.0","628de7e8ff1744a9717d7883","665500ab8938657b03fbdba8","665792a6da597cba6f1cf468","409","stimuli/21011010.jpg"," ","","feedback_trial","2","","","","","","","","","","","","","","","","","","","","",""
"","","","","","image-keyboard-response","286","702323","0.0-261.0","628de7e8ff1744a9717d7883","665500ab8938657b03fbdba8","665792a6da597cba6f1cf468","2614","stimuli/2111100.jpg","2","","prediction_trial","2","","true","","2","true","true","false","false","false","false","[2,0,1]","111","100","1","","","","","","",""
"","","","","","image-keyboard-response","287","702828","0.0-262.0","628de7e8ff1744a9717d7883","665500ab8938657b03fbdba8","665792a6da597cba6f1cf468","504","stimuli/21111002.jpg"," ","","feedback_trial","2","","","","","","","","","","","","","","","","","","","","",""
"","","","","","image-keyboard-response","288","704844","0.0-263.0","628de7e8ff1744a9717d7883","665500ab8938657b03fbdba8","665792a6da597cba6f1cf468","2015","stimuli/1111110.jpg","0","","prediction_trial","1","","false","","1","false","false","false","false","false","false","[1,0,2]","111","110","0","","","","","","",""
"","","","","","image-keyboard-response","289","705277","0.0-264.0","628de7e8ff1744a9717d7883","665500ab8938657b03fbdba8","665792a6da597cba6f1cf468","432","stimuli/11111101.jpg"," ","","feedback_trial","1","","","","","","","","","","","","","","","","","","","","",""
"","","","","","image-keyboard-response","290","706180","0.0-265.0","628de7e8ff1744a9717d7883","665500ab8938657b03fbdba8","665792a6da597cba6f1cf468","901","stimuli/0000111.jpg","1","","prediction_trial","0","","false","","0","false","false","true","true","false","false","[0]","000","111","0","","","","","","",""
"","","","","","image-keyboard-response","291","706579","0.0-266.0","628de7e8ff1744a9717d7883","665500ab8938657b03fbdba8","665792a6da597cba6f1cf468","398","stimuli/00001110.jpg"," ","","feedback_trial","0","","","","","","","","","","","","","","","","","","","","",""
"","","","","","image-keyboard-response","292","707570","0.0-267.0","628de7e8ff1744a9717d7883","665500ab8938657b03fbdba8","665792a6da597cba6f1cf468","989","stimuli/2110001.jpg","2","","prediction_trial","2","","true","","2","false","true","true","true","false","true","[2]","110","001","1","","","","","","",""
"","","","","","image-keyboard-response","293","707950","0.0-268.0","628de7e8ff1744a9717d7883","665500ab8938657b03fbdba8","665792a6da597cba6f1cf468","378","stimuli/21100012.jpg"," ","","feedback_trial","2","","","","","","","","","","","","","","","","","","","","",""
"","","","","","image-keyboard-response","294","708806","0.0-269.0","628de7e8ff1744a9717d7883","665500ab8938657b03fbdba8","665792a6da597cba6f1cf468","854","stimuli/0001110.jpg","1","","prediction_trial","0","","false","","0","false","false","true","true","false","false","[0]","001","110","0","","","","","","",""
"","","","","","image-keyboard-response","295","709154","0.0-270.0","628de7e8ff1744a9717d7883","665500ab8938657b03fbdba8","665792a6da597cba6f1cf468","347","stimuli/00011100.jpg"," ","","feedback_trial","0","","","","","","","","","","","","","","","","","","","","",""
"","","","","","image-keyboard-response","296","709629","0.0-271.0","628de7e8ff1744a9717d7883","665500ab8938657b03fbdba8","665792a6da597cba6f1cf468","473","stimuli/2011011.jpg","2","","prediction_trial","1","","false","","2","false","false","false","false","false","false","[1,2]","011","011","0","","","","","","",""
"","","","","","image-keyboard-response","297","710428","0.0-272.0","628de7e8ff1744a9717d7883","665500ab8938657b03fbdba8","665792a6da597cba6f1cf468","798","stimuli/20110111.jpg"," ","","feedback_trial","1","","","","","","","","","","","","","","","","","","","","",""
"","","","","","image-keyboard-response","298","711729","0.0-273.0","628de7e8ff1744a9717d7883","665500ab8938657b03fbdba8","665792a6da597cba6f1cf468","1300","stimuli/0101011.jpg","0","","prediction_trial","0","","true","","0","true","true","false","false","false","false","[2,0]","101","011","1","","","","","","",""
"","","","","","image-keyboard-response","299","712020","0.0-274.0","628de7e8ff1744a9717d7883","665500ab8938657b03fbdba8","665792a6da597cba6f1cf468","289","stimuli/01010110.jpg"," ","","feedback_trial","2","","","","","","","","","","","","","","","","","","","","",""
"","","","","","image-keyboard-response","300","712742","0.0-275.0","628de7e8ff1744a9717d7883","665500ab8938657b03fbdba8","665792a6da597cba6f1cf468","722","stimuli/2101010.jpg","2","","prediction_trial","0","","false","","2","true","true","false","false","false","false","[0,2]","101","010","0","","","","","","",""
"","","","","","image-keyboard-response","301","713368","0.0-276.0","628de7e8ff1744a9717d7883","665500ab8938657b03fbdba8","665792a6da597cba6f1cf468","624","stimuli/21010100.jpg"," ","","feedback_trial","0","","","","","","","","","","","","","","","","","","","","",""
"","","","","","image-keyboard-response","302","713951","0.0-277.0","628de7e8ff1744a9717d7883","665500ab8938657b03fbdba8","665792a6da597cba6f1cf468","566","stimuli/2111111.jpg","1","","prediction_trial","1","","true","","2","false","false","false","false","false","false","[1,0,2]","111","111","1","","","","","","",""
"","","","","","image-keyboard-response","303","714481","0.0-278.0","628de7e8ff1744a9717d7883","665500ab8938657b03fbdba8","665792a6da597cba6f1cf468","529","stimuli/21111111.jpg"," ","","feedback_trial","1","","","","","","","","","","","","","","","","","","","","",""
"","","","","","image-keyboard-response","304","716311","0.0-279.0","628de7e8ff1744a9717d7883","665500ab8938657b03fbdba8","665792a6da597cba6f1cf468","1829","stimuli/1001010.jpg","1","","prediction_trial","1","","true","","1","false","true","true","true","false","true","[1]","001","010","1","","","","","","",""
"","","","","","image-keyboard-response","305","716680","0.0-280.0","628de7e8ff1744a9717d7883","665500ab8938657b03fbdba8","665792a6da597cba6f1cf468","367","stimuli/10010101.jpg"," ","","feedback_trial","1","","","","","","","","","","","","","","","","","","","","",""
"","","","","","image-keyboard-response","306","718654","0.0-281.0","628de7e8ff1744a9717d7883","665500ab8938657b03fbdba8","665792a6da597cba6f1cf468","1973","stimuli/1010110.jpg","0","","prediction_trial","1","","false","","1","false","false","false","true","false","false","[1]","010","110","0","","","","","","",""
"","","","","","image-keyboard-response","307","719589","0.0-282.0","628de7e8ff1744a9717d7883","665500ab8938657b03fbdba8","665792a6da597cba6f1cf468","933","stimuli/10101101.jpg"," ","","feedback_trial","1","","","","","","","","","","","","","","","","","","","","",""
"","","","","","image-keyboard-response","308","720454","0.0-283.0","628de7e8ff1744a9717d7883","665500ab8938657b03fbdba8","665792a6da597cba6f1cf468","864","stimuli/1111011.jpg","1","","prediction_trial","0","","false","","1","false","false","false","false","false","false","[1,0,2]","111","011","0","","","","","","",""
"","","","","","image-keyboard-response","309","720904","0.0-284.0","628de7e8ff1744a9717d7883","665500ab8938657b03fbdba8","665792a6da597cba6f1cf468","448","stimuli/11110110.jpg"," ","","feedback_trial","1","","","","","","","","","","","","","","","","","","","","",""
"","","","","","image-keyboard-response","310","721637","0.0-285.0","628de7e8ff1744a9717d7883","665500ab8938657b03fbdba8","665792a6da597cba6f1cf468","718","stimuli/2010000.jpg","2","","prediction_trial","2","","true","","2","true","true","true","true","true","true","[2]","010","000","1","","","","","","",""
"","","","","","image-keyboard-response","311","722017","0.0-286.0","628de7e8ff1744a9717d7883","665500ab8938657b03fbdba8","665792a6da597cba6f1cf468","379","stimuli/20100002.jpg"," ","","feedback_trial","2","","","","","","","","","","","","","","","","","","","","",""
"","","","","","image-keyboard-response","312","723670","0.0-287.0","628de7e8ff1744a9717d7883","665500ab8938657b03fbdba8","665792a6da597cba6f1cf468","1652","stimuli/2101100.jpg","2","","prediction_trial","0","","false","","2","true","true","false","false","false","false","[2,0]","101","100","0","","","","","","",""
"","","","","","image-keyboard-response","313","724096","0.0-288.0","628de7e8ff1744a9717d7883","665500ab8938657b03fbdba8","665792a6da597cba6f1cf468","424","stimuli/21011000.jpg"," ","","feedback_trial","2","","","","","","","","","","","","","","","","","","","","",""
"","","","","","image-keyboard-response","314","724926","0.0-289.0","628de7e8ff1744a9717d7883","665500ab8938657b03fbdba8","665792a6da597cba6f1cf468","829","stimuli/2010010.jpg","2","","prediction_trial","2","","true","","2","true","true","true","true","true","true","[2]","010","010","1","","","","","","",""
"","","","","","image-keyboard-response","315","725163","0.0-290.0","628de7e8ff1744a9717d7883","665500ab8938657b03fbdba8","665792a6da597cba6f1cf468","236","stimuli/20100102.jpg"," ","","feedback_trial","2","","","","","","","","","","","","","","","","","","","","",""
"","","","","","image-keyboard-response","316","725757","0.0-291.0","628de7e8ff1744a9717d7883","665500ab8938657b03fbdba8","665792a6da597cba6f1cf468","593","stimuli/1100000.jpg","1","","prediction_trial","1","","true","","1","true","true","true","true","true","true","[1]","100","000","1","","","","","","",""
"","","","","","image-keyboard-response","317","725992","0.0-292.0","628de7e8ff1744a9717d7883","665500ab8938657b03fbdba8","665792a6da597cba6f1cf468","233","stimuli/11000001.jpg"," ","","feedback_trial","1","","","","","","","","","","","","","","","","","","","","",""
"","","","","","survey-html-form","318","779849","0.0-293.0","628de7e8ff1744a9717d7883","665500ab8938657b03fbdba8","665792a6da597cba6f1cf468","53856","","{""feedback"":""If it was not an obvious guess then I randomly picked what Sam may picked."",""age"":""30"",""gender"":""Male"",""other_gender"":"""",""race"":""Black/African American"",""other_race"":"""",""ethnicity"":""Non-Hispanic""}","","exit_survey","","","","","","","","","","","","","","","","If it was not an obvious guess then I randomly picked what Sam may picked.","30","Non-Hispanic","Male","Black/African American","0.5972222222222222","0.5972222222222222"
