"success","timeout","failed_images","failed_audio","failed_video","trial_type","trial_index","time_elapsed","internal_node_id","prolific_id","prolific_study_id","prolific_session_id","rt","stimulus","response","view_history","trial","character_choice","stimulus_dict","accuracy","correct_response","ball_pos","ego_ball_visible","ego_can_infer","alter_ball_visible","alter_can_infer","collective_ball_visible","collective_can_infer","search_locations","alter_occluders","ego_occluders","accuracy_bool","feedback","age","ethnicity","gender","race","overall_accuracy","bonus"
"true","false","[]","[]","[]","preload","0","25924","0.0-0.0","62a73647a057bfcf74a8d20a","665500ab8938657b03fbdba8","6657929e4ded70b419327dd9","","","","","","","","","","","","","","","","","","","","","","","","","","",""
"true","","","","","fullscreen","1","36651","0.0-1.0","62a73647a057bfcf74a8d20a","665500ab8938657b03fbdba8","6657929e4ded70b419327dd9","","","","","","","","","","","","","","","","","","","","","","","","","","",""
"","","","","","html-button-response","2","38527","0.0-2.0","62a73647a057bfcf74a8d20a","665500ab8938657b03fbdba8","6657929e4ded70b419327dd9","1874","<p><b>Consent Form</b></p> <div style=""text-align:left;background-color:lightgrey; padding:20px; max-width:900px;""><p>Please consider this information carefully before deciding whether to participate in this research.</p> <p>The purpose of this research is to examine which factors influence social judgment and decision-making. You will be asked to make judgements about individuals and actions in social scenarios. We are simply interested in your judgement. The study will take less than 1 hour to complete, and you will receive less than $20 on Prolific. Your compensation and time commitment are specified in the study description. There are no anticipated risks associated with participating in this study. The effects of participating should be comparable to those you would ordinarily experience from viewing a computer monitor and using a mouse or keyboard for a similar amount of time. At the end of the study, we will provide an explanation of the questions that motivate this line of research and will describe the potential implications. </p><p> Your participation in this study is completely voluntary and you may refuse to participate or you may choose to withdraw at any time without penalty or loss of benefits to you which are otherwise entitled. Your participation in this study will remain confidential. No personally identifiable information will be associated with your data. Also, all analyses of the data will be averaged across all the participants, so your individual responses will never be specifically analyzed. </p><p> If you have questions or concerns about your participation or payment, or want to request a summary of research findings, please contact Dr. Jonathan Phillips at Jonathan.S.Phillips@dartmouth.edu. </p><p> Please save a copy of this form for your records. </p><p><b>Agreement: </b>The nature and purpose of this research have been sufficiently explained and I agree to participate in this study. I understand that I am free to withdraw at any time without incurring any penalty. Please consent by clicking the button below to continue. Otherwise, please exit the study at any time. </p>","0","","","","","","","","","","","","","","","","","","","","","","","",""
"","","","","","instructions","3","74273","0.0-3.0-0.0","62a73647a057bfcf74a8d20a","665500ab8938657b03fbdba8","6657929e4ded70b419327dd9","35746","","","[{""page_index"":0,""viewing_time"":943},{""page_index"":1,""viewing_time"":1315},{""page_index"":2,""viewing_time"":1714},{""page_index"":3,""viewing_time"":3170},{""page_index"":4,""viewing_time"":1469},{""page_index"":5,""viewing_time"":1610},{""page_index"":6,""viewing_time"":2355},{""page_index"":7,""viewing_time"":2216},{""page_index"":8,""viewing_time"":1599},{""page_index"":9,""viewing_time"":1564},{""page_index"":10,""viewing_time"":7690},{""page_index"":11,""viewing_time"":4517},{""page_index"":12,""viewing_time"":4737},{""page_index"":13,""viewing_time"":848}]","intro","","","","","","","","","","","","","","","","","","","","","",""
"","","","","","image-keyboard-response","4","78016","0.0-3.0-1.0","62a73647a057bfcf74a8d20a","665500ab8938657b03fbdba8","6657929e4ded70b419327dd9","3739","stimuli/2110111.jpg","2","","prediction_practice","2","{""filepath"":""stimuli/2110111.jpg"",""ball_pos"":2,""ego_ball_visible"":false,""ego_can_infer"":false,""alter_ball_visible"":true,""alter_can_infer"":true,""collective_ball_visible"":false,""collective_can_infer"":false,""search_locations"":[2],""alter_occluders"":""110"",""ego_occluders"":""111""}","true","","","","","","","","","","","","","","","","","","",""
"","","","","","image-keyboard-response","5","84406","0.0-3.0-2.0","62a73647a057bfcf74a8d20a","665500ab8938657b03fbdba8","6657929e4ded70b419327dd9","6387","stimuli/21101112.jpg"," ","","practrice_feedback","2","","","","","","","","","","","","","","","","","","","","",""
"","","","","","image-keyboard-response","6","86008","0.0-3.0-3.0","62a73647a057bfcf74a8d20a","665500ab8938657b03fbdba8","6657929e4ded70b419327dd9","1600","stimuli/2100110.jpg","2","","prediction_practice","2","{""filepath"":""stimuli/2100110.jpg"",""ball_pos"":2,""ego_ball_visible"":true,""ego_can_infer"":true,""alter_ball_visible"":true,""alter_can_infer"":true,""collective_ball_visible"":true,""collective_can_infer"":true,""search_locations"":[2],""alter_occluders"":""100"",""ego_occluders"":""110""}","true","","","","","","","","","","","","","","","","","","",""
"","","","","","image-keyboard-response","7","86870","0.0-3.0-4.0","62a73647a057bfcf74a8d20a","665500ab8938657b03fbdba8","6657929e4ded70b419327dd9","860","stimuli/21001102.jpg"," ","","practrice_feedback","2","","","","","","","","","","","","","","","","","","","","",""
"","","","","","image-keyboard-response","8","87927","0.0-3.0-5.0","62a73647a057bfcf74a8d20a","665500ab8938657b03fbdba8","6657929e4ded70b419327dd9","1056","stimuli/1001101.jpg","1","","prediction_practice","1","{""filepath"":""stimuli/1001101.jpg"",""ball_pos"":1,""ego_ball_visible"":true,""ego_can_infer"":true,""alter_ball_visible"":true,""alter_can_infer"":true,""collective_ball_visible"":true,""collective_can_infer"":true,""search_locations"":[1],""alter_occluders"":""001"",""ego_occluders"":""101""}","true","","","","","","","","","","","","","","","","","","",""
"","","","","","image-keyboard-response","9","88150","0.0-3.0-6.0","62a73647a057bfcf74a8d20a","665500ab8938657b03fbdba8","6657929e4ded70b419327dd9","222","stimuli/10011011.jpg"," ","","practrice_feedback","1","","","","","","","","","","","","","","","","","","","","",""
"","","","","","image-keyboard-response","10","89263","0.0-3.0-7.0","62a73647a057bfcf74a8d20a","665500ab8938657b03fbdba8","6657929e4ded70b419327dd9","1112","stimuli/0100111.jpg","1","","prediction_practice","0","{""filepath"":""stimuli/0100111.jpg"",""ball_pos"":0,""ego_ball_visible"":false,""ego_can_infer"":false,""alter_ball_visible"":false,""alter_can_infer"":true,""collective_ball_visible"":false,""collective_can_infer"":false,""search_locations"":[0],""alter_occluders"":""100"",""ego_occluders"":""111""}","false","","","","","","","","","","","","","","","","","","",""
"","","","","","image-keyboard-response","11","90014","0.0-3.0-8.0","62a73647a057bfcf74a8d20a","665500ab8938657b03fbdba8","6657929e4ded70b419327dd9","740","stimuli/01001110.jpg"," ","","practrice_feedback","0","","","","","","","","","","","","","","","","","","","","",""
"","","","","","image-keyboard-response","12","91262","0.0-3.0-9.0","62a73647a057bfcf74a8d20a","665500ab8938657b03fbdba8","6657929e4ded70b419327dd9","1247","stimuli/0010111.jpg","2","","prediction_practice","0","{""filepath"":""stimuli/0010111.jpg"",""ball_pos"":0,""ego_ball_visible"":false,""ego_can_infer"":false,""alter_ball_visible"":true,""alter_can_infer"":true,""collective_ball_visible"":false,""collective_can_infer"":false,""search_locations"":[0],""alter_occluders"":""010"",""ego_occluders"":""111""}","false","","","","","","","","","","","","","","","","","","",""
"","","","","","image-keyboard-response","13","91669","0.0-3.0-10.0","62a73647a057bfcf74a8d20a","665500ab8938657b03fbdba8","6657929e4ded70b419327dd9","406","stimuli/00101110.jpg"," ","","practrice_feedback","0","","","","","","","","","","","","","","","","","","","","",""
"","","","","","image-keyboard-response","14","94687","0.0-3.0-11.0","62a73647a057bfcf74a8d20a","665500ab8938657b03fbdba8","6657929e4ded70b419327dd9","3016","stimuli/2101011.jpg","2","","prediction_practice","0","{""filepath"":""stimuli/2101011.jpg"",""ball_pos"":2,""ego_ball_visible"":false,""ego_can_infer"":false,""alter_ball_visible"":false,""alter_can_infer"":false,""collective_ball_visible"":false,""collective_can_infer"":false,""search_locations"":[2,0],""alter_occluders"":""101"",""ego_occluders"":""011""}","false","","","","","","","","","","","","","","","","","","",""
"","","","","","image-keyboard-response","15","95804","0.0-3.0-12.0","62a73647a057bfcf74a8d20a","665500ab8938657b03fbdba8","6657929e4ded70b419327dd9","1116","stimuli/21010110.jpg"," ","","practrice_feedback","2","","","","","","","","","","","","","","","","","","","","",""
"","","","","","image-keyboard-response","16","97510","0.0-3.0-13.0","62a73647a057bfcf74a8d20a","665500ab8938657b03fbdba8","6657929e4ded70b419327dd9","1705","stimuli/2010100.jpg","2","","prediction_practice","2","{""filepath"":""stimuli/2010100.jpg"",""ball_pos"":2,""ego_ball_visible"":true,""ego_can_infer"":true,""alter_ball_visible"":true,""alter_can_infer"":true,""collective_ball_visible"":true,""collective_can_infer"":true,""search_locations"":[2],""alter_occluders"":""010"",""ego_occluders"":""100""}","true","","","","","","","","","","","","","","","","","","",""
"","","","","","image-keyboard-response","17","97902","0.0-3.0-14.0","62a73647a057bfcf74a8d20a","665500ab8938657b03fbdba8","6657929e4ded70b419327dd9","390","stimuli/20101002.jpg"," ","","practrice_feedback","2","","","","","","","","","","","","","","","","","","","","",""
"","","","","","image-keyboard-response","18","100387","0.0-3.0-15.0","62a73647a057bfcf74a8d20a","665500ab8938657b03fbdba8","6657929e4ded70b419327dd9","2484","stimuli/2001010.jpg","1","","prediction_practice","2","{""filepath"":""stimuli/2001010.jpg"",""ball_pos"":2,""ego_ball_visible"":true,""ego_can_infer"":true,""alter_ball_visible"":false,""alter_can_infer"":true,""collective_ball_visible"":false,""collective_can_infer"":true,""search_locations"":[2],""alter_occluders"":""001"",""ego_occluders"":""010""}","false","","","","","","","","","","","","","","","","","","",""
"","","","","","image-keyboard-response","19","101155","0.0-3.0-16.0","62a73647a057bfcf74a8d20a","665500ab8938657b03fbdba8","6657929e4ded70b419327dd9","767","stimuli/20010102.jpg"," ","","practrice_feedback","2","","","","","","","","","","","","","","","","","","","","",""
"","","","","","image-keyboard-response","20","103990","0.0-3.0-17.0","62a73647a057bfcf74a8d20a","665500ab8938657b03fbdba8","6657929e4ded70b419327dd9","2834","stimuli/0010100.jpg","0","","prediction_practice","0","{""filepath"":""stimuli/0010100.jpg"",""ball_pos"":0,""ego_ball_visible"":false,""ego_can_infer"":true,""alter_ball_visible"":true,""alter_can_infer"":true,""collective_ball_visible"":false,""collective_can_infer"":true,""search_locations"":[0],""alter_occluders"":""010"",""ego_occluders"":""100""}","true","","","","","","","","","","","","","","","","","","",""
"","","","","","image-keyboard-response","21","104197","0.0-3.0-18.0","62a73647a057bfcf74a8d20a","665500ab8938657b03fbdba8","6657929e4ded70b419327dd9","206","stimuli/00101000.jpg"," ","","practrice_feedback","0","","","","","","","","","","","","","","","","","","","","",""
"","","","","","image-keyboard-response","22","105146","0.0-3.0-19.0","62a73647a057bfcf74a8d20a","665500ab8938657b03fbdba8","6657929e4ded70b419327dd9","947","stimuli/1000000.jpg","1","","prediction_practice","1","{""filepath"":""stimuli/1000000.jpg"",""ball_pos"":1,""ego_ball_visible"":true,""ego_can_infer"":true,""alter_ball_visible"":true,""alter_can_infer"":true,""collective_ball_visible"":true,""collective_can_infer"":true,""search_locations"":[1],""alter_occluders"":""000"",""ego_occluders"":""000""}","true","","","","","","","","","","","","","","","","","","",""
"","","","","","image-keyboard-response","23","105464","0.0-3.0-20.0","62a73647a057bfcf74a8d20a","665500ab8938657b03fbdba8","6657929e4ded70b419327dd9","309","stimuli/10000001.jpg"," ","","practrice_feedback","1","","","","","","","","","","","","","","","","","","","","",""
"","","","","","html-button-response","24","107293","0.0-3.0-21.0","62a73647a057bfcf74a8d20a","665500ab8938657b03fbdba8","6657929e4ded70b419327dd9","1828","Now that you've had some practice, you'll be tested with a couple of easy trials. If you correctly predict Sam's choice, you'll move on to complete the experiment!","0","","","","","","","","","","","","","","","","","","","","","","","",""
"","","","","","image-keyboard-response","25","108175","0.0-3.0-22.0-0.0","62a73647a057bfcf74a8d20a","665500ab8938657b03fbdba8","6657929e4ded70b419327dd9","880","stimuli/0000011.jpg","arrowleft","","comprehension_quiz","","","true","arrowleft","","","","","","","","","","","","","","","","","",""
"","","","","","image-keyboard-response","26","108390","0.0-3.0-22.0-1.0","62a73647a057bfcf74a8d20a","665500ab8938657b03fbdba8","6657929e4ded70b419327dd9","214","stimuli/00000110.jpg"," ","","comprehension_quiz","","","true"," ","","","","","","","","","","","","","","","","","",""
"","","","","","image-keyboard-response","27","110150","0.0-3.0-22.0-2.0","62a73647a057bfcf74a8d20a","665500ab8938657b03fbdba8","6657929e4ded70b419327dd9","1759","stimuli/1010010.jpg","arrowdown","","comprehension_quiz","","","true","arrowdown","","","","","","","","","","","","","","","","","",""
"","","","","","image-keyboard-response","28","110317","0.0-3.0-22.0-3.0","62a73647a057bfcf74a8d20a","665500ab8938657b03fbdba8","6657929e4ded70b419327dd9","166","stimuli/10100101.jpg"," ","","comprehension_quiz","","","true"," ","","","","","","","","","","","","","","","","","",""
"","","","","","html-button-response","29","111993","0.0-4.0","62a73647a057bfcf74a8d20a","665500ab8938657b03fbdba8","6657929e4ded70b419327dd9","1673","The experiment will now begin.","0","","","","","","","","","","","","","","","","","","","","","","","",""
"","","","","","image-keyboard-response","30","114126","0.0-5.0","62a73647a057bfcf74a8d20a","665500ab8938657b03fbdba8","6657929e4ded70b419327dd9","2132","stimuli/0110010.jpg","0","","prediction_trial","1","","false","","0","true","true","false","false","false","false","[0,1]","110","010","0","","","","","","",""
"","","","","","image-keyboard-response","31","114749","0.0-6.0","62a73647a057bfcf74a8d20a","665500ab8938657b03fbdba8","6657929e4ded70b419327dd9","621","stimuli/01100101.jpg"," ","","feedback_trial","0","","","","","","","","","","","","","","","","","","","","",""
"","","","","","image-keyboard-response","32","115702","0.0-7.0","62a73647a057bfcf74a8d20a","665500ab8938657b03fbdba8","6657929e4ded70b419327dd9","952","stimuli/0000111.jpg","1","","prediction_trial","0","","false","","0","false","false","true","true","false","false","[0]","000","111","0","","","","","","",""
"","","","","","image-keyboard-response","33","116030","0.0-8.0","62a73647a057bfcf74a8d20a","665500ab8938657b03fbdba8","6657929e4ded70b419327dd9","327","stimuli/00001110.jpg"," ","","feedback_trial","0","","","","","","","","","","","","","","","","","","","","",""
"","","","","","image-keyboard-response","34","117334","0.0-9.0","62a73647a057bfcf74a8d20a","665500ab8938657b03fbdba8","6657929e4ded70b419327dd9","1303","stimuli/2000111.jpg","0","","prediction_trial","2","","false","","2","false","false","true","true","false","false","[2]","000","111","0","","","","","","",""
"","","","","","image-keyboard-response","35","117765","0.0-10.0","62a73647a057bfcf74a8d20a","665500ab8938657b03fbdba8","6657929e4ded70b419327dd9","430","stimuli/20001112.jpg"," ","","feedback_trial","2","","","","","","","","","","","","","","","","","","","","",""
"","","","","","image-keyboard-response","36","118591","0.0-11.0","62a73647a057bfcf74a8d20a","665500ab8938657b03fbdba8","6657929e4ded70b419327dd9","824","stimuli/2110010.jpg","2","","prediction_trial","2","","true","","2","true","true","true","true","true","true","[2]","110","010","1","","","","","","",""
"","","","","","image-keyboard-response","37","118776","0.0-12.0","62a73647a057bfcf74a8d20a","665500ab8938657b03fbdba8","6657929e4ded70b419327dd9","183","stimuli/21100102.jpg"," ","","feedback_trial","2","","","","","","","","","","","","","","","","","","","","",""
"","","","","","image-keyboard-response","38","120910","0.0-13.0","62a73647a057bfcf74a8d20a","665500ab8938657b03fbdba8","6657929e4ded70b419327dd9","2133","stimuli/0010101.jpg","2","","prediction_trial","0","","false","","0","false","false","true","true","false","false","[0]","010","101","0","","","","","","",""
"","","","","","image-keyboard-response","39","121357","0.0-14.0","62a73647a057bfcf74a8d20a","665500ab8938657b03fbdba8","6657929e4ded70b419327dd9","446","stimuli/00101010.jpg"," ","","feedback_trial","0","","","","","","","","","","","","","","","","","","","","",""
"","","","","","image-keyboard-response","40","122327","0.0-15.0","62a73647a057bfcf74a8d20a","665500ab8938657b03fbdba8","6657929e4ded70b419327dd9","968","stimuli/1001001.jpg","1","","prediction_trial","1","","true","","1","true","true","true","true","true","true","[1]","001","001","1","","","","","","",""
"","","","","","image-keyboard-response","41","122572","0.0-16.0","62a73647a057bfcf74a8d20a","665500ab8938657b03fbdba8","6657929e4ded70b419327dd9","244","stimuli/10010011.jpg"," ","","feedback_trial","1","","","","","","","","","","","","","","","","","","","","",""
"","","","","","image-keyboard-response","42","125423","0.0-17.0","62a73647a057bfcf74a8d20a","665500ab8938657b03fbdba8","6657929e4ded70b419327dd9","2857","stimuli/0011111.jpg","0","","prediction_trial","0","","true","","0","false","false","true","true","false","false","[0]","011","111","1","","","","","","",""
"","","","","","image-keyboard-response","43","125767","0.0-18.0","62a73647a057bfcf74a8d20a","665500ab8938657b03fbdba8","6657929e4ded70b419327dd9","334","stimuli/00111110.jpg"," ","","feedback_trial","0","","","","","","","","","","","","","","","","","","","","",""
"","","","","","image-keyboard-response","44","128311","0.0-19.0","62a73647a057bfcf74a8d20a","665500ab8938657b03fbdba8","6657929e4ded70b419327dd9","2544","stimuli/0001101.jpg","0","","prediction_trial","0","","true","","0","false","false","true","true","false","false","[0]","001","101","1","","","","","","",""
"","","","","","image-keyboard-response","45","128631","0.0-20.0","62a73647a057bfcf74a8d20a","665500ab8938657b03fbdba8","6657929e4ded70b419327dd9","318","stimuli/00011010.jpg"," ","","feedback_trial","0","","","","","","","","","","","","","","","","","","","","",""
"","","","","","image-keyboard-response","46","130504","0.0-21.0","62a73647a057bfcf74a8d20a","665500ab8938657b03fbdba8","6657929e4ded70b419327dd9","1872","stimuli/0110111.jpg","2","","prediction_trial","0","","false","","0","false","false","false","false","false","false","[1,0]","110","111","0","","","","","","",""
"","","","","","image-keyboard-response","47","130861","0.0-22.0","62a73647a057bfcf74a8d20a","665500ab8938657b03fbdba8","6657929e4ded70b419327dd9","356","stimuli/01101110.jpg"," ","","feedback_trial","1","","","","","","","","","","","","","","","","","","","","",""
"","","","","","image-keyboard-response","48","131455","0.0-23.0","62a73647a057bfcf74a8d20a","665500ab8938657b03fbdba8","6657929e4ded70b419327dd9","593","stimuli/0001011.jpg","0","","prediction_trial","0","","true","","0","true","true","true","true","true","true","[0]","001","011","1","","","","","","",""
"","","","","","image-keyboard-response","49","131750","0.0-24.0","62a73647a057bfcf74a8d20a","665500ab8938657b03fbdba8","6657929e4ded70b419327dd9","285","stimuli/00010110.jpg"," ","","feedback_trial","0","","","","","","","","","","","","","","","","","","","","",""
"","","","","","image-keyboard-response","50","132776","0.0-25.0","62a73647a057bfcf74a8d20a","665500ab8938657b03fbdba8","6657929e4ded70b419327dd9","1024","stimuli/1011110.jpg","0","","prediction_trial","2","","false","","1","false","false","false","false","false","false","[2,1]","011","110","0","","","","","","",""
"","","","","","image-keyboard-response","51","133170","0.0-26.0","62a73647a057bfcf74a8d20a","665500ab8938657b03fbdba8","6657929e4ded70b419327dd9","393","stimuli/10111102.jpg"," ","","feedback_trial","2","","","","","","","","","","","","","","","","","","","","",""
"","","","","","image-keyboard-response","52","135463","0.0-27.0","62a73647a057bfcf74a8d20a","665500ab8938657b03fbdba8","6657929e4ded70b419327dd9","2292","stimuli/2011111.jpg","1","","prediction_trial","1","","true","","2","false","false","false","false","false","false","[1,2]","011","111","1","","","","","","",""
"","","","","","image-keyboard-response","53","135855","0.0-28.0","62a73647a057bfcf74a8d20a","665500ab8938657b03fbdba8","6657929e4ded70b419327dd9","391","stimuli/20111111.jpg"," ","","feedback_trial","1","","","","","","","","","","","","","","","","","","","","",""
"","","","","","image-keyboard-response","54","137863","0.0-29.0","62a73647a057bfcf74a8d20a","665500ab8938657b03fbdba8","6657929e4ded70b419327dd9","2007","stimuli/1000110.jpg","1","","prediction_trial","1","","true","","1","false","false","true","true","false","false","[1]","000","110","1","","","","","","",""
"","","","","","image-keyboard-response","55","138198","0.0-30.0","62a73647a057bfcf74a8d20a","665500ab8938657b03fbdba8","6657929e4ded70b419327dd9","327","stimuli/10001101.jpg"," ","","feedback_trial","1","","","","","","","","","","","","","","","","","","","","",""
"","","","","","image-keyboard-response","56","139432","0.0-31.0","62a73647a057bfcf74a8d20a","665500ab8938657b03fbdba8","6657929e4ded70b419327dd9","1232","stimuli/2100001.jpg","2","","prediction_trial","2","","true","","2","false","true","true","true","false","true","[2]","100","001","1","","","","","","",""
"","","","","","image-keyboard-response","57","139799","0.0-32.0","62a73647a057bfcf74a8d20a","665500ab8938657b03fbdba8","6657929e4ded70b419327dd9","366","stimuli/21000012.jpg"," ","","feedback_trial","2","","","","","","","","","","","","","","","","","","","","",""
"","","","","","image-keyboard-response","58","141943","0.0-33.0","62a73647a057bfcf74a8d20a","665500ab8938657b03fbdba8","6657929e4ded70b419327dd9","2143","stimuli/2110101.jpg","0","","prediction_trial","2","","false","","2","false","false","true","true","false","false","[2]","110","101","0","","","","","","",""
"","","","","","image-keyboard-response","59","142294","0.0-34.0","62a73647a057bfcf74a8d20a","665500ab8938657b03fbdba8","6657929e4ded70b419327dd9","350","stimuli/21101012.jpg"," ","","feedback_trial","2","","","","","","","","","","","","","","","","","","","","",""
"","","","","","image-keyboard-response","60","143368","0.0-35.0","62a73647a057bfcf74a8d20a","665500ab8938657b03fbdba8","6657929e4ded70b419327dd9","1072","stimuli/1100111.jpg","0","","prediction_trial","1","","false","","1","false","false","true","true","false","false","[1]","100","111","0","","","","","","",""
"","","","","","image-keyboard-response","61","143679","0.0-36.0","62a73647a057bfcf74a8d20a","665500ab8938657b03fbdba8","6657929e4ded70b419327dd9","301","stimuli/11001111.jpg"," ","","feedback_trial","1","","","","","","","","","","","","","","","","","","","","",""
"","","","","","image-keyboard-response","62","144623","0.0-37.0","62a73647a057bfcf74a8d20a","665500ab8938657b03fbdba8","6657929e4ded70b419327dd9","943","stimuli/2100111.jpg","1","","prediction_trial","2","","false","","2","false","false","true","true","false","false","[2]","100","111","0","","","","","","",""
"","","","","","image-keyboard-response","63","144945","0.0-38.0","62a73647a057bfcf74a8d20a","665500ab8938657b03fbdba8","6657929e4ded70b419327dd9","321","stimuli/21001112.jpg"," ","","feedback_trial","2","","","","","","","","","","","","","","","","","","","","",""
"","","","","","image-keyboard-response","64","145854","0.0-39.0","62a73647a057bfcf74a8d20a","665500ab8938657b03fbdba8","6657929e4ded70b419327dd9","908","stimuli/1111111.jpg","0","","prediction_trial","2","","false","","1","false","false","false","false","false","false","[0,2,1]","111","111","0","","","","","","",""
"","","","","","image-keyboard-response","65","146199","0.0-40.0","62a73647a057bfcf74a8d20a","665500ab8938657b03fbdba8","6657929e4ded70b419327dd9","343","stimuli/11111112.jpg"," ","","feedback_trial","0","","","","","","","","","","","","","","","","","","","","",""
"","","","","","image-keyboard-response","66","147544","0.0-41.0","62a73647a057bfcf74a8d20a","665500ab8938657b03fbdba8","6657929e4ded70b419327dd9","1344","stimuli/1101010.jpg","1","","prediction_trial","1","","true","","1","false","true","true","true","false","true","[1]","101","010","1","","","","","","",""
"","","","","","image-keyboard-response","67","147959","0.0-42.0","62a73647a057bfcf74a8d20a","665500ab8938657b03fbdba8","6657929e4ded70b419327dd9","405","stimuli/11010101.jpg"," ","","feedback_trial","1","","","","","","","","","","","","","","","","","","","","",""
"","","","","","image-keyboard-response","68","149511","0.0-43.0","62a73647a057bfcf74a8d20a","665500ab8938657b03fbdba8","6657929e4ded70b419327dd9","1550","stimuli/1110001.jpg","1","","prediction_trial","1","","true","","1","true","true","false","false","false","false","[0,1]","110","001","1","","","","","","",""
"","","","","","image-keyboard-response","69","149841","0.0-44.0","62a73647a057bfcf74a8d20a","665500ab8938657b03fbdba8","6657929e4ded70b419327dd9","329","stimuli/11100011.jpg"," ","","feedback_trial","0","","","","","","","","","","","","","","","","","","","","",""
"","","","","","image-keyboard-response","70","151239","0.0-45.0","62a73647a057bfcf74a8d20a","665500ab8938657b03fbdba8","6657929e4ded70b419327dd9","1397","stimuli/1010011.jpg","2","","prediction_trial","1","","false","","1","false","false","false","true","false","false","[1]","010","011","0","","","","","","",""
"","","","","","image-keyboard-response","71","151535","0.0-46.0","62a73647a057bfcf74a8d20a","665500ab8938657b03fbdba8","6657929e4ded70b419327dd9","295","stimuli/10100111.jpg"," ","","feedback_trial","1","","","","","","","","","","","","","","","","","","","","",""
"","","","","","image-keyboard-response","72","152343","0.0-47.0","62a73647a057bfcf74a8d20a","665500ab8938657b03fbdba8","6657929e4ded70b419327dd9","807","stimuli/2100100.jpg","2","","prediction_trial","2","","true","","2","true","true","true","true","true","true","[2]","100","100","1","","","","","","",""
"","","","","","image-keyboard-response","73","152550","0.0-48.0","62a73647a057bfcf74a8d20a","665500ab8938657b03fbdba8","6657929e4ded70b419327dd9","200","stimuli/21001002.jpg"," ","","feedback_trial","2","","","","","","","","","","","","","","","","","","","","",""
"","","","","","image-keyboard-response","74","153871","0.0-49.0","62a73647a057bfcf74a8d20a","665500ab8938657b03fbdba8","6657929e4ded70b419327dd9","1319","stimuli/0100001.jpg","0","","prediction_trial","0","","true","","0","true","true","false","true","false","true","[0]","100","001","1","","","","","","",""
"","","","","","image-keyboard-response","75","154006","0.0-50.0","62a73647a057bfcf74a8d20a","665500ab8938657b03fbdba8","6657929e4ded70b419327dd9","134","stimuli/01000010.jpg"," ","","feedback_trial","0","","","","","","","","","","","","","","","","","","","","",""
"","","","","","image-keyboard-response","76","155000","0.0-51.0","62a73647a057bfcf74a8d20a","665500ab8938657b03fbdba8","6657929e4ded70b419327dd9","992","stimuli/2100110.jpg","2","","prediction_trial","2","","true","","2","true","true","true","true","true","true","[2]","100","110","1","","","","","","",""
"","","","","","image-keyboard-response","77","155135","0.0-52.0","62a73647a057bfcf74a8d20a","665500ab8938657b03fbdba8","6657929e4ded70b419327dd9","134","stimuli/21001102.jpg"," ","","feedback_trial","2","","","","","","","","","","","","","","","","","","","","",""
"","","","","","image-keyboard-response","78","157312","0.0-53.0","62a73647a057bfcf74a8d20a","665500ab8938657b03fbdba8","6657929e4ded70b419327dd9","2175","stimuli/0110011.jpg","0","","prediction_trial","0","","true","","0","true","true","false","false","false","false","[1,0]","110","011","1","","","","","","",""
"","","","","","image-keyboard-response","79","157470","0.0-54.0","62a73647a057bfcf74a8d20a","665500ab8938657b03fbdba8","6657929e4ded70b419327dd9","151","stimuli/01100110.jpg"," ","","feedback_trial","1","","","","","","","","","","","","","","","","","","","","",""
"","","","","","image-keyboard-response","80","158407","0.0-55.0","62a73647a057bfcf74a8d20a","665500ab8938657b03fbdba8","6657929e4ded70b419327dd9","935","stimuli/2010110.jpg","2","","prediction_trial","2","","true","","2","true","true","true","true","true","true","[2]","010","110","1","","","","","","",""
"","","","","","image-keyboard-response","81","158561","0.0-56.0","62a73647a057bfcf74a8d20a","665500ab8938657b03fbdba8","6657929e4ded70b419327dd9","153","stimuli/20101102.jpg"," ","","feedback_trial","2","","","","","","","","","","","","","","","","","","","","",""
"","","","","","image-keyboard-response","82","159367","0.0-57.0","62a73647a057bfcf74a8d20a","665500ab8938657b03fbdba8","6657929e4ded70b419327dd9","805","stimuli/0101100.jpg","0","","prediction_trial","0","","true","","0","false","true","false","false","false","false","[2,0]","101","100","1","","","","","","",""
"","","","","","image-keyboard-response","83","159503","0.0-58.0","62a73647a057bfcf74a8d20a","665500ab8938657b03fbdba8","6657929e4ded70b419327dd9","134","stimuli/01011000.jpg"," ","","feedback_trial","2","","","","","","","","","","","","","","","","","","","","",""
"","","","","","image-keyboard-response","84","160911","0.0-59.0","62a73647a057bfcf74a8d20a","665500ab8938657b03fbdba8","6657929e4ded70b419327dd9","1407","stimuli/2001101.jpg","2","","prediction_trial","2","","true","","2","false","false","false","true","false","false","[2]","001","101","1","","","","","","",""
"","","","","","image-keyboard-response","85","161055","0.0-60.0","62a73647a057bfcf74a8d20a","665500ab8938657b03fbdba8","6657929e4ded70b419327dd9","135","stimuli/20011012.jpg"," ","","feedback_trial","2","","","","","","","","","","","","","","","","","","","","",""
"","","","","","image-keyboard-response","86","162447","0.0-61.0","62a73647a057bfcf74a8d20a","665500ab8938657b03fbdba8","6657929e4ded70b419327dd9","1391","stimuli/2011010.jpg","2","","prediction_trial","1","","false","","2","true","true","false","false","false","false","[2,1]","011","010","0","","","","","","",""
"","","","","","image-keyboard-response","87","162582","0.0-62.0","62a73647a057bfcf74a8d20a","665500ab8938657b03fbdba8","6657929e4ded70b419327dd9","134","stimuli/20110101.jpg"," ","","feedback_trial","2","","","","","","","","","","","","","","","","","","","","",""
"","","","","","image-keyboard-response","88","163839","0.0-63.0","62a73647a057bfcf74a8d20a","665500ab8938657b03fbdba8","6657929e4ded70b419327dd9","1256","stimuli/2011001.jpg","2","","prediction_trial","1","","false","","2","false","true","false","false","false","false","[2,1]","011","001","0","","","","","","",""
"","","","","","image-keyboard-response","89","163958","0.0-64.0","62a73647a057bfcf74a8d20a","665500ab8938657b03fbdba8","6657929e4ded70b419327dd9","118","stimuli/20110011.jpg"," ","","feedback_trial","2","","","","","","","","","","","","","","","","","","","","",""
"","","","","","image-keyboard-response","90","165335","0.0-65.0","62a73647a057bfcf74a8d20a","665500ab8938657b03fbdba8","6657929e4ded70b419327dd9","1375","stimuli/1110010.jpg","1","","prediction_trial","1","","true","","1","false","true","false","false","false","false","[1,0]","110","010","1","","","","","","",""
"","","","","","image-keyboard-response","91","165479","0.0-66.0","62a73647a057bfcf74a8d20a","665500ab8938657b03fbdba8","6657929e4ded70b419327dd9","133","stimuli/11100101.jpg"," ","","feedback_trial","1","","","","","","","","","","","","","","","","","","","","",""
"","","","","","image-keyboard-response","92","166530","0.0-67.0","62a73647a057bfcf74a8d20a","665500ab8938657b03fbdba8","6657929e4ded70b419327dd9","1050","stimuli/0100110.jpg","0","","prediction_trial","0","","true","","0","false","false","false","true","false","false","[0]","100","110","1","","","","","","",""
"","","","","","image-keyboard-response","93","166663","0.0-68.0","62a73647a057bfcf74a8d20a","665500ab8938657b03fbdba8","6657929e4ded70b419327dd9","131","stimuli/01001100.jpg"," ","","feedback_trial","0","","","","","","","","","","","","","","","","","","","","",""
"","","","","","image-keyboard-response","94","167375","0.0-69.0","62a73647a057bfcf74a8d20a","665500ab8938657b03fbdba8","6657929e4ded70b419327dd9","712","stimuli/0010010.jpg","0","","prediction_trial","0","","true","","0","true","true","true","true","true","true","[0]","010","010","1","","","","","","",""
"","","","","","image-keyboard-response","95","167494","0.0-70.0","62a73647a057bfcf74a8d20a","665500ab8938657b03fbdba8","6657929e4ded70b419327dd9","118","stimuli/00100100.jpg"," ","","feedback_trial","0","","","","","","","","","","","","","","","","","","","","",""
"","","","","","image-keyboard-response","96","168784","0.0-71.0","62a73647a057bfcf74a8d20a","665500ab8938657b03fbdba8","6657929e4ded70b419327dd9","1288","stimuli/2010011.jpg","2","","prediction_trial","2","","true","","2","false","false","true","true","false","false","[2]","010","011","1","","","","","","",""
"","","","","","image-keyboard-response","97","168919","0.0-72.0","62a73647a057bfcf74a8d20a","665500ab8938657b03fbdba8","6657929e4ded70b419327dd9","127","stimuli/20100112.jpg"," ","","feedback_trial","2","","","","","","","","","","","","","","","","","","","","",""
"","","","","","image-keyboard-response","98","169624","0.0-73.0","62a73647a057bfcf74a8d20a","665500ab8938657b03fbdba8","6657929e4ded70b419327dd9","704","stimuli/0011100.jpg","0","","prediction_trial","0","","true","","0","false","true","true","true","false","true","[0]","011","100","1","","","","","","",""
"","","","","","image-keyboard-response","99","169756","0.0-74.0","62a73647a057bfcf74a8d20a","665500ab8938657b03fbdba8","6657929e4ded70b419327dd9","131","stimuli/00111000.jpg"," ","","feedback_trial","0","","","","","","","","","","","","","","","","","","","","",""
"","","","","","image-keyboard-response","100","170535","0.0-75.0","62a73647a057bfcf74a8d20a","665500ab8938657b03fbdba8","6657929e4ded70b419327dd9","778","stimuli/1101100.jpg","1","","prediction_trial","1","","true","","1","true","true","true","true","true","true","[1]","101","100","1","","","","","","",""
"","","","","","image-keyboard-response","101","170688","0.0-76.0","62a73647a057bfcf74a8d20a","665500ab8938657b03fbdba8","6657929e4ded70b419327dd9","151","stimuli/11011001.jpg"," ","","feedback_trial","1","","","","","","","","","","","","","","","","","","","","",""
"","","","","","image-keyboard-response","102","171655","0.0-77.0","62a73647a057bfcf74a8d20a","665500ab8938657b03fbdba8","6657929e4ded70b419327dd9","966","stimuli/1001011.jpg","1","","prediction_trial","1","","true","","1","false","false","true","true","false","false","[1]","001","011","1","","","","","","",""
"","","","","","image-keyboard-response","103","171783","0.0-78.0","62a73647a057bfcf74a8d20a","665500ab8938657b03fbdba8","6657929e4ded70b419327dd9","126","stimuli/10010111.jpg"," ","","feedback_trial","1","","","","","","","","","","","","","","","","","","","","",""
"","","","","","image-keyboard-response","104","172839","0.0-79.0","62a73647a057bfcf74a8d20a","665500ab8938657b03fbdba8","6657929e4ded70b419327dd9","1055","stimuli/0111111.jpg","1","","prediction_trial","1","","true","","0","false","false","false","false","false","false","[2,1,0]","111","111","1","","","","","","",""
"","","","","","image-keyboard-response","105","172966","0.0-80.0","62a73647a057bfcf74a8d20a","665500ab8938657b03fbdba8","6657929e4ded70b419327dd9","125","stimuli/01111111.jpg"," ","","feedback_trial","2","","","","","","","","","","","","","","","","","","","","",""
"","","","","","image-keyboard-response","106","174200","0.0-81.0","62a73647a057bfcf74a8d20a","665500ab8938657b03fbdba8","6657929e4ded70b419327dd9","1233","stimuli/0111101.jpg","0","","prediction_trial","1","","false","","0","false","false","false","false","false","false","[2,0,1]","111","101","0","","","","","","",""
"","","","","","image-keyboard-response","107","174329","0.0-82.0","62a73647a057bfcf74a8d20a","665500ab8938657b03fbdba8","6657929e4ded70b419327dd9","129","stimuli/01111011.jpg"," ","","feedback_trial","2","","","","","","","","","","","","","","","","","","","","",""
"","","","","","image-keyboard-response","108","175728","0.0-83.0","62a73647a057bfcf74a8d20a","665500ab8938657b03fbdba8","6657929e4ded70b419327dd9","1397","stimuli/2110011.jpg","2","","prediction_trial","2","","true","","2","false","false","true","true","false","false","[2]","110","011","1","","","","","","",""
"","","","","","image-keyboard-response","109","175885","0.0-84.0","62a73647a057bfcf74a8d20a","665500ab8938657b03fbdba8","6657929e4ded70b419327dd9","147","stimuli/21100112.jpg"," ","","feedback_trial","2","","","","","","","","","","","","","","","","","","","","",""
"","","","","","image-keyboard-response","110","176536","0.0-85.0","62a73647a057bfcf74a8d20a","665500ab8938657b03fbdba8","6657929e4ded70b419327dd9","650","stimuli/1001000.jpg","1","","prediction_trial","1","","true","","1","true","true","true","true","true","true","[1]","001","000","1","","","","","","",""
"","","","","","image-keyboard-response","111","176663","0.0-86.0","62a73647a057bfcf74a8d20a","665500ab8938657b03fbdba8","6657929e4ded70b419327dd9","125","stimuli/10010001.jpg"," ","","feedback_trial","1","","","","","","","","","","","","","","","","","","","","",""
"","","","","","image-keyboard-response","112","177238","0.0-87.0","62a73647a057bfcf74a8d20a","665500ab8938657b03fbdba8","6657929e4ded70b419327dd9","575","stimuli/0011000.jpg","0","","prediction_trial","0","","true","","0","true","true","true","true","true","true","[0]","011","000","1","","","","","","",""
"","","","","","image-keyboard-response","113","177366","0.0-88.0","62a73647a057bfcf74a8d20a","665500ab8938657b03fbdba8","6657929e4ded70b419327dd9","127","stimuli/00110000.jpg"," ","","feedback_trial","0","","","","","","","","","","","","","","","","","","","","",""
"","","","","","image-keyboard-response","114","178327","0.0-89.0","62a73647a057bfcf74a8d20a","665500ab8938657b03fbdba8","6657929e4ded70b419327dd9","960","stimuli/1011000.jpg","1","","prediction_trial","2","","false","","1","true","true","false","false","false","false","[2,1]","011","000","0","","","","","","",""
"","","","","","image-keyboard-response","115","178454","0.0-90.0","62a73647a057bfcf74a8d20a","665500ab8938657b03fbdba8","6657929e4ded70b419327dd9","120","stimuli/10110002.jpg"," ","","feedback_trial","2","","","","","","","","","","","","","","","","","","","","",""
"","","","","","image-keyboard-response","116","179255","0.0-91.0","62a73647a057bfcf74a8d20a","665500ab8938657b03fbdba8","6657929e4ded70b419327dd9","799","stimuli/1011011.jpg","1","","prediction_trial","2","","false","","1","false","false","false","false","false","false","[1,2]","011","011","0","","","","","","",""
"","","","","","image-keyboard-response","117","179391","0.0-92.0","62a73647a057bfcf74a8d20a","665500ab8938657b03fbdba8","6657929e4ded70b419327dd9","134","stimuli/10110112.jpg"," ","","feedback_trial","1","","","","","","","","","","","","","","","","","","","","",""
"","","","","","image-keyboard-response","118","179919","0.0-93.0","62a73647a057bfcf74a8d20a","665500ab8938657b03fbdba8","6657929e4ded70b419327dd9","527","stimuli/2100000.jpg","2","","prediction_trial","2","","true","","2","true","true","true","true","true","true","[2]","100","000","1","","","","","","",""
"","","","","","image-keyboard-response","119","180054","0.0-94.0","62a73647a057bfcf74a8d20a","665500ab8938657b03fbdba8","6657929e4ded70b419327dd9","135","stimuli/21000002.jpg"," ","","feedback_trial","2","","","","","","","","","","","","","","","","","","","","",""
"","","","","","image-keyboard-response","120","180806","0.0-95.0","62a73647a057bfcf74a8d20a","665500ab8938657b03fbdba8","6657929e4ded70b419327dd9","751","stimuli/0001100.jpg","0","","prediction_trial","0","","true","","0","false","true","true","true","false","true","[0]","001","100","1","","","","","","",""
"","","","","","image-keyboard-response","121","180967","0.0-96.0","62a73647a057bfcf74a8d20a","665500ab8938657b03fbdba8","6657929e4ded70b419327dd9","152","stimuli/00011000.jpg"," ","","feedback_trial","0","","","","","","","","","","","","","","","","","","","","",""
"","","","","","image-keyboard-response","122","181623","0.0-97.0","62a73647a057bfcf74a8d20a","665500ab8938657b03fbdba8","6657929e4ded70b419327dd9","656","stimuli/1110100.jpg","1","","prediction_trial","1","","true","","1","true","true","false","false","false","false","[1,0]","110","100","1","","","","","","",""
"","","","","","image-keyboard-response","123","181782","0.0-98.0","62a73647a057bfcf74a8d20a","665500ab8938657b03fbdba8","6657929e4ded70b419327dd9","158","stimuli/11101001.jpg"," ","","feedback_trial","1","","","","","","","","","","","","","","","","","","","","",""
"","","","","","image-keyboard-response","124","182520","0.0-99.0","62a73647a057bfcf74a8d20a","665500ab8938657b03fbdba8","6657929e4ded70b419327dd9","736","stimuli/1101001.jpg","1","","prediction_trial","1","","true","","1","true","true","true","true","true","true","[1]","101","001","1","","","","","","",""
"","","","","","image-keyboard-response","125","182663","0.0-100.0","62a73647a057bfcf74a8d20a","665500ab8938657b03fbdba8","6657929e4ded70b419327dd9","142","stimuli/11010011.jpg"," ","","feedback_trial","1","","","","","","","","","","","","","","","","","","","","",""
"","","","","","image-keyboard-response","126","183184","0.0-101.0","62a73647a057bfcf74a8d20a","665500ab8938657b03fbdba8","6657929e4ded70b419327dd9","520","stimuli/0010011.jpg","0","","prediction_trial","0","","true","","0","true","true","true","true","true","true","[0]","010","011","1","","","","","","",""
"","","","","","image-keyboard-response","127","183319","0.0-102.0","62a73647a057bfcf74a8d20a","665500ab8938657b03fbdba8","6657929e4ded70b419327dd9","127","stimuli/00100110.jpg"," ","","feedback_trial","0","","","","","","","","","","","","","","","","","","","","",""
"","","","","","image-keyboard-response","128","183943","0.0-103.0","62a73647a057bfcf74a8d20a","665500ab8938657b03fbdba8","6657929e4ded70b419327dd9","623","stimuli/2010010.jpg","2","","prediction_trial","2","","true","","2","true","true","true","true","true","true","[2]","010","010","1","","","","","","",""
"","","","","","image-keyboard-response","129","184087","0.0-104.0","62a73647a057bfcf74a8d20a","665500ab8938657b03fbdba8","6657929e4ded70b419327dd9","142","stimuli/20100102.jpg"," ","","feedback_trial","2","","","","","","","","","","","","","","","","","","","","",""
"","","","","","image-keyboard-response","130","184576","0.0-105.0","62a73647a057bfcf74a8d20a","665500ab8938657b03fbdba8","6657929e4ded70b419327dd9","487","stimuli/2010100.jpg","2","","prediction_trial","2","","true","","2","true","true","true","true","true","true","[2]","010","100","1","","","","","","",""
"","","","","","image-keyboard-response","131","184727","0.0-106.0","62a73647a057bfcf74a8d20a","665500ab8938657b03fbdba8","6657929e4ded70b419327dd9","150","stimuli/20101002.jpg"," ","","feedback_trial","2","","","","","","","","","","","","","","","","","","","","",""
"","","","","","image-keyboard-response","132","185138","0.0-107.0","62a73647a057bfcf74a8d20a","665500ab8938657b03fbdba8","6657929e4ded70b419327dd9","409","stimuli/0101001.jpg","0","","prediction_trial","2","","false","","0","true","true","false","false","false","false","[0,2]","101","001","0","","","","","","",""
"","","","","","image-keyboard-response","133","185504","0.0-108.0","62a73647a057bfcf74a8d20a","665500ab8938657b03fbdba8","6657929e4ded70b419327dd9","357","stimuli/01010012.jpg"," ","","feedback_trial","0","","","","","","","","","","","","","","","","","","","","",""
"","","","","","image-keyboard-response","134","186007","0.0-109.0","62a73647a057bfcf74a8d20a","665500ab8938657b03fbdba8","6657929e4ded70b419327dd9","502","stimuli/2110100.jpg","2","","prediction_trial","2","","true","","2","true","true","true","true","true","true","[2]","110","100","1","","","","","","",""
"","","","","","image-keyboard-response","135","186142","0.0-110.0","62a73647a057bfcf74a8d20a","665500ab8938657b03fbdba8","6657929e4ded70b419327dd9","134","stimuli/21101002.jpg"," ","","feedback_trial","2","","","","","","","","","","","","","","","","","","","","",""
"","","","","","image-keyboard-response","136","187127","0.0-111.0","62a73647a057bfcf74a8d20a","665500ab8938657b03fbdba8","6657929e4ded70b419327dd9","983","stimuli/1100110.jpg","1","","prediction_trial","1","","true","","1","false","false","true","true","false","false","[1]","100","110","1","","","","","","",""
"","","","","","image-keyboard-response","137","187245","0.0-112.0","62a73647a057bfcf74a8d20a","665500ab8938657b03fbdba8","6657929e4ded70b419327dd9","117","stimuli/11001101.jpg"," ","","feedback_trial","1","","","","","","","","","","","","","","","","","","","","",""
"","","","","","image-keyboard-response","138","188918","0.0-113.0","62a73647a057bfcf74a8d20a","665500ab8938657b03fbdba8","6657929e4ded70b419327dd9","1672","stimuli/2000101.jpg","0","","prediction_trial","2","","false","","2","false","false","true","true","false","false","[2]","000","101","0","","","","","","",""
"","","","","","image-keyboard-response","139","189054","0.0-114.0","62a73647a057bfcf74a8d20a","665500ab8938657b03fbdba8","6657929e4ded70b419327dd9","128","stimuli/20001012.jpg"," ","","feedback_trial","2","","","","","","","","","","","","","","","","","","","","",""
"","","","","","image-keyboard-response","140","190199","0.0-115.0","62a73647a057bfcf74a8d20a","665500ab8938657b03fbdba8","6657929e4ded70b419327dd9","1144","stimuli/1000101.jpg","1","","prediction_trial","1","","true","","1","true","true","true","true","true","true","[1]","000","101","1","","","","","","",""
"","","","","","image-keyboard-response","141","190334","0.0-116.0","62a73647a057bfcf74a8d20a","665500ab8938657b03fbdba8","6657929e4ded70b419327dd9","134","stimuli/10001011.jpg"," ","","feedback_trial","1","","","","","","","","","","","","","","","","","","","","",""
"","","","","","image-keyboard-response","142","191447","0.0-117.0","62a73647a057bfcf74a8d20a","665500ab8938657b03fbdba8","6657929e4ded70b419327dd9","1111","stimuli/1110000.jpg","1","","prediction_trial","0","","false","","1","true","true","false","false","false","false","[0,1]","110","000","0","","","","","","",""
"","","","","","image-keyboard-response","143","191582","0.0-118.0","62a73647a057bfcf74a8d20a","665500ab8938657b03fbdba8","6657929e4ded70b419327dd9","134","stimuli/11100000.jpg"," ","","feedback_trial","0","","","","","","","","","","","","","","","","","","","","",""
"","","","","","image-keyboard-response","144","192295","0.0-119.0","62a73647a057bfcf74a8d20a","665500ab8938657b03fbdba8","6657929e4ded70b419327dd9","712","stimuli/0010100.jpg","0","","prediction_trial","0","","true","","0","false","true","true","true","false","true","[0]","010","100","1","","","","","","",""
"","","","","","image-keyboard-response","145","192421","0.0-120.0","62a73647a057bfcf74a8d20a","665500ab8938657b03fbdba8","6657929e4ded70b419327dd9","119","stimuli/00101000.jpg"," ","","feedback_trial","0","","","","","","","","","","","","","","","","","","","","",""
"","","","","","image-keyboard-response","146","193526","0.0-121.0","62a73647a057bfcf74a8d20a","665500ab8938657b03fbdba8","6657929e4ded70b419327dd9","1103","stimuli/1111010.jpg","1","","prediction_trial","1","","true","","1","false","true","false","false","false","false","[0,1,2]","111","010","1","","","","","","",""
"","","","","","image-keyboard-response","147","193656","0.0-122.0","62a73647a057bfcf74a8d20a","665500ab8938657b03fbdba8","6657929e4ded70b419327dd9","129","stimuli/11110101.jpg"," ","","feedback_trial","0","","","","","","","","","","","","","","","","","","","","",""
"","","","","","image-keyboard-response","148","194274","0.0-123.0","62a73647a057bfcf74a8d20a","665500ab8938657b03fbdba8","6657929e4ded70b419327dd9","617","stimuli/1010000.jpg","1","","prediction_trial","1","","true","","1","true","true","false","true","false","true","[1]","010","000","1","","","","","","",""
"","","","","","image-keyboard-response","149","194431","0.0-124.0","62a73647a057bfcf74a8d20a","665500ab8938657b03fbdba8","6657929e4ded70b419327dd9","156","stimuli/10100001.jpg"," ","","feedback_trial","1","","","","","","","","","","","","","","","","","","","","",""
"","","","","","image-keyboard-response","150","194990","0.0-125.0","62a73647a057bfcf74a8d20a","665500ab8938657b03fbdba8","6657929e4ded70b419327dd9","558","stimuli/1100101.jpg","1","","prediction_trial","1","","true","","1","true","true","true","true","true","true","[1]","100","101","1","","","","","","",""
"","","","","","image-keyboard-response","151","195158","0.0-126.0","62a73647a057bfcf74a8d20a","665500ab8938657b03fbdba8","6657929e4ded70b419327dd9","160","stimuli/11001011.jpg"," ","","feedback_trial","1","","","","","","","","","","","","","","","","","","","","",""
"","","","","","image-keyboard-response","152","195599","0.0-127.0","62a73647a057bfcf74a8d20a","665500ab8938657b03fbdba8","6657929e4ded70b419327dd9","440","stimuli/1111001.jpg","1","","prediction_trial","0","","false","","1","true","true","false","false","false","false","[2,0,1]","111","001","0","","","","","","",""
"","","","","","image-keyboard-response","153","195773","0.0-128.0","62a73647a057bfcf74a8d20a","665500ab8938657b03fbdba8","6657929e4ded70b419327dd9","173","stimuli/11110010.jpg"," ","","feedback_trial","2","","","","","","","","","","","","","","","","","","","","",""
"","","","","","image-keyboard-response","154","196654","0.0-129.0","62a73647a057bfcf74a8d20a","665500ab8938657b03fbdba8","6657929e4ded70b419327dd9","879","stimuli/1100010.jpg","1","","prediction_trial","1","","true","","1","false","true","true","true","false","true","[1]","100","010","1","","","","","","",""
"","","","","","image-keyboard-response","155","196789","0.0-130.0","62a73647a057bfcf74a8d20a","665500ab8938657b03fbdba8","6657929e4ded70b419327dd9","134","stimuli/11000101.jpg"," ","","feedback_trial","1","","","","","","","","","","","","","","","","","","","","",""
"","","","","","image-keyboard-response","156","197605","0.0-131.0","62a73647a057bfcf74a8d20a","665500ab8938657b03fbdba8","6657929e4ded70b419327dd9","815","stimuli/1101011.jpg","1","","prediction_trial","1","","true","","1","false","false","true","true","false","false","[1]","101","011","1","","","","","","",""
"","","","","","image-keyboard-response","157","197789","0.0-132.0","62a73647a057bfcf74a8d20a","665500ab8938657b03fbdba8","6657929e4ded70b419327dd9","175","stimuli/11010111.jpg"," ","","feedback_trial","1","","","","","","","","","","","","","","","","","","","","",""
"","","","","","image-keyboard-response","158","199487","0.0-133.0","62a73647a057bfcf74a8d20a","665500ab8938657b03fbdba8","6657929e4ded70b419327dd9","1697","stimuli/2101001.jpg","2","","prediction_trial","2","","true","","2","false","true","false","false","false","false","[0,2]","101","001","1","","","","","","",""
"","","","","","image-keyboard-response","159","199654","0.0-134.0","62a73647a057bfcf74a8d20a","665500ab8938657b03fbdba8","6657929e4ded70b419327dd9","165","stimuli/21010012.jpg"," ","","feedback_trial","0","","","","","","","","","","","","","","","","","","","","",""
"","","","","","image-keyboard-response","160","200630","0.0-135.0","62a73647a057bfcf74a8d20a","665500ab8938657b03fbdba8","6657929e4ded70b419327dd9","974","stimuli/0101000.jpg","0","","prediction_trial","0","","true","","0","true","true","false","false","false","false","[2,0]","101","000","1","","","","","","",""
"","","","","","image-keyboard-response","161","200757","0.0-136.0","62a73647a057bfcf74a8d20a","665500ab8938657b03fbdba8","6657929e4ded70b419327dd9","126","stimuli/01010000.jpg"," ","","feedback_trial","2","","","","","","","","","","","","","","","","","","","","",""
"","","","","","image-keyboard-response","162","201887","0.0-137.0","62a73647a057bfcf74a8d20a","665500ab8938657b03fbdba8","6657929e4ded70b419327dd9","1128","stimuli/0010111.jpg","1","","prediction_trial","0","","false","","0","false","false","true","true","false","false","[0]","010","111","0","","","","","","",""
"","","","","","image-keyboard-response","163","202008","0.0-138.0","62a73647a057bfcf74a8d20a","665500ab8938657b03fbdba8","6657929e4ded70b419327dd9","115","stimuli/00101110.jpg"," ","","feedback_trial","0","","","","","","","","","","","","","","","","","","","","",""
"","","","","","image-keyboard-response","164","202631","0.0-139.0","62a73647a057bfcf74a8d20a","665500ab8938657b03fbdba8","6657929e4ded70b419327dd9","621","stimuli/1101000.jpg","1","","prediction_trial","1","","true","","1","true","true","true","true","true","true","[1]","101","000","1","","","","","","",""
"","","","","","image-keyboard-response","165","202750","0.0-140.0","62a73647a057bfcf74a8d20a","665500ab8938657b03fbdba8","6657929e4ded70b419327dd9","117","stimuli/11010001.jpg"," ","","feedback_trial","1","","","","","","","","","","","","","","","","","","","","",""
"","","","","","image-keyboard-response","166","203623","0.0-141.0","62a73647a057bfcf74a8d20a","665500ab8938657b03fbdba8","6657929e4ded70b419327dd9","872","stimuli/2001100.jpg","2","","prediction_trial","2","","true","","2","true","true","false","true","false","true","[2]","001","100","1","","","","","","",""
"","","","","","image-keyboard-response","167","203750","0.0-142.0","62a73647a057bfcf74a8d20a","665500ab8938657b03fbdba8","6657929e4ded70b419327dd9","125","stimuli/20011002.jpg"," ","","feedback_trial","2","","","","","","","","","","","","","","","","","","","","",""
"","","","","","image-keyboard-response","168","204518","0.0-143.0","62a73647a057bfcf74a8d20a","665500ab8938657b03fbdba8","6657929e4ded70b419327dd9","768","stimuli/0110000.jpg","0","","prediction_trial","0","","true","","0","true","true","false","false","false","false","[0,1]","110","000","1","","","","","","",""
"","","","","","image-keyboard-response","169","204646","0.0-144.0","62a73647a057bfcf74a8d20a","665500ab8938657b03fbdba8","6657929e4ded70b419327dd9","121","stimuli/01100000.jpg"," ","","feedback_trial","0","","","","","","","","","","","","","","","","","","","","",""
"","","","","","image-keyboard-response","170","205350","0.0-145.0","62a73647a057bfcf74a8d20a","665500ab8938657b03fbdba8","6657929e4ded70b419327dd9","703","stimuli/0000010.jpg","0","","prediction_trial","0","","true","","0","true","true","true","true","true","true","[0]","000","010","1","","","","","","",""
"","","","","","image-keyboard-response","171","205494","0.0-146.0","62a73647a057bfcf74a8d20a","665500ab8938657b03fbdba8","6657929e4ded70b419327dd9","142","stimuli/00000100.jpg"," ","","feedback_trial","0","","","","","","","","","","","","","","","","","","","","",""
"","","","","","image-keyboard-response","172","206326","0.0-147.0","62a73647a057bfcf74a8d20a","665500ab8938657b03fbdba8","6657929e4ded70b419327dd9","832","stimuli/2001111.jpg","1","","prediction_trial","2","","false","","2","false","false","false","true","false","false","[2]","001","111","0","","","","","","",""
"","","","","","image-keyboard-response","173","206470","0.0-148.0","62a73647a057bfcf74a8d20a","665500ab8938657b03fbdba8","6657929e4ded70b419327dd9","142","stimuli/20011112.jpg"," ","","feedback_trial","2","","","","","","","","","","","","","","","","","","","","",""
"","","","","","image-keyboard-response","174","207737","0.0-149.0","62a73647a057bfcf74a8d20a","665500ab8938657b03fbdba8","6657929e4ded70b419327dd9","1266","stimuli/1010100.jpg","1","","prediction_trial","1","","true","","1","true","true","false","true","false","true","[1]","010","100","1","","","","","","",""
"","","","","","image-keyboard-response","175","207856","0.0-150.0","62a73647a057bfcf74a8d20a","665500ab8938657b03fbdba8","6657929e4ded70b419327dd9","109","stimuli/10101001.jpg"," ","","feedback_trial","1","","","","","","","","","","","","","","","","","","","","",""
"","","","","","image-keyboard-response","176","208893","0.0-151.0","62a73647a057bfcf74a8d20a","665500ab8938657b03fbdba8","6657929e4ded70b419327dd9","1036","stimuli/2111100.jpg","2","","prediction_trial","2","","true","","2","true","true","false","false","false","false","[0,1,2]","111","100","1","","","","","","",""
"","","","","","image-keyboard-response","177","209028","0.0-152.0","62a73647a057bfcf74a8d20a","665500ab8938657b03fbdba8","6657929e4ded70b419327dd9","135","stimuli/21111002.jpg"," ","","feedback_trial","0","","","","","","","","","","","","","","","","","","","","",""
"","","","","","image-keyboard-response","178","210477","0.0-153.0","62a73647a057bfcf74a8d20a","665500ab8938657b03fbdba8","6657929e4ded70b419327dd9","1449","stimuli/0110101.jpg","0","","prediction_trial","0","","true","","0","false","false","false","false","false","false","[1,0]","110","101","1","","","","","","",""
"","","","","","image-keyboard-response","179","210613","0.0-154.0","62a73647a057bfcf74a8d20a","665500ab8938657b03fbdba8","6657929e4ded70b419327dd9","134","stimuli/01101010.jpg"," ","","feedback_trial","1","","","","","","","","","","","","","","","","","","","","",""
"","","","","","image-keyboard-response","180","211205","0.0-155.0","62a73647a057bfcf74a8d20a","665500ab8938657b03fbdba8","6657929e4ded70b419327dd9","592","stimuli/2010000.jpg","2","","prediction_trial","2","","true","","2","true","true","true","true","true","true","[2]","010","000","1","","","","","","",""
"","","","","","image-keyboard-response","181","211348","0.0-156.0","62a73647a057bfcf74a8d20a","665500ab8938657b03fbdba8","6657929e4ded70b419327dd9","136","stimuli/20100002.jpg"," ","","feedback_trial","2","","","","","","","","","","","","","","","","","","","","",""
"","","","","","image-keyboard-response","182","212150","0.0-157.0","62a73647a057bfcf74a8d20a","665500ab8938657b03fbdba8","6657929e4ded70b419327dd9","800","stimuli/2111011.jpg","1","","prediction_trial","0","","false","","2","false","false","false","false","false","false","[1,2,0]","111","011","0","","","","","","",""
"","","","","","image-keyboard-response","183","212286","0.0-158.0","62a73647a057bfcf74a8d20a","665500ab8938657b03fbdba8","6657929e4ded70b419327dd9","135","stimuli/21110110.jpg"," ","","feedback_trial","1","","","","","","","","","","","","","","","","","","","","",""
"","","","","","image-keyboard-response","184","213311","0.0-159.0","62a73647a057bfcf74a8d20a","665500ab8938657b03fbdba8","6657929e4ded70b419327dd9","1024","stimuli/2111111.jpg","1","","prediction_trial","2","","false","","2","false","false","false","false","false","false","[0,1,2]","111","111","0","","","","","","",""
"","","","","","image-keyboard-response","185","213478","0.0-160.0","62a73647a057bfcf74a8d20a","665500ab8938657b03fbdba8","6657929e4ded70b419327dd9","166","stimuli/21111112.jpg"," ","","feedback_trial","0","","","","","","","","","","","","","","","","","","","","",""
"","","","","","image-keyboard-response","186","214506","0.0-161.0","62a73647a057bfcf74a8d20a","665500ab8938657b03fbdba8","6657929e4ded70b419327dd9","1026","stimuli/2011000.jpg","2","","prediction_trial","2","","true","","2","true","true","false","false","false","false","[2,1]","011","000","1","","","","","","",""
"","","","","","image-keyboard-response","187","214654","0.0-162.0","62a73647a057bfcf74a8d20a","665500ab8938657b03fbdba8","6657929e4ded70b419327dd9","138","stimuli/20110002.jpg"," ","","feedback_trial","2","","","","","","","","","","","","","","","","","","","","",""
"","","","","","image-keyboard-response","188","215301","0.0-163.0","62a73647a057bfcf74a8d20a","665500ab8938657b03fbdba8","6657929e4ded70b419327dd9","645","stimuli/1000001.jpg","1","","prediction_trial","1","","true","","1","true","true","true","true","true","true","[1]","000","001","1","","","","","","",""
"","","","","","image-keyboard-response","189","215438","0.0-164.0","62a73647a057bfcf74a8d20a","665500ab8938657b03fbdba8","6657929e4ded70b419327dd9","136","stimuli/10000011.jpg"," ","","feedback_trial","1","","","","","","","","","","","","","","","","","","","","",""
"","","","","","image-keyboard-response","190","216031","0.0-165.0","62a73647a057bfcf74a8d20a","665500ab8938657b03fbdba8","6657929e4ded70b419327dd9","591","stimuli/1101111.jpg","1","","prediction_trial","1","","true","","1","false","false","true","true","false","false","[1]","101","111","1","","","","","","",""
"","","","","","image-keyboard-response","191","216198","0.0-166.0","62a73647a057bfcf74a8d20a","665500ab8938657b03fbdba8","6657929e4ded70b419327dd9","166","stimuli/11011111.jpg"," ","","feedback_trial","1","","","","","","","","","","","","","","","","","","","","",""
"","","","","","image-keyboard-response","192","216838","0.0-167.0","62a73647a057bfcf74a8d20a","665500ab8938657b03fbdba8","6657929e4ded70b419327dd9","639","stimuli/0010000.jpg","0","","prediction_trial","0","","true","","0","true","true","true","true","true","true","[0]","010","000","1","","","","","","",""
"","","","","","image-keyboard-response","193","216982","0.0-168.0","62a73647a057bfcf74a8d20a","665500ab8938657b03fbdba8","6657929e4ded70b419327dd9","137","stimuli/00100000.jpg"," ","","feedback_trial","0","","","","","","","","","","","","","","","","","","","","",""
"","","","","","image-keyboard-response","194","217689","0.0-169.0","62a73647a057bfcf74a8d20a","665500ab8938657b03fbdba8","6657929e4ded70b419327dd9","705","stimuli/0100111.jpg","1","","prediction_trial","0","","false","","0","false","false","false","true","false","false","[0]","100","111","0","","","","","","",""
"","","","","","image-keyboard-response","195","217829","0.0-170.0","62a73647a057bfcf74a8d20a","665500ab8938657b03fbdba8","6657929e4ded70b419327dd9","139","stimuli/01001110.jpg"," ","","feedback_trial","0","","","","","","","","","","","","","","","","","","","","",""
"","","","","","image-keyboard-response","196","218455","0.0-171.0","62a73647a057bfcf74a8d20a","665500ab8938657b03fbdba8","6657929e4ded70b419327dd9","624","stimuli/2101111.jpg","0","","prediction_trial","2","","false","","2","false","false","false","false","false","false","[0,2]","101","111","0","","","","","","",""
"","","","","","image-keyboard-response","197","218582","0.0-172.0","62a73647a057bfcf74a8d20a","665500ab8938657b03fbdba8","6657929e4ded70b419327dd9","125","stimuli/21011112.jpg"," ","","feedback_trial","0","","","","","","","","","","","","","","","","","","","","",""
"","","","","","image-keyboard-response","198","219102","0.0-173.0","62a73647a057bfcf74a8d20a","665500ab8938657b03fbdba8","6657929e4ded70b419327dd9","519","stimuli/1100100.jpg","1","","prediction_trial","1","","true","","1","true","true","true","true","true","true","[1]","100","100","1","","","","","","",""
"","","","","","image-keyboard-response","199","219221","0.0-174.0","62a73647a057bfcf74a8d20a","665500ab8938657b03fbdba8","6657929e4ded70b419327dd9","109","stimuli/11001001.jpg"," ","","feedback_trial","1","","","","","","","","","","","","","","","","","","","","",""
"","","","","","image-keyboard-response","200","219967","0.0-175.0","62a73647a057bfcf74a8d20a","665500ab8938657b03fbdba8","6657929e4ded70b419327dd9","744","stimuli/0100100.jpg","0","","prediction_trial","0","","true","","0","false","true","false","true","false","true","[0]","100","100","1","","","","","","",""
"","","","","","image-keyboard-response","201","220086","0.0-176.0","62a73647a057bfcf74a8d20a","665500ab8938657b03fbdba8","6657929e4ded70b419327dd9","118","stimuli/01001000.jpg"," ","","feedback_trial","0","","","","","","","","","","","","","","","","","","","","",""
"","","","","","image-keyboard-response","202","221031","0.0-177.0","62a73647a057bfcf74a8d20a","665500ab8938657b03fbdba8","6657929e4ded70b419327dd9","944","stimuli/2111010.jpg","2","","prediction_trial","2","","true","","2","true","true","false","false","false","false","[2,1,0]","111","010","1","","","","","","",""
"","","","","","image-keyboard-response","203","221189","0.0-178.0","62a73647a057bfcf74a8d20a","665500ab8938657b03fbdba8","6657929e4ded70b419327dd9","157","stimuli/21110102.jpg"," ","","feedback_trial","2","","","","","","","","","","","","","","","","","","","","",""
"","","","","","image-keyboard-response","204","222205","0.0-179.0","62a73647a057bfcf74a8d20a","665500ab8938657b03fbdba8","6657929e4ded70b419327dd9","1015","stimuli/2110111.jpg","2","","prediction_trial","2","","true","","2","false","false","true","true","false","false","[2]","110","111","1","","","","","","",""
"","","","","","image-keyboard-response","205","222340","0.0-180.0","62a73647a057bfcf74a8d20a","665500ab8938657b03fbdba8","6657929e4ded70b419327dd9","131","stimuli/21101112.jpg"," ","","feedback_trial","2","","","","","","","","","","","","","","","","","","","","",""
"","","","","","image-keyboard-response","206","222926","0.0-181.0","62a73647a057bfcf74a8d20a","665500ab8938657b03fbdba8","6657929e4ded70b419327dd9","585","stimuli/2000000.jpg","2","","prediction_trial","2","","true","","2","true","true","true","true","true","true","[2]","000","000","1","","","","","","",""
"","","","","","image-keyboard-response","207","223053","0.0-182.0","62a73647a057bfcf74a8d20a","665500ab8938657b03fbdba8","6657929e4ded70b419327dd9","126","stimuli/20000002.jpg"," ","","feedback_trial","2","","","","","","","","","","","","","","","","","","","","",""
"","","","","","image-keyboard-response","208","224342","0.0-183.0","62a73647a057bfcf74a8d20a","665500ab8938657b03fbdba8","6657929e4ded70b419327dd9","1287","stimuli/2001011.jpg","2","","prediction_trial","2","","true","","2","false","false","false","true","false","false","[2]","001","011","1","","","","","","",""
"","","","","","image-keyboard-response","209","224494","0.0-184.0","62a73647a057bfcf74a8d20a","665500ab8938657b03fbdba8","6657929e4ded70b419327dd9","151","stimuli/20010112.jpg"," ","","feedback_trial","2","","","","","","","","","","","","","","","","","","","","",""
"","","","","","image-keyboard-response","210","225310","0.0-185.0","62a73647a057bfcf74a8d20a","665500ab8938657b03fbdba8","6657929e4ded70b419327dd9","815","stimuli/2010001.jpg","2","","prediction_trial","2","","true","","2","false","true","true","true","false","true","[2]","010","001","1","","","","","","",""
"","","","","","image-keyboard-response","211","225445","0.0-186.0","62a73647a057bfcf74a8d20a","665500ab8938657b03fbdba8","6657929e4ded70b419327dd9","128","stimuli/20100012.jpg"," ","","feedback_trial","2","","","","","","","","","","","","","","","","","","","","",""
"","","","","","image-keyboard-response","212","226013","0.0-187.0","62a73647a057bfcf74a8d20a","665500ab8938657b03fbdba8","6657929e4ded70b419327dd9","567","stimuli/0000001.jpg","0","","prediction_trial","0","","true","","0","true","true","true","true","true","true","[0]","000","001","1","","","","","","",""
"","","","","","image-keyboard-response","213","226134","0.0-188.0","62a73647a057bfcf74a8d20a","665500ab8938657b03fbdba8","6657929e4ded70b419327dd9","119","stimuli/00000010.jpg"," ","","feedback_trial","0","","","","","","","","","","","","","","","","","","","","",""
"","","","","","image-keyboard-response","214","226638","0.0-189.0","62a73647a057bfcf74a8d20a","665500ab8938657b03fbdba8","6657929e4ded70b419327dd9","503","stimuli/1111101.jpg","1","","prediction_trial","2","","false","","1","true","true","false","false","false","false","[0,1,2]","111","101","0","","","","","","",""
"","","","","","image-keyboard-response","215","226766","0.0-190.0","62a73647a057bfcf74a8d20a","665500ab8938657b03fbdba8","6657929e4ded70b419327dd9","127","stimuli/11111012.jpg"," ","","feedback_trial","0","","","","","","","","","","","","","","","","","","","","",""
"","","","","","image-keyboard-response","216","227278","0.0-191.0","62a73647a057bfcf74a8d20a","665500ab8938657b03fbdba8","6657929e4ded70b419327dd9","511","stimuli/0011011.jpg","0","","prediction_trial","0","","true","","0","true","true","true","true","true","true","[0]","011","011","1","","","","","","",""
"","","","","","image-keyboard-response","217","227406","0.0-192.0","62a73647a057bfcf74a8d20a","665500ab8938657b03fbdba8","6657929e4ded70b419327dd9","118","stimuli/00110110.jpg"," ","","feedback_trial","0","","","","","","","","","","","","","","","","","","","","",""
"","","","","","image-keyboard-response","218","228143","0.0-193.0","62a73647a057bfcf74a8d20a","665500ab8938657b03fbdba8","6657929e4ded70b419327dd9","736","stimuli/0000100.jpg","0","","prediction_trial","0","","true","","0","false","true","true","true","false","true","[0]","000","100","1","","","","","","",""
"","","","","","image-keyboard-response","219","228262","0.0-194.0","62a73647a057bfcf74a8d20a","665500ab8938657b03fbdba8","6657929e4ded70b419327dd9","118","stimuli/00001000.jpg"," ","","feedback_trial","0","","","","","","","","","","","","","","","","","","","","",""
"","","","","","image-keyboard-response","220","228862","0.0-195.0","62a73647a057bfcf74a8d20a","665500ab8938657b03fbdba8","6657929e4ded70b419327dd9","598","stimuli/2111000.jpg","2","","prediction_trial","1","","false","","2","true","true","false","false","false","false","[0,1,2]","111","000","0","","","","","","",""
"","","","","","image-keyboard-response","221","229038","0.0-196.0","62a73647a057bfcf74a8d20a","665500ab8938657b03fbdba8","6657929e4ded70b419327dd9","175","stimuli/21110001.jpg"," ","","feedback_trial","0","","","","","","","","","","","","","","","","","","","","",""
"","","","","","image-keyboard-response","222","229814","0.0-197.0","62a73647a057bfcf74a8d20a","665500ab8938657b03fbdba8","6657929e4ded70b419327dd9","775","stimuli/0101110.jpg","1","","prediction_trial","2","","false","","0","false","false","false","false","false","false","[2,0]","101","110","0","","","","","","",""
"","","","","","image-keyboard-response","223","229965","0.0-198.0","62a73647a057bfcf74a8d20a","665500ab8938657b03fbdba8","6657929e4ded70b419327dd9","143","stimuli/01011102.jpg"," ","","feedback_trial","2","","","","","","","","","","","","","","","","","","","","",""
"","","","","","image-keyboard-response","224","231639","0.0-199.0","62a73647a057bfcf74a8d20a","665500ab8938657b03fbdba8","6657929e4ded70b419327dd9","1673","stimuli/1111100.jpg","1","","prediction_trial","1","","true","","1","true","true","false","false","false","false","[1,0,2]","111","100","1","","","","","","",""
"","","","","","image-keyboard-response","225","231789","0.0-200.0","62a73647a057bfcf74a8d20a","665500ab8938657b03fbdba8","6657929e4ded70b419327dd9","150","stimuli/11111001.jpg"," ","","feedback_trial","1","","","","","","","","","","","","","","","","","","","","",""
"","","","","","image-keyboard-response","226","232431","0.0-201.0","62a73647a057bfcf74a8d20a","665500ab8938657b03fbdba8","6657929e4ded70b419327dd9","640","stimuli/2011110.jpg","2","","prediction_trial","1","","false","","2","true","true","false","false","false","false","[2,1]","011","110","0","","","","","","",""
"","","","","","image-keyboard-response","227","232590","0.0-202.0","62a73647a057bfcf74a8d20a","665500ab8938657b03fbdba8","6657929e4ded70b419327dd9","157","stimuli/20111101.jpg"," ","","feedback_trial","2","","","","","","","","","","","","","","","","","","","","",""
"","","","","","image-keyboard-response","228","233141","0.0-203.0","62a73647a057bfcf74a8d20a","665500ab8938657b03fbdba8","6657929e4ded70b419327dd9","550","stimuli/0001000.jpg","0","","prediction_trial","0","","true","","0","true","true","true","true","true","true","[0]","001","000","1","","","","","","",""
"","","","","","image-keyboard-response","229","233270","0.0-204.0","62a73647a057bfcf74a8d20a","665500ab8938657b03fbdba8","6657929e4ded70b419327dd9","121","stimuli/00010000.jpg"," ","","feedback_trial","0","","","","","","","","","","","","","","","","","","","","",""
"","","","","","image-keyboard-response","230","233700","0.0-205.0","62a73647a057bfcf74a8d20a","665500ab8938657b03fbdba8","6657929e4ded70b419327dd9","429","stimuli/0111011.jpg","0","","prediction_trial","0","","true","","0","true","true","false","false","false","false","[0,1,2]","111","011","1","","","","","","",""
"","","","","","image-keyboard-response","231","233814","0.0-206.0","62a73647a057bfcf74a8d20a","665500ab8938657b03fbdba8","6657929e4ded70b419327dd9","113","stimuli/01110110.jpg"," ","","feedback_trial","0","","","","","","","","","","","","","","","","","","","","",""
"","","","","","image-keyboard-response","232","234457","0.0-207.0","62a73647a057bfcf74a8d20a","665500ab8938657b03fbdba8","6657929e4ded70b419327dd9","642","stimuli/1010101.jpg","1","","prediction_trial","1","","true","","1","true","true","false","true","false","true","[1]","010","101","1","","","","","","",""
"","","","","","image-keyboard-response","233","234789","0.0-208.0","62a73647a057bfcf74a8d20a","665500ab8938657b03fbdba8","6657929e4ded70b419327dd9","329","stimuli/10101011.jpg"," ","","feedback_trial","1","","","","","","","","","","","","","","","","","","","","",""
"","","","","","image-keyboard-response","234","235277","0.0-209.0","62a73647a057bfcf74a8d20a","665500ab8938657b03fbdba8","6657929e4ded70b419327dd9","487","stimuli/2001000.jpg","2","","prediction_trial","2","","true","","2","true","true","false","true","false","true","[2]","001","000","1","","","","","","",""
"","","","","","image-keyboard-response","235","235450","0.0-210.0","62a73647a057bfcf74a8d20a","665500ab8938657b03fbdba8","6657929e4ded70b419327dd9","169","stimuli/20010002.jpg"," ","","feedback_trial","2","","","","","","","","","","","","","","","","","","","","",""
"","","","","","image-keyboard-response","236","236261","0.0-211.0","62a73647a057bfcf74a8d20a","665500ab8938657b03fbdba8","6657929e4ded70b419327dd9","810","stimuli/2011011.jpg","2","","prediction_trial","1","","false","","2","false","false","false","false","false","false","[2,1]","011","011","0","","","","","","",""
"","","","","","image-keyboard-response","237","236381","0.0-212.0","62a73647a057bfcf74a8d20a","665500ab8938657b03fbdba8","6657929e4ded70b419327dd9","119","stimuli/20110111.jpg"," ","","feedback_trial","2","","","","","","","","","","","","","","","","","","","","",""
"","","","","","image-keyboard-response","238","236982","0.0-213.0","62a73647a057bfcf74a8d20a","665500ab8938657b03fbdba8","6657929e4ded70b419327dd9","599","stimuli/1000010.jpg","1","","prediction_trial","1","","true","","1","false","true","true","true","false","true","[1]","000","010","1","","","","","","",""
"","","","","","image-keyboard-response","239","237110","0.0-214.0","62a73647a057bfcf74a8d20a","665500ab8938657b03fbdba8","6657929e4ded70b419327dd9","126","stimuli/10000101.jpg"," ","","feedback_trial","1","","","","","","","","","","","","","","","","","","","","",""
"","","","","","image-keyboard-response","240","237641","0.0-215.0","62a73647a057bfcf74a8d20a","665500ab8938657b03fbdba8","6657929e4ded70b419327dd9","530","stimuli/1100000.jpg","1","","prediction_trial","1","","true","","1","true","true","true","true","true","true","[1]","100","000","1","","","","","","",""
"","","","","","image-keyboard-response","241","237749","0.0-216.0","62a73647a057bfcf74a8d20a","665500ab8938657b03fbdba8","6657929e4ded70b419327dd9","100","stimuli/11000001.jpg"," ","","feedback_trial","1","","","","","","","","","","","","","","","","","","","","",""
"","","","","","image-keyboard-response","242","238366","0.0-217.0","62a73647a057bfcf74a8d20a","665500ab8938657b03fbdba8","6657929e4ded70b419327dd9","615","stimuli/0001111.jpg","1","","prediction_trial","0","","false","","0","false","false","true","true","false","false","[0]","001","111","0","","","","","","",""
"","","","","","image-keyboard-response","243","238492","0.0-218.0","62a73647a057bfcf74a8d20a","665500ab8938657b03fbdba8","6657929e4ded70b419327dd9","125","stimuli/00011110.jpg"," ","","feedback_trial","0","","","","","","","","","","","","","","","","","","","","",""
"","","","","","image-keyboard-response","244","238999","0.0-219.0","62a73647a057bfcf74a8d20a","665500ab8938657b03fbdba8","6657929e4ded70b419327dd9","505","stimuli/0111001.jpg","0","","prediction_trial","1","","false","","0","true","true","false","false","false","false","[2,0,1]","111","001","0","","","","","","",""
"","","","","","image-keyboard-response","245","239125","0.0-220.0","62a73647a057bfcf74a8d20a","665500ab8938657b03fbdba8","6657929e4ded70b419327dd9","125","stimuli/01110011.jpg"," ","","feedback_trial","2","","","","","","","","","","","","","","","","","","","","",""
"","","","","","image-keyboard-response","246","239631","0.0-221.0","62a73647a057bfcf74a8d20a","665500ab8938657b03fbdba8","6657929e4ded70b419327dd9","504","stimuli/2001010.jpg","2","","prediction_trial","2","","true","","2","true","true","false","true","false","true","[2]","001","010","1","","","","","","",""
"","","","","","image-keyboard-response","247","239790","0.0-222.0","62a73647a057bfcf74a8d20a","665500ab8938657b03fbdba8","6657929e4ded70b419327dd9","155","stimuli/20010102.jpg"," ","","feedback_trial","2","","","","","","","","","","","","","","","","","","","","",""
"","","","","","image-keyboard-response","248","240326","0.0-223.0","62a73647a057bfcf74a8d20a","665500ab8938657b03fbdba8","6657929e4ded70b419327dd9","535","stimuli/1100001.jpg","1","","prediction_trial","1","","true","","1","true","true","true","true","true","true","[1]","100","001","1","","","","","","",""
"","","","","","image-keyboard-response","249","240453","0.0-224.0","62a73647a057bfcf74a8d20a","665500ab8938657b03fbdba8","6657929e4ded70b419327dd9","126","stimuli/11000011.jpg"," ","","feedback_trial","1","","","","","","","","","","","","","","","","","","","","",""
"","","","","","image-keyboard-response","250","241013","0.0-225.0","62a73647a057bfcf74a8d20a","665500ab8938657b03fbdba8","6657929e4ded70b419327dd9","558","stimuli/2101011.jpg","1","","prediction_trial","2","","false","","2","false","false","false","false","false","false","[2,0]","101","011","0","","","","","","",""
"","","","","","image-keyboard-response","251","241141","0.0-226.0","62a73647a057bfcf74a8d20a","665500ab8938657b03fbdba8","6657929e4ded70b419327dd9","128","stimuli/21010112.jpg"," ","","feedback_trial","2","","","","","","","","","","","","","","","","","","","","",""
"","","","","","image-keyboard-response","252","241967","0.0-227.0","62a73647a057bfcf74a8d20a","665500ab8938657b03fbdba8","6657929e4ded70b419327dd9","825","stimuli/2000001.jpg","2","","prediction_trial","2","","true","","2","false","true","true","true","false","true","[2]","000","001","1","","","","","","",""
"","","","","","image-keyboard-response","253","242078","0.0-228.0","62a73647a057bfcf74a8d20a","665500ab8938657b03fbdba8","6657929e4ded70b419327dd9","101","stimuli/20000012.jpg"," ","","feedback_trial","2","","","","","","","","","","","","","","","","","","","","",""
"","","","","","image-keyboard-response","254","242710","0.0-229.0","62a73647a057bfcf74a8d20a","665500ab8938657b03fbdba8","6657929e4ded70b419327dd9","631","stimuli/2101010.jpg","2","","prediction_trial","2","","true","","2","true","true","false","false","false","false","[0,2]","101","010","1","","","","","","",""
"","","","","","image-keyboard-response","255","242837","0.0-230.0","62a73647a057bfcf74a8d20a","665500ab8938657b03fbdba8","6657929e4ded70b419327dd9","126","stimuli/21010102.jpg"," ","","feedback_trial","0","","","","","","","","","","","","","","","","","","","","",""
"","","","","","image-keyboard-response","256","244280","0.0-231.0","62a73647a057bfcf74a8d20a","665500ab8938657b03fbdba8","6657929e4ded70b419327dd9","1441","stimuli/0100101.jpg","2","","prediction_trial","0","","false","","0","false","false","false","true","false","false","[0]","100","101","0","","","","","","",""
"","","","","","image-keyboard-response","257","244406","0.0-232.0","62a73647a057bfcf74a8d20a","665500ab8938657b03fbdba8","6657929e4ded70b419327dd9","125","stimuli/01001010.jpg"," ","","feedback_trial","0","","","","","","","","","","","","","","","","","","","","",""
"","","","","","image-keyboard-response","258","244967","0.0-233.0","62a73647a057bfcf74a8d20a","665500ab8938657b03fbdba8","6657929e4ded70b419327dd9","560","stimuli/0101011.jpg","0","","prediction_trial","0","","true","","0","true","true","false","false","false","false","[2,0]","101","011","1","","","","","","",""
"","","","","","image-keyboard-response","259","245117","0.0-234.0","62a73647a057bfcf74a8d20a","665500ab8938657b03fbdba8","6657929e4ded70b419327dd9","140","stimuli/01010110.jpg"," ","","feedback_trial","2","","","","","","","","","","","","","","","","","","","","",""
"","","","","","image-keyboard-response","260","246148","0.0-235.0","62a73647a057bfcf74a8d20a","665500ab8938657b03fbdba8","6657929e4ded70b419327dd9","1024","stimuli/0101101.jpg","2","","prediction_trial","0","","false","","0","false","false","false","false","false","false","[0,2]","101","101","0","","","","","","",""
"","","","","","image-keyboard-response","261","246316","0.0-236.0","62a73647a057bfcf74a8d20a","665500ab8938657b03fbdba8","6657929e4ded70b419327dd9","166","stimuli/01011010.jpg"," ","","feedback_trial","0","","","","","","","","","","","","","","","","","","","","",""
"","","","","","image-keyboard-response","262","246971","0.0-237.0","62a73647a057bfcf74a8d20a","665500ab8938657b03fbdba8","6657929e4ded70b419327dd9","654","stimuli/1010001.jpg","1","","prediction_trial","1","","true","","1","true","true","false","true","false","true","[1]","010","001","1","","","","","","",""
"","","","","","image-keyboard-response","263","247098","0.0-238.0","62a73647a057bfcf74a8d20a","665500ab8938657b03fbdba8","6657929e4ded70b419327dd9","126","stimuli/10100011.jpg"," ","","feedback_trial","1","","","","","","","","","","","","","","","","","","","","",""
"","","","","","image-keyboard-response","264","247699","0.0-239.0","62a73647a057bfcf74a8d20a","665500ab8938657b03fbdba8","6657929e4ded70b419327dd9","600","stimuli/0000000.jpg","0","","prediction_trial","0","","true","","0","true","true","true","true","true","true","[0]","000","000","1","","","","","","",""
"","","","","","image-keyboard-response","265","247835","0.0-240.0","62a73647a057bfcf74a8d20a","665500ab8938657b03fbdba8","6657929e4ded70b419327dd9","128","stimuli/00000000.jpg"," ","","feedback_trial","0","","","","","","","","","","","","","","","","","","","","",""
"","","","","","image-keyboard-response","266","248756","0.0-241.0","62a73647a057bfcf74a8d20a","665500ab8938657b03fbdba8","6657929e4ded70b419327dd9","920","stimuli/0001110.jpg","1","","prediction_trial","0","","false","","0","false","false","true","true","false","false","[0]","001","110","0","","","","","","",""
"","","","","","image-keyboard-response","267","248899","0.0-242.0","62a73647a057bfcf74a8d20a","665500ab8938657b03fbdba8","6657929e4ded70b419327dd9","142","stimuli/00011100.jpg"," ","","feedback_trial","0","","","","","","","","","","","","","","","","","","","","",""
"","","","","","image-keyboard-response","268","249422","0.0-243.0","62a73647a057bfcf74a8d20a","665500ab8938657b03fbdba8","6657929e4ded70b419327dd9","521","stimuli/0001010.jpg","0","","prediction_trial","0","","true","","0","true","true","true","true","true","true","[0]","001","010","1","","","","","","",""
"","","","","","image-keyboard-response","269","249563","0.0-244.0","62a73647a057bfcf74a8d20a","665500ab8938657b03fbdba8","6657929e4ded70b419327dd9","140","stimuli/00010100.jpg"," ","","feedback_trial","0","","","","","","","","","","","","","","","","","","","","",""
"","","","","","image-keyboard-response","270","250192","0.0-245.0","62a73647a057bfcf74a8d20a","665500ab8938657b03fbdba8","6657929e4ded70b419327dd9","628","stimuli/2110000.jpg","2","","prediction_trial","2","","true","","2","true","true","true","true","true","true","[2]","110","000","1","","","","","","",""
"","","","","","image-keyboard-response","271","250339","0.0-246.0","62a73647a057bfcf74a8d20a","665500ab8938657b03fbdba8","6657929e4ded70b419327dd9","142","stimuli/21100002.jpg"," ","","feedback_trial","2","","","","","","","","","","","","","","","","","","","","",""
"","","","","","image-keyboard-response","272","250898","0.0-247.0","62a73647a057bfcf74a8d20a","665500ab8938657b03fbdba8","6657929e4ded70b419327dd9","559","stimuli/1001100.jpg","1","","prediction_trial","1","","true","","1","true","true","true","true","true","true","[1]","001","100","1","","","","","","",""
"","","","","","image-keyboard-response","273","251019","0.0-248.0","62a73647a057bfcf74a8d20a","665500ab8938657b03fbdba8","6657929e4ded70b419327dd9","119","stimuli/10011001.jpg"," ","","feedback_trial","1","","","","","","","","","","","","","","","","","","","","",""
"","","","","","image-keyboard-response","274","251501","0.0-249.0","62a73647a057bfcf74a8d20a","665500ab8938657b03fbdba8","6657929e4ded70b419327dd9","481","stimuli/0100010.jpg","0","","prediction_trial","0","","true","","0","true","true","false","true","false","true","[0]","100","010","1","","","","","","",""
"","","","","","image-keyboard-response","275","251643","0.0-250.0","62a73647a057bfcf74a8d20a","665500ab8938657b03fbdba8","6657929e4ded70b419327dd9","140","stimuli/01000100.jpg"," ","","feedback_trial","0","","","","","","","","","","","","","","","","","","","","",""
"","","","","","image-keyboard-response","276","252242","0.0-251.0","62a73647a057bfcf74a8d20a","665500ab8938657b03fbdba8","6657929e4ded70b419327dd9","598","stimuli/1000000.jpg","1","","prediction_trial","1","","true","","1","true","true","true","true","true","true","[1]","000","000","1","","","","","","",""
"","","","","","image-keyboard-response","277","252363","0.0-252.0","62a73647a057bfcf74a8d20a","665500ab8938657b03fbdba8","6657929e4ded70b419327dd9","114","stimuli/10000001.jpg"," ","","feedback_trial","1","","","","","","","","","","","","","","","","","","","","",""
"","","","","","image-keyboard-response","278","252852","0.0-253.0","62a73647a057bfcf74a8d20a","665500ab8938657b03fbdba8","6657929e4ded70b419327dd9","487","stimuli/1011101.jpg","1","","prediction_trial","1","","true","","1","true","true","false","false","false","false","[2,1]","011","101","1","","","","","","",""
"","","","","","image-keyboard-response","279","252980","0.0-254.0","62a73647a057bfcf74a8d20a","665500ab8938657b03fbdba8","6657929e4ded70b419327dd9","127","stimuli/10111011.jpg"," ","","feedback_trial","2","","","","","","","","","","","","","","","","","","","","",""
"","","","","","image-keyboard-response","280","254052","0.0-255.0","62a73647a057bfcf74a8d20a","665500ab8938657b03fbdba8","6657929e4ded70b419327dd9","1071","stimuli/1110111.jpg","2","","prediction_trial","0","","false","","1","false","false","false","false","false","false","[1,0]","110","111","0","","","","","","",""
"","","","","","image-keyboard-response","281","254203","0.0-256.0","62a73647a057bfcf74a8d20a","665500ab8938657b03fbdba8","6657929e4ded70b419327dd9","150","stimuli/11101110.jpg"," ","","feedback_trial","1","","","","","","","","","","","","","","","","","","","","",""
"","","","","","image-keyboard-response","282","254867","0.0-257.0","62a73647a057bfcf74a8d20a","665500ab8938657b03fbdba8","6657929e4ded70b419327dd9","662","stimuli/1000100.jpg","1","","prediction_trial","1","","true","","1","true","true","true","true","true","true","[1]","000","100","1","","","","","","",""
"","","","","","image-keyboard-response","283","254986","0.0-258.0","62a73647a057bfcf74a8d20a","665500ab8938657b03fbdba8","6657929e4ded70b419327dd9","110","stimuli/10001001.jpg"," ","","feedback_trial","1","","","","","","","","","","","","","","","","","","","","",""
"","","","","","image-keyboard-response","284","255922","0.0-259.0","62a73647a057bfcf74a8d20a","665500ab8938657b03fbdba8","6657929e4ded70b419327dd9","934","stimuli/1011010.jpg","1","","prediction_trial","2","","false","","1","false","true","false","false","false","false","[2,1]","011","010","0","","","","","","",""
"","","","","","image-keyboard-response","285","256059","0.0-260.0","62a73647a057bfcf74a8d20a","665500ab8938657b03fbdba8","6657929e4ded70b419327dd9","136","stimuli/10110102.jpg"," ","","feedback_trial","2","","","","","","","","","","","","","","","","","","","","",""
"","","","","","image-keyboard-response","286","256724","0.0-261.0","62a73647a057bfcf74a8d20a","665500ab8938657b03fbdba8","6657929e4ded70b419327dd9","664","stimuli/0101010.jpg","0","","prediction_trial","2","","false","","0","true","true","false","false","false","false","[2,0]","101","010","0","","","","","","",""
"","","","","","image-keyboard-response","287","256898","0.0-262.0","62a73647a057bfcf74a8d20a","665500ab8938657b03fbdba8","6657929e4ded70b419327dd9","174","stimuli/01010102.jpg"," ","","feedback_trial","2","","","","","","","","","","","","","","","","","","","","",""
"","","","","","image-keyboard-response","288","257468","0.0-263.0","62a73647a057bfcf74a8d20a","665500ab8938657b03fbdba8","6657929e4ded70b419327dd9","568","stimuli/1001101.jpg","1","","prediction_trial","1","","true","","1","true","true","true","true","true","true","[1]","001","101","1","","","","","","",""
"","","","","","image-keyboard-response","289","257611","0.0-264.0","62a73647a057bfcf74a8d20a","665500ab8938657b03fbdba8","6657929e4ded70b419327dd9","133","stimuli/10011011.jpg"," ","","feedback_trial","1","","","","","","","","","","","","","","","","","","","","",""
"","","","","","image-keyboard-response","290","258275","0.0-265.0","62a73647a057bfcf74a8d20a","665500ab8938657b03fbdba8","6657929e4ded70b419327dd9","663","stimuli/1000111.jpg","1","","prediction_trial","1","","true","","1","false","false","true","true","false","false","[1]","000","111","1","","","","","","",""
"","","","","","image-keyboard-response","291","258418","0.0-266.0","62a73647a057bfcf74a8d20a","665500ab8938657b03fbdba8","6657929e4ded70b419327dd9","142","stimuli/10001111.jpg"," ","","feedback_trial","1","","","","","","","","","","","","","","","","","","","","",""
"","","","","","image-keyboard-response","292","259348","0.0-267.0","62a73647a057bfcf74a8d20a","665500ab8938657b03fbdba8","6657929e4ded70b419327dd9","928","stimuli/2100011.jpg","1","","prediction_trial","2","","false","","2","false","false","true","true","false","false","[2]","100","011","0","","","","","","",""
"","","","","","image-keyboard-response","293","259483","0.0-268.0","62a73647a057bfcf74a8d20a","665500ab8938657b03fbdba8","6657929e4ded70b419327dd9","134","stimuli/21000112.jpg"," ","","feedback_trial","2","","","","","","","","","","","","","","","","","","","","",""
"","","","","","image-keyboard-response","294","260292","0.0-269.0","62a73647a057bfcf74a8d20a","665500ab8938657b03fbdba8","6657929e4ded70b419327dd9","807","stimuli/1001010.jpg","1","","prediction_trial","1","","true","","1","false","true","true","true","false","true","[1]","001","010","1","","","","","","",""
"","","","","","image-keyboard-response","295","260435","0.0-270.0","62a73647a057bfcf74a8d20a","665500ab8938657b03fbdba8","6657929e4ded70b419327dd9","132","stimuli/10010101.jpg"," ","","feedback_trial","1","","","","","","","","","","","","","","","","","","","","",""
"","","","","","image-keyboard-response","296","261179","0.0-271.0","62a73647a057bfcf74a8d20a","665500ab8938657b03fbdba8","6657929e4ded70b419327dd9","743","stimuli/0110100.jpg","0","","prediction_trial","1","","false","","0","false","true","false","false","false","false","[0,1]","110","100","0","","","","","","",""
"","","","","","image-keyboard-response","297","261322","0.0-272.0","62a73647a057bfcf74a8d20a","665500ab8938657b03fbdba8","6657929e4ded70b419327dd9","141","stimuli/01101001.jpg"," ","","feedback_trial","0","","","","","","","","","","","","","","","","","","","","",""
"","","","","","image-keyboard-response","298","262172","0.0-273.0","62a73647a057bfcf74a8d20a","665500ab8938657b03fbdba8","6657929e4ded70b419327dd9","850","stimuli/2111101.jpg","2","","prediction_trial","0","","false","","2","false","false","false","false","false","false","[0,1,2]","111","101","0","","","","","","",""
"","","","","","image-keyboard-response","299","262338","0.0-274.0","62a73647a057bfcf74a8d20a","665500ab8938657b03fbdba8","6657929e4ded70b419327dd9","165","stimuli/21111010.jpg"," ","","feedback_trial","0","","","","","","","","","","","","","","","","","","","","",""
"","","","","","image-keyboard-response","300","262918","0.0-275.0","62a73647a057bfcf74a8d20a","665500ab8938657b03fbdba8","6657929e4ded70b419327dd9","578","stimuli/2001110.jpg","2","","prediction_trial","2","","true","","2","true","true","false","true","false","true","[2]","001","110","1","","","","","","",""
"","","","","","image-keyboard-response","301","263075","0.0-276.0","62a73647a057bfcf74a8d20a","665500ab8938657b03fbdba8","6657929e4ded70b419327dd9","156","stimuli/20011102.jpg"," ","","feedback_trial","2","","","","","","","","","","","","","","","","","","","","",""
"","","","","","image-keyboard-response","302","263821","0.0-277.0","62a73647a057bfcf74a8d20a","665500ab8938657b03fbdba8","6657929e4ded70b419327dd9","745","stimuli/1101110.jpg","0","","prediction_trial","1","","false","","1","false","false","true","true","false","false","[1]","101","110","0","","","","","","",""
"","","","","","image-keyboard-response","303","264003","0.0-278.0","62a73647a057bfcf74a8d20a","665500ab8938657b03fbdba8","6657929e4ded70b419327dd9","180","stimuli/11011101.jpg"," ","","feedback_trial","1","","","","","","","","","","","","","","","","","","","","",""
"","","","","","image-keyboard-response","304","264651","0.0-279.0","62a73647a057bfcf74a8d20a","665500ab8938657b03fbdba8","6657929e4ded70b419327dd9","647","stimuli/2000110.jpg","2","","prediction_trial","2","","true","","2","true","true","true","true","true","true","[2]","000","110","1","","","","","","",""
"","","","","","image-keyboard-response","305","264834","0.0-280.0","62a73647a057bfcf74a8d20a","665500ab8938657b03fbdba8","6657929e4ded70b419327dd9","182","stimuli/20001102.jpg"," ","","feedback_trial","2","","","","","","","","","","","","","","","","","","","","",""
"","","","","","image-keyboard-response","306","265314","0.0-281.0","62a73647a057bfcf74a8d20a","665500ab8938657b03fbdba8","6657929e4ded70b419327dd9","479","stimuli/1101101.jpg","1","","prediction_trial","1","","true","","1","true","true","true","true","true","true","[1]","101","101","1","","","","","","",""
"","","","","","image-keyboard-response","307","265459","0.0-282.0","62a73647a057bfcf74a8d20a","665500ab8938657b03fbdba8","6657929e4ded70b419327dd9","144","stimuli/11011011.jpg"," ","","feedback_trial","1","","","","","","","","","","","","","","","","","","","","",""
"","","","","","image-keyboard-response","308","266668","0.0-283.0","62a73647a057bfcf74a8d20a","665500ab8938657b03fbdba8","6657929e4ded70b419327dd9","1207","stimuli/1111110.jpg","0","","prediction_trial","0","","true","","1","false","false","false","false","false","false","[1,2,0]","111","110","1","","","","","","",""
"","","","","","image-keyboard-response","309","266835","0.0-284.0","62a73647a057bfcf74a8d20a","665500ab8938657b03fbdba8","6657929e4ded70b419327dd9","166","stimuli/11111100.jpg"," ","","feedback_trial","1","","","","","","","","","","","","","","","","","","","","",""
"","","","","","image-keyboard-response","310","267659","0.0-285.0","62a73647a057bfcf74a8d20a","665500ab8938657b03fbdba8","6657929e4ded70b419327dd9","823","stimuli/1011111.jpg","1","","prediction_trial","2","","false","","1","false","false","false","false","false","false","[1,2]","011","111","0","","","","","","",""
"","","","","","image-keyboard-response","311","268259","0.0-286.0","62a73647a057bfcf74a8d20a","665500ab8938657b03fbdba8","6657929e4ded70b419327dd9","598","stimuli/10111112.jpg"," ","","feedback_trial","1","","","","","","","","","","","","","","","","","","","","",""
"","","","","","image-keyboard-response","312","268915","0.0-287.0","62a73647a057bfcf74a8d20a","665500ab8938657b03fbdba8","6657929e4ded70b419327dd9","655","stimuli/0000011.jpg","0","","prediction_trial","0","","true","","0","true","true","true","true","true","true","[0]","000","011","1","","","","","","",""
"","","","","","image-keyboard-response","313","269074","0.0-288.0","62a73647a057bfcf74a8d20a","665500ab8938657b03fbdba8","6657929e4ded70b419327dd9","150","stimuli/00000110.jpg"," ","","feedback_trial","0","","","","","","","","","","","","","","","","","","","","",""
"","","","","","image-keyboard-response","314","269819","0.0-289.0","62a73647a057bfcf74a8d20a","665500ab8938657b03fbdba8","6657929e4ded70b419327dd9","744","stimuli/2011101.jpg","0","","prediction_trial","1","","false","","2","false","false","false","false","false","false","[1,2]","011","101","0","","","","","","",""
"","","","","","image-keyboard-response","315","270003","0.0-290.0","62a73647a057bfcf74a8d20a","665500ab8938657b03fbdba8","6657929e4ded70b419327dd9","182","stimuli/20111011.jpg"," ","","feedback_trial","1","","","","","","","","","","","","","","","","","","","","",""
"","","","","","image-keyboard-response","316","271042","0.0-291.0","62a73647a057bfcf74a8d20a","665500ab8938657b03fbdba8","6657929e4ded70b419327dd9","1038","stimuli/0101111.jpg","1","","prediction_trial","2","","false","","0","false","false","false","false","false","false","[0,2]","101","111","0","","","","","","",""
"","","","","","image-keyboard-response","317","271235","0.0-292.0","62a73647a057bfcf74a8d20a","665500ab8938657b03fbdba8","6657929e4ded70b419327dd9","192","stimuli/01011112.jpg"," ","","feedback_trial","0","","","","","","","","","","","","","","","","","","","","",""
"","","","","","survey-html-form","318","277765","0.0-293.0","62a73647a057bfcf74a8d20a","665500ab8938657b03fbdba8","6657929e4ded70b419327dd9","6528","","{""feedback"":"""",""age"":""29"",""gender"":""Male"",""other_gender"":"""",""race"":""White"",""other_race"":"""",""ethnicity"":""Non-Hispanic""}","","exit_survey","","","","","","","","","","","","","","","","","29","Non-Hispanic","Male","White","0.6736111111111112","0.6736111111111112"
