"success","timeout","failed_images","failed_audio","failed_video","trial_type","trial_index","time_elapsed","internal_node_id","prolific_id","prolific_study_id","prolific_session_id","rt","stimulus","response","view_history","trial","character_choice","stimulus_dict","accuracy","correct_response","ball_pos","ego_ball_visible","ego_can_infer","alter_ball_visible","alter_can_infer","collective_ball_visible","collective_can_infer","search_locations","alter_occluders","ego_occluders","accuracy_bool","feedback","age","ethnicity","gender","race","overall_accuracy","bonus"
"true","false","[]","[]","[]","preload","0","1783","0.0-0.0","5ec12ad1759b78000a4f9965","665500ab8938657b03fbdba8","6657937a4d8acc7211fce0f6","","","","","","","","","","","","","","","","","","","","","","","","","","",""
"true","","","","","fullscreen","1","4888","0.0-1.0","5ec12ad1759b78000a4f9965","665500ab8938657b03fbdba8","6657937a4d8acc7211fce0f6","","","","","","","","","","","","","","","","","","","","","","","","","","",""
"","","","","","html-button-response","2","8448","0.0-2.0","5ec12ad1759b78000a4f9965","665500ab8938657b03fbdba8","6657937a4d8acc7211fce0f6","3559","<p><b>Consent Form</b></p> <div style=""text-align:left;background-color:lightgrey; padding:20px; max-width:900px;""><p>Please consider this information carefully before deciding whether to participate in this research.</p> <p>The purpose of this research is to examine which factors influence social judgment and decision-making. You will be asked to make judgements about individuals and actions in social scenarios. We are simply interested in your judgement. The study will take less than 1 hour to complete, and you will receive less than $20 on Prolific. Your compensation and time commitment are specified in the study description. There are no anticipated risks associated with participating in this study. The effects of participating should be comparable to those you would ordinarily experience from viewing a computer monitor and using a mouse or keyboard for a similar amount of time. At the end of the study, we will provide an explanation of the questions that motivate this line of research and will describe the potential implications. </p><p> Your participation in this study is completely voluntary and you may refuse to participate or you may choose to withdraw at any time without penalty or loss of benefits to you which are otherwise entitled. Your participation in this study will remain confidential. No personally identifiable information will be associated with your data. Also, all analyses of the data will be averaged across all the participants, so your individual responses will never be specifically analyzed. </p><p> If you have questions or concerns about your participation or payment, or want to request a summary of research findings, please contact Dr. Jonathan Phillips at Jonathan.S.Phillips@dartmouth.edu. </p><p> Please save a copy of this form for your records. </p><p><b>Agreement: </b>The nature and purpose of this research have been sufficiently explained and I agree to participate in this study. I understand that I am free to withdraw at any time without incurring any penalty. Please consent by clicking the button below to continue. Otherwise, please exit the study at any time. </p>","0","","","","","","","","","","","","","","","","","","","","","","","",""
"","","","","","instructions","3","100474","0.0-3.0-0.0","5ec12ad1759b78000a4f9965","665500ab8938657b03fbdba8","6657937a4d8acc7211fce0f6","92024","","","[{""page_index"":0,""viewing_time"":2037},{""page_index"":1,""viewing_time"":2820},{""page_index"":2,""viewing_time"":3386},{""page_index"":3,""viewing_time"":8397},{""page_index"":4,""viewing_time"":3714},{""page_index"":5,""viewing_time"":3519},{""page_index"":6,""viewing_time"":5373},{""page_index"":7,""viewing_time"":3782},{""page_index"":8,""viewing_time"":5891},{""page_index"":9,""viewing_time"":4774},{""page_index"":10,""viewing_time"":24263},{""page_index"":11,""viewing_time"":11894},{""page_index"":12,""viewing_time"":10241},{""page_index"":13,""viewing_time"":1933}]","intro","","","","","","","","","","","","","","","","","","","","","",""
"","","","","","image-keyboard-response","4","103052","0.0-3.0-1.0","5ec12ad1759b78000a4f9965","665500ab8938657b03fbdba8","6657937a4d8acc7211fce0f6","2571","stimuli/2100100.jpg","2","","prediction_practice","2","{""filepath"":""stimuli/2100100.jpg"",""ball_pos"":2,""ego_ball_visible"":true,""ego_can_infer"":true,""alter_ball_visible"":true,""alter_can_infer"":true,""collective_ball_visible"":true,""collective_can_infer"":true,""search_locations"":[2],""alter_occluders"":""100"",""ego_occluders"":""100""}","true","","","","","","","","","","","","","","","","","","",""
"","","","","","image-keyboard-response","5","105573","0.0-3.0-2.0","5ec12ad1759b78000a4f9965","665500ab8938657b03fbdba8","6657937a4d8acc7211fce0f6","2519","stimuli/21001002.jpg"," ","","practrice_feedback","2","","","","","","","","","","","","","","","","","","","","",""
"","","","","","image-keyboard-response","6","111237","0.0-3.0-3.0","5ec12ad1759b78000a4f9965","665500ab8938657b03fbdba8","6657937a4d8acc7211fce0f6","5661","stimuli/0011110.jpg","1","","prediction_practice","0","{""filepath"":""stimuli/0011110.jpg"",""ball_pos"":0,""ego_ball_visible"":false,""ego_can_infer"":false,""alter_ball_visible"":true,""alter_can_infer"":true,""collective_ball_visible"":false,""collective_can_infer"":false,""search_locations"":[0],""alter_occluders"":""011"",""ego_occluders"":""110""}","false","","","","","","","","","","","","","","","","","","",""
"","","","","","image-keyboard-response","7","115146","0.0-3.0-4.0","5ec12ad1759b78000a4f9965","665500ab8938657b03fbdba8","6657937a4d8acc7211fce0f6","3907","stimuli/00111100.jpg"," ","","practrice_feedback","0","","","","","","","","","","","","","","","","","","","","",""
"","","","","","image-keyboard-response","8","120705","0.0-3.0-5.0","5ec12ad1759b78000a4f9965","665500ab8938657b03fbdba8","6657937a4d8acc7211fce0f6","5556","stimuli/1001011.jpg","1","","prediction_practice","1","{""filepath"":""stimuli/1001011.jpg"",""ball_pos"":1,""ego_ball_visible"":false,""ego_can_infer"":false,""alter_ball_visible"":true,""alter_can_infer"":true,""collective_ball_visible"":false,""collective_can_infer"":false,""search_locations"":[1],""alter_occluders"":""001"",""ego_occluders"":""011""}","true","","","","","","","","","","","","","","","","","","",""
"","","","","","image-keyboard-response","9","124258","0.0-3.0-6.0","5ec12ad1759b78000a4f9965","665500ab8938657b03fbdba8","6657937a4d8acc7211fce0f6","3551","stimuli/10010111.jpg"," ","","practrice_feedback","1","","","","","","","","","","","","","","","","","","","","",""
"","","","","","image-keyboard-response","10","126786","0.0-3.0-7.0","5ec12ad1759b78000a4f9965","665500ab8938657b03fbdba8","6657937a4d8acc7211fce0f6","2526","stimuli/1111111.jpg","2","","prediction_practice","0","{""filepath"":""stimuli/1111111.jpg"",""ball_pos"":1,""ego_ball_visible"":false,""ego_can_infer"":false,""alter_ball_visible"":false,""alter_can_infer"":false,""collective_ball_visible"":false,""collective_can_infer"":false,""search_locations"":[2,0,1],""alter_occluders"":""111"",""ego_occluders"":""111""}","false","","","","","","","","","","","","","","","","","","",""
"","","","","","image-keyboard-response","11","128380","0.0-3.0-8.0","5ec12ad1759b78000a4f9965","665500ab8938657b03fbdba8","6657937a4d8acc7211fce0f6","1592","stimuli/11111110.jpg"," ","","practrice_feedback","2","","","","","","","","","","","","","","","","","","","","",""
"","","","","","image-keyboard-response","12","130844","0.0-3.0-9.0","5ec12ad1759b78000a4f9965","665500ab8938657b03fbdba8","6657937a4d8acc7211fce0f6","2461","stimuli/1011110.jpg","0","","prediction_practice","1","{""filepath"":""stimuli/1011110.jpg"",""ball_pos"":1,""ego_ball_visible"":false,""ego_can_infer"":false,""alter_ball_visible"":false,""alter_can_infer"":false,""collective_ball_visible"":false,""collective_can_infer"":false,""search_locations"":[1,2],""alter_occluders"":""011"",""ego_occluders"":""110""}","false","","","","","","","","","","","","","","","","","","",""
"","","","","","image-keyboard-response","13","132646","0.0-3.0-10.0","5ec12ad1759b78000a4f9965","665500ab8938657b03fbdba8","6657937a4d8acc7211fce0f6","1800","stimuli/10111101.jpg"," ","","practrice_feedback","1","","","","","","","","","","","","","","","","","","","","",""
"","","","","","image-keyboard-response","14","137462","0.0-3.0-11.0","5ec12ad1759b78000a4f9965","665500ab8938657b03fbdba8","6657937a4d8acc7211fce0f6","4814","stimuli/2011010.jpg","1","","prediction_practice","1","{""filepath"":""stimuli/2011010.jpg"",""ball_pos"":2,""ego_ball_visible"":true,""ego_can_infer"":true,""alter_ball_visible"":false,""alter_can_infer"":false,""collective_ball_visible"":false,""collective_can_infer"":false,""search_locations"":[1,2],""alter_occluders"":""011"",""ego_occluders"":""010""}","true","","","","","","","","","","","","","","","","","","",""
"","","","","","image-keyboard-response","15","138689","0.0-3.0-12.0","5ec12ad1759b78000a4f9965","665500ab8938657b03fbdba8","6657937a4d8acc7211fce0f6","1224","stimuli/20110101.jpg"," ","","practrice_feedback","1","","","","","","","","","","","","","","","","","","","","",""
"","","","","","image-keyboard-response","16","141741","0.0-3.0-13.0","5ec12ad1759b78000a4f9965","665500ab8938657b03fbdba8","6657937a4d8acc7211fce0f6","3050","stimuli/2010011.jpg","1","","prediction_practice","2","{""filepath"":""stimuli/2010011.jpg"",""ball_pos"":2,""ego_ball_visible"":false,""ego_can_infer"":false,""alter_ball_visible"":true,""alter_can_infer"":true,""collective_ball_visible"":false,""collective_can_infer"":false,""search_locations"":[2],""alter_occluders"":""010"",""ego_occluders"":""011""}","false","","","","","","","","","","","","","","","","","","",""
"","","","","","image-keyboard-response","17","143186","0.0-3.0-14.0","5ec12ad1759b78000a4f9965","665500ab8938657b03fbdba8","6657937a4d8acc7211fce0f6","1443","stimuli/20100112.jpg"," ","","practrice_feedback","2","","","","","","","","","","","","","","","","","","","","",""
"","","","","","image-keyboard-response","18","145530","0.0-3.0-15.0","5ec12ad1759b78000a4f9965","665500ab8938657b03fbdba8","6657937a4d8acc7211fce0f6","2342","stimuli/1000000.jpg","1","","prediction_practice","1","{""filepath"":""stimuli/1000000.jpg"",""ball_pos"":1,""ego_ball_visible"":true,""ego_can_infer"":true,""alter_ball_visible"":true,""alter_can_infer"":true,""collective_ball_visible"":true,""collective_can_infer"":true,""search_locations"":[1],""alter_occluders"":""000"",""ego_occluders"":""000""}","true","","","","","","","","","","","","","","","","","","",""
"","","","","","image-keyboard-response","19","146641","0.0-3.0-16.0","5ec12ad1759b78000a4f9965","665500ab8938657b03fbdba8","6657937a4d8acc7211fce0f6","1108","stimuli/10000001.jpg"," ","","practrice_feedback","1","","","","","","","","","","","","","","","","","","","","",""
"","","","","","image-keyboard-response","20","149291","0.0-3.0-17.0","5ec12ad1759b78000a4f9965","665500ab8938657b03fbdba8","6657937a4d8acc7211fce0f6","2647","stimuli/2011111.jpg","0","","prediction_practice","2","{""filepath"":""stimuli/2011111.jpg"",""ball_pos"":2,""ego_ball_visible"":false,""ego_can_infer"":false,""alter_ball_visible"":false,""alter_can_infer"":false,""collective_ball_visible"":false,""collective_can_infer"":false,""search_locations"":[2,1],""alter_occluders"":""011"",""ego_occluders"":""111""}","false","","","","","","","","","","","","","","","","","","",""
"","","","","","image-keyboard-response","21","150401","0.0-3.0-18.0","5ec12ad1759b78000a4f9965","665500ab8938657b03fbdba8","6657937a4d8acc7211fce0f6","1108","stimuli/20111112.jpg"," ","","practrice_feedback","2","","","","","","","","","","","","","","","","","","","","",""
"","","","","","image-keyboard-response","22","151985","0.0-3.0-19.0","5ec12ad1759b78000a4f9965","665500ab8938657b03fbdba8","6657937a4d8acc7211fce0f6","1582","stimuli/2000110.jpg","2","","prediction_practice","2","{""filepath"":""stimuli/2000110.jpg"",""ball_pos"":2,""ego_ball_visible"":true,""ego_can_infer"":true,""alter_ball_visible"":true,""alter_can_infer"":true,""collective_ball_visible"":true,""collective_can_infer"":true,""search_locations"":[2],""alter_occluders"":""000"",""ego_occluders"":""110""}","true","","","","","","","","","","","","","","","","","","",""
"","","","","","image-keyboard-response","23","152890","0.0-3.0-20.0","5ec12ad1759b78000a4f9965","665500ab8938657b03fbdba8","6657937a4d8acc7211fce0f6","902","stimuli/20001102.jpg"," ","","practrice_feedback","2","","","","","","","","","","","","","","","","","","","","",""
"","","","","","html-button-response","24","154883","0.0-3.0-21.0","5ec12ad1759b78000a4f9965","665500ab8938657b03fbdba8","6657937a4d8acc7211fce0f6","1993","Now that you've had some practice, you'll be tested with a couple of easy trials. If you correctly predict Sam's choice, you'll move on to complete the experiment!","0","","","","","","","","","","","","","","","","","","","","","","","",""
"","","","","","image-keyboard-response","25","156555","0.0-3.0-22.0-0.0","5ec12ad1759b78000a4f9965","665500ab8938657b03fbdba8","6657937a4d8acc7211fce0f6","1669","stimuli/0000011.jpg","arrowleft","","comprehension_quiz","","","true","arrowleft","","","","","","","","","","","","","","","","","",""
"","","","","","image-keyboard-response","26","157665","0.0-3.0-22.0-1.0","5ec12ad1759b78000a4f9965","665500ab8938657b03fbdba8","6657937a4d8acc7211fce0f6","1107","stimuli/00000110.jpg"," ","","comprehension_quiz","","","true"," ","","","","","","","","","","","","","","","","","",""
"","","","","","image-keyboard-response","27","159479","0.0-3.0-22.0-2.0","5ec12ad1759b78000a4f9965","665500ab8938657b03fbdba8","6657937a4d8acc7211fce0f6","1824","stimuli/1010010.jpg","arrowdown","","comprehension_quiz","","","true","arrowdown","","","","","","","","","","","","","","","","","",""
"","","","","","image-keyboard-response","28","162420","0.0-3.0-22.0-3.0","5ec12ad1759b78000a4f9965","665500ab8938657b03fbdba8","6657937a4d8acc7211fce0f6","2938","stimuli/10100101.jpg"," ","","comprehension_quiz","","","true"," ","","","","","","","","","","","","","","","","","",""
"","","","","","html-button-response","29","164327","0.0-4.0","5ec12ad1759b78000a4f9965","665500ab8938657b03fbdba8","6657937a4d8acc7211fce0f6","1894","The experiment will now begin.","0","","","","","","","","","","","","","","","","","","","","","","","",""
"","","","","","image-keyboard-response","30","167214","0.0-5.0","5ec12ad1759b78000a4f9965","665500ab8938657b03fbdba8","6657937a4d8acc7211fce0f6","2885","stimuli/1101110.jpg","1","","prediction_trial","1","","true","","1","false","false","true","true","false","false","[1]","101","110","1","","","","","","",""
"","","","","","image-keyboard-response","31","168420","0.0-6.0","5ec12ad1759b78000a4f9965","665500ab8938657b03fbdba8","6657937a4d8acc7211fce0f6","1203","stimuli/11011101.jpg"," ","","feedback_trial","1","","","","","","","","","","","","","","","","","","","","",""
"","","","","","image-keyboard-response","32","170018","0.0-7.0","5ec12ad1759b78000a4f9965","665500ab8938657b03fbdba8","6657937a4d8acc7211fce0f6","1596","stimuli/2111111.jpg","1","","prediction_trial","2","","false","","2","false","false","false","false","false","false","[2,1,0]","111","111","0","","","","","","",""
"","","","","","image-keyboard-response","33","170988","0.0-8.0","5ec12ad1759b78000a4f9965","665500ab8938657b03fbdba8","6657937a4d8acc7211fce0f6","967","stimuli/21111112.jpg"," ","","feedback_trial","2","","","","","","","","","","","","","","","","","","","","",""
"","","","","","image-keyboard-response","34","172524","0.0-9.0","5ec12ad1759b78000a4f9965","665500ab8938657b03fbdba8","6657937a4d8acc7211fce0f6","1534","stimuli/0110111.jpg","2","","prediction_trial","0","","false","","0","false","false","false","false","false","false","[0,1]","110","111","0","","","","","","",""
"","","","","","image-keyboard-response","35","173404","0.0-10.0","5ec12ad1759b78000a4f9965","665500ab8938657b03fbdba8","6657937a4d8acc7211fce0f6","877","stimuli/01101110.jpg"," ","","feedback_trial","0","","","","","","","","","","","","","","","","","","","","",""
"","","","","","image-keyboard-response","36","175250","0.0-11.0","5ec12ad1759b78000a4f9965","665500ab8938657b03fbdba8","6657937a4d8acc7211fce0f6","1843","stimuli/1110011.jpg","1","","prediction_trial","0","","false","","1","false","false","false","false","false","false","[1,0]","110","011","0","","","","","","",""
"","","","","","image-keyboard-response","37","176408","0.0-12.0","5ec12ad1759b78000a4f9965","665500ab8938657b03fbdba8","6657937a4d8acc7211fce0f6","1156","stimuli/11100110.jpg"," ","","feedback_trial","1","","","","","","","","","","","","","","","","","","","","",""
"","","","","","image-keyboard-response","38","179726","0.0-13.0","5ec12ad1759b78000a4f9965","665500ab8938657b03fbdba8","6657937a4d8acc7211fce0f6","3315","stimuli/2101000.jpg","2","","prediction_trial","2","","true","","2","true","true","false","false","false","false","[0,2]","101","000","1","","","","","","",""
"","","","","","image-keyboard-response","39","180789","0.0-14.0","5ec12ad1759b78000a4f9965","665500ab8938657b03fbdba8","6657937a4d8acc7211fce0f6","1060","stimuli/21010002.jpg"," ","","feedback_trial","0","","","","","","","","","","","","","","","","","","","","",""
"","","","","","image-keyboard-response","40","183566","0.0-15.0","5ec12ad1759b78000a4f9965","665500ab8938657b03fbdba8","6657937a4d8acc7211fce0f6","2775","stimuli/2100001.jpg","2","","prediction_trial","2","","true","","2","false","true","true","true","false","true","[2]","100","001","1","","","","","","",""
"","","","","","image-keyboard-response","41","184604","0.0-16.0","5ec12ad1759b78000a4f9965","665500ab8938657b03fbdba8","6657937a4d8acc7211fce0f6","1035","stimuli/21000012.jpg"," ","","feedback_trial","2","","","","","","","","","","","","","","","","","","","","",""
"","","","","","image-keyboard-response","42","186539","0.0-17.0","5ec12ad1759b78000a4f9965","665500ab8938657b03fbdba8","6657937a4d8acc7211fce0f6","1933","stimuli/1001000.jpg","1","","prediction_trial","1","","true","","1","true","true","true","true","true","true","[1]","001","000","1","","","","","","",""
"","","","","","image-keyboard-response","43","187548","0.0-18.0","5ec12ad1759b78000a4f9965","665500ab8938657b03fbdba8","6657937a4d8acc7211fce0f6","1006","stimuli/10010001.jpg"," ","","feedback_trial","1","","","","","","","","","","","","","","","","","","","","",""
"","","","","","image-keyboard-response","44","190133","0.0-19.0","5ec12ad1759b78000a4f9965","665500ab8938657b03fbdba8","6657937a4d8acc7211fce0f6","2582","stimuli/2011101.jpg","0","","prediction_trial","2","","false","","2","false","false","false","false","false","false","[1,2]","011","101","0","","","","","","",""
"","","","","","image-keyboard-response","45","191108","0.0-20.0","5ec12ad1759b78000a4f9965","665500ab8938657b03fbdba8","6657937a4d8acc7211fce0f6","973","stimuli/20111012.jpg"," ","","feedback_trial","1","","","","","","","","","","","","","","","","","","","","",""
"","","","","","image-keyboard-response","46","193246","0.0-21.0","5ec12ad1759b78000a4f9965","665500ab8938657b03fbdba8","6657937a4d8acc7211fce0f6","2135","stimuli/0011000.jpg","0","","prediction_trial","0","","true","","0","true","true","true","true","true","true","[0]","011","000","1","","","","","","",""
"","","","","","image-keyboard-response","47","195526","0.0-22.0","5ec12ad1759b78000a4f9965","665500ab8938657b03fbdba8","6657937a4d8acc7211fce0f6","2277","stimuli/00110000.jpg"," ","","feedback_trial","0","","","","","","","","","","","","","","","","","","","","",""
"","","","","","image-keyboard-response","48","196788","0.0-23.0","5ec12ad1759b78000a4f9965","665500ab8938657b03fbdba8","6657937a4d8acc7211fce0f6","1259","stimuli/0001000.jpg","0","","prediction_trial","0","","true","","0","true","true","true","true","true","true","[0]","001","000","1","","","","","","",""
"","","","","","image-keyboard-response","49","197844","0.0-24.0","5ec12ad1759b78000a4f9965","665500ab8938657b03fbdba8","6657937a4d8acc7211fce0f6","1053","stimuli/00010000.jpg"," ","","feedback_trial","0","","","","","","","","","","","","","","","","","","","","",""
"","","","","","image-keyboard-response","50","199044","0.0-25.0","5ec12ad1759b78000a4f9965","665500ab8938657b03fbdba8","6657937a4d8acc7211fce0f6","1197","stimuli/2010110.jpg","2","","prediction_trial","2","","true","","2","true","true","true","true","true","true","[2]","010","110","1","","","","","","",""
"","","","","","image-keyboard-response","51","199964","0.0-26.0","5ec12ad1759b78000a4f9965","665500ab8938657b03fbdba8","6657937a4d8acc7211fce0f6","917","stimuli/20101102.jpg"," ","","feedback_trial","2","","","","","","","","","","","","","","","","","","","","",""
"","","","","","image-keyboard-response","52","201936","0.0-27.0","5ec12ad1759b78000a4f9965","665500ab8938657b03fbdba8","6657937a4d8acc7211fce0f6","1969","stimuli/2101111.jpg","1","","prediction_trial","2","","false","","2","false","false","false","false","false","false","[0,2]","101","111","0","","","","","","",""
"","","","","","image-keyboard-response","53","202916","0.0-28.0","5ec12ad1759b78000a4f9965","665500ab8938657b03fbdba8","6657937a4d8acc7211fce0f6","978","stimuli/21011112.jpg"," ","","feedback_trial","0","","","","","","","","","","","","","","","","","","","","",""
"","","","","","image-keyboard-response","54","205645","0.0-29.0","5ec12ad1759b78000a4f9965","665500ab8938657b03fbdba8","6657937a4d8acc7211fce0f6","2727","stimuli/0101110.jpg","0","","prediction_trial","0","","true","","0","false","false","false","false","false","false","[0,2]","101","110","1","","","","","","",""
"","","","","","image-keyboard-response","55","206732","0.0-30.0","5ec12ad1759b78000a4f9965","665500ab8938657b03fbdba8","6657937a4d8acc7211fce0f6","1084","stimuli/01011100.jpg"," ","","feedback_trial","0","","","","","","","","","","","","","","","","","","","","",""
"","","","","","image-keyboard-response","56","207948","0.0-31.0","5ec12ad1759b78000a4f9965","665500ab8938657b03fbdba8","6657937a4d8acc7211fce0f6","1214","stimuli/2000000.jpg","2","","prediction_trial","2","","true","","2","true","true","true","true","true","true","[2]","000","000","1","","","","","","",""
"","","","","","image-keyboard-response","57","208788","0.0-32.0","5ec12ad1759b78000a4f9965","665500ab8938657b03fbdba8","6657937a4d8acc7211fce0f6","837","stimuli/20000002.jpg"," ","","feedback_trial","2","","","","","","","","","","","","","","","","","","","","",""
"","","","","","image-keyboard-response","58","212311","0.0-33.0","5ec12ad1759b78000a4f9965","665500ab8938657b03fbdba8","6657937a4d8acc7211fce0f6","3520","stimuli/1110001.jpg","1","","prediction_trial","0","","false","","1","true","true","false","false","false","false","[1,0]","110","001","0","","","","","","",""
"","","","","","image-keyboard-response","59","213164","0.0-34.0","5ec12ad1759b78000a4f9965","665500ab8938657b03fbdba8","6657937a4d8acc7211fce0f6","851","stimuli/11100010.jpg"," ","","feedback_trial","1","","","","","","","","","","","","","","","","","","","","",""
"","","","","","image-keyboard-response","60","214444","0.0-35.0","5ec12ad1759b78000a4f9965","665500ab8938657b03fbdba8","6657937a4d8acc7211fce0f6","1277","stimuli/1100101.jpg","1","","prediction_trial","1","","true","","1","true","true","true","true","true","true","[1]","100","101","1","","","","","","",""
"","","","","","image-keyboard-response","61","215219","0.0-36.0","5ec12ad1759b78000a4f9965","665500ab8938657b03fbdba8","6657937a4d8acc7211fce0f6","773","stimuli/11001011.jpg"," ","","feedback_trial","1","","","","","","","","","","","","","","","","","","","","",""
"","","","","","image-keyboard-response","62","216363","0.0-37.0","5ec12ad1759b78000a4f9965","665500ab8938657b03fbdba8","6657937a4d8acc7211fce0f6","1141","stimuli/2110000.jpg","2","","prediction_trial","2","","true","","2","true","true","true","true","true","true","[2]","110","000","1","","","","","","",""
"","","","","","image-keyboard-response","63","217164","0.0-38.0","5ec12ad1759b78000a4f9965","665500ab8938657b03fbdba8","6657937a4d8acc7211fce0f6","798","stimuli/21100002.jpg"," ","","feedback_trial","2","","","","","","","","","","","","","","","","","","","","",""
"","","","","","image-keyboard-response","64","219465","0.0-39.0","5ec12ad1759b78000a4f9965","665500ab8938657b03fbdba8","6657937a4d8acc7211fce0f6","2299","stimuli/2101001.jpg","2","","prediction_trial","0","","false","","2","false","true","false","false","false","false","[0,2]","101","001","0","","","","","","",""
"","","","","","image-keyboard-response","65","220341","0.0-40.0","5ec12ad1759b78000a4f9965","665500ab8938657b03fbdba8","6657937a4d8acc7211fce0f6","872","stimuli/21010010.jpg"," ","","feedback_trial","0","","","","","","","","","","","","","","","","","","","","",""
"","","","","","image-keyboard-response","66","223878","0.0-41.0","5ec12ad1759b78000a4f9965","665500ab8938657b03fbdba8","6657937a4d8acc7211fce0f6","3535","stimuli/1101011.jpg","2","","prediction_trial","1","","false","","1","false","false","true","true","false","false","[1]","101","011","0","","","","","","",""
"","","","","","image-keyboard-response","67","225493","0.0-42.0","5ec12ad1759b78000a4f9965","665500ab8938657b03fbdba8","6657937a4d8acc7211fce0f6","1612","stimuli/11010111.jpg"," ","","feedback_trial","1","","","","","","","","","","","","","","","","","","","","",""
"","","","","","image-keyboard-response","68","228695","0.0-43.0","5ec12ad1759b78000a4f9965","665500ab8938657b03fbdba8","6657937a4d8acc7211fce0f6","3199","stimuli/0000101.jpg","2","","prediction_trial","0","","false","","0","false","false","true","true","false","false","[0]","000","101","0","","","","","","",""
"","","","","","image-keyboard-response","69","229756","0.0-44.0","5ec12ad1759b78000a4f9965","665500ab8938657b03fbdba8","6657937a4d8acc7211fce0f6","1059","stimuli/00001010.jpg"," ","","feedback_trial","0","","","","","","","","","","","","","","","","","","","","",""
"","","","","","image-keyboard-response","70","231455","0.0-45.0","5ec12ad1759b78000a4f9965","665500ab8938657b03fbdba8","6657937a4d8acc7211fce0f6","1697","stimuli/1111111.jpg","2","","prediction_trial","0","","false","","1","false","false","false","false","false","false","[2,0,1]","111","111","0","","","","","","",""
"","","","","","image-keyboard-response","71","232492","0.0-46.0","5ec12ad1759b78000a4f9965","665500ab8938657b03fbdba8","6657937a4d8acc7211fce0f6","1035","stimuli/11111110.jpg"," ","","feedback_trial","2","","","","","","","","","","","","","","","","","","","","",""
"","","","","","image-keyboard-response","72","233751","0.0-47.0","5ec12ad1759b78000a4f9965","665500ab8938657b03fbdba8","6657937a4d8acc7211fce0f6","1256","stimuli/1101101.jpg","1","","prediction_trial","1","","true","","1","true","true","true","true","true","true","[1]","101","101","1","","","","","","",""
"","","","","","image-keyboard-response","73","234860","0.0-48.0","5ec12ad1759b78000a4f9965","665500ab8938657b03fbdba8","6657937a4d8acc7211fce0f6","1106","stimuli/11011011.jpg"," ","","feedback_trial","1","","","","","","","","","","","","","","","","","","","","",""
"","","","","","image-keyboard-response","74","235964","0.0-49.0","5ec12ad1759b78000a4f9965","665500ab8938657b03fbdba8","6657937a4d8acc7211fce0f6","1102","stimuli/0001001.jpg","0","","prediction_trial","0","","true","","0","true","true","true","true","true","true","[0]","001","001","1","","","","","","",""
"","","","","","image-keyboard-response","75","236947","0.0-50.0","5ec12ad1759b78000a4f9965","665500ab8938657b03fbdba8","6657937a4d8acc7211fce0f6","981","stimuli/00010010.jpg"," ","","feedback_trial","0","","","","","","","","","","","","","","","","","","","","",""
"","","","","","image-keyboard-response","76","238501","0.0-51.0","5ec12ad1759b78000a4f9965","665500ab8938657b03fbdba8","6657937a4d8acc7211fce0f6","1551","stimuli/2010010.jpg","2","","prediction_trial","2","","true","","2","true","true","true","true","true","true","[2]","010","010","1","","","","","","",""
"","","","","","image-keyboard-response","77","239693","0.0-52.0","5ec12ad1759b78000a4f9965","665500ab8938657b03fbdba8","6657937a4d8acc7211fce0f6","1189","stimuli/20100102.jpg"," ","","feedback_trial","2","","","","","","","","","","","","","","","","","","","","",""
"","","","","","image-keyboard-response","78","241919","0.0-53.0","5ec12ad1759b78000a4f9965","665500ab8938657b03fbdba8","6657937a4d8acc7211fce0f6","2224","stimuli/1110100.jpg","1","","prediction_trial","1","","true","","1","true","true","false","false","false","false","[0,1]","110","100","1","","","","","","",""
"","","","","","image-keyboard-response","79","242860","0.0-54.0","5ec12ad1759b78000a4f9965","665500ab8938657b03fbdba8","6657937a4d8acc7211fce0f6","939","stimuli/11101001.jpg"," ","","feedback_trial","0","","","","","","","","","","","","","","","","","","","","",""
"","","","","","image-keyboard-response","80","244020","0.0-55.0","5ec12ad1759b78000a4f9965","665500ab8938657b03fbdba8","6657937a4d8acc7211fce0f6","1158","stimuli/2110010.jpg","2","","prediction_trial","2","","true","","2","true","true","true","true","true","true","[2]","110","010","1","","","","","","",""
"","","","","","image-keyboard-response","81","245076","0.0-56.0","5ec12ad1759b78000a4f9965","665500ab8938657b03fbdba8","6657937a4d8acc7211fce0f6","1053","stimuli/21100102.jpg"," ","","feedback_trial","2","","","","","","","","","","","","","","","","","","","","",""
"","","","","","image-keyboard-response","82","246412","0.0-57.0","5ec12ad1759b78000a4f9965","665500ab8938657b03fbdba8","6657937a4d8acc7211fce0f6","1333","stimuli/0100001.jpg","0","","prediction_trial","0","","true","","0","true","true","false","true","false","true","[0]","100","001","1","","","","","","",""
"","","","","","image-keyboard-response","83","247348","0.0-58.0","5ec12ad1759b78000a4f9965","665500ab8938657b03fbdba8","6657937a4d8acc7211fce0f6","933","stimuli/01000010.jpg"," ","","feedback_trial","0","","","","","","","","","","","","","","","","","","","","",""
"","","","","","image-keyboard-response","84","248695","0.0-59.0","5ec12ad1759b78000a4f9965","665500ab8938657b03fbdba8","6657937a4d8acc7211fce0f6","1345","stimuli/2110111.jpg","0","","prediction_trial","2","","false","","2","false","false","true","true","false","false","[2]","110","111","0","","","","","","",""
"","","","","","image-keyboard-response","85","249623","0.0-60.0","5ec12ad1759b78000a4f9965","665500ab8938657b03fbdba8","6657937a4d8acc7211fce0f6","925","stimuli/21101112.jpg"," ","","feedback_trial","2","","","","","","","","","","","","","","","","","","","","",""
"","","","","","image-keyboard-response","86","250765","0.0-61.0","5ec12ad1759b78000a4f9965","665500ab8938657b03fbdba8","6657937a4d8acc7211fce0f6","1139","stimuli/0001011.jpg","0","","prediction_trial","0","","true","","0","true","true","true","true","true","true","[0]","001","011","1","","","","","","",""
"","","","","","image-keyboard-response","87","251508","0.0-62.0","5ec12ad1759b78000a4f9965","665500ab8938657b03fbdba8","6657937a4d8acc7211fce0f6","740","stimuli/00010110.jpg"," ","","feedback_trial","0","","","","","","","","","","","","","","","","","","","","",""
"","","","","","image-keyboard-response","88","253055","0.0-63.0","5ec12ad1759b78000a4f9965","665500ab8938657b03fbdba8","6657937a4d8acc7211fce0f6","1544","stimuli/1101010.jpg","0","","prediction_trial","1","","false","","1","false","true","true","true","false","true","[1]","101","010","0","","","","","","",""
"","","","","","image-keyboard-response","89","253948","0.0-64.0","5ec12ad1759b78000a4f9965","665500ab8938657b03fbdba8","6657937a4d8acc7211fce0f6","890","stimuli/11010101.jpg"," ","","feedback_trial","1","","","","","","","","","","","","","","","","","","","","",""
"","","","","","image-keyboard-response","90","255423","0.0-65.0","5ec12ad1759b78000a4f9965","665500ab8938657b03fbdba8","6657937a4d8acc7211fce0f6","1473","stimuli/1110010.jpg","1","","prediction_trial","1","","true","","1","false","true","false","false","false","false","[0,1]","110","010","1","","","","","","",""
"","","","","","image-keyboard-response","91","256388","0.0-66.0","5ec12ad1759b78000a4f9965","665500ab8938657b03fbdba8","6657937a4d8acc7211fce0f6","962","stimuli/11100101.jpg"," ","","feedback_trial","0","","","","","","","","","","","","","","","","","","","","",""
"","","","","","image-keyboard-response","92","257491","0.0-67.0","5ec12ad1759b78000a4f9965","665500ab8938657b03fbdba8","6657937a4d8acc7211fce0f6","1100","stimuli/1101100.jpg","1","","prediction_trial","1","","true","","1","true","true","true","true","true","true","[1]","101","100","1","","","","","","",""
"","","","","","image-keyboard-response","93","258252","0.0-68.0","5ec12ad1759b78000a4f9965","665500ab8938657b03fbdba8","6657937a4d8acc7211fce0f6","758","stimuli/11011001.jpg"," ","","feedback_trial","1","","","","","","","","","","","","","","","","","","","","",""
"","","","","","image-keyboard-response","94","259520","0.0-69.0","5ec12ad1759b78000a4f9965","665500ab8938657b03fbdba8","6657937a4d8acc7211fce0f6","1265","stimuli/0101000.jpg","0","","prediction_trial","0","","true","","0","true","true","false","false","false","false","[0,2]","101","000","1","","","","","","",""
"","","","","","image-keyboard-response","95","260539","0.0-70.0","5ec12ad1759b78000a4f9965","665500ab8938657b03fbdba8","6657937a4d8acc7211fce0f6","1017","stimuli/01010000.jpg"," ","","feedback_trial","0","","","","","","","","","","","","","","","","","","","","",""
"","","","","","image-keyboard-response","96","262654","0.0-71.0","5ec12ad1759b78000a4f9965","665500ab8938657b03fbdba8","6657937a4d8acc7211fce0f6","2112","stimuli/1000011.jpg","2","","prediction_trial","1","","false","","1","false","false","true","true","false","false","[1]","000","011","0","","","","","","",""
"","","","","","image-keyboard-response","97","263563","0.0-72.0","5ec12ad1759b78000a4f9965","665500ab8938657b03fbdba8","6657937a4d8acc7211fce0f6","907","stimuli/10000111.jpg"," ","","feedback_trial","1","","","","","","","","","","","","","","","","","","","","",""
"","","","","","image-keyboard-response","98","265513","0.0-73.0","5ec12ad1759b78000a4f9965","665500ab8938657b03fbdba8","6657937a4d8acc7211fce0f6","1947","stimuli/0100011.jpg","0","","prediction_trial","0","","true","","0","true","true","false","true","false","true","[0]","100","011","1","","","","","","",""
"","","","","","image-keyboard-response","99","266276","0.0-74.0","5ec12ad1759b78000a4f9965","665500ab8938657b03fbdba8","6657937a4d8acc7211fce0f6","760","stimuli/01000110.jpg"," ","","feedback_trial","0","","","","","","","","","","","","","","","","","","","","",""
"","","","","","image-keyboard-response","100","267503","0.0-75.0","5ec12ad1759b78000a4f9965","665500ab8938657b03fbdba8","6657937a4d8acc7211fce0f6","1224","stimuli/1000101.jpg","1","","prediction_trial","1","","true","","1","true","true","true","true","true","true","[1]","000","101","1","","","","","","",""
"","","","","","image-keyboard-response","101","268195","0.0-76.0","5ec12ad1759b78000a4f9965","665500ab8938657b03fbdba8","6657937a4d8acc7211fce0f6","691","stimuli/10001011.jpg"," ","","feedback_trial","1","","","","","","","","","","","","","","","","","","","","",""
"","","","","","image-keyboard-response","102","269614","0.0-77.0","5ec12ad1759b78000a4f9965","665500ab8938657b03fbdba8","6657937a4d8acc7211fce0f6","1416","stimuli/2001001.jpg","2","","prediction_trial","2","","true","","2","false","true","false","true","false","true","[2]","001","001","1","","","","","","",""
"","","","","","image-keyboard-response","103","270269","0.0-78.0","5ec12ad1759b78000a4f9965","665500ab8938657b03fbdba8","6657937a4d8acc7211fce0f6","653","stimuli/20010012.jpg"," ","","feedback_trial","2","","","","","","","","","","","","","","","","","","","","",""
"","","","","","image-keyboard-response","104","271660","0.0-79.0","5ec12ad1759b78000a4f9965","665500ab8938657b03fbdba8","6657937a4d8acc7211fce0f6","1389","stimuli/1111101.jpg","1","","prediction_trial","2","","false","","1","true","true","false","false","false","false","[2,0,1]","111","101","0","","","","","","",""
"","","","","","image-keyboard-response","105","272508","0.0-80.0","5ec12ad1759b78000a4f9965","665500ab8938657b03fbdba8","6657937a4d8acc7211fce0f6","846","stimuli/11111012.jpg"," ","","feedback_trial","2","","","","","","","","","","","","","","","","","","","","",""
"","","","","","image-keyboard-response","106","274671","0.0-81.0","5ec12ad1759b78000a4f9965","665500ab8938657b03fbdba8","6657937a4d8acc7211fce0f6","2161","stimuli/2011000.jpg","2","","prediction_trial","2","","true","","2","true","true","false","false","false","false","[1,2]","011","000","1","","","","","","",""
"","","","","","image-keyboard-response","107","275516","0.0-82.0","5ec12ad1759b78000a4f9965","665500ab8938657b03fbdba8","6657937a4d8acc7211fce0f6","842","stimuli/20110002.jpg"," ","","feedback_trial","1","","","","","","","","","","","","","","","","","","","","",""
"","","","","","image-keyboard-response","108","276748","0.0-83.0","5ec12ad1759b78000a4f9965","665500ab8938657b03fbdba8","6657937a4d8acc7211fce0f6","1230","stimuli/0111010.jpg","0","","prediction_trial","1","","false","","0","true","true","false","false","false","false","[2,1,0]","111","010","0","","","","","","",""
"","","","","","image-keyboard-response","109","277636","0.0-84.0","5ec12ad1759b78000a4f9965","665500ab8938657b03fbdba8","6657937a4d8acc7211fce0f6","885","stimuli/01110101.jpg"," ","","feedback_trial","2","","","","","","","","","","","","","","","","","","","","",""
"","","","","","image-keyboard-response","110","279004","0.0-85.0","5ec12ad1759b78000a4f9965","665500ab8938657b03fbdba8","6657937a4d8acc7211fce0f6","1365","stimuli/0000010.jpg","0","","prediction_trial","0","","true","","0","true","true","true","true","true","true","[0]","000","010","1","","","","","","",""
"","","","","","image-keyboard-response","111","279653","0.0-86.0","5ec12ad1759b78000a4f9965","665500ab8938657b03fbdba8","6657937a4d8acc7211fce0f6","646","stimuli/00000100.jpg"," ","","feedback_trial","0","","","","","","","","","","","","","","","","","","","","",""
"","","","","","image-keyboard-response","112","280645","0.0-87.0","5ec12ad1759b78000a4f9965","665500ab8938657b03fbdba8","6657937a4d8acc7211fce0f6","988","stimuli/0000001.jpg","0","","prediction_trial","0","","true","","0","true","true","true","true","true","true","[0]","000","001","1","","","","","","",""
"","","","","","image-keyboard-response","113","281294","0.0-88.0","5ec12ad1759b78000a4f9965","665500ab8938657b03fbdba8","6657937a4d8acc7211fce0f6","646","stimuli/00000010.jpg"," ","","feedback_trial","0","","","","","","","","","","","","","","","","","","","","",""
"","","","","","image-keyboard-response","114","283006","0.0-89.0","5ec12ad1759b78000a4f9965","665500ab8938657b03fbdba8","6657937a4d8acc7211fce0f6","1710","stimuli/1110110.jpg","0","","prediction_trial","0","","true","","1","false","false","false","false","false","false","[0,1]","110","110","1","","","","","","",""
"","","","","","image-keyboard-response","115","283829","0.0-90.0","5ec12ad1759b78000a4f9965","665500ab8938657b03fbdba8","6657937a4d8acc7211fce0f6","820","stimuli/11101100.jpg"," ","","feedback_trial","0","","","","","","","","","","","","","","","","","","","","",""
"","","","","","image-keyboard-response","116","284966","0.0-91.0","5ec12ad1759b78000a4f9965","665500ab8938657b03fbdba8","6657937a4d8acc7211fce0f6","1135","stimuli/0010001.jpg","0","","prediction_trial","0","","true","","0","true","true","true","true","true","true","[0]","010","001","1","","","","","","",""
"","","","","","image-keyboard-response","117","285677","0.0-92.0","5ec12ad1759b78000a4f9965","665500ab8938657b03fbdba8","6657937a4d8acc7211fce0f6","708","stimuli/00100010.jpg"," ","","feedback_trial","0","","","","","","","","","","","","","","","","","","","","",""
"","","","","","image-keyboard-response","118","287798","0.0-93.0","5ec12ad1759b78000a4f9965","665500ab8938657b03fbdba8","6657937a4d8acc7211fce0f6","2118","stimuli/2000111.jpg","2","","prediction_trial","2","","true","","2","false","false","true","true","false","false","[2]","000","111","1","","","","","","",""
"","","","","","image-keyboard-response","119","288582","0.0-94.0","5ec12ad1759b78000a4f9965","665500ab8938657b03fbdba8","6657937a4d8acc7211fce0f6","781","stimuli/20001112.jpg"," ","","feedback_trial","2","","","","","","","","","","","","","","","","","","","","",""
"","","","","","image-keyboard-response","120","289733","0.0-95.0","5ec12ad1759b78000a4f9965","665500ab8938657b03fbdba8","6657937a4d8acc7211fce0f6","1149","stimuli/2000010.jpg","2","","prediction_trial","2","","true","","2","true","true","true","true","true","true","[2]","000","010","1","","","","","","",""
"","","","","","image-keyboard-response","121","290430","0.0-96.0","5ec12ad1759b78000a4f9965","665500ab8938657b03fbdba8","6657937a4d8acc7211fce0f6","695","stimuli/20000102.jpg"," ","","feedback_trial","2","","","","","","","","","","","","","","","","","","","","",""
"","","","","","image-keyboard-response","122","291405","0.0-97.0","5ec12ad1759b78000a4f9965","665500ab8938657b03fbdba8","6657937a4d8acc7211fce0f6","972","stimuli/0000000.jpg","0","","prediction_trial","0","","true","","0","true","true","true","true","true","true","[0]","000","000","1","","","","","","",""
"","","","","","image-keyboard-response","123","292014","0.0-98.0","5ec12ad1759b78000a4f9965","665500ab8938657b03fbdba8","6657937a4d8acc7211fce0f6","605","stimuli/00000000.jpg"," ","","feedback_trial","0","","","","","","","","","","","","","","","","","","","","",""
"","","","","","image-keyboard-response","124","294038","0.0-99.0","5ec12ad1759b78000a4f9965","665500ab8938657b03fbdba8","6657937a4d8acc7211fce0f6","2022","stimuli/1000111.jpg","2","","prediction_trial","1","","false","","1","false","false","true","true","false","false","[1]","000","111","0","","","","","","",""
"","","","","","image-keyboard-response","125","294805","0.0-100.0","5ec12ad1759b78000a4f9965","665500ab8938657b03fbdba8","6657937a4d8acc7211fce0f6","765","stimuli/10001111.jpg"," ","","feedback_trial","1","","","","","","","","","","","","","","","","","","","","",""
"","","","","","image-keyboard-response","126","296336","0.0-101.0","5ec12ad1759b78000a4f9965","665500ab8938657b03fbdba8","6657937a4d8acc7211fce0f6","1528","stimuli/0010111.jpg","0","","prediction_trial","0","","true","","0","false","false","true","true","false","false","[0]","010","111","1","","","","","","",""
"","","","","","image-keyboard-response","127","297213","0.0-102.0","5ec12ad1759b78000a4f9965","665500ab8938657b03fbdba8","6657937a4d8acc7211fce0f6","875","stimuli/00101110.jpg"," ","","feedback_trial","0","","","","","","","","","","","","","","","","","","","","",""
"","","","","","image-keyboard-response","128","300144","0.0-103.0","5ec12ad1759b78000a4f9965","665500ab8938657b03fbdba8","6657937a4d8acc7211fce0f6","2927","stimuli/1100010.jpg","2","","prediction_trial","1","","false","","1","false","true","true","true","false","true","[1]","100","010","0","","","","","","",""
"","","","","","image-keyboard-response","129","300925","0.0-104.0","5ec12ad1759b78000a4f9965","665500ab8938657b03fbdba8","6657937a4d8acc7211fce0f6","779","stimuli/11000101.jpg"," ","","feedback_trial","1","","","","","","","","","","","","","","","","","","","","",""
"","","","","","image-keyboard-response","130","303293","0.0-105.0","5ec12ad1759b78000a4f9965","665500ab8938657b03fbdba8","6657937a4d8acc7211fce0f6","2365","stimuli/0110101.jpg","0","","prediction_trial","1","","false","","0","false","false","false","false","false","false","[1,0]","110","101","0","","","","","","",""
"","","","","","image-keyboard-response","131","304197","0.0-106.0","5ec12ad1759b78000a4f9965","665500ab8938657b03fbdba8","6657937a4d8acc7211fce0f6","902","stimuli/01101011.jpg"," ","","feedback_trial","1","","","","","","","","","","","","","","","","","","","","",""
"","","","","","image-keyboard-response","132","307513","0.0-107.0","5ec12ad1759b78000a4f9965","665500ab8938657b03fbdba8","6657937a4d8acc7211fce0f6","3313","stimuli/1100011.jpg","2","","prediction_trial","1","","false","","1","false","false","true","true","false","false","[1]","100","011","0","","","","","","",""
"","","","","","image-keyboard-response","133","308358","0.0-108.0","5ec12ad1759b78000a4f9965","665500ab8938657b03fbdba8","6657937a4d8acc7211fce0f6","842","stimuli/11000111.jpg"," ","","feedback_trial","1","","","","","","","","","","","","","","","","","","","","",""
"","","","","","image-keyboard-response","134","310297","0.0-109.0","5ec12ad1759b78000a4f9965","665500ab8938657b03fbdba8","6657937a4d8acc7211fce0f6","1936","stimuli/1011111.jpg","0","","prediction_trial","1","","false","","1","false","false","false","false","false","false","[2,1]","011","111","0","","","","","","",""
"","","","","","image-keyboard-response","135","311109","0.0-110.0","5ec12ad1759b78000a4f9965","665500ab8938657b03fbdba8","6657937a4d8acc7211fce0f6","810","stimuli/10111111.jpg"," ","","feedback_trial","2","","","","","","","","","","","","","","","","","","","","",""
"","","","","","image-keyboard-response","136","313062","0.0-111.0","5ec12ad1759b78000a4f9965","665500ab8938657b03fbdba8","6657937a4d8acc7211fce0f6","1951","stimuli/2010001.jpg","2","","prediction_trial","2","","true","","2","false","true","true","true","false","true","[2]","010","001","1","","","","","","",""
"","","","","","image-keyboard-response","137","313718","0.0-112.0","5ec12ad1759b78000a4f9965","665500ab8938657b03fbdba8","6657937a4d8acc7211fce0f6","653","stimuli/20100012.jpg"," ","","feedback_trial","2","","","","","","","","","","","","","","","","","","","","",""
"","","","","","image-keyboard-response","138","315970","0.0-113.0","5ec12ad1759b78000a4f9965","665500ab8938657b03fbdba8","6657937a4d8acc7211fce0f6","2249","stimuli/1111001.jpg","1","","prediction_trial","0","","false","","1","true","true","false","false","false","false","[0,2,1]","111","001","0","","","","","","",""
"","","","","","image-keyboard-response","139","316668","0.0-114.0","5ec12ad1759b78000a4f9965","665500ab8938657b03fbdba8","6657937a4d8acc7211fce0f6","696","stimuli/11110010.jpg"," ","","feedback_trial","0","","","","","","","","","","","","","","","","","","","","",""
"","","","","","image-keyboard-response","140","318016","0.0-115.0","5ec12ad1759b78000a4f9965","665500ab8938657b03fbdba8","6657937a4d8acc7211fce0f6","1345","stimuli/2111101.jpg","2","","prediction_trial","2","","true","","2","false","false","false","false","false","false","[1,0,2]","111","101","1","","","","","","",""
"","","","","","image-keyboard-response","141","319054","0.0-116.0","5ec12ad1759b78000a4f9965","665500ab8938657b03fbdba8","6657937a4d8acc7211fce0f6","1036","stimuli/21111012.jpg"," ","","feedback_trial","1","","","","","","","","","","","","","","","","","","","","",""
"","","","","","image-keyboard-response","142","320092","0.0-117.0","5ec12ad1759b78000a4f9965","665500ab8938657b03fbdba8","6657937a4d8acc7211fce0f6","1036","stimuli/2111100.jpg","2","","prediction_trial","1","","false","","2","true","true","false","false","false","false","[0,2,1]","111","100","0","","","","","","",""
"","","","","","image-keyboard-response","143","320869","0.0-118.0","5ec12ad1759b78000a4f9965","665500ab8938657b03fbdba8","6657937a4d8acc7211fce0f6","774","stimuli/21111001.jpg"," ","","feedback_trial","0","","","","","","","","","","","","","","","","","","","","",""
"","","","","","image-keyboard-response","144","322255","0.0-119.0","5ec12ad1759b78000a4f9965","665500ab8938657b03fbdba8","6657937a4d8acc7211fce0f6","1383","stimuli/2111011.jpg","2","","prediction_trial","2","","true","","2","false","false","false","false","false","false","[1,2,0]","111","011","1","","","","","","",""
"","","","","","image-keyboard-response","145","323221","0.0-120.0","5ec12ad1759b78000a4f9965","665500ab8938657b03fbdba8","6657937a4d8acc7211fce0f6","964","stimuli/21110112.jpg"," ","","feedback_trial","1","","","","","","","","","","","","","","","","","","","","",""
"","","","","","image-keyboard-response","146","325265","0.0-121.0","5ec12ad1759b78000a4f9965","665500ab8938657b03fbdba8","6657937a4d8acc7211fce0f6","2042","stimuli/0100101.jpg","0","","prediction_trial","0","","true","","0","false","false","false","true","false","false","[0]","100","101","1","","","","","","",""
"","","","","","image-keyboard-response","147","326164","0.0-122.0","5ec12ad1759b78000a4f9965","665500ab8938657b03fbdba8","6657937a4d8acc7211fce0f6","897","stimuli/01001010.jpg"," ","","feedback_trial","0","","","","","","","","","","","","","","","","","","","","",""
"","","","","","image-keyboard-response","148","327687","0.0-123.0","5ec12ad1759b78000a4f9965","665500ab8938657b03fbdba8","6657937a4d8acc7211fce0f6","1520","stimuli/0110110.jpg","0","","prediction_trial","1","","false","","0","false","false","false","false","false","false","[0,1]","110","110","0","","","","","","",""
"","","","","","image-keyboard-response","149","328509","0.0-124.0","5ec12ad1759b78000a4f9965","665500ab8938657b03fbdba8","6657937a4d8acc7211fce0f6","819","stimuli/01101101.jpg"," ","","feedback_trial","0","","","","","","","","","","","","","","","","","","","","",""
"","","","","","image-keyboard-response","150","330815","0.0-125.0","5ec12ad1759b78000a4f9965","665500ab8938657b03fbdba8","6657937a4d8acc7211fce0f6","2303","stimuli/0100111.jpg","2","","prediction_trial","0","","false","","0","false","false","false","true","false","false","[0]","100","111","0","","","","","","",""
"","","","","","image-keyboard-response","151","331733","0.0-126.0","5ec12ad1759b78000a4f9965","665500ab8938657b03fbdba8","6657937a4d8acc7211fce0f6","916","stimuli/01001110.jpg"," ","","feedback_trial","0","","","","","","","","","","","","","","","","","","","","",""
"","","","","","image-keyboard-response","152","333069","0.0-127.0","5ec12ad1759b78000a4f9965","665500ab8938657b03fbdba8","6657937a4d8acc7211fce0f6","1333","stimuli/0111111.jpg","0","","prediction_trial","0","","true","","0","false","false","false","false","false","false","[1,0,2]","111","111","1","","","","","","",""
"","","","","","image-keyboard-response","153","333854","0.0-128.0","5ec12ad1759b78000a4f9965","665500ab8938657b03fbdba8","6657937a4d8acc7211fce0f6","782","stimuli/01111110.jpg"," ","","feedback_trial","1","","","","","","","","","","","","","","","","","","","","",""
"","","","","","image-keyboard-response","154","336173","0.0-129.0","5ec12ad1759b78000a4f9965","665500ab8938657b03fbdba8","6657937a4d8acc7211fce0f6","2317","stimuli/2001010.jpg","2","","prediction_trial","2","","true","","2","true","true","false","true","false","true","[2]","001","010","1","","","","","","",""
"","","","","","image-keyboard-response","155","336854","0.0-130.0","5ec12ad1759b78000a4f9965","665500ab8938657b03fbdba8","6657937a4d8acc7211fce0f6","678","stimuli/20010102.jpg"," ","","feedback_trial","2","","","","","","","","","","","","","","","","","","","","",""
"","","","","","image-keyboard-response","156","338020","0.0-131.0","5ec12ad1759b78000a4f9965","665500ab8938657b03fbdba8","6657937a4d8acc7211fce0f6","1164","stimuli/2110110.jpg","2","","prediction_trial","2","","true","","2","true","true","true","true","true","true","[2]","110","110","1","","","","","","",""
"","","","","","image-keyboard-response","157","338661","0.0-132.0","5ec12ad1759b78000a4f9965","665500ab8938657b03fbdba8","6657937a4d8acc7211fce0f6","638","stimuli/21101102.jpg"," ","","feedback_trial","2","","","","","","","","","","","","","","","","","","","","",""
"","","","","","image-keyboard-response","158","339991","0.0-133.0","5ec12ad1759b78000a4f9965","665500ab8938657b03fbdba8","6657937a4d8acc7211fce0f6","1327","stimuli/0111110.jpg","0","","prediction_trial","1","","false","","0","false","false","false","false","false","false","[1,2,0]","111","110","0","","","","","","",""
"","","","","","image-keyboard-response","159","340897","0.0-134.0","5ec12ad1759b78000a4f9965","665500ab8938657b03fbdba8","6657937a4d8acc7211fce0f6","900","stimuli/01111101.jpg"," ","","feedback_trial","1","","","","","","","","","","","","","","","","","","","","",""
"","","","","","image-keyboard-response","160","342225","0.0-135.0","5ec12ad1759b78000a4f9965","665500ab8938657b03fbdba8","6657937a4d8acc7211fce0f6","1325","stimuli/1011110.jpg","2","","prediction_trial","2","","true","","1","false","false","false","false","false","false","[1,2]","011","110","1","","","","","","",""
"","","","","","image-keyboard-response","161","342920","0.0-136.0","5ec12ad1759b78000a4f9965","665500ab8938657b03fbdba8","6657937a4d8acc7211fce0f6","693","stimuli/10111102.jpg"," ","","feedback_trial","1","","","","","","","","","","","","","","","","","","","","",""
"","","","","","image-keyboard-response","162","344308","0.0-137.0","5ec12ad1759b78000a4f9965","665500ab8938657b03fbdba8","6657937a4d8acc7211fce0f6","1385","stimuli/2010111.jpg","2","","prediction_trial","2","","true","","2","false","false","true","true","false","false","[2]","010","111","1","","","","","","",""
"","","","","","image-keyboard-response","163","345240","0.0-138.0","5ec12ad1759b78000a4f9965","665500ab8938657b03fbdba8","6657937a4d8acc7211fce0f6","930","stimuli/20101112.jpg"," ","","feedback_trial","2","","","","","","","","","","","","","","","","","","","","",""
"","","","","","image-keyboard-response","164","347417","0.0-139.0","5ec12ad1759b78000a4f9965","665500ab8938657b03fbdba8","6657937a4d8acc7211fce0f6","2174","stimuli/1011101.jpg","2","","prediction_trial","2","","true","","1","true","true","false","false","false","false","[2,1]","011","101","1","","","","","","",""
"","","","","","image-keyboard-response","165","348177","0.0-140.0","5ec12ad1759b78000a4f9965","665500ab8938657b03fbdba8","6657937a4d8acc7211fce0f6","757","stimuli/10111012.jpg"," ","","feedback_trial","2","","","","","","","","","","","","","","","","","","","","",""
"","","","","","image-keyboard-response","166","350636","0.0-141.0","5ec12ad1759b78000a4f9965","665500ab8938657b03fbdba8","6657937a4d8acc7211fce0f6","2457","stimuli/2100011.jpg","2","","prediction_trial","2","","true","","2","false","false","true","true","false","false","[2]","100","011","1","","","","","","",""
"","","","","","image-keyboard-response","167","351425","0.0-142.0","5ec12ad1759b78000a4f9965","665500ab8938657b03fbdba8","6657937a4d8acc7211fce0f6","786","stimuli/21000112.jpg"," ","","feedback_trial","2","","","","","","","","","","","","","","","","","","","","",""
"","","","","","image-keyboard-response","168","352585","0.0-143.0","5ec12ad1759b78000a4f9965","665500ab8938657b03fbdba8","6657937a4d8acc7211fce0f6","1158","stimuli/1000100.jpg","1","","prediction_trial","1","","true","","1","true","true","true","true","true","true","[1]","000","100","1","","","","","","",""
"","","","","","image-keyboard-response","169","353335","0.0-144.0","5ec12ad1759b78000a4f9965","665500ab8938657b03fbdba8","6657937a4d8acc7211fce0f6","748","stimuli/10001001.jpg"," ","","feedback_trial","1","","","","","","","","","","","","","","","","","","","","",""
"","","","","","image-keyboard-response","170","354907","0.0-145.0","5ec12ad1759b78000a4f9965","665500ab8938657b03fbdba8","6657937a4d8acc7211fce0f6","1569","stimuli/0110100.jpg","0","","prediction_trial","1","","false","","0","false","true","false","false","false","false","[1,0]","110","100","0","","","","","","",""
"","","","","","image-keyboard-response","171","355713","0.0-146.0","5ec12ad1759b78000a4f9965","665500ab8938657b03fbdba8","6657937a4d8acc7211fce0f6","804","stimuli/01101001.jpg"," ","","feedback_trial","1","","","","","","","","","","","","","","","","","","","","",""
"","","","","","image-keyboard-response","172","356912","0.0-147.0","5ec12ad1759b78000a4f9965","665500ab8938657b03fbdba8","6657937a4d8acc7211fce0f6","1196","stimuli/1111010.jpg","1","","prediction_trial","2","","false","","1","false","true","false","false","false","false","[0,2,1]","111","010","0","","","","","","",""
"","","","","","image-keyboard-response","173","357720","0.0-148.0","5ec12ad1759b78000a4f9965","665500ab8938657b03fbdba8","6657937a4d8acc7211fce0f6","806","stimuli/11110102.jpg"," ","","feedback_trial","0","","","","","","","","","","","","","","","","","","","","",""
"","","","","","image-keyboard-response","174","358737","0.0-149.0","5ec12ad1759b78000a4f9965","665500ab8938657b03fbdba8","6657937a4d8acc7211fce0f6","1014","stimuli/0010010.jpg","0","","prediction_trial","0","","true","","0","true","true","true","true","true","true","[0]","010","010","1","","","","","","",""
"","","","","","image-keyboard-response","175","359472","0.0-150.0","5ec12ad1759b78000a4f9965","665500ab8938657b03fbdba8","6657937a4d8acc7211fce0f6","733","stimuli/00100100.jpg"," ","","feedback_trial","0","","","","","","","","","","","","","","","","","","","","",""
"","","","","","image-keyboard-response","176","360464","0.0-151.0","5ec12ad1759b78000a4f9965","665500ab8938657b03fbdba8","6657937a4d8acc7211fce0f6","990","stimuli/2011110.jpg","2","","prediction_trial","1","","false","","2","true","true","false","false","false","false","[1,2]","011","110","0","","","","","","",""
"","","","","","image-keyboard-response","177","361216","0.0-152.0","5ec12ad1759b78000a4f9965","665500ab8938657b03fbdba8","6657937a4d8acc7211fce0f6","750","stimuli/20111101.jpg"," ","","feedback_trial","1","","","","","","","","","","","","","","","","","","","","",""
"","","","","","image-keyboard-response","178","364387","0.0-153.0","5ec12ad1759b78000a4f9965","665500ab8938657b03fbdba8","6657937a4d8acc7211fce0f6","3168","stimuli/2010000.jpg","2","","prediction_trial","2","","true","","2","true","true","true","true","true","true","[2]","010","000","1","","","","","","",""
"","","","","","image-keyboard-response","179","364968","0.0-154.0","5ec12ad1759b78000a4f9965","665500ab8938657b03fbdba8","6657937a4d8acc7211fce0f6","579","stimuli/20100002.jpg"," ","","feedback_trial","2","","","","","","","","","","","","","","","","","","","","",""
"","","","","","image-keyboard-response","180","367420","0.0-155.0","5ec12ad1759b78000a4f9965","665500ab8938657b03fbdba8","6657937a4d8acc7211fce0f6","2449","stimuli/0111011.jpg","0","","prediction_trial","1","","false","","0","true","true","false","false","false","false","[1,2,0]","111","011","0","","","","","","",""
"","","","","","image-keyboard-response","181","368200","0.0-156.0","5ec12ad1759b78000a4f9965","665500ab8938657b03fbdba8","6657937a4d8acc7211fce0f6","777","stimuli/01110111.jpg"," ","","feedback_trial","1","","","","","","","","","","","","","","","","","","","","",""
"","","","","","image-keyboard-response","182","371995","0.0-157.0","5ec12ad1759b78000a4f9965","665500ab8938657b03fbdba8","6657937a4d8acc7211fce0f6","3793","stimuli/1010100.jpg","1","","prediction_trial","1","","true","","1","true","true","false","true","false","true","[1]","010","100","1","","","","","","",""
"","","","","","image-keyboard-response","183","372625","0.0-158.0","5ec12ad1759b78000a4f9965","665500ab8938657b03fbdba8","6657937a4d8acc7211fce0f6","628","stimuli/10101001.jpg"," ","","feedback_trial","1","","","","","","","","","","","","","","","","","","","","",""
"","","","","","image-keyboard-response","184","373952","0.0-159.0","5ec12ad1759b78000a4f9965","665500ab8938657b03fbdba8","6657937a4d8acc7211fce0f6","1324","stimuli/1110111.jpg","0","","prediction_trial","1","","false","","1","false","false","false","false","false","false","[0,1]","110","111","0","","","","","","",""
"","","","","","image-keyboard-response","185","374721","0.0-160.0","5ec12ad1759b78000a4f9965","665500ab8938657b03fbdba8","6657937a4d8acc7211fce0f6","766","stimuli/11101111.jpg"," ","","feedback_trial","0","","","","","","","","","","","","","","","","","","","","",""
"","","","","","image-keyboard-response","186","375752","0.0-161.0","5ec12ad1759b78000a4f9965","665500ab8938657b03fbdba8","6657937a4d8acc7211fce0f6","1029","stimuli/1000001.jpg","1","","prediction_trial","1","","true","","1","true","true","true","true","true","true","[1]","000","001","1","","","","","","",""
"","","","","","image-keyboard-response","187","376272","0.0-162.0","5ec12ad1759b78000a4f9965","665500ab8938657b03fbdba8","6657937a4d8acc7211fce0f6","517","stimuli/10000011.jpg"," ","","feedback_trial","1","","","","","","","","","","","","","","","","","","","","",""
"","","","","","image-keyboard-response","188","377344","0.0-163.0","5ec12ad1759b78000a4f9965","665500ab8938657b03fbdba8","6657937a4d8acc7211fce0f6","1070","stimuli/2110100.jpg","2","","prediction_trial","2","","true","","2","true","true","true","true","true","true","[2]","110","100","1","","","","","","",""
"","","","","","image-keyboard-response","189","377856","0.0-164.0","5ec12ad1759b78000a4f9965","665500ab8938657b03fbdba8","6657937a4d8acc7211fce0f6","509","stimuli/21101002.jpg"," ","","feedback_trial","2","","","","","","","","","","","","","","","","","","","","",""
"","","","","","image-keyboard-response","190","379403","0.0-165.0","5ec12ad1759b78000a4f9965","665500ab8938657b03fbdba8","6657937a4d8acc7211fce0f6","1544","stimuli/2001110.jpg","2","","prediction_trial","2","","true","","2","true","true","false","true","false","true","[2]","001","110","1","","","","","","",""
"","","","","","image-keyboard-response","191","379920","0.0-166.0","5ec12ad1759b78000a4f9965","665500ab8938657b03fbdba8","6657937a4d8acc7211fce0f6","514","stimuli/20011102.jpg"," ","","feedback_trial","2","","","","","","","","","","","","","","","","","","","","",""
"","","","","","image-keyboard-response","192","381584","0.0-167.0","5ec12ad1759b78000a4f9965","665500ab8938657b03fbdba8","6657937a4d8acc7211fce0f6","1662","stimuli/0011110.jpg","1","","prediction_trial","0","","false","","0","false","false","true","true","false","false","[0]","011","110","0","","","","","","",""
"","","","","","image-keyboard-response","193","382185","0.0-168.0","5ec12ad1759b78000a4f9965","665500ab8938657b03fbdba8","6657937a4d8acc7211fce0f6","598","stimuli/00111100.jpg"," ","","feedback_trial","0","","","","","","","","","","","","","","","","","","","","",""
"","","","","","image-keyboard-response","194","383289","0.0-169.0","5ec12ad1759b78000a4f9965","665500ab8938657b03fbdba8","6657937a4d8acc7211fce0f6","1101","stimuli/0010011.jpg","0","","prediction_trial","0","","true","","0","true","true","true","true","true","true","[0]","010","011","1","","","","","","",""
"","","","","","image-keyboard-response","195","383729","0.0-170.0","5ec12ad1759b78000a4f9965","665500ab8938657b03fbdba8","6657937a4d8acc7211fce0f6","438","stimuli/00100110.jpg"," ","","feedback_trial","0","","","","","","","","","","","","","","","","","","","","",""
"","","","","","image-keyboard-response","196","385374","0.0-171.0","5ec12ad1759b78000a4f9965","665500ab8938657b03fbdba8","6657937a4d8acc7211fce0f6","1642","stimuli/1011001.jpg","2","","prediction_trial","1","","false","","1","true","true","false","false","false","false","[2,1]","011","001","0","","","","","","",""
"","","","","","image-keyboard-response","197","385968","0.0-172.0","5ec12ad1759b78000a4f9965","665500ab8938657b03fbdba8","6657937a4d8acc7211fce0f6","592","stimuli/10110011.jpg"," ","","feedback_trial","2","","","","","","","","","","","","","","","","","","","","",""
"","","","","","image-keyboard-response","198","387332","0.0-173.0","5ec12ad1759b78000a4f9965","665500ab8938657b03fbdba8","6657937a4d8acc7211fce0f6","1362","stimuli/1010000.jpg","1","","prediction_trial","1","","true","","1","true","true","false","true","false","true","[1]","010","000","1","","","","","","",""
"","","","","","image-keyboard-response","199","387809","0.0-174.0","5ec12ad1759b78000a4f9965","665500ab8938657b03fbdba8","6657937a4d8acc7211fce0f6","474","stimuli/10100001.jpg"," ","","feedback_trial","1","","","","","","","","","","","","","","","","","","","","",""
"","","","","","image-keyboard-response","200","389418","0.0-175.0","5ec12ad1759b78000a4f9965","665500ab8938657b03fbdba8","6657937a4d8acc7211fce0f6","1607","stimuli/0000110.jpg","1","","prediction_trial","0","","false","","0","false","false","true","true","false","false","[0]","000","110","0","","","","","","",""
"","","","","","image-keyboard-response","201","390009","0.0-176.0","5ec12ad1759b78000a4f9965","665500ab8938657b03fbdba8","6657937a4d8acc7211fce0f6","588","stimuli/00001100.jpg"," ","","feedback_trial","0","","","","","","","","","","","","","","","","","","","","",""
"","","","","","image-keyboard-response","202","391320","0.0-177.0","5ec12ad1759b78000a4f9965","665500ab8938657b03fbdba8","6657937a4d8acc7211fce0f6","1308","stimuli/1010110.jpg","1","","prediction_trial","1","","true","","1","false","false","false","true","false","false","[1]","010","110","1","","","","","","",""
"","","","","","image-keyboard-response","203","391992","0.0-178.0","5ec12ad1759b78000a4f9965","665500ab8938657b03fbdba8","6657937a4d8acc7211fce0f6","670","stimuli/10101101.jpg"," ","","feedback_trial","1","","","","","","","","","","","","","","","","","","","","",""
"","","","","","image-keyboard-response","204","393136","0.0-179.0","5ec12ad1759b78000a4f9965","665500ab8938657b03fbdba8","6657937a4d8acc7211fce0f6","1141","stimuli/0011010.jpg","0","","prediction_trial","0","","true","","0","true","true","true","true","true","true","[0]","011","010","1","","","","","","",""
"","","","","","image-keyboard-response","205","393641","0.0-180.0","5ec12ad1759b78000a4f9965","665500ab8938657b03fbdba8","6657937a4d8acc7211fce0f6","503","stimuli/00110100.jpg"," ","","feedback_trial","0","","","","","","","","","","","","","","","","","","","","",""
"","","","","","image-keyboard-response","206","395392","0.0-181.0","5ec12ad1759b78000a4f9965","665500ab8938657b03fbdba8","6657937a4d8acc7211fce0f6","1749","stimuli/2011001.jpg","2","","prediction_trial","2","","true","","2","false","true","false","false","false","false","[2,1]","011","001","1","","","","","","",""
"","","","","","image-keyboard-response","207","396063","0.0-182.0","5ec12ad1759b78000a4f9965","665500ab8938657b03fbdba8","6657937a4d8acc7211fce0f6","669","stimuli/20110012.jpg"," ","","feedback_trial","2","","","","","","","","","","","","","","","","","","","","",""
"","","","","","image-keyboard-response","208","397184","0.0-183.0","5ec12ad1759b78000a4f9965","665500ab8938657b03fbdba8","6657937a4d8acc7211fce0f6","1118","stimuli/2100010.jpg","2","","prediction_trial","2","","true","","2","true","true","true","true","true","true","[2]","100","010","1","","","","","","",""
"","","","","","image-keyboard-response","209","397712","0.0-184.0","5ec12ad1759b78000a4f9965","665500ab8938657b03fbdba8","6657937a4d8acc7211fce0f6","525","stimuli/21000102.jpg"," ","","feedback_trial","2","","","","","","","","","","","","","","","","","","","","",""
"","","","","","image-keyboard-response","210","399475","0.0-185.0","5ec12ad1759b78000a4f9965","665500ab8938657b03fbdba8","6657937a4d8acc7211fce0f6","1760","stimuli/1001111.jpg","2","","prediction_trial","1","","false","","1","false","false","true","true","false","false","[1]","001","111","0","","","","","","",""
"","","","","","image-keyboard-response","211","400200","0.0-186.0","5ec12ad1759b78000a4f9965","665500ab8938657b03fbdba8","6657937a4d8acc7211fce0f6","723","stimuli/10011111.jpg"," ","","feedback_trial","1","","","","","","","","","","","","","","","","","","","","",""
"","","","","","image-keyboard-response","212","401683","0.0-187.0","5ec12ad1759b78000a4f9965","665500ab8938657b03fbdba8","6657937a4d8acc7211fce0f6","1485","stimuli/0111101.jpg","0","","prediction_trial","0","","true","","0","false","false","false","false","false","false","[2,0,1]","111","101","1","","","","","","",""
"","","","","","image-keyboard-response","213","402194","0.0-188.0","5ec12ad1759b78000a4f9965","665500ab8938657b03fbdba8","6657937a4d8acc7211fce0f6","509","stimuli/01111010.jpg"," ","","feedback_trial","2","","","","","","","","","","","","","","","","","","","","",""
"","","","","","image-keyboard-response","214","404966","0.0-189.0","5ec12ad1759b78000a4f9965","665500ab8938657b03fbdba8","6657937a4d8acc7211fce0f6","2769","stimuli/1100110.jpg","1","","prediction_trial","1","","true","","1","false","false","true","true","false","false","[1]","100","110","1","","","","","","",""
"","","","","","image-keyboard-response","215","405890","0.0-190.0","5ec12ad1759b78000a4f9965","665500ab8938657b03fbdba8","6657937a4d8acc7211fce0f6","922","stimuli/11001101.jpg"," ","","feedback_trial","1","","","","","","","","","","","","","","","","","","","","",""
"","","","","","image-keyboard-response","216","407251","0.0-191.0","5ec12ad1759b78000a4f9965","665500ab8938657b03fbdba8","6657937a4d8acc7211fce0f6","1358","stimuli/0101100.jpg","0","","prediction_trial","2","","false","","0","false","true","false","false","false","false","[0,2]","101","100","0","","","","","","",""
"","","","","","image-keyboard-response","217","408082","0.0-192.0","5ec12ad1759b78000a4f9965","665500ab8938657b03fbdba8","6657937a4d8acc7211fce0f6","829","stimuli/01011002.jpg"," ","","feedback_trial","0","","","","","","","","","","","","","","","","","","","","",""
"","","","","","image-keyboard-response","218","409811","0.0-193.0","5ec12ad1759b78000a4f9965","665500ab8938657b03fbdba8","6657937a4d8acc7211fce0f6","1726","stimuli/0101011.jpg","2","","prediction_trial","0","","false","","0","true","true","false","false","false","false","[2,0]","101","011","0","","","","","","",""
"","","","","","image-keyboard-response","219","410538","0.0-194.0","5ec12ad1759b78000a4f9965","665500ab8938657b03fbdba8","6657937a4d8acc7211fce0f6","725","stimuli/01010110.jpg"," ","","feedback_trial","2","","","","","","","","","","","","","","","","","","","","",""
"","","","","","image-keyboard-response","220","412954","0.0-195.0","5ec12ad1759b78000a4f9965","665500ab8938657b03fbdba8","6657937a4d8acc7211fce0f6","2413","stimuli/1000110.jpg","1","","prediction_trial","1","","true","","1","false","false","true","true","false","false","[1]","000","110","1","","","","","","",""
"","","","","","image-keyboard-response","221","413659","0.0-196.0","5ec12ad1759b78000a4f9965","665500ab8938657b03fbdba8","6657937a4d8acc7211fce0f6","702","stimuli/10001101.jpg"," ","","feedback_trial","1","","","","","","","","","","","","","","","","","","","","",""
"","","","","","image-keyboard-response","222","415603","0.0-197.0","5ec12ad1759b78000a4f9965","665500ab8938657b03fbdba8","6657937a4d8acc7211fce0f6","1942","stimuli/1100111.jpg","2","","prediction_trial","1","","false","","1","false","false","true","true","false","false","[1]","100","111","0","","","","","","",""
"","","","","","image-keyboard-response","223","416378","0.0-198.0","5ec12ad1759b78000a4f9965","665500ab8938657b03fbdba8","6657937a4d8acc7211fce0f6","772","stimuli/11001111.jpg"," ","","feedback_trial","1","","","","","","","","","","","","","","","","","","","","",""
"","","","","","image-keyboard-response","224","418221","0.0-199.0","5ec12ad1759b78000a4f9965","665500ab8938657b03fbdba8","6657937a4d8acc7211fce0f6","1840","stimuli/1010001.jpg","1","","prediction_trial","1","","true","","1","true","true","false","true","false","true","[1]","010","001","1","","","","","","",""
"","","","","","image-keyboard-response","225","418913","0.0-200.0","5ec12ad1759b78000a4f9965","665500ab8938657b03fbdba8","6657937a4d8acc7211fce0f6","690","stimuli/10100011.jpg"," ","","feedback_trial","1","","","","","","","","","","","","","","","","","","","","",""
"","","","","","image-keyboard-response","226","420928","0.0-201.0","5ec12ad1759b78000a4f9965","665500ab8938657b03fbdba8","6657937a4d8acc7211fce0f6","2012","stimuli/1001110.jpg","1","","prediction_trial","1","","true","","1","false","false","true","true","false","false","[1]","001","110","1","","","","","","",""
"","","","","","image-keyboard-response","227","421689","0.0-202.0","5ec12ad1759b78000a4f9965","665500ab8938657b03fbdba8","6657937a4d8acc7211fce0f6","758","stimuli/10011101.jpg"," ","","feedback_trial","1","","","","","","","","","","","","","","","","","","","","",""
"","","","","","image-keyboard-response","228","424576","0.0-203.0","5ec12ad1759b78000a4f9965","665500ab8938657b03fbdba8","6657937a4d8acc7211fce0f6","2884","stimuli/2010101.jpg","0","","prediction_trial","2","","false","","2","false","false","true","true","false","false","[2]","010","101","0","","","","","","",""
"","","","","","image-keyboard-response","229","425395","0.0-204.0","5ec12ad1759b78000a4f9965","665500ab8938657b03fbdba8","6657937a4d8acc7211fce0f6","817","stimuli/20101012.jpg"," ","","feedback_trial","2","","","","","","","","","","","","","","","","","","","","",""
"","","","","","image-keyboard-response","230","427100","0.0-205.0","5ec12ad1759b78000a4f9965","665500ab8938657b03fbdba8","6657937a4d8acc7211fce0f6","1702","stimuli/2111010.jpg","1","","prediction_trial","0","","false","","2","true","true","false","false","false","false","[0,2,1]","111","010","0","","","","","","",""
"","","","","","image-keyboard-response","231","427891","0.0-206.0","5ec12ad1759b78000a4f9965","665500ab8938657b03fbdba8","6657937a4d8acc7211fce0f6","788","stimuli/21110100.jpg"," ","","feedback_trial","0","","","","","","","","","","","","","","","","","","","","",""
"","","","","","image-keyboard-response","232","429216","0.0-207.0","5ec12ad1759b78000a4f9965","665500ab8938657b03fbdba8","6657937a4d8acc7211fce0f6","1323","stimuli/1100100.jpg","1","","prediction_trial","1","","true","","1","true","true","true","true","true","true","[1]","100","100","1","","","","","","",""
"","","","","","image-keyboard-response","233","429642","0.0-208.0","5ec12ad1759b78000a4f9965","665500ab8938657b03fbdba8","6657937a4d8acc7211fce0f6","424","stimuli/11001001.jpg"," ","","feedback_trial","1","","","","","","","","","","","","","","","","","","","","",""
"","","","","","image-keyboard-response","234","430856","0.0-209.0","5ec12ad1759b78000a4f9965","665500ab8938657b03fbdba8","6657937a4d8acc7211fce0f6","1212","stimuli/1010010.jpg","1","","prediction_trial","1","","true","","1","false","true","false","true","false","true","[1]","010","010","1","","","","","","",""
"","","","","","image-keyboard-response","235","431547","0.0-210.0","5ec12ad1759b78000a4f9965","665500ab8938657b03fbdba8","6657937a4d8acc7211fce0f6","688","stimuli/10100101.jpg"," ","","feedback_trial","1","","","","","","","","","","","","","","","","","","","","",""
"","","","","","image-keyboard-response","236","433662","0.0-211.0","5ec12ad1759b78000a4f9965","665500ab8938657b03fbdba8","6657937a4d8acc7211fce0f6","2113","stimuli/0110000.jpg","0","","prediction_trial","1","","false","","0","true","true","false","false","false","false","[1,0]","110","000","0","","","","","","",""
"","","","","","image-keyboard-response","237","434458","0.0-212.0","5ec12ad1759b78000a4f9965","665500ab8938657b03fbdba8","6657937a4d8acc7211fce0f6","793","stimuli/01100001.jpg"," ","","feedback_trial","1","","","","","","","","","","","","","","","","","","","","",""
"","","","","","image-keyboard-response","238","435490","0.0-213.0","5ec12ad1759b78000a4f9965","665500ab8938657b03fbdba8","6657937a4d8acc7211fce0f6","1030","stimuli/1000000.jpg","1","","prediction_trial","1","","true","","1","true","true","true","true","true","true","[1]","000","000","1","","","","","","",""
"","","","","","image-keyboard-response","239","436138","0.0-214.0","5ec12ad1759b78000a4f9965","665500ab8938657b03fbdba8","6657937a4d8acc7211fce0f6","645","stimuli/10000001.jpg"," ","","feedback_trial","1","","","","","","","","","","","","","","","","","","","","",""
"","","","","","image-keyboard-response","240","438139","0.0-215.0","5ec12ad1759b78000a4f9965","665500ab8938657b03fbdba8","6657937a4d8acc7211fce0f6","1999","stimuli/2001011.jpg","1","","prediction_trial","2","","false","","2","false","false","false","true","false","false","[2]","001","011","0","","","","","","",""
"","","","","","image-keyboard-response","241","438907","0.0-216.0","5ec12ad1759b78000a4f9965","665500ab8938657b03fbdba8","6657937a4d8acc7211fce0f6","765","stimuli/20010112.jpg"," ","","feedback_trial","2","","","","","","","","","","","","","","","","","","","","",""
"","","","","","image-keyboard-response","242","440378","0.0-217.0","5ec12ad1759b78000a4f9965","665500ab8938657b03fbdba8","6657937a4d8acc7211fce0f6","1468","stimuli/1011010.jpg","1","","prediction_trial","2","","false","","1","false","true","false","false","false","false","[1,2]","011","010","0","","","","","","",""
"","","","","","image-keyboard-response","243","441107","0.0-218.0","5ec12ad1759b78000a4f9965","665500ab8938657b03fbdba8","6657937a4d8acc7211fce0f6","727","stimuli/10110102.jpg"," ","","feedback_trial","1","","","","","","","","","","","","","","","","","","","","",""
"","","","","","image-keyboard-response","244","442145","0.0-219.0","5ec12ad1759b78000a4f9965","665500ab8938657b03fbdba8","6657937a4d8acc7211fce0f6","1036","stimuli/1001101.jpg","1","","prediction_trial","1","","true","","1","true","true","true","true","true","true","[1]","001","101","1","","","","","","",""
"","","","","","image-keyboard-response","245","442690","0.0-220.0","5ec12ad1759b78000a4f9965","665500ab8938657b03fbdba8","6657937a4d8acc7211fce0f6","542","stimuli/10011011.jpg"," ","","feedback_trial","1","","","","","","","","","","","","","","","","","","","","",""
"","","","","","image-keyboard-response","246","444364","0.0-221.0","5ec12ad1759b78000a4f9965","665500ab8938657b03fbdba8","6657937a4d8acc7211fce0f6","1672","stimuli/0010101.jpg","1","","prediction_trial","0","","false","","0","false","false","true","true","false","false","[0]","010","101","0","","","","","","",""
"","","","","","image-keyboard-response","247","445090","0.0-222.0","5ec12ad1759b78000a4f9965","665500ab8938657b03fbdba8","6657937a4d8acc7211fce0f6","723","stimuli/00101010.jpg"," ","","feedback_trial","0","","","","","","","","","","","","","","","","","","","","",""
"","","","","","image-keyboard-response","248","446290","0.0-223.0","5ec12ad1759b78000a4f9965","665500ab8938657b03fbdba8","6657937a4d8acc7211fce0f6","1197","stimuli/0011011.jpg","0","","prediction_trial","0","","true","","0","true","true","true","true","true","true","[0]","011","011","1","","","","","","",""
"","","","","","image-keyboard-response","249","446922","0.0-224.0","5ec12ad1759b78000a4f9965","665500ab8938657b03fbdba8","6657937a4d8acc7211fce0f6","630","stimuli/00110110.jpg"," ","","feedback_trial","0","","","","","","","","","","","","","","","","","","","","",""
"","","","","","image-keyboard-response","250","448525","0.0-225.0","5ec12ad1759b78000a4f9965","665500ab8938657b03fbdba8","6657937a4d8acc7211fce0f6","1600","stimuli/1011100.jpg","2","","prediction_trial","1","","false","","1","true","true","false","false","false","false","[2,1]","011","100","0","","","","","","",""
"","","","","","image-keyboard-response","251","449323","0.0-226.0","5ec12ad1759b78000a4f9965","665500ab8938657b03fbdba8","6657937a4d8acc7211fce0f6","796","stimuli/10111001.jpg"," ","","feedback_trial","2","","","","","","","","","","","","","","","","","","","","",""
"","","","","","image-keyboard-response","252","451323","0.0-227.0","5ec12ad1759b78000a4f9965","665500ab8938657b03fbdba8","6657937a4d8acc7211fce0f6","1997","stimuli/2111000.jpg","2","","prediction_trial","1","","false","","2","true","true","false","false","false","false","[1,0,2]","111","000","0","","","","","","",""
"","","","","","image-keyboard-response","253","452209","0.0-228.0","5ec12ad1759b78000a4f9965","665500ab8938657b03fbdba8","6657937a4d8acc7211fce0f6","884","stimuli/21110001.jpg"," ","","feedback_trial","1","","","","","","","","","","","","","","","","","","","","",""
"","","","","","image-keyboard-response","254","453864","0.0-229.0","5ec12ad1759b78000a4f9965","665500ab8938657b03fbdba8","6657937a4d8acc7211fce0f6","1652","stimuli/1111100.jpg","2","","prediction_trial","2","","true","","1","true","true","false","false","false","false","[1,2,0]","111","100","1","","","","","","",""
"","","","","","image-keyboard-response","255","454650","0.0-230.0","5ec12ad1759b78000a4f9965","665500ab8938657b03fbdba8","6657937a4d8acc7211fce0f6","784","stimuli/11111002.jpg"," ","","feedback_trial","1","","","","","","","","","","","","","","","","","","","","",""
"","","","","","image-keyboard-response","256","456818","0.0-231.0","5ec12ad1759b78000a4f9965","665500ab8938657b03fbdba8","6657937a4d8acc7211fce0f6","2165","stimuli/2100111.jpg","1","","prediction_trial","2","","false","","2","false","false","true","true","false","false","[2]","100","111","0","","","","","","",""
"","","","","","image-keyboard-response","257","457514","0.0-232.0","5ec12ad1759b78000a4f9965","665500ab8938657b03fbdba8","6657937a4d8acc7211fce0f6","694","stimuli/21001112.jpg"," ","","feedback_trial","2","","","","","","","","","","","","","","","","","","","","",""
"","","","","","image-keyboard-response","258","458835","0.0-233.0","5ec12ad1759b78000a4f9965","665500ab8938657b03fbdba8","6657937a4d8acc7211fce0f6","1319","stimuli/0010100.jpg","1","","prediction_trial","0","","false","","0","false","true","true","true","false","true","[0]","010","100","0","","","","","","",""
"","","","","","image-keyboard-response","259","459620","0.0-234.0","5ec12ad1759b78000a4f9965","665500ab8938657b03fbdba8","6657937a4d8acc7211fce0f6","782","stimuli/00101000.jpg"," ","","feedback_trial","0","","","","","","","","","","","","","","","","","","","","",""
"","","","","","image-keyboard-response","260","461959","0.0-235.0","5ec12ad1759b78000a4f9965","665500ab8938657b03fbdba8","6657937a4d8acc7211fce0f6","2326","stimuli/2101110.jpg","0","","prediction_trial","2","","false","","2","true","true","false","false","false","false","[0,2]","101","110","0","","","","","","",""
"","","","","","image-keyboard-response","261","462796","0.0-236.0","5ec12ad1759b78000a4f9965","665500ab8938657b03fbdba8","6657937a4d8acc7211fce0f6","834","stimuli/21011102.jpg"," ","","feedback_trial","0","","","","","","","","","","","","","","","","","","","","",""
"","","","","","image-keyboard-response","262","464124","0.0-237.0","5ec12ad1759b78000a4f9965","665500ab8938657b03fbdba8","6657937a4d8acc7211fce0f6","1326","stimuli/0101010.jpg","0","","prediction_trial","2","","false","","0","true","true","false","false","false","false","[0,2]","101","010","0","","","","","","",""
"","","","","","image-keyboard-response","263","464932","0.0-238.0","5ec12ad1759b78000a4f9965","665500ab8938657b03fbdba8","6657937a4d8acc7211fce0f6","805","stimuli/01010102.jpg"," ","","feedback_trial","0","","","","","","","","","","","","","","","","","","","","",""
"","","","","","image-keyboard-response","264","466719","0.0-239.0","5ec12ad1759b78000a4f9965","665500ab8938657b03fbdba8","6657937a4d8acc7211fce0f6","1784","stimuli/1110000.jpg","1","","prediction_trial","1","","true","","1","true","true","false","false","false","false","[0,1]","110","000","1","","","","","","",""
"","","","","","image-keyboard-response","265","467564","0.0-240.0","5ec12ad1759b78000a4f9965","665500ab8938657b03fbdba8","6657937a4d8acc7211fce0f6","843","stimuli/11100001.jpg"," ","","feedback_trial","0","","","","","","","","","","","","","","","","","","","","",""
"","","","","","image-keyboard-response","266","469154","0.0-241.0","5ec12ad1759b78000a4f9965","665500ab8938657b03fbdba8","6657937a4d8acc7211fce0f6","1588","stimuli/1100001.jpg","1","","prediction_trial","1","","true","","1","true","true","true","true","true","true","[1]","100","001","1","","","","","","",""
"","","","","","image-keyboard-response","267","469772","0.0-242.0","5ec12ad1759b78000a4f9965","665500ab8938657b03fbdba8","6657937a4d8acc7211fce0f6","616","stimuli/11000011.jpg"," ","","feedback_trial","1","","","","","","","","","","","","","","","","","","","","",""
"","","","","","image-keyboard-response","268","470876","0.0-243.0","5ec12ad1759b78000a4f9965","665500ab8938657b03fbdba8","6657937a4d8acc7211fce0f6","1101","stimuli/2000100.jpg","2","","prediction_trial","2","","true","","2","true","true","true","true","true","true","[2]","000","100","1","","","","","","",""
"","","","","","image-keyboard-response","269","471645","0.0-244.0","5ec12ad1759b78000a4f9965","665500ab8938657b03fbdba8","6657937a4d8acc7211fce0f6","766","stimuli/20001002.jpg"," ","","feedback_trial","2","","","","","","","","","","","","","","","","","","","","",""
"","","","","","image-keyboard-response","270","473455","0.0-245.0","5ec12ad1759b78000a4f9965","665500ab8938657b03fbdba8","6657937a4d8acc7211fce0f6","1807","stimuli/0100110.jpg","1","","prediction_trial","0","","false","","0","false","false","false","true","false","false","[0]","100","110","0","","","","","","",""
"","","","","","image-keyboard-response","271","474597","0.0-246.0","5ec12ad1759b78000a4f9965","665500ab8938657b03fbdba8","6657937a4d8acc7211fce0f6","1140","stimuli/01001100.jpg"," ","","feedback_trial","0","","","","","","","","","","","","","","","","","","","","",""
"","","","","","image-keyboard-response","272","475732","0.0-247.0","5ec12ad1759b78000a4f9965","665500ab8938657b03fbdba8","6657937a4d8acc7211fce0f6","1133","stimuli/1001001.jpg","1","","prediction_trial","1","","true","","1","true","true","true","true","true","true","[1]","001","001","1","","","","","","",""
"","","","","","image-keyboard-response","273","476700","0.0-248.0","5ec12ad1759b78000a4f9965","665500ab8938657b03fbdba8","6657937a4d8acc7211fce0f6","965","stimuli/10010011.jpg"," ","","feedback_trial","1","","","","","","","","","","","","","","","","","","","","",""
"","","","","","image-keyboard-response","274","478765","0.0-249.0","5ec12ad1759b78000a4f9965","665500ab8938657b03fbdba8","6657937a4d8acc7211fce0f6","2062","stimuli/0001110.jpg","1","","prediction_trial","0","","false","","0","false","false","true","true","false","false","[0]","001","110","0","","","","","","",""
"","","","","","image-keyboard-response","275","479540","0.0-250.0","5ec12ad1759b78000a4f9965","665500ab8938657b03fbdba8","6657937a4d8acc7211fce0f6","773","stimuli/00011100.jpg"," ","","feedback_trial","0","","","","","","","","","","","","","","","","","","","","",""
"","","","","","image-keyboard-response","276","480507","0.0-251.0","5ec12ad1759b78000a4f9965","665500ab8938657b03fbdba8","6657937a4d8acc7211fce0f6","964","stimuli/1100000.jpg","1","","prediction_trial","1","","true","","1","true","true","true","true","true","true","[1]","100","000","1","","","","","","",""
"","","","","","image-keyboard-response","277","481448","0.0-252.0","5ec12ad1759b78000a4f9965","665500ab8938657b03fbdba8","6657937a4d8acc7211fce0f6","938","stimuli/11000001.jpg"," ","","feedback_trial","1","","","","","","","","","","","","","","","","","","","","",""
"","","","","","image-keyboard-response","278","483128","0.0-253.0","5ec12ad1759b78000a4f9965","665500ab8938657b03fbdba8","6657937a4d8acc7211fce0f6","1678","stimuli/0100100.jpg","0","","prediction_trial","0","","true","","0","false","true","false","true","false","true","[0]","100","100","1","","","","","","",""
"","","","","","image-keyboard-response","279","483685","0.0-254.0","5ec12ad1759b78000a4f9965","665500ab8938657b03fbdba8","6657937a4d8acc7211fce0f6","554","stimuli/01001000.jpg"," ","","feedback_trial","0","","","","","","","","","","","","","","","","","","","","",""
"","","","","","image-keyboard-response","280","485447","0.0-255.0","5ec12ad1759b78000a4f9965","665500ab8938657b03fbdba8","6657937a4d8acc7211fce0f6","1760","stimuli/0001101.jpg","0","","prediction_trial","0","","true","","0","false","false","true","true","false","false","[0]","001","101","1","","","","","","",""
"","","","","","image-keyboard-response","281","486302","0.0-256.0","5ec12ad1759b78000a4f9965","665500ab8938657b03fbdba8","6657937a4d8acc7211fce0f6","852","stimuli/00011010.jpg"," ","","feedback_trial","0","","","","","","","","","","","","","","","","","","","","",""
"","","","","","image-keyboard-response","282","488486","0.0-257.0","5ec12ad1759b78000a4f9965","665500ab8938657b03fbdba8","6657937a4d8acc7211fce0f6","2182","stimuli/2101011.jpg","2","","prediction_trial","2","","true","","2","false","false","false","false","false","false","[2,0]","101","011","1","","","","","","",""
"","","","","","image-keyboard-response","283","489260","0.0-258.0","5ec12ad1759b78000a4f9965","665500ab8938657b03fbdba8","6657937a4d8acc7211fce0f6","771","stimuli/21010112.jpg"," ","","feedback_trial","2","","","","","","","","","","","","","","","","","","","","",""
"","","","","","image-keyboard-response","284","490830","0.0-259.0","5ec12ad1759b78000a4f9965","665500ab8938657b03fbdba8","6657937a4d8acc7211fce0f6","1568","stimuli/0101111.jpg","2","","prediction_trial","0","","false","","0","false","false","false","false","false","false","[2,0]","101","111","0","","","","","","",""
"","","","","","image-keyboard-response","285","491773","0.0-260.0","5ec12ad1759b78000a4f9965","665500ab8938657b03fbdba8","6657937a4d8acc7211fce0f6","940","stimuli/01011110.jpg"," ","","feedback_trial","2","","","","","","","","","","","","","","","","","","","","",""
"","","","","","image-keyboard-response","286","493954","0.0-261.0","5ec12ad1759b78000a4f9965","665500ab8938657b03fbdba8","6657937a4d8acc7211fce0f6","2179","stimuli/1010011.jpg","2","","prediction_trial","1","","false","","1","false","false","false","true","false","false","[1]","010","011","0","","","","","","",""
"","","","","","image-keyboard-response","287","494756","0.0-262.0","5ec12ad1759b78000a4f9965","665500ab8938657b03fbdba8","6657937a4d8acc7211fce0f6","799","stimuli/10100111.jpg"," ","","feedback_trial","1","","","","","","","","","","","","","","","","","","","","",""
"","","","","","image-keyboard-response","288","496183","0.0-263.0","5ec12ad1759b78000a4f9965","665500ab8938657b03fbdba8","6657937a4d8acc7211fce0f6","1424","stimuli/2111001.jpg","2","","prediction_trial","0","","false","","2","false","true","false","false","false","false","[2,0,1]","111","001","0","","","","","","",""
"","","","","","image-keyboard-response","289","496948","0.0-264.0","5ec12ad1759b78000a4f9965","665500ab8938657b03fbdba8","6657937a4d8acc7211fce0f6","763","stimuli/21110010.jpg"," ","","feedback_trial","2","","","","","","","","","","","","","","","","","","","","",""
"","","","","","image-keyboard-response","290","498228","0.0-265.0","5ec12ad1759b78000a4f9965","665500ab8938657b03fbdba8","6657937a4d8acc7211fce0f6","1278","stimuli/1011011.jpg","1","","prediction_trial","1","","true","","1","false","false","false","false","false","false","[1,2]","011","011","1","","","","","","",""
"","","","","","image-keyboard-response","291","498925","0.0-266.0","5ec12ad1759b78000a4f9965","665500ab8938657b03fbdba8","6657937a4d8acc7211fce0f6","694","stimuli/10110111.jpg"," ","","feedback_trial","1","","","","","","","","","","","","","","","","","","","","",""
"","","","","","image-keyboard-response","292","499812","0.0-267.0","5ec12ad1759b78000a4f9965","665500ab8938657b03fbdba8","6657937a4d8acc7211fce0f6","885","stimuli/2001111.jpg","2","","prediction_trial","2","","true","","2","false","false","false","true","false","false","[2]","001","111","1","","","","","","",""
"","","","","","image-keyboard-response","293","500541","0.0-268.0","5ec12ad1759b78000a4f9965","665500ab8938657b03fbdba8","6657937a4d8acc7211fce0f6","725","stimuli/20011112.jpg"," ","","feedback_trial","2","","","","","","","","","","","","","","","","","","","","",""
"","","","","","image-keyboard-response","294","501579","0.0-269.0","5ec12ad1759b78000a4f9965","665500ab8938657b03fbdba8","6657937a4d8acc7211fce0f6","1036","stimuli/0000100.jpg","0","","prediction_trial","0","","true","","0","false","true","true","true","false","true","[0]","000","100","1","","","","","","",""
"","","","","","image-keyboard-response","295","502316","0.0-270.0","5ec12ad1759b78000a4f9965","665500ab8938657b03fbdba8","6657937a4d8acc7211fce0f6","734","stimuli/00001000.jpg"," ","","feedback_trial","0","","","","","","","","","","","","","","","","","","","","",""
"","","","","","image-keyboard-response","296","503444","0.0-271.0","5ec12ad1759b78000a4f9965","665500ab8938657b03fbdba8","6657937a4d8acc7211fce0f6","1125","stimuli/0111100.jpg","0","","prediction_trial","1","","false","","0","false","true","false","false","false","false","[2,0,1]","111","100","0","","","","","","",""
"","","","","","image-keyboard-response","297","504310","0.0-272.0","5ec12ad1759b78000a4f9965","665500ab8938657b03fbdba8","6657937a4d8acc7211fce0f6","863","stimuli/01111001.jpg"," ","","feedback_trial","2","","","","","","","","","","","","","","","","","","","","",""
"","","","","","image-keyboard-response","298","505372","0.0-273.0","5ec12ad1759b78000a4f9965","665500ab8938657b03fbdba8","6657937a4d8acc7211fce0f6","1060","stimuli/2011011.jpg","1","","prediction_trial","1","","true","","2","false","false","false","false","false","false","[2,1]","011","011","1","","","","","","",""
"","","","","","image-keyboard-response","299","506036","0.0-274.0","5ec12ad1759b78000a4f9965","665500ab8938657b03fbdba8","6657937a4d8acc7211fce0f6","661","stimuli/20110111.jpg"," ","","feedback_trial","2","","","","","","","","","","","","","","","","","","","","",""
"","","","","","image-keyboard-response","300","507004","0.0-275.0","5ec12ad1759b78000a4f9965","665500ab8938657b03fbdba8","6657937a4d8acc7211fce0f6","966","stimuli/2011111.jpg","2","","prediction_trial","1","","false","","2","false","false","false","false","false","false","[2,1]","011","111","0","","","","","","",""
"","","","","","image-keyboard-response","301","507756","0.0-276.0","5ec12ad1759b78000a4f9965","665500ab8938657b03fbdba8","6657937a4d8acc7211fce0f6","750","stimuli/20111111.jpg"," ","","feedback_trial","2","","","","","","","","","","","","","","","","","","","","",""
"","","","","","image-keyboard-response","302","509972","0.0-277.0","5ec12ad1759b78000a4f9965","665500ab8938657b03fbdba8","6657937a4d8acc7211fce0f6","2213","stimuli/0100010.jpg","0","","prediction_trial","0","","true","","0","true","true","false","true","false","true","[0]","100","010","1","","","","","","",""
"","","","","","image-keyboard-response","303","510622","0.0-278.0","5ec12ad1759b78000a4f9965","665500ab8938657b03fbdba8","6657937a4d8acc7211fce0f6","648","stimuli/01000100.jpg"," ","","feedback_trial","0","","","","","","","","","","","","","","","","","","","","",""
"","","","","","image-keyboard-response","304","511967","0.0-279.0","5ec12ad1759b78000a4f9965","665500ab8938657b03fbdba8","6657937a4d8acc7211fce0f6","1343","stimuli/2110011.jpg","1","","prediction_trial","2","","false","","2","false","false","true","true","false","false","[2]","110","011","0","","","","","","",""
"","","","","","image-keyboard-response","305","512773","0.0-280.0","5ec12ad1759b78000a4f9965","665500ab8938657b03fbdba8","6657937a4d8acc7211fce0f6","803","stimuli/21100112.jpg"," ","","feedback_trial","2","","","","","","","","","","","","","","","","","","","","",""
"","","","","","image-keyboard-response","306","514397","0.0-281.0","5ec12ad1759b78000a4f9965","665500ab8938657b03fbdba8","6657937a4d8acc7211fce0f6","1622","stimuli/0101101.jpg","2","","prediction_trial","0","","false","","0","false","false","false","false","false","false","[0,2]","101","101","0","","","","","","",""
"","","","","","image-keyboard-response","307","515100","0.0-282.0","5ec12ad1759b78000a4f9965","665500ab8938657b03fbdba8","6657937a4d8acc7211fce0f6","700","stimuli/01011010.jpg"," ","","feedback_trial","0","","","","","","","","","","","","","","","","","","","","",""
"","","","","","image-keyboard-response","308","516164","0.0-283.0","5ec12ad1759b78000a4f9965","665500ab8938657b03fbdba8","6657937a4d8acc7211fce0f6","1062","stimuli/2100100.jpg","2","","prediction_trial","2","","true","","2","true","true","true","true","true","true","[2]","100","100","1","","","","","","",""
"","","","","","image-keyboard-response","309","516740","0.0-284.0","5ec12ad1759b78000a4f9965","665500ab8938657b03fbdba8","6657937a4d8acc7211fce0f6","573","stimuli/21001002.jpg"," ","","feedback_trial","2","","","","","","","","","","","","","","","","","","","","",""
"","","","","","image-keyboard-response","310","517945","0.0-285.0","5ec12ad1759b78000a4f9965","665500ab8938657b03fbdba8","6657937a4d8acc7211fce0f6","1203","stimuli/0011111.jpg","2","","prediction_trial","0","","false","","0","false","false","true","true","false","false","[0]","011","111","0","","","","","","",""
"","","","","","image-keyboard-response","311","518884","0.0-286.0","5ec12ad1759b78000a4f9965","665500ab8938657b03fbdba8","6657937a4d8acc7211fce0f6","937","stimuli/00111110.jpg"," ","","feedback_trial","0","","","","","","","","","","","","","","","","","","","","",""
"","","","","","image-keyboard-response","312","520405","0.0-287.0","5ec12ad1759b78000a4f9965","665500ab8938657b03fbdba8","6657937a4d8acc7211fce0f6","1518","stimuli/2101101.jpg","0","","prediction_trial","0","","true","","2","false","false","false","false","false","false","[0,2]","101","101","1","","","","","","",""
"","","","","","image-keyboard-response","313","521324","0.0-288.0","5ec12ad1759b78000a4f9965","665500ab8938657b03fbdba8","6657937a4d8acc7211fce0f6","916","stimuli/21011010.jpg"," ","","feedback_trial","0","","","","","","","","","","","","","","","","","","","","",""
"","","","","","image-keyboard-response","314","522407","0.0-289.0","5ec12ad1759b78000a4f9965","665500ab8938657b03fbdba8","6657937a4d8acc7211fce0f6","1080","stimuli/2100110.jpg","2","","prediction_trial","2","","true","","2","true","true","true","true","true","true","[2]","100","110","1","","","","","","",""
"","","","","","image-keyboard-response","315","523413","0.0-290.0","5ec12ad1759b78000a4f9965","665500ab8938657b03fbdba8","6657937a4d8acc7211fce0f6","1003","stimuli/21001102.jpg"," ","","feedback_trial","2","","","","","","","","","","","","","","","","","","","","",""
"","","","","","image-keyboard-response","316","524690","0.0-291.0","5ec12ad1759b78000a4f9965","665500ab8938657b03fbdba8","6657937a4d8acc7211fce0f6","1274","stimuli/2010011.jpg","1","","prediction_trial","2","","false","","2","false","false","true","true","false","false","[2]","010","011","0","","","","","","",""
"","","","","","image-keyboard-response","317","525733","0.0-292.0","5ec12ad1759b78000a4f9965","665500ab8938657b03fbdba8","6657937a4d8acc7211fce0f6","1041","stimuli/20100112.jpg"," ","","feedback_trial","2","","","","","","","","","","","","","","","","","","","","",""
"","","","","","survey-html-form","318","539296","0.0-293.0","5ec12ad1759b78000a4f9965","665500ab8938657b03fbdba8","6657937a4d8acc7211fce0f6","13559","","{""feedback"":"""",""age"":""44"",""gender"":""Male"",""other_gender"":"""",""race"":""White"",""other_race"":"""",""ethnicity"":""Non-Hispanic""}","","exit_survey","","","","","","","","","","","","","","","","","44","Non-Hispanic","Male","White","0.5833333333333334","0.5833333333333334"
