"success","timeout","failed_images","failed_audio","failed_video","trial_type","trial_index","time_elapsed","internal_node_id","prolific_id","prolific_study_id","prolific_session_id","rt","stimulus","response","view_history","trial","character_choice","stimulus_dict","accuracy","correct_response","ball_pos","ego_ball_visible","ego_can_infer","alter_ball_visible","alter_can_infer","collective_ball_visible","collective_can_infer","search_locations","alter_occluders","ego_occluders","accuracy_bool","feedback","age","ethnicity","gender","race","overall_accuracy","bonus"
"true","false","[]","[]","[]","preload","0","4371","0.0-0.0","5ed68cac121a540dfb82f4ea","665500ab8938657b03fbdba8","665793ee1ecf5d6289be5d33","","","","","","","","","","","","","","","","","","","","","","","","","","",""
"true","","","","","fullscreen","1","6627","0.0-1.0","5ed68cac121a540dfb82f4ea","665500ab8938657b03fbdba8","665793ee1ecf5d6289be5d33","","","","","","","","","","","","","","","","","","","","","","","","","","",""
"","","","","","html-button-response","2","14678","0.0-2.0","5ed68cac121a540dfb82f4ea","665500ab8938657b03fbdba8","665793ee1ecf5d6289be5d33","8048","<p><b>Consent Form</b></p> <div style=""text-align:left;background-color:lightgrey; padding:20px; max-width:900px;""><p>Please consider this information carefully before deciding whether to participate in this research.</p> <p>The purpose of this research is to examine which factors influence social judgment and decision-making. You will be asked to make judgements about individuals and actions in social scenarios. We are simply interested in your judgement. The study will take less than 1 hour to complete, and you will receive less than $20 on Prolific. Your compensation and time commitment are specified in the study description. There are no anticipated risks associated with participating in this study. The effects of participating should be comparable to those you would ordinarily experience from viewing a computer monitor and using a mouse or keyboard for a similar amount of time. At the end of the study, we will provide an explanation of the questions that motivate this line of research and will describe the potential implications. </p><p> Your participation in this study is completely voluntary and you may refuse to participate or you may choose to withdraw at any time without penalty or loss of benefits to you which are otherwise entitled. Your participation in this study will remain confidential. No personally identifiable information will be associated with your data. Also, all analyses of the data will be averaged across all the participants, so your individual responses will never be specifically analyzed. </p><p> If you have questions or concerns about your participation or payment, or want to request a summary of research findings, please contact Dr. Jonathan Phillips at Jonathan.S.Phillips@dartmouth.edu. </p><p> Please save a copy of this form for your records. </p><p><b>Agreement: </b>The nature and purpose of this research have been sufficiently explained and I agree to participate in this study. I understand that I am free to withdraw at any time without incurring any penalty. Please consent by clicking the button below to continue. Otherwise, please exit the study at any time. </p>","0","","","","","","","","","","","","","","","","","","","","","","","",""
"","","","","","instructions","3","53072","0.0-3.0-0.0","5ed68cac121a540dfb82f4ea","665500ab8938657b03fbdba8","665793ee1ecf5d6289be5d33","38385","","","[{""page_index"":0,""viewing_time"":1458},{""page_index"":1,""viewing_time"":1846},{""page_index"":2,""viewing_time"":1672},{""page_index"":3,""viewing_time"":4096},{""page_index"":4,""viewing_time"":2112},{""page_index"":5,""viewing_time"":2338},{""page_index"":6,""viewing_time"":1930},{""page_index"":7,""viewing_time"":2698},{""page_index"":8,""viewing_time"":3034},{""page_index"":9,""viewing_time"":1962},{""page_index"":10,""viewing_time"":5676},{""page_index"":11,""viewing_time"":4246},{""page_index"":12,""viewing_time"":3768},{""page_index"":13,""viewing_time"":1548}]","intro","","","","","","","","","","","","","","","","","","","","","",""
"","","","","","image-keyboard-response","4","54494","0.0-3.0-1.0","5ed68cac121a540dfb82f4ea","665500ab8938657b03fbdba8","665793ee1ecf5d6289be5d33","1418","stimuli/0000011.jpg","0","","prediction_practice","0","{""filepath"":""stimuli/0000011.jpg"",""ball_pos"":0,""ego_ball_visible"":true,""ego_can_infer"":true,""alter_ball_visible"":true,""alter_can_infer"":true,""collective_ball_visible"":true,""collective_can_infer"":true,""search_locations"":[0],""alter_occluders"":""000"",""ego_occluders"":""011""}","true","","","","","","","","","","","","","","","","","","",""
"","","","","","image-keyboard-response","5","55469","0.0-3.0-2.0","5ed68cac121a540dfb82f4ea","665500ab8938657b03fbdba8","665793ee1ecf5d6289be5d33","971","stimuli/00000110.jpg"," ","","practrice_feedback","0","","","","","","","","","","","","","","","","","","","","",""
"","","","","","image-keyboard-response","6","56860","0.0-3.0-3.0","5ed68cac121a540dfb82f4ea","665500ab8938657b03fbdba8","665793ee1ecf5d6289be5d33","1389","stimuli/1110111.jpg","2","","prediction_practice","1","{""filepath"":""stimuli/1110111.jpg"",""ball_pos"":1,""ego_ball_visible"":false,""ego_can_infer"":false,""alter_ball_visible"":false,""alter_can_infer"":false,""collective_ball_visible"":false,""collective_can_infer"":false,""search_locations"":[1,0],""alter_occluders"":""110"",""ego_occluders"":""111""}","false","","","","","","","","","","","","","","","","","","",""
"","","","","","image-keyboard-response","7","58124","0.0-3.0-4.0","5ed68cac121a540dfb82f4ea","665500ab8938657b03fbdba8","665793ee1ecf5d6289be5d33","1245","stimuli/11101111.jpg"," ","","practrice_feedback","1","","","","","","","","","","","","","","","","","","","","",""
"","","","","","image-keyboard-response","8","59004","0.0-3.0-5.0","5ed68cac121a540dfb82f4ea","665500ab8938657b03fbdba8","665793ee1ecf5d6289be5d33","877","stimuli/0011011.jpg","0","","prediction_practice","0","{""filepath"":""stimuli/0011011.jpg"",""ball_pos"":0,""ego_ball_visible"":true,""ego_can_infer"":true,""alter_ball_visible"":true,""alter_can_infer"":true,""collective_ball_visible"":true,""collective_can_infer"":true,""search_locations"":[0],""alter_occluders"":""011"",""ego_occluders"":""011""}","true","","","","","","","","","","","","","","","","","","",""
"","","","","","image-keyboard-response","9","59772","0.0-3.0-6.0","5ed68cac121a540dfb82f4ea","665500ab8938657b03fbdba8","665793ee1ecf5d6289be5d33","766","stimuli/00110110.jpg"," ","","practrice_feedback","0","","","","","","","","","","","","","","","","","","","","",""
"","","","","","image-keyboard-response","10","60493","0.0-3.0-7.0","5ed68cac121a540dfb82f4ea","665500ab8938657b03fbdba8","665793ee1ecf5d6289be5d33","718","stimuli/2011110.jpg","2","","prediction_practice","1","{""filepath"":""stimuli/2011110.jpg"",""ball_pos"":2,""ego_ball_visible"":true,""ego_can_infer"":true,""alter_ball_visible"":false,""alter_can_infer"":false,""collective_ball_visible"":false,""collective_can_infer"":false,""search_locations"":[2,1],""alter_occluders"":""011"",""ego_occluders"":""110""}","false","","","","","","","","","","","","","","","","","","",""
"","","","","","image-keyboard-response","11","61340","0.0-3.0-8.0","5ed68cac121a540dfb82f4ea","665500ab8938657b03fbdba8","665793ee1ecf5d6289be5d33","826","stimuli/20111101.jpg"," ","","practrice_feedback","2","","","","","","","","","","","","","","","","","","","","",""
"","","","","","image-keyboard-response","12","62364","0.0-3.0-9.0","5ed68cac121a540dfb82f4ea","665500ab8938657b03fbdba8","665793ee1ecf5d6289be5d33","1022","stimuli/2100001.jpg","2","","prediction_practice","2","{""filepath"":""stimuli/2100001.jpg"",""ball_pos"":2,""ego_ball_visible"":false,""ego_can_infer"":true,""alter_ball_visible"":true,""alter_can_infer"":true,""collective_ball_visible"":false,""collective_can_infer"":true,""search_locations"":[2],""alter_occluders"":""100"",""ego_occluders"":""001""}","true","","","","","","","","","","","","","","","","","","",""
"","","","","","image-keyboard-response","13","63356","0.0-3.0-10.0","5ed68cac121a540dfb82f4ea","665500ab8938657b03fbdba8","665793ee1ecf5d6289be5d33","989","stimuli/21000012.jpg"," ","","practrice_feedback","2","","","","","","","","","","","","","","","","","","","","",""
"","","","","","image-keyboard-response","14","64956","0.0-3.0-11.0","5ed68cac121a540dfb82f4ea","665500ab8938657b03fbdba8","665793ee1ecf5d6289be5d33","1598","stimuli/1010111.jpg","1","","prediction_practice","1","{""filepath"":""stimuli/1010111.jpg"",""ball_pos"":1,""ego_ball_visible"":false,""ego_can_infer"":false,""alter_ball_visible"":false,""alter_can_infer"":true,""collective_ball_visible"":false,""collective_can_infer"":false,""search_locations"":[1],""alter_occluders"":""010"",""ego_occluders"":""111""}","true","","","","","","","","","","","","","","","","","","",""
"","","","","","image-keyboard-response","15","65916","0.0-3.0-12.0","5ed68cac121a540dfb82f4ea","665500ab8938657b03fbdba8","665793ee1ecf5d6289be5d33","939","stimuli/10101111.jpg"," ","","practrice_feedback","1","","","","","","","","","","","","","","","","","","","","",""
"","","","","","image-keyboard-response","16","67100","0.0-3.0-13.0","5ed68cac121a540dfb82f4ea","665500ab8938657b03fbdba8","665793ee1ecf5d6289be5d33","1182","stimuli/0101011.jpg","0","","prediction_practice","0","{""filepath"":""stimuli/0101011.jpg"",""ball_pos"":0,""ego_ball_visible"":true,""ego_can_infer"":true,""alter_ball_visible"":false,""alter_can_infer"":false,""collective_ball_visible"":false,""collective_can_infer"":false,""search_locations"":[0,2],""alter_occluders"":""101"",""ego_occluders"":""011""}","true","","","","","","","","","","","","","","","","","","",""
"","","","","","image-keyboard-response","17","68220","0.0-3.0-14.0","5ed68cac121a540dfb82f4ea","665500ab8938657b03fbdba8","665793ee1ecf5d6289be5d33","1118","stimuli/01010110.jpg"," ","","practrice_feedback","0","","","","","","","","","","","","","","","","","","","","",""
"","","","","","image-keyboard-response","18","69324","0.0-3.0-15.0","5ed68cac121a540dfb82f4ea","665500ab8938657b03fbdba8","665793ee1ecf5d6289be5d33","1102","stimuli/0001111.jpg","1","","prediction_practice","0","{""filepath"":""stimuli/0001111.jpg"",""ball_pos"":0,""ego_ball_visible"":false,""ego_can_infer"":false,""alter_ball_visible"":true,""alter_can_infer"":true,""collective_ball_visible"":false,""collective_can_infer"":false,""search_locations"":[0],""alter_occluders"":""001"",""ego_occluders"":""111""}","false","","","","","","","","","","","","","","","","","","",""
"","","","","","image-keyboard-response","19","70188","0.0-3.0-16.0","5ed68cac121a540dfb82f4ea","665500ab8938657b03fbdba8","665793ee1ecf5d6289be5d33","845","stimuli/00011110.jpg"," ","","practrice_feedback","0","","","","","","","","","","","","","","","","","","","","",""
"","","","","","image-keyboard-response","20","70892","0.0-3.0-17.0","5ed68cac121a540dfb82f4ea","665500ab8938657b03fbdba8","665793ee1ecf5d6289be5d33","702","stimuli/0010010.jpg","0","","prediction_practice","0","{""filepath"":""stimuli/0010010.jpg"",""ball_pos"":0,""ego_ball_visible"":true,""ego_can_infer"":true,""alter_ball_visible"":true,""alter_can_infer"":true,""collective_ball_visible"":true,""collective_can_infer"":true,""search_locations"":[0],""alter_occluders"":""010"",""ego_occluders"":""010""}","true","","","","","","","","","","","","","","","","","","",""
"","","","","","image-keyboard-response","21","71564","0.0-3.0-18.0","5ed68cac121a540dfb82f4ea","665500ab8938657b03fbdba8","665793ee1ecf5d6289be5d33","670","stimuli/00100100.jpg"," ","","practrice_feedback","0","","","","","","","","","","","","","","","","","","","","",""
"","","","","","image-keyboard-response","22","72364","0.0-3.0-19.0","5ed68cac121a540dfb82f4ea","665500ab8938657b03fbdba8","665793ee1ecf5d6289be5d33","798","stimuli/0010111.jpg","2","","prediction_practice","0","{""filepath"":""stimuli/0010111.jpg"",""ball_pos"":0,""ego_ball_visible"":false,""ego_can_infer"":false,""alter_ball_visible"":true,""alter_can_infer"":true,""collective_ball_visible"":false,""collective_can_infer"":false,""search_locations"":[0],""alter_occluders"":""010"",""ego_occluders"":""111""}","false","","","","","","","","","","","","","","","","","","",""
"","","","","","image-keyboard-response","23","72940","0.0-3.0-20.0","5ed68cac121a540dfb82f4ea","665500ab8938657b03fbdba8","665793ee1ecf5d6289be5d33","556","stimuli/00101110.jpg"," ","","practrice_feedback","0","","","","","","","","","","","","","","","","","","","","",""
"","","","","","html-button-response","24","75226","0.0-3.0-21.0","5ed68cac121a540dfb82f4ea","665500ab8938657b03fbdba8","665793ee1ecf5d6289be5d33","2284","Now that you've had some practice, you'll be tested with a couple of easy trials. If you correctly predict Sam's choice, you'll move on to complete the experiment!","0","","","","","","","","","","","","","","","","","","","","","","","",""
"","","","","","image-keyboard-response","25","76125","0.0-3.0-22.0-0.0","5ed68cac121a540dfb82f4ea","665500ab8938657b03fbdba8","665793ee1ecf5d6289be5d33","897","stimuli/0000011.jpg","arrowleft","","comprehension_quiz","","","true","arrowleft","","","","","","","","","","","","","","","","","",""
"","","","","","image-keyboard-response","26","76796","0.0-3.0-22.0-1.0","5ed68cac121a540dfb82f4ea","665500ab8938657b03fbdba8","665793ee1ecf5d6289be5d33","668","stimuli/00000110.jpg"," ","","comprehension_quiz","","","true"," ","","","","","","","","","","","","","","","","","",""
"","","","","","image-keyboard-response","27","77884","0.0-3.0-22.0-2.0","5ed68cac121a540dfb82f4ea","665500ab8938657b03fbdba8","665793ee1ecf5d6289be5d33","1086","stimuli/1010010.jpg","arrowdown","","comprehension_quiz","","","true","arrowdown","","","","","","","","","","","","","","","","","",""
"","","","","","image-keyboard-response","28","78492","0.0-3.0-22.0-3.0","5ed68cac121a540dfb82f4ea","665500ab8938657b03fbdba8","665793ee1ecf5d6289be5d33","588","stimuli/10100101.jpg"," ","","comprehension_quiz","","","true"," ","","","","","","","","","","","","","","","","","",""
"","","","","","html-button-response","29","79956","0.0-4.0","5ed68cac121a540dfb82f4ea","665500ab8938657b03fbdba8","665793ee1ecf5d6289be5d33","1460","The experiment will now begin.","0","","","","","","","","","","","","","","","","","","","","","","","",""
"","","","","","image-keyboard-response","30","81021","0.0-5.0","5ed68cac121a540dfb82f4ea","665500ab8938657b03fbdba8","665793ee1ecf5d6289be5d33","1063","stimuli/0100001.jpg","0","","prediction_trial","0","","true","","0","true","true","false","true","false","true","[0]","100","001","1","","","","","","",""
"","","","","","image-keyboard-response","31","81789","0.0-6.0","5ed68cac121a540dfb82f4ea","665500ab8938657b03fbdba8","665793ee1ecf5d6289be5d33","766","stimuli/01000010.jpg"," ","","feedback_trial","0","","","","","","","","","","","","","","","","","","","","",""
"","","","","","image-keyboard-response","32","83389","0.0-7.0","5ed68cac121a540dfb82f4ea","665500ab8938657b03fbdba8","665793ee1ecf5d6289be5d33","1597","stimuli/1011110.jpg","1","","prediction_trial","2","","false","","1","false","false","false","false","false","false","[1,2]","011","110","0","","","","","","",""
"","","","","","image-keyboard-response","33","84220","0.0-8.0","5ed68cac121a540dfb82f4ea","665500ab8938657b03fbdba8","665793ee1ecf5d6289be5d33","811","stimuli/10111102.jpg"," ","","feedback_trial","1","","","","","","","","","","","","","","","","","","","","",""
"","","","","","image-keyboard-response","34","84988","0.0-9.0","5ed68cac121a540dfb82f4ea","665500ab8938657b03fbdba8","665793ee1ecf5d6289be5d33","766","stimuli/1011001.jpg","1","","prediction_trial","2","","false","","1","true","true","false","false","false","false","[2,1]","011","001","0","","","","","","",""
"","","","","","image-keyboard-response","35","86060","0.0-10.0","5ed68cac121a540dfb82f4ea","665500ab8938657b03fbdba8","665793ee1ecf5d6289be5d33","1070","stimuli/10110012.jpg"," ","","feedback_trial","2","","","","","","","","","","","","","","","","","","","","",""
"","","","","","image-keyboard-response","36","86940","0.0-11.0","5ed68cac121a540dfb82f4ea","665500ab8938657b03fbdba8","665793ee1ecf5d6289be5d33","878","stimuli/1111010.jpg","1","","prediction_trial","2","","false","","1","false","true","false","false","false","false","[1,2,0]","111","010","0","","","","","","",""
"","","","","","image-keyboard-response","37","87580","0.0-12.0","5ed68cac121a540dfb82f4ea","665500ab8938657b03fbdba8","665793ee1ecf5d6289be5d33","619","stimuli/11110102.jpg"," ","","feedback_trial","1","","","","","","","","","","","","","","","","","","","","",""
"","","","","","image-keyboard-response","38","88364","0.0-13.0","5ed68cac121a540dfb82f4ea","665500ab8938657b03fbdba8","665793ee1ecf5d6289be5d33","782","stimuli/1010110.jpg","1","","prediction_trial","1","","true","","1","false","false","false","true","false","false","[1]","010","110","1","","","","","","",""
"","","","","","image-keyboard-response","39","89116","0.0-14.0","5ed68cac121a540dfb82f4ea","665500ab8938657b03fbdba8","665793ee1ecf5d6289be5d33","749","stimuli/10101101.jpg"," ","","feedback_trial","1","","","","","","","","","","","","","","","","","","","","",""
"","","","","","image-keyboard-response","40","89788","0.0-15.0","5ed68cac121a540dfb82f4ea","665500ab8938657b03fbdba8","665793ee1ecf5d6289be5d33","670","stimuli/0101010.jpg","0","","prediction_trial","2","","false","","0","true","true","false","false","false","false","[0,2]","101","010","0","","","","","","",""
"","","","","","image-keyboard-response","41","90477","0.0-16.0","5ed68cac121a540dfb82f4ea","665500ab8938657b03fbdba8","665793ee1ecf5d6289be5d33","668","stimuli/01010102.jpg"," ","","feedback_trial","0","","","","","","","","","","","","","","","","","","","","",""
"","","","","","image-keyboard-response","42","91324","0.0-17.0","5ed68cac121a540dfb82f4ea","665500ab8938657b03fbdba8","665793ee1ecf5d6289be5d33","846","stimuli/2100100.jpg","2","","prediction_trial","2","","true","","2","true","true","true","true","true","true","[2]","100","100","1","","","","","","",""
"","","","","","image-keyboard-response","43","91964","0.0-18.0","5ed68cac121a540dfb82f4ea","665500ab8938657b03fbdba8","665793ee1ecf5d6289be5d33","638","stimuli/21001002.jpg"," ","","feedback_trial","2","","","","","","","","","","","","","","","","","","","","",""
"","","","","","image-keyboard-response","44","92940","0.0-19.0","5ed68cac121a540dfb82f4ea","665500ab8938657b03fbdba8","665793ee1ecf5d6289be5d33","973","stimuli/2110001.jpg","2","","prediction_trial","2","","true","","2","false","true","true","true","false","true","[2]","110","001","1","","","","","","",""
"","","","","","image-keyboard-response","45","93468","0.0-20.0","5ed68cac121a540dfb82f4ea","665500ab8938657b03fbdba8","665793ee1ecf5d6289be5d33","508","stimuli/21100012.jpg"," ","","feedback_trial","2","","","","","","","","","","","","","","","","","","","","",""
"","","","","","image-keyboard-response","46","94364","0.0-21.0","5ed68cac121a540dfb82f4ea","665500ab8938657b03fbdba8","665793ee1ecf5d6289be5d33","893","stimuli/1110011.jpg","2","","prediction_trial","0","","false","","1","false","false","false","false","false","false","[1,0]","110","011","0","","","","","","",""
"","","","","","image-keyboard-response","47","95020","0.0-22.0","5ed68cac121a540dfb82f4ea","665500ab8938657b03fbdba8","665793ee1ecf5d6289be5d33","654","stimuli/11100110.jpg"," ","","feedback_trial","1","","","","","","","","","","","","","","","","","","","","",""
"","","","","","image-keyboard-response","48","95692","0.0-23.0","5ed68cac121a540dfb82f4ea","665500ab8938657b03fbdba8","665793ee1ecf5d6289be5d33","670","stimuli/2100000.jpg","2","","prediction_trial","2","","true","","2","true","true","true","true","true","true","[2]","100","000","1","","","","","","",""
"","","","","","image-keyboard-response","49","96237","0.0-24.0","5ed68cac121a540dfb82f4ea","665500ab8938657b03fbdba8","665793ee1ecf5d6289be5d33","527","stimuli/21000002.jpg"," ","","feedback_trial","2","","","","","","","","","","","","","","","","","","","","",""
"","","","","","image-keyboard-response","50","97052","0.0-25.0","5ed68cac121a540dfb82f4ea","665500ab8938657b03fbdba8","665793ee1ecf5d6289be5d33","814","stimuli/1101010.jpg","1","","prediction_trial","1","","true","","1","false","true","true","true","false","true","[1]","101","010","1","","","","","","",""
"","","","","","image-keyboard-response","51","97564","0.0-26.0","5ed68cac121a540dfb82f4ea","665500ab8938657b03fbdba8","665793ee1ecf5d6289be5d33","510","stimuli/11010101.jpg"," ","","feedback_trial","1","","","","","","","","","","","","","","","","","","","","",""
"","","","","","image-keyboard-response","52","98348","0.0-27.0","5ed68cac121a540dfb82f4ea","665500ab8938657b03fbdba8","665793ee1ecf5d6289be5d33","782","stimuli/1000110.jpg","0","","prediction_trial","1","","false","","1","false","false","true","true","false","false","[1]","000","110","0","","","","","","",""
"","","","","","image-keyboard-response","53","98957","0.0-28.0","5ed68cac121a540dfb82f4ea","665500ab8938657b03fbdba8","665793ee1ecf5d6289be5d33","588","stimuli/10001101.jpg"," ","","feedback_trial","1","","","","","","","","","","","","","","","","","","","","",""
"","","","","","image-keyboard-response","54","99564","0.0-29.0","5ed68cac121a540dfb82f4ea","665500ab8938657b03fbdba8","665793ee1ecf5d6289be5d33","605","stimuli/2000110.jpg","2","","prediction_trial","2","","true","","2","true","true","true","true","true","true","[2]","000","110","1","","","","","","",""
"","","","","","image-keyboard-response","55","100074","0.0-30.0","5ed68cac121a540dfb82f4ea","665500ab8938657b03fbdba8","665793ee1ecf5d6289be5d33","510","stimuli/20001102.jpg"," ","","feedback_trial","2","","","","","","","","","","","","","","","","","","","","",""
"","","","","","image-keyboard-response","56","100746","0.0-31.0","5ed68cac121a540dfb82f4ea","665500ab8938657b03fbdba8","665793ee1ecf5d6289be5d33","670","stimuli/1001010.jpg","0","","prediction_trial","1","","false","","1","false","true","true","true","false","true","[1]","001","010","0","","","","","","",""
"","","","","","image-keyboard-response","57","101258","0.0-32.0","5ed68cac121a540dfb82f4ea","665500ab8938657b03fbdba8","665793ee1ecf5d6289be5d33","492","stimuli/10010101.jpg"," ","","feedback_trial","1","","","","","","","","","","","","","","","","","","","","",""
"","","","","","image-keyboard-response","58","101962","0.0-33.0","5ed68cac121a540dfb82f4ea","665500ab8938657b03fbdba8","665793ee1ecf5d6289be5d33","702","stimuli/2101110.jpg","2","","prediction_trial","0","","false","","2","true","true","false","false","false","false","[0,2]","101","110","0","","","","","","",""
"","","","","","image-keyboard-response","59","102506","0.0-34.0","5ed68cac121a540dfb82f4ea","665500ab8938657b03fbdba8","665793ee1ecf5d6289be5d33","542","stimuli/21011100.jpg"," ","","feedback_trial","0","","","","","","","","","","","","","","","","","","","","",""
"","","","","","image-keyboard-response","60","103258","0.0-35.0","5ed68cac121a540dfb82f4ea","665500ab8938657b03fbdba8","665793ee1ecf5d6289be5d33","750","stimuli/1010111.jpg","1","","prediction_trial","1","","true","","1","false","false","false","true","false","false","[1]","010","111","1","","","","","","",""
"","","","","","image-keyboard-response","61","103834","0.0-36.0","5ed68cac121a540dfb82f4ea","665500ab8938657b03fbdba8","665793ee1ecf5d6289be5d33","556","stimuli/10101111.jpg"," ","","feedback_trial","1","","","","","","","","","","","","","","","","","","","","",""
"","","","","","image-keyboard-response","62","104682","0.0-37.0","5ed68cac121a540dfb82f4ea","665500ab8938657b03fbdba8","665793ee1ecf5d6289be5d33","845","stimuli/1100111.jpg","1","","prediction_trial","1","","true","","1","false","false","true","true","false","false","[1]","100","111","1","","","","","","",""
"","","","","","image-keyboard-response","63","105306","0.0-38.0","5ed68cac121a540dfb82f4ea","665500ab8938657b03fbdba8","665793ee1ecf5d6289be5d33","622","stimuli/11001111.jpg"," ","","feedback_trial","1","","","","","","","","","","","","","","","","","","","","",""
"","","","","","image-keyboard-response","64","105945","0.0-39.0","5ed68cac121a540dfb82f4ea","665500ab8938657b03fbdba8","665793ee1ecf5d6289be5d33","637","stimuli/0100000.jpg","0","","prediction_trial","0","","true","","0","true","true","false","true","false","true","[0]","100","000","1","","","","","","",""
"","","","","","image-keyboard-response","65","106522","0.0-40.0","5ed68cac121a540dfb82f4ea","665500ab8938657b03fbdba8","665793ee1ecf5d6289be5d33","569","stimuli/01000000.jpg"," ","","feedback_trial","0","","","","","","","","","","","","","","","","","","","","",""
"","","","","","image-keyboard-response","66","107226","0.0-41.0","5ed68cac121a540dfb82f4ea","665500ab8938657b03fbdba8","665793ee1ecf5d6289be5d33","702","stimuli/2100110.jpg","2","","prediction_trial","2","","true","","2","true","true","true","true","true","true","[2]","100","110","1","","","","","","",""
"","","","","","image-keyboard-response","67","107770","0.0-42.0","5ed68cac121a540dfb82f4ea","665500ab8938657b03fbdba8","665793ee1ecf5d6289be5d33","542","stimuli/21001102.jpg"," ","","feedback_trial","2","","","","","","","","","","","","","","","","","","","","",""
"","","","","","image-keyboard-response","68","108394","0.0-43.0","5ed68cac121a540dfb82f4ea","665500ab8938657b03fbdba8","665793ee1ecf5d6289be5d33","622","stimuli/1101000.jpg","1","","prediction_trial","1","","true","","1","true","true","true","true","true","true","[1]","101","000","1","","","","","","",""
"","","","","","image-keyboard-response","69","108922","0.0-44.0","5ed68cac121a540dfb82f4ea","665500ab8938657b03fbdba8","665793ee1ecf5d6289be5d33","508","stimuli/11010001.jpg"," ","","feedback_trial","1","","","","","","","","","","","","","","","","","","","","",""
"","","","","","image-keyboard-response","70","109818","0.0-45.0","5ed68cac121a540dfb82f4ea","665500ab8938657b03fbdba8","665793ee1ecf5d6289be5d33","894","stimuli/0100100.jpg","0","","prediction_trial","0","","true","","0","false","true","false","true","false","true","[0]","100","100","1","","","","","","",""
"","","","","","image-keyboard-response","71","110362","0.0-46.0","5ed68cac121a540dfb82f4ea","665500ab8938657b03fbdba8","665793ee1ecf5d6289be5d33","542","stimuli/01001000.jpg"," ","","feedback_trial","0","","","","","","","","","","","","","","","","","","","","",""
"","","","","","image-keyboard-response","72","111130","0.0-47.0","5ed68cac121a540dfb82f4ea","665500ab8938657b03fbdba8","665793ee1ecf5d6289be5d33","766","stimuli/2111111.jpg","1","","prediction_trial","0","","false","","2","false","false","false","false","false","false","[2,0,1]","111","111","0","","","","","","",""
"","","","","","image-keyboard-response","73","111722","0.0-48.0","5ed68cac121a540dfb82f4ea","665500ab8938657b03fbdba8","665793ee1ecf5d6289be5d33","572","stimuli/21111110.jpg"," ","","feedback_trial","2","","","","","","","","","","","","","","","","","","","","",""
"","","","","","image-keyboard-response","74","112394","0.0-49.0","5ed68cac121a540dfb82f4ea","665500ab8938657b03fbdba8","665793ee1ecf5d6289be5d33","670","stimuli/2001100.jpg","2","","prediction_trial","2","","true","","2","true","true","false","true","false","true","[2]","001","100","1","","","","","","",""
"","","","","","image-keyboard-response","75","112970","0.0-50.0","5ed68cac121a540dfb82f4ea","665500ab8938657b03fbdba8","665793ee1ecf5d6289be5d33","574","stimuli/20011002.jpg"," ","","feedback_trial","2","","","","","","","","","","","","","","","","","","","","",""
"","","","","","image-keyboard-response","76","113930","0.0-51.0","5ed68cac121a540dfb82f4ea","665500ab8938657b03fbdba8","665793ee1ecf5d6289be5d33","958","stimuli/0011100.jpg","0","","prediction_trial","0","","true","","0","false","true","true","true","false","true","[0]","011","100","1","","","","","","",""
"","","","","","image-keyboard-response","77","114490","0.0-52.0","5ed68cac121a540dfb82f4ea","665500ab8938657b03fbdba8","665793ee1ecf5d6289be5d33","542","stimuli/00111000.jpg"," ","","feedback_trial","0","","","","","","","","","","","","","","","","","","","","",""
"","","","","","image-keyboard-response","78","115210","0.0-53.0","5ed68cac121a540dfb82f4ea","665500ab8938657b03fbdba8","665793ee1ecf5d6289be5d33","718","stimuli/1111101.jpg","1","","prediction_trial","0","","false","","1","true","true","false","false","false","false","[0,2,1]","111","101","0","","","","","","",""
"","","","","","image-keyboard-response","79","115738","0.0-54.0","5ed68cac121a540dfb82f4ea","665500ab8938657b03fbdba8","665793ee1ecf5d6289be5d33","526","stimuli/11111010.jpg"," ","","feedback_trial","0","","","","","","","","","","","","","","","","","","","","",""
"","","","","","image-keyboard-response","80","116378","0.0-55.0","5ed68cac121a540dfb82f4ea","665500ab8938657b03fbdba8","665793ee1ecf5d6289be5d33","638","stimuli/0110010.jpg","0","","prediction_trial","1","","false","","0","true","true","false","false","false","false","[0,1]","110","010","0","","","","","","",""
"","","","","","image-keyboard-response","81","116890","0.0-56.0","5ed68cac121a540dfb82f4ea","665500ab8938657b03fbdba8","665793ee1ecf5d6289be5d33","492","stimuli/01100101.jpg"," ","","feedback_trial","0","","","","","","","","","","","","","","","","","","","","",""
"","","","","","image-keyboard-response","82","117818","0.0-57.0","5ed68cac121a540dfb82f4ea","665500ab8938657b03fbdba8","665793ee1ecf5d6289be5d33","926","stimuli/0001101.jpg","0","","prediction_trial","0","","true","","0","false","false","true","true","false","false","[0]","001","101","1","","","","","","",""
"","","","","","image-keyboard-response","83","118362","0.0-58.0","5ed68cac121a540dfb82f4ea","665500ab8938657b03fbdba8","665793ee1ecf5d6289be5d33","542","stimuli/00011010.jpg"," ","","feedback_trial","0","","","","","","","","","","","","","","","","","","","","",""
"","","","","","image-keyboard-response","84","119210","0.0-59.0","5ed68cac121a540dfb82f4ea","665500ab8938657b03fbdba8","665793ee1ecf5d6289be5d33","846","stimuli/2110101.jpg","2","","prediction_trial","2","","true","","2","false","false","true","true","false","false","[2]","110","101","1","","","","","","",""
"","","","","","image-keyboard-response","85","119818","0.0-60.0","5ed68cac121a540dfb82f4ea","665500ab8938657b03fbdba8","665793ee1ecf5d6289be5d33","589","stimuli/21101012.jpg"," ","","feedback_trial","2","","","","","","","","","","","","","","","","","","","","",""
"","","","","","image-keyboard-response","86","120682","0.0-61.0","5ed68cac121a540dfb82f4ea","665500ab8938657b03fbdba8","665793ee1ecf5d6289be5d33","862","stimuli/1111110.jpg","2","","prediction_trial","1","","false","","1","false","false","false","false","false","false","[2,1,0]","111","110","0","","","","","","",""
"","","","","","image-keyboard-response","87","121242","0.0-62.0","5ed68cac121a540dfb82f4ea","665500ab8938657b03fbdba8","665793ee1ecf5d6289be5d33","558","stimuli/11111101.jpg"," ","","feedback_trial","2","","","","","","","","","","","","","","","","","","","","",""
"","","","","","image-keyboard-response","88","122057","0.0-63.0","5ed68cac121a540dfb82f4ea","665500ab8938657b03fbdba8","665793ee1ecf5d6289be5d33","813","stimuli/0001110.jpg","0","","prediction_trial","0","","true","","0","false","false","true","true","false","false","[0]","001","110","1","","","","","","",""
"","","","","","image-keyboard-response","89","122570","0.0-64.0","5ed68cac121a540dfb82f4ea","665500ab8938657b03fbdba8","665793ee1ecf5d6289be5d33","498","stimuli/00011100.jpg"," ","","feedback_trial","0","","","","","","","","","","","","","","","","","","","","",""
"","","","","","image-keyboard-response","90","123466","0.0-65.0","5ed68cac121a540dfb82f4ea","665500ab8938657b03fbdba8","665793ee1ecf5d6289be5d33","893","stimuli/1001011.jpg","1","","prediction_trial","1","","true","","1","false","false","true","true","false","false","[1]","001","011","1","","","","","","",""
"","","","","","image-keyboard-response","91","124010","0.0-66.0","5ed68cac121a540dfb82f4ea","665500ab8938657b03fbdba8","665793ee1ecf5d6289be5d33","542","stimuli/10010111.jpg"," ","","feedback_trial","1","","","","","","","","","","","","","","","","","","","","",""
"","","","","","image-keyboard-response","92","124730","0.0-67.0","5ed68cac121a540dfb82f4ea","665500ab8938657b03fbdba8","665793ee1ecf5d6289be5d33","717","stimuli/0010111.jpg","2","","prediction_trial","0","","false","","0","false","false","true","true","false","false","[0]","010","111","0","","","","","","",""
"","","","","","image-keyboard-response","93","125306","0.0-68.0","5ed68cac121a540dfb82f4ea","665500ab8938657b03fbdba8","665793ee1ecf5d6289be5d33","559","stimuli/00101110.jpg"," ","","feedback_trial","0","","","","","","","","","","","","","","","","","","","","",""
"","","","","","image-keyboard-response","94","125850","0.0-69.0","5ed68cac121a540dfb82f4ea","665500ab8938657b03fbdba8","665793ee1ecf5d6289be5d33","541","stimuli/1001111.jpg","1","","prediction_trial","1","","true","","1","false","false","true","true","false","false","[1]","001","111","1","","","","","","",""
"","","","","","image-keyboard-response","95","126442","0.0-70.0","5ed68cac121a540dfb82f4ea","665500ab8938657b03fbdba8","665793ee1ecf5d6289be5d33","590","stimuli/10011111.jpg"," ","","feedback_trial","1","","","","","","","","","","","","","","","","","","","","",""
"","","","","","image-keyboard-response","96","127226","0.0-71.0","5ed68cac121a540dfb82f4ea","665500ab8938657b03fbdba8","665793ee1ecf5d6289be5d33","782","stimuli/0001100.jpg","1","","prediction_trial","0","","false","","0","false","true","true","true","false","true","[0]","001","100","0","","","","","","",""
"","","","","","image-keyboard-response","97","127882","0.0-72.0","5ed68cac121a540dfb82f4ea","665500ab8938657b03fbdba8","665793ee1ecf5d6289be5d33","635","stimuli/00011000.jpg"," ","","feedback_trial","0","","","","","","","","","","","","","","","","","","","","",""
"","","","","","image-keyboard-response","98","128762","0.0-73.0","5ed68cac121a540dfb82f4ea","665500ab8938657b03fbdba8","665793ee1ecf5d6289be5d33","878","stimuli/2101001.jpg","1","","prediction_trial","0","","false","","2","false","true","false","false","false","false","[0,2]","101","001","0","","","","","","",""
"","","","","","image-keyboard-response","99","129354","0.0-74.0","5ed68cac121a540dfb82f4ea","665500ab8938657b03fbdba8","665793ee1ecf5d6289be5d33","590","stimuli/21010010.jpg"," ","","feedback_trial","0","","","","","","","","","","","","","","","","","","","","",""
"","","","","","image-keyboard-response","100","130586","0.0-75.0","5ed68cac121a540dfb82f4ea","665500ab8938657b03fbdba8","665793ee1ecf5d6289be5d33","1229","stimuli/2010101.jpg","0","","prediction_trial","2","","false","","2","false","false","true","true","false","false","[2]","010","101","0","","","","","","",""
"","","","","","image-keyboard-response","101","131194","0.0-76.0","5ed68cac121a540dfb82f4ea","665500ab8938657b03fbdba8","665793ee1ecf5d6289be5d33","588","stimuli/20101012.jpg"," ","","feedback_trial","2","","","","","","","","","","","","","","","","","","","","",""
"","","","","","image-keyboard-response","102","131802","0.0-77.0","5ed68cac121a540dfb82f4ea","665500ab8938657b03fbdba8","665793ee1ecf5d6289be5d33","605","stimuli/0101011.jpg","0","","prediction_trial","2","","false","","0","true","true","false","false","false","false","[0,2]","101","011","0","","","","","","",""
"","","","","","image-keyboard-response","103","132442","0.0-78.0","5ed68cac121a540dfb82f4ea","665500ab8938657b03fbdba8","665793ee1ecf5d6289be5d33","638","stimuli/01010112.jpg"," ","","feedback_trial","0","","","","","","","","","","","","","","","","","","","","",""
"","","","","","image-keyboard-response","104","133082","0.0-79.0","5ed68cac121a540dfb82f4ea","665500ab8938657b03fbdba8","665793ee1ecf5d6289be5d33","638","stimuli/2001110.jpg","2","","prediction_trial","2","","true","","2","true","true","false","true","false","true","[2]","001","110","1","","","","","","",""
"","","","","","image-keyboard-response","105","133578","0.0-80.0","5ed68cac121a540dfb82f4ea","665500ab8938657b03fbdba8","665793ee1ecf5d6289be5d33","476","stimuli/20011102.jpg"," ","","feedback_trial","2","","","","","","","","","","","","","","","","","","","","",""
"","","","","","image-keyboard-response","106","134522","0.0-81.0","5ed68cac121a540dfb82f4ea","665500ab8938657b03fbdba8","665793ee1ecf5d6289be5d33","942","stimuli/2111101.jpg","1","","prediction_trial","1","","true","","2","false","false","false","false","false","false","[2,1,0]","111","101","1","","","","","","",""
"","","","","","image-keyboard-response","107","135018","0.0-82.0","5ed68cac121a540dfb82f4ea","665500ab8938657b03fbdba8","665793ee1ecf5d6289be5d33","494","stimuli/21111011.jpg"," ","","feedback_trial","2","","","","","","","","","","","","","","","","","","","","",""
"","","","","","image-keyboard-response","108","135978","0.0-83.0","5ed68cac121a540dfb82f4ea","665500ab8938657b03fbdba8","665793ee1ecf5d6289be5d33","958","stimuli/1100110.jpg","1","","prediction_trial","1","","true","","1","false","false","true","true","false","false","[1]","100","110","1","","","","","","",""
"","","","","","image-keyboard-response","109","136506","0.0-84.0","5ed68cac121a540dfb82f4ea","665500ab8938657b03fbdba8","665793ee1ecf5d6289be5d33","510","stimuli/11001101.jpg"," ","","feedback_trial","1","","","","","","","","","","","","","","","","","","","","",""
"","","","","","image-keyboard-response","110","137322","0.0-85.0","5ed68cac121a540dfb82f4ea","665500ab8938657b03fbdba8","665793ee1ecf5d6289be5d33","814","stimuli/1000111.jpg","1","","prediction_trial","1","","true","","1","false","false","true","true","false","false","[1]","000","111","1","","","","","","",""
"","","","","","image-keyboard-response","111","137802","0.0-86.0","5ed68cac121a540dfb82f4ea","665500ab8938657b03fbdba8","665793ee1ecf5d6289be5d33","478","stimuli/10001111.jpg"," ","","feedback_trial","1","","","","","","","","","","","","","","","","","","","","",""
"","","","","","image-keyboard-response","112","138602","0.0-87.0","5ed68cac121a540dfb82f4ea","665500ab8938657b03fbdba8","665793ee1ecf5d6289be5d33","798","stimuli/1101011.jpg","1","","prediction_trial","1","","true","","1","false","false","true","true","false","false","[1]","101","011","1","","","","","","",""
"","","","","","image-keyboard-response","113","139178","0.0-88.0","5ed68cac121a540dfb82f4ea","665500ab8938657b03fbdba8","665793ee1ecf5d6289be5d33","557","stimuli/11010111.jpg"," ","","feedback_trial","1","","","","","","","","","","","","","","","","","","","","",""
"","","","","","image-keyboard-response","114","139834","0.0-89.0","5ed68cac121a540dfb82f4ea","665500ab8938657b03fbdba8","665793ee1ecf5d6289be5d33","654","stimuli/0000110.jpg","1","","prediction_trial","0","","false","","0","false","false","true","true","false","false","[0]","000","110","0","","","","","","",""
"","","","","","image-keyboard-response","115","140426","0.0-90.0","5ed68cac121a540dfb82f4ea","665500ab8938657b03fbdba8","665793ee1ecf5d6289be5d33","590","stimuli/00001100.jpg"," ","","feedback_trial","0","","","","","","","","","","","","","","","","","","","","",""
"","","","","","image-keyboard-response","116","141258","0.0-91.0","5ed68cac121a540dfb82f4ea","665500ab8938657b03fbdba8","665793ee1ecf5d6289be5d33","830","stimuli/2000001.jpg","2","","prediction_trial","2","","true","","2","false","true","true","true","false","true","[2]","000","001","1","","","","","","",""
"","","","","","image-keyboard-response","117","141786","0.0-92.0","5ed68cac121a540dfb82f4ea","665500ab8938657b03fbdba8","665793ee1ecf5d6289be5d33","508","stimuli/20000012.jpg"," ","","feedback_trial","2","","","","","","","","","","","","","","","","","","","","",""
"","","","","","image-keyboard-response","118","143130","0.0-93.0","5ed68cac121a540dfb82f4ea","665500ab8938657b03fbdba8","665793ee1ecf5d6289be5d33","1342","stimuli/2011011.jpg","1","","prediction_trial","2","","false","","2","false","false","false","false","false","false","[2,1]","011","011","0","","","","","","",""
"","","","","","image-keyboard-response","119","143738","0.0-94.0","5ed68cac121a540dfb82f4ea","665500ab8938657b03fbdba8","665793ee1ecf5d6289be5d33","606","stimuli/20110112.jpg"," ","","feedback_trial","2","","","","","","","","","","","","","","","","","","","","",""
"","","","","","image-keyboard-response","120","144490","0.0-95.0","5ed68cac121a540dfb82f4ea","665500ab8938657b03fbdba8","665793ee1ecf5d6289be5d33","750","stimuli/1010011.jpg","1","","prediction_trial","1","","true","","1","false","false","false","true","false","false","[1]","010","011","1","","","","","","",""
"","","","","","image-keyboard-response","121","145114","0.0-96.0","5ed68cac121a540dfb82f4ea","665500ab8938657b03fbdba8","665793ee1ecf5d6289be5d33","604","stimuli/10100111.jpg"," ","","feedback_trial","1","","","","","","","","","","","","","","","","","","","","",""
"","","","","","image-keyboard-response","122","145882","0.0-97.0","5ed68cac121a540dfb82f4ea","665500ab8938657b03fbdba8","665793ee1ecf5d6289be5d33","765","stimuli/0101111.jpg","1","","prediction_trial","2","","false","","0","false","false","false","false","false","false","[0,2]","101","111","0","","","","","","",""
"","","","","","image-keyboard-response","123","146410","0.0-98.0","5ed68cac121a540dfb82f4ea","665500ab8938657b03fbdba8","665793ee1ecf5d6289be5d33","526","stimuli/01011112.jpg"," ","","feedback_trial","0","","","","","","","","","","","","","","","","","","","","",""
"","","","","","image-keyboard-response","124","147546","0.0-99.0","5ed68cac121a540dfb82f4ea","665500ab8938657b03fbdba8","665793ee1ecf5d6289be5d33","1134","stimuli/1010010.jpg","1","","prediction_trial","1","","true","","1","false","true","false","true","false","true","[1]","010","010","1","","","","","","",""
"","","","","","image-keyboard-response","125","148042","0.0-100.0","5ed68cac121a540dfb82f4ea","665500ab8938657b03fbdba8","665793ee1ecf5d6289be5d33","476","stimuli/10100101.jpg"," ","","feedback_trial","1","","","","","","","","","","","","","","","","","","","","",""
"","","","","","image-keyboard-response","126","149050","0.0-101.0","5ed68cac121a540dfb82f4ea","665500ab8938657b03fbdba8","665793ee1ecf5d6289be5d33","1005","stimuli/1000010.jpg","1","","prediction_trial","1","","true","","1","false","true","true","true","false","true","[1]","000","010","1","","","","","","",""
"","","","","","image-keyboard-response","127","149626","0.0-102.0","5ed68cac121a540dfb82f4ea","665500ab8938657b03fbdba8","665793ee1ecf5d6289be5d33","574","stimuli/10000101.jpg"," ","","feedback_trial","1","","","","","","","","","","","","","","","","","","","","",""
"","","","","","image-keyboard-response","128","150394","0.0-103.0","5ed68cac121a540dfb82f4ea","665500ab8938657b03fbdba8","665793ee1ecf5d6289be5d33","766","stimuli/1101110.jpg","1","","prediction_trial","1","","true","","1","false","false","true","true","false","false","[1]","101","110","1","","","","","","",""
"","","","","","image-keyboard-response","129","150938","0.0-104.0","5ed68cac121a540dfb82f4ea","665500ab8938657b03fbdba8","665793ee1ecf5d6289be5d33","524","stimuli/11011101.jpg"," ","","feedback_trial","1","","","","","","","","","","","","","","","","","","","","",""
"","","","","","image-keyboard-response","130","152106","0.0-105.0","5ed68cac121a540dfb82f4ea","665500ab8938657b03fbdba8","665793ee1ecf5d6289be5d33","1166","stimuli/0010100.jpg","0","","prediction_trial","0","","true","","0","false","true","true","true","false","true","[0]","010","100","1","","","","","","",""
"","","","","","image-keyboard-response","131","152650","0.0-106.0","5ed68cac121a540dfb82f4ea","665500ab8938657b03fbdba8","665793ee1ecf5d6289be5d33","542","stimuli/00101000.jpg"," ","","feedback_trial","0","","","","","","","","","","","","","","","","","","","","",""
"","","","","","image-keyboard-response","132","153402","0.0-107.0","5ed68cac121a540dfb82f4ea","665500ab8938657b03fbdba8","665793ee1ecf5d6289be5d33","750","stimuli/2011110.jpg","2","","prediction_trial","1","","false","","2","true","true","false","false","false","false","[2,1]","011","110","0","","","","","","",""
"","","","","","image-keyboard-response","133","153994","0.0-108.0","5ed68cac121a540dfb82f4ea","665500ab8938657b03fbdba8","665793ee1ecf5d6289be5d33","572","stimuli/20111101.jpg"," ","","feedback_trial","2","","","","","","","","","","","","","","","","","","","","",""
"","","","","","image-keyboard-response","134","154826","0.0-109.0","5ed68cac121a540dfb82f4ea","665500ab8938657b03fbdba8","665793ee1ecf5d6289be5d33","830","stimuli/0111101.jpg","1","","prediction_trial","0","","false","","0","false","false","false","false","false","false","[2,1,0]","111","101","0","","","","","","",""
"","","","","","image-keyboard-response","135","155306","0.0-110.0","5ed68cac121a540dfb82f4ea","665500ab8938657b03fbdba8","665793ee1ecf5d6289be5d33","478","stimuli/01111010.jpg"," ","","feedback_trial","2","","","","","","","","","","","","","","","","","","","","",""
"","","","","","image-keyboard-response","136","156378","0.0-111.0","5ed68cac121a540dfb82f4ea","665500ab8938657b03fbdba8","665793ee1ecf5d6289be5d33","1070","stimuli/0010101.jpg","0","","prediction_trial","0","","true","","0","false","false","true","true","false","false","[0]","010","101","1","","","","","","",""
"","","","","","image-keyboard-response","137","156970","0.0-112.0","5ed68cac121a540dfb82f4ea","665500ab8938657b03fbdba8","665793ee1ecf5d6289be5d33","573","stimuli/00101010.jpg"," ","","feedback_trial","0","","","","","","","","","","","","","","","","","","","","",""
"","","","","","image-keyboard-response","138","157642","0.0-113.0","5ed68cac121a540dfb82f4ea","665500ab8938657b03fbdba8","665793ee1ecf5d6289be5d33","670","stimuli/2110010.jpg","2","","prediction_trial","2","","true","","2","true","true","true","true","true","true","[2]","110","010","1","","","","","","",""
"","","","","","image-keyboard-response","139","158202","0.0-114.0","5ed68cac121a540dfb82f4ea","665500ab8938657b03fbdba8","665793ee1ecf5d6289be5d33","558","stimuli/21100102.jpg"," ","","feedback_trial","2","","","","","","","","","","","","","","","","","","","","",""
"","","","","","image-keyboard-response","140","159258","0.0-115.0","5ed68cac121a540dfb82f4ea","665500ab8938657b03fbdba8","665793ee1ecf5d6289be5d33","1054","stimuli/2001011.jpg","1","","prediction_trial","2","","false","","2","false","false","false","true","false","false","[2]","001","011","0","","","","","","",""
"","","","","","image-keyboard-response","141","159786","0.0-116.0","5ed68cac121a540dfb82f4ea","665500ab8938657b03fbdba8","665793ee1ecf5d6289be5d33","510","stimuli/20010112.jpg"," ","","feedback_trial","2","","","","","","","","","","","","","","","","","","","","",""
"","","","","","image-keyboard-response","142","161097","0.0-117.0","5ed68cac121a540dfb82f4ea","665500ab8938657b03fbdba8","665793ee1ecf5d6289be5d33","1310","stimuli/1011101.jpg","1","","prediction_trial","2","","false","","1","true","true","false","false","false","false","[2,1]","011","101","0","","","","","","",""
"","","","","","image-keyboard-response","143","161594","0.0-118.0","5ed68cac121a540dfb82f4ea","665500ab8938657b03fbdba8","665793ee1ecf5d6289be5d33","493","stimuli/10111012.jpg"," ","","feedback_trial","2","","","","","","","","","","","","","","","","","","","","",""
"","","","","","image-keyboard-response","144","162601","0.0-119.0","5ed68cac121a540dfb82f4ea","665500ab8938657b03fbdba8","665793ee1ecf5d6289be5d33","1005","stimuli/0000111.jpg","1","","prediction_trial","0","","false","","0","false","false","true","true","false","false","[0]","000","111","0","","","","","","",""
"","","","","","image-keyboard-response","145","163145","0.0-120.0","5ed68cac121a540dfb82f4ea","665500ab8938657b03fbdba8","665793ee1ecf5d6289be5d33","522","stimuli/00001110.jpg"," ","","feedback_trial","0","","","","","","","","","","","","","","","","","","","","",""
"","","","","","image-keyboard-response","146","163945","0.0-121.0","5ed68cac121a540dfb82f4ea","665500ab8938657b03fbdba8","665793ee1ecf5d6289be5d33","798","stimuli/2101101.jpg","1","","prediction_trial","2","","false","","2","false","false","false","false","false","false","[0,2]","101","101","0","","","","","","",""
"","","","","","image-keyboard-response","147","164441","0.0-122.0","5ed68cac121a540dfb82f4ea","665500ab8938657b03fbdba8","665793ee1ecf5d6289be5d33","494","stimuli/21011012.jpg"," ","","feedback_trial","0","","","","","","","","","","","","","","","","","","","","",""
"","","","","","image-keyboard-response","148","165145","0.0-123.0","5ed68cac121a540dfb82f4ea","665500ab8938657b03fbdba8","665793ee1ecf5d6289be5d33","702","stimuli/0110111.jpg","2","","prediction_trial","1","","false","","0","false","false","false","false","false","false","[0,1]","110","111","0","","","","","","",""
"","","","","","image-keyboard-response","149","165690","0.0-124.0","5ed68cac121a540dfb82f4ea","665500ab8938657b03fbdba8","665793ee1ecf5d6289be5d33","524","stimuli/01101111.jpg"," ","","feedback_trial","0","","","","","","","","","","","","","","","","","","","","",""
"","","","","","image-keyboard-response","150","166409","0.0-125.0","5ed68cac121a540dfb82f4ea","665500ab8938657b03fbdba8","665793ee1ecf5d6289be5d33","717","stimuli/0011111.jpg","0","","prediction_trial","0","","true","","0","false","false","true","true","false","false","[0]","011","111","1","","","","","","",""
"","","","","","image-keyboard-response","151","166921","0.0-126.0","5ed68cac121a540dfb82f4ea","665500ab8938657b03fbdba8","665793ee1ecf5d6289be5d33","510","stimuli/00111110.jpg"," ","","feedback_trial","0","","","","","","","","","","","","","","","","","","","","",""
"","","","","","image-keyboard-response","152","167609","0.0-127.0","5ed68cac121a540dfb82f4ea","665500ab8938657b03fbdba8","665793ee1ecf5d6289be5d33","686","stimuli/2101111.jpg","1","","prediction_trial","2","","false","","2","false","false","false","false","false","false","[2,0]","101","111","0","","","","","","",""
"","","","","","image-keyboard-response","153","168169","0.0-128.0","5ed68cac121a540dfb82f4ea","665500ab8938657b03fbdba8","665793ee1ecf5d6289be5d33","546","stimuli/21011112.jpg"," ","","feedback_trial","2","","","","","","","","","","","","","","","","","","","","",""
"","","","","","image-keyboard-response","154","169049","0.0-129.0","5ed68cac121a540dfb82f4ea","665500ab8938657b03fbdba8","665793ee1ecf5d6289be5d33","878","stimuli/2010001.jpg","2","","prediction_trial","2","","true","","2","false","true","true","true","false","true","[2]","010","001","1","","","","","","",""
"","","","","","image-keyboard-response","155","169577","0.0-130.0","5ed68cac121a540dfb82f4ea","665500ab8938657b03fbdba8","665793ee1ecf5d6289be5d33","526","stimuli/20100012.jpg"," ","","feedback_trial","2","","","","","","","","","","","","","","","","","","","","",""
"","","","","","image-keyboard-response","156","170537","0.0-131.0","5ed68cac121a540dfb82f4ea","665500ab8938657b03fbdba8","665793ee1ecf5d6289be5d33","958","stimuli/2010111.jpg","1","","prediction_trial","2","","false","","2","false","false","true","true","false","false","[2]","010","111","0","","","","","","",""
"","","","","","image-keyboard-response","157","171081","0.0-132.0","5ed68cac121a540dfb82f4ea","665500ab8938657b03fbdba8","665793ee1ecf5d6289be5d33","525","stimuli/20101112.jpg"," ","","feedback_trial","2","","","","","","","","","","","","","","","","","","","","",""
"","","","","","image-keyboard-response","158","171849","0.0-133.0","5ed68cac121a540dfb82f4ea","665500ab8938657b03fbdba8","665793ee1ecf5d6289be5d33","766","stimuli/1111000.jpg","1","","prediction_trial","2","","false","","1","true","true","false","false","false","false","[1,2,0]","111","000","0","","","","","","",""
"","","","","","image-keyboard-response","159","172377","0.0-134.0","5ed68cac121a540dfb82f4ea","665500ab8938657b03fbdba8","665793ee1ecf5d6289be5d33","526","stimuli/11110002.jpg"," ","","feedback_trial","1","","","","","","","","","","","","","","","","","","","","",""
"","","","","","image-keyboard-response","160","173145","0.0-135.0","5ed68cac121a540dfb82f4ea","665500ab8938657b03fbdba8","665793ee1ecf5d6289be5d33","765","stimuli/0000001.jpg","0","","prediction_trial","0","","true","","0","true","true","true","true","true","true","[0]","000","001","1","","","","","","",""
"","","","","","image-keyboard-response","161","173754","0.0-136.0","5ed68cac121a540dfb82f4ea","665500ab8938657b03fbdba8","665793ee1ecf5d6289be5d33","590","stimuli/00000010.jpg"," ","","feedback_trial","0","","","","","","","","","","","","","","","","","","","","",""
"","","","","","image-keyboard-response","162","174585","0.0-137.0","5ed68cac121a540dfb82f4ea","665500ab8938657b03fbdba8","665793ee1ecf5d6289be5d33","830","stimuli/0011000.jpg","0","","prediction_trial","0","","true","","0","true","true","true","true","true","true","[0]","011","000","1","","","","","","",""
"","","","","","image-keyboard-response","163","175035","0.0-138.0","5ed68cac121a540dfb82f4ea","665500ab8938657b03fbdba8","665793ee1ecf5d6289be5d33","447","stimuli/00110000.jpg"," ","","feedback_trial","0","","","","","","","","","","","","","","","","","","","","",""
"","","","","","image-keyboard-response","164","175673","0.0-139.0","5ed68cac121a540dfb82f4ea","665500ab8938657b03fbdba8","665793ee1ecf5d6289be5d33","636","stimuli/0011010.jpg","0","","prediction_trial","0","","true","","0","true","true","true","true","true","true","[0]","011","010","1","","","","","","",""
"","","","","","image-keyboard-response","165","176202","0.0-140.0","5ed68cac121a540dfb82f4ea","665500ab8938657b03fbdba8","665793ee1ecf5d6289be5d33","526","stimuli/00110100.jpg"," ","","feedback_trial","0","","","","","","","","","","","","","","","","","","","","",""
"","","","","","image-keyboard-response","166","176825","0.0-141.0","5ed68cac121a540dfb82f4ea","665500ab8938657b03fbdba8","665793ee1ecf5d6289be5d33","621","stimuli/1100000.jpg","1","","prediction_trial","1","","true","","1","true","true","true","true","true","true","[1]","100","000","1","","","","","","",""
"","","","","","image-keyboard-response","167","177305","0.0-142.0","5ed68cac121a540dfb82f4ea","665500ab8938657b03fbdba8","665793ee1ecf5d6289be5d33","478","stimuli/11000001.jpg"," ","","feedback_trial","1","","","","","","","","","","","","","","","","","","","","",""
"","","","","","image-keyboard-response","168","178761","0.0-143.0","5ed68cac121a540dfb82f4ea","665500ab8938657b03fbdba8","665793ee1ecf5d6289be5d33","1453","stimuli/1100010.jpg","1","","prediction_trial","1","","true","","1","false","true","true","true","false","true","[1]","100","010","1","","","","","","",""
"","","","","","image-keyboard-response","169","179256","0.0-144.0","5ed68cac121a540dfb82f4ea","665500ab8938657b03fbdba8","665793ee1ecf5d6289be5d33","493","stimuli/11000101.jpg"," ","","feedback_trial","1","","","","","","","","","","","","","","","","","","","","",""
"","","","","","image-keyboard-response","170","179977","0.0-145.0","5ed68cac121a540dfb82f4ea","665500ab8938657b03fbdba8","665793ee1ecf5d6289be5d33","719","stimuli/2000000.jpg","2","","prediction_trial","2","","true","","2","true","true","true","true","true","true","[2]","000","000","1","","","","","","",""
"","","","","","image-keyboard-response","171","180489","0.0-146.0","5ed68cac121a540dfb82f4ea","665500ab8938657b03fbdba8","665793ee1ecf5d6289be5d33","510","stimuli/20000002.jpg"," ","","feedback_trial","2","","","","","","","","","","","","","","","","","","","","",""
"","","","","","image-keyboard-response","172","181369","0.0-147.0","5ed68cac121a540dfb82f4ea","665500ab8938657b03fbdba8","665793ee1ecf5d6289be5d33","878","stimuli/1100001.jpg","1","","prediction_trial","1","","true","","1","true","true","true","true","true","true","[1]","100","001","1","","","","","","",""
"","","","","","image-keyboard-response","173","181801","0.0-148.0","5ed68cac121a540dfb82f4ea","665500ab8938657b03fbdba8","665793ee1ecf5d6289be5d33","430","stimuli/11000011.jpg"," ","","feedback_trial","1","","","","","","","","","","","","","","","","","","","","",""
"","","","","","image-keyboard-response","174","183321","0.0-149.0","5ed68cac121a540dfb82f4ea","665500ab8938657b03fbdba8","665793ee1ecf5d6289be5d33","1517","stimuli/0101101.jpg","0","","prediction_trial","0","","true","","0","false","false","false","false","false","false","[2,0]","101","101","1","","","","","","",""
"","","","","","image-keyboard-response","175","183833","0.0-150.0","5ed68cac121a540dfb82f4ea","665500ab8938657b03fbdba8","665793ee1ecf5d6289be5d33","510","stimuli/01011010.jpg"," ","","feedback_trial","2","","","","","","","","","","","","","","","","","","","","",""
"","","","","","image-keyboard-response","176","184985","0.0-151.0","5ed68cac121a540dfb82f4ea","665500ab8938657b03fbdba8","665793ee1ecf5d6289be5d33","1150","stimuli/1010000.jpg","1","","prediction_trial","1","","true","","1","true","true","false","true","false","true","[1]","010","000","1","","","","","","",""
"","","","","","image-keyboard-response","177","185401","0.0-152.0","5ed68cac121a540dfb82f4ea","665500ab8938657b03fbdba8","665793ee1ecf5d6289be5d33","413","stimuli/10100001.jpg"," ","","feedback_trial","1","","","","","","","","","","","","","","","","","","","","",""
"","","","","","image-keyboard-response","178","186266","0.0-153.0","5ed68cac121a540dfb82f4ea","665500ab8938657b03fbdba8","665793ee1ecf5d6289be5d33","862","stimuli/1110001.jpg","1","","prediction_trial","0","","false","","1","true","true","false","false","false","false","[0,1]","110","001","0","","","","","","",""
"","","","","","image-keyboard-response","179","186809","0.0-154.0","5ed68cac121a540dfb82f4ea","665500ab8938657b03fbdba8","665793ee1ecf5d6289be5d33","541","stimuli/11100010.jpg"," ","","feedback_trial","0","","","","","","","","","","","","","","","","","","","","",""
"","","","","","image-keyboard-response","180","187737","0.0-155.0","5ed68cac121a540dfb82f4ea","665500ab8938657b03fbdba8","665793ee1ecf5d6289be5d33","925","stimuli/1000011.jpg","1","","prediction_trial","1","","true","","1","false","false","true","true","false","false","[1]","000","011","1","","","","","","",""
"","","","","","image-keyboard-response","181","188297","0.0-156.0","5ed68cac121a540dfb82f4ea","665500ab8938657b03fbdba8","665793ee1ecf5d6289be5d33","539","stimuli/10000111.jpg"," ","","feedback_trial","1","","","","","","","","","","","","","","","","","","","","",""
"","","","","","image-keyboard-response","182","189161","0.0-157.0","5ed68cac121a540dfb82f4ea","665500ab8938657b03fbdba8","665793ee1ecf5d6289be5d33","862","stimuli/1110000.jpg","1","","prediction_trial","1","","true","","1","true","true","false","false","false","false","[0,1]","110","000","1","","","","","","",""
"","","","","","image-keyboard-response","183","189753","0.0-158.0","5ed68cac121a540dfb82f4ea","665500ab8938657b03fbdba8","665793ee1ecf5d6289be5d33","590","stimuli/11100001.jpg"," ","","feedback_trial","0","","","","","","","","","","","","","","","","","","","","",""
"","","","","","image-keyboard-response","184","190297","0.0-159.0","5ed68cac121a540dfb82f4ea","665500ab8938657b03fbdba8","665793ee1ecf5d6289be5d33","542","stimuli/1000001.jpg","1","","prediction_trial","1","","true","","1","true","true","true","true","true","true","[1]","000","001","1","","","","","","",""
"","","","","","image-keyboard-response","185","190617","0.0-160.0","5ed68cac121a540dfb82f4ea","665500ab8938657b03fbdba8","665793ee1ecf5d6289be5d33","299","stimuli/10000011.jpg"," ","","feedback_trial","1","","","","","","","","","","","","","","","","","","","","",""
"","","","","","image-keyboard-response","186","191177","0.0-161.0","5ed68cac121a540dfb82f4ea","665500ab8938657b03fbdba8","665793ee1ecf5d6289be5d33","558","stimuli/0110001.jpg","0","","prediction_trial","1","","false","","0","true","true","false","false","false","false","[0,1]","110","001","0","","","","","","",""
"","","","","","image-keyboard-response","187","191577","0.0-162.0","5ed68cac121a540dfb82f4ea","665500ab8938657b03fbdba8","665793ee1ecf5d6289be5d33","398","stimuli/01100011.jpg"," ","","feedback_trial","0","","","","","","","","","","","","","","","","","","","","",""
"","","","","","image-keyboard-response","188","192169","0.0-163.0","5ed68cac121a540dfb82f4ea","665500ab8938657b03fbdba8","665793ee1ecf5d6289be5d33","590","stimuli/0111010.jpg","0","","prediction_trial","2","","false","","0","true","true","false","false","false","false","[1,0,2]","111","010","0","","","","","","",""
"","","","","","image-keyboard-response","189","192537","0.0-164.0","5ed68cac121a540dfb82f4ea","665500ab8938657b03fbdba8","665793ee1ecf5d6289be5d33","351","stimuli/01110102.jpg"," ","","feedback_trial","1","","","","","","","","","","","","","","","","","","","","",""
"","","","","","image-keyboard-response","190","193401","0.0-165.0","5ed68cac121a540dfb82f4ea","665500ab8938657b03fbdba8","665793ee1ecf5d6289be5d33","862","stimuli/0110100.jpg","0","","prediction_trial","0","","true","","0","false","true","false","false","false","false","[1,0]","110","100","1","","","","","","",""
"","","","","","image-keyboard-response","191","193721","0.0-166.0","5ed68cac121a540dfb82f4ea","665500ab8938657b03fbdba8","665793ee1ecf5d6289be5d33","318","stimuli/01101000.jpg"," ","","feedback_trial","1","","","","","","","","","","","","","","","","","","","","",""
"","","","","","image-keyboard-response","192","194361","0.0-167.0","5ed68cac121a540dfb82f4ea","665500ab8938657b03fbdba8","665793ee1ecf5d6289be5d33","638","stimuli/2111010.jpg","2","","prediction_trial","0","","false","","2","true","true","false","false","false","false","[0,1,2]","111","010","0","","","","","","",""
"","","","","","image-keyboard-response","193","194777","0.0-168.0","5ed68cac121a540dfb82f4ea","665500ab8938657b03fbdba8","665793ee1ecf5d6289be5d33","399","stimuli/21110100.jpg"," ","","feedback_trial","0","","","","","","","","","","","","","","","","","","","","",""
"","","","","","image-keyboard-response","194","195385","0.0-169.0","5ed68cac121a540dfb82f4ea","665500ab8938657b03fbdba8","665793ee1ecf5d6289be5d33","606","stimuli/2000100.jpg","2","","prediction_trial","2","","true","","2","true","true","true","true","true","true","[2]","000","100","1","","","","","","",""
"","","","","","image-keyboard-response","195","195753","0.0-170.0","5ed68cac121a540dfb82f4ea","665500ab8938657b03fbdba8","665793ee1ecf5d6289be5d33","366","stimuli/20001002.jpg"," ","","feedback_trial","2","","","","","","","","","","","","","","","","","","","","",""
"","","","","","image-keyboard-response","196","196233","0.0-171.0","5ed68cac121a540dfb82f4ea","665500ab8938657b03fbdba8","665793ee1ecf5d6289be5d33","477","stimuli/0111011.jpg","0","","prediction_trial","2","","false","","0","true","true","false","false","false","false","[2,0,1]","111","011","0","","","","","","",""
"","","","","","image-keyboard-response","197","196569","0.0-172.0","5ed68cac121a540dfb82f4ea","665500ab8938657b03fbdba8","665793ee1ecf5d6289be5d33","316","stimuli/01110112.jpg"," ","","feedback_trial","2","","","","","","","","","","","","","","","","","","","","",""
"","","","","","image-keyboard-response","198","197097","0.0-173.0","5ed68cac121a540dfb82f4ea","665500ab8938657b03fbdba8","665793ee1ecf5d6289be5d33","525","stimuli/2010010.jpg","2","","prediction_trial","2","","true","","2","true","true","true","true","true","true","[2]","010","010","1","","","","","","",""
"","","","","","image-keyboard-response","199","197449","0.0-174.0","5ed68cac121a540dfb82f4ea","665500ab8938657b03fbdba8","665793ee1ecf5d6289be5d33","349","stimuli/20100102.jpg"," ","","feedback_trial","2","","","","","","","","","","","","","","","","","","","","",""
"","","","","","image-keyboard-response","200","198137","0.0-175.0","5ed68cac121a540dfb82f4ea","665500ab8938657b03fbdba8","665793ee1ecf5d6289be5d33","686","stimuli/1110111.jpg","1","","prediction_trial","1","","true","","1","false","false","false","false","false","false","[1,0]","110","111","1","","","","","","",""
"","","","","","image-keyboard-response","201","198537","0.0-176.0","5ed68cac121a540dfb82f4ea","665500ab8938657b03fbdba8","665793ee1ecf5d6289be5d33","381","stimuli/11101111.jpg"," ","","feedback_trial","1","","","","","","","","","","","","","","","","","","","","",""
"","","","","","image-keyboard-response","202","199065","0.0-177.0","5ed68cac121a540dfb82f4ea","665500ab8938657b03fbdba8","665793ee1ecf5d6289be5d33","526","stimuli/0010000.jpg","0","","prediction_trial","0","","true","","0","true","true","true","true","true","true","[0]","010","000","1","","","","","","",""
"","","","","","image-keyboard-response","203","199401","0.0-178.0","5ed68cac121a540dfb82f4ea","665500ab8938657b03fbdba8","665793ee1ecf5d6289be5d33","334","stimuli/00100000.jpg"," ","","feedback_trial","0","","","","","","","","","","","","","","","","","","","","",""
"","","","","","image-keyboard-response","204","200025","0.0-179.0","5ed68cac121a540dfb82f4ea","665500ab8938657b03fbdba8","665793ee1ecf5d6289be5d33","622","stimuli/1001100.jpg","1","","prediction_trial","1","","true","","1","true","true","true","true","true","true","[1]","001","100","1","","","","","","",""
"","","","","","image-keyboard-response","205","200393","0.0-180.0","5ed68cac121a540dfb82f4ea","665500ab8938657b03fbdba8","665793ee1ecf5d6289be5d33","349","stimuli/10011001.jpg"," ","","feedback_trial","1","","","","","","","","","","","","","","","","","","","","",""
"","","","","","image-keyboard-response","206","201129","0.0-181.0","5ed68cac121a540dfb82f4ea","665500ab8938657b03fbdba8","665793ee1ecf5d6289be5d33","734","stimuli/1111011.jpg","1","","prediction_trial","0","","false","","1","false","false","false","false","false","false","[0,1,2]","111","011","0","","","","","","",""
"","","","","","image-keyboard-response","207","201609","0.0-182.0","5ed68cac121a540dfb82f4ea","665500ab8938657b03fbdba8","665793ee1ecf5d6289be5d33","478","stimuli/11110110.jpg"," ","","feedback_trial","0","","","","","","","","","","","","","","","","","","","","",""
"","","","","","image-keyboard-response","208","202377","0.0-183.0","5ed68cac121a540dfb82f4ea","665500ab8938657b03fbdba8","665793ee1ecf5d6289be5d33","766","stimuli/0011001.jpg","0","","prediction_trial","0","","true","","0","true","true","true","true","true","true","[0]","011","001","1","","","","","","",""
"","","","","","image-keyboard-response","209","202697","0.0-184.0","5ed68cac121a540dfb82f4ea","665500ab8938657b03fbdba8","665793ee1ecf5d6289be5d33","298","stimuli/00110010.jpg"," ","","feedback_trial","0","","","","","","","","","","","","","","","","","","","","",""
"","","","","","image-keyboard-response","210","203369","0.0-185.0","5ed68cac121a540dfb82f4ea","665500ab8938657b03fbdba8","665793ee1ecf5d6289be5d33","670","stimuli/0111111.jpg","1","","prediction_trial","2","","false","","0","false","false","false","false","false","false","[1,2,0]","111","111","0","","","","","","",""
"","","","","","image-keyboard-response","211","203817","0.0-186.0","5ed68cac121a540dfb82f4ea","665500ab8938657b03fbdba8","665793ee1ecf5d6289be5d33","446","stimuli/01111112.jpg"," ","","feedback_trial","1","","","","","","","","","","","","","","","","","","","","",""
"","","","","","image-keyboard-response","212","204361","0.0-187.0","5ed68cac121a540dfb82f4ea","665500ab8938657b03fbdba8","665793ee1ecf5d6289be5d33","542","stimuli/0001001.jpg","0","","prediction_trial","0","","true","","0","true","true","true","true","true","true","[0]","001","001","1","","","","","","",""
"","","","","","image-keyboard-response","213","204745","0.0-188.0","5ed68cac121a540dfb82f4ea","665500ab8938657b03fbdba8","665793ee1ecf5d6289be5d33","381","stimuli/00010010.jpg"," ","","feedback_trial","0","","","","","","","","","","","","","","","","","","","","",""
"","","","","","image-keyboard-response","214","205385","0.0-189.0","5ed68cac121a540dfb82f4ea","665500ab8938657b03fbdba8","665793ee1ecf5d6289be5d33","638","stimuli/0010011.jpg","0","","prediction_trial","0","","true","","0","true","true","true","true","true","true","[0]","010","011","1","","","","","","",""
"","","","","","image-keyboard-response","215","205737","0.0-190.0","5ed68cac121a540dfb82f4ea","665500ab8938657b03fbdba8","665793ee1ecf5d6289be5d33","350","stimuli/00100110.jpg"," ","","feedback_trial","0","","","","","","","","","","","","","","","","","","","","",""
"","","","","","image-keyboard-response","216","206393","0.0-191.0","5ed68cac121a540dfb82f4ea","665500ab8938657b03fbdba8","665793ee1ecf5d6289be5d33","654","stimuli/0111100.jpg","1","","prediction_trial","1","","true","","0","false","true","false","false","false","false","[1,2,0]","111","100","1","","","","","","",""
"","","","","","image-keyboard-response","217","206777","0.0-192.0","5ed68cac121a540dfb82f4ea","665500ab8938657b03fbdba8","665793ee1ecf5d6289be5d33","365","stimuli/01111001.jpg"," ","","feedback_trial","1","","","","","","","","","","","","","","","","","","","","",""
"","","","","","image-keyboard-response","218","207513","0.0-193.0","5ed68cac121a540dfb82f4ea","665500ab8938657b03fbdba8","665793ee1ecf5d6289be5d33","734","stimuli/2010110.jpg","2","","prediction_trial","2","","true","","2","true","true","true","true","true","true","[2]","010","110","1","","","","","","",""
"","","","","","image-keyboard-response","219","207961","0.0-194.0","5ed68cac121a540dfb82f4ea","665500ab8938657b03fbdba8","665793ee1ecf5d6289be5d33","446","stimuli/20101102.jpg"," ","","feedback_trial","2","","","","","","","","","","","","","","","","","","","","",""
"","","","","","image-keyboard-response","220","208553","0.0-195.0","5ed68cac121a540dfb82f4ea","665500ab8938657b03fbdba8","665793ee1ecf5d6289be5d33","590","stimuli/0111000.jpg","0","","prediction_trial","2","","false","","0","true","true","false","false","false","false","[1,0,2]","111","000","0","","","","","","",""
"","","","","","image-keyboard-response","221","209017","0.0-196.0","5ed68cac121a540dfb82f4ea","665500ab8938657b03fbdba8","665793ee1ecf5d6289be5d33","443","stimuli/01110002.jpg"," ","","feedback_trial","1","","","","","","","","","","","","","","","","","","","","",""
"","","","","","image-keyboard-response","222","209593","0.0-197.0","5ed68cac121a540dfb82f4ea","665500ab8938657b03fbdba8","665793ee1ecf5d6289be5d33","574","stimuli/1010101.jpg","1","","prediction_trial","1","","true","","1","true","true","false","true","false","true","[1]","010","101","1","","","","","","",""
"","","","","","image-keyboard-response","223","210041","0.0-198.0","5ed68cac121a540dfb82f4ea","665500ab8938657b03fbdba8","665793ee1ecf5d6289be5d33","446","stimuli/10101011.jpg"," ","","feedback_trial","1","","","","","","","","","","","","","","","","","","","","",""
"","","","","","image-keyboard-response","224","210889","0.0-199.0","5ed68cac121a540dfb82f4ea","665500ab8938657b03fbdba8","665793ee1ecf5d6289be5d33","846","stimuli/1001110.jpg","1","","prediction_trial","1","","true","","1","false","false","true","true","false","false","[1]","001","110","1","","","","","","",""
"","","","","","image-keyboard-response","225","211385","0.0-200.0","5ed68cac121a540dfb82f4ea","665500ab8938657b03fbdba8","665793ee1ecf5d6289be5d33","479","stimuli/10011101.jpg"," ","","feedback_trial","1","","","","","","","","","","","","","","","","","","","","",""
"","","","","","image-keyboard-response","226","212137","0.0-201.0","5ed68cac121a540dfb82f4ea","665500ab8938657b03fbdba8","665793ee1ecf5d6289be5d33","749","stimuli/2100011.jpg","1","","prediction_trial","2","","false","","2","false","false","true","true","false","false","[2]","100","011","0","","","","","","",""
"","","","","","image-keyboard-response","227","212616","0.0-202.0","5ed68cac121a540dfb82f4ea","665500ab8938657b03fbdba8","665793ee1ecf5d6289be5d33","477","stimuli/21000112.jpg"," ","","feedback_trial","2","","","","","","","","","","","","","","","","","","","","",""
"","","","","","image-keyboard-response","228","213385","0.0-203.0","5ed68cac121a540dfb82f4ea","665500ab8938657b03fbdba8","665793ee1ecf5d6289be5d33","767","stimuli/0101110.jpg","1","","prediction_trial","0","","false","","0","false","false","false","false","false","false","[2,0]","101","110","0","","","","","","",""
"","","","","","image-keyboard-response","229","213897","0.0-204.0","5ed68cac121a540dfb82f4ea","665500ab8938657b03fbdba8","665793ee1ecf5d6289be5d33","491","stimuli/01011100.jpg"," ","","feedback_trial","2","","","","","","","","","","","","","","","","","","","","",""
"","","","","","image-keyboard-response","230","214409","0.0-205.0","5ed68cac121a540dfb82f4ea","665500ab8938657b03fbdba8","665793ee1ecf5d6289be5d33","510","stimuli/2111011.jpg","1","","prediction_trial","1","","true","","2","false","false","false","false","false","false","[0,1,2]","111","011","1","","","","","","",""
"","","","","","image-keyboard-response","231","214777","0.0-206.0","5ed68cac121a540dfb82f4ea","665500ab8938657b03fbdba8","665793ee1ecf5d6289be5d33","366","stimuli/21110111.jpg"," ","","feedback_trial","0","","","","","","","","","","","","","","","","","","","","",""
"","","","","","image-keyboard-response","232","215177","0.0-207.0","5ed68cac121a540dfb82f4ea","665500ab8938657b03fbdba8","665793ee1ecf5d6289be5d33","398","stimuli/1101111.jpg","1","","prediction_trial","1","","true","","1","false","false","true","true","false","false","[1]","101","111","1","","","","","","",""
"","","","","","image-keyboard-response","233","215593","0.0-208.0","5ed68cac121a540dfb82f4ea","665500ab8938657b03fbdba8","665793ee1ecf5d6289be5d33","398","stimuli/11011111.jpg"," ","","feedback_trial","1","","","","","","","","","","","","","","","","","","","","",""
"","","","","","image-keyboard-response","234","216105","0.0-209.0","5ed68cac121a540dfb82f4ea","665500ab8938657b03fbdba8","665793ee1ecf5d6289be5d33","510","stimuli/0001000.jpg","0","","prediction_trial","0","","true","","0","true","true","true","true","true","true","[0]","001","000","1","","","","","","",""
"","","","","","image-keyboard-response","235","216537","0.0-210.0","5ed68cac121a540dfb82f4ea","665500ab8938657b03fbdba8","665793ee1ecf5d6289be5d33","430","stimuli/00010000.jpg"," ","","feedback_trial","0","","","","","","","","","","","","","","","","","","","","",""
"","","","","","image-keyboard-response","236","217114","0.0-211.0","5ed68cac121a540dfb82f4ea","665500ab8938657b03fbdba8","665793ee1ecf5d6289be5d33","574","stimuli/0100011.jpg","0","","prediction_trial","0","","true","","0","true","true","false","true","false","true","[0]","100","011","1","","","","","","",""
"","","","","","image-keyboard-response","237","217417","0.0-212.0","5ed68cac121a540dfb82f4ea","665500ab8938657b03fbdba8","665793ee1ecf5d6289be5d33","283","stimuli/01000110.jpg"," ","","feedback_trial","0","","","","","","","","","","","","","","","","","","","","",""
"","","","","","image-keyboard-response","238","218185","0.0-213.0","5ed68cac121a540dfb82f4ea","665500ab8938657b03fbdba8","665793ee1ecf5d6289be5d33","766","stimuli/1111111.jpg","1","","prediction_trial","2","","false","","1","false","false","false","false","false","false","[0,2,1]","111","111","0","","","","","","",""
"","","","","","image-keyboard-response","239","218537","0.0-214.0","5ed68cac121a540dfb82f4ea","665500ab8938657b03fbdba8","665793ee1ecf5d6289be5d33","350","stimuli/11111112.jpg"," ","","feedback_trial","0","","","","","","","","","","","","","","","","","","","","",""
"","","","","","image-keyboard-response","240","219097","0.0-215.0","5ed68cac121a540dfb82f4ea","665500ab8938657b03fbdba8","665793ee1ecf5d6289be5d33","558","stimuli/0010010.jpg","0","","prediction_trial","0","","true","","0","true","true","true","true","true","true","[0]","010","010","1","","","","","","",""
"","","","","","image-keyboard-response","241","219433","0.0-216.0","5ed68cac121a540dfb82f4ea","665500ab8938657b03fbdba8","665793ee1ecf5d6289be5d33","316","stimuli/00100100.jpg"," ","","feedback_trial","0","","","","","","","","","","","","","","","","","","","","",""
"","","","","","image-keyboard-response","242","219977","0.0-217.0","5ed68cac121a540dfb82f4ea","665500ab8938657b03fbdba8","665793ee1ecf5d6289be5d33","542","stimuli/1001001.jpg","1","","prediction_trial","1","","true","","1","true","true","true","true","true","true","[1]","001","001","1","","","","","","",""
"","","","","","image-keyboard-response","243","220329","0.0-218.0","5ed68cac121a540dfb82f4ea","665500ab8938657b03fbdba8","665793ee1ecf5d6289be5d33","350","stimuli/10010011.jpg"," ","","feedback_trial","1","","","","","","","","","","","","","","","","","","","","",""
"","","","","","image-keyboard-response","244","220905","0.0-219.0","5ed68cac121a540dfb82f4ea","665500ab8938657b03fbdba8","665793ee1ecf5d6289be5d33","574","stimuli/2001000.jpg","2","","prediction_trial","2","","true","","2","true","true","false","true","false","true","[2]","001","000","1","","","","","","",""
"","","","","","image-keyboard-response","245","221353","0.0-220.0","5ed68cac121a540dfb82f4ea","665500ab8938657b03fbdba8","665793ee1ecf5d6289be5d33","429","stimuli/20010002.jpg"," ","","feedback_trial","2","","","","","","","","","","","","","","","","","","","","",""
"","","","","","image-keyboard-response","246","221961","0.0-221.0","5ed68cac121a540dfb82f4ea","665500ab8938657b03fbdba8","665793ee1ecf5d6289be5d33","606","stimuli/1000101.jpg","1","","prediction_trial","1","","true","","1","true","true","true","true","true","true","[1]","000","101","1","","","","","","",""
"","","","","","image-keyboard-response","247","222249","0.0-222.0","5ed68cac121a540dfb82f4ea","665500ab8938657b03fbdba8","665793ee1ecf5d6289be5d33","286","stimuli/10001011.jpg"," ","","feedback_trial","1","","","","","","","","","","","","","","","","","","","","",""
"","","","","","image-keyboard-response","248","223049","0.0-223.0","5ed68cac121a540dfb82f4ea","665500ab8938657b03fbdba8","665793ee1ecf5d6289be5d33","797","stimuli/1110110.jpg","0","","prediction_trial","1","","false","","1","false","false","false","false","false","false","[0,1]","110","110","0","","","","","","",""
"","","","","","image-keyboard-response","249","223481","0.0-224.0","5ed68cac121a540dfb82f4ea","665500ab8938657b03fbdba8","665793ee1ecf5d6289be5d33","412","stimuli/11101101.jpg"," ","","feedback_trial","0","","","","","","","","","","","","","","","","","","","","",""
"","","","","","image-keyboard-response","250","223993","0.0-225.0","5ed68cac121a540dfb82f4ea","665500ab8938657b03fbdba8","665793ee1ecf5d6289be5d33","510","stimuli/1111001.jpg","1","","prediction_trial","1","","true","","1","true","true","false","false","false","false","[1,2,0]","111","001","1","","","","","","",""
"","","","","","image-keyboard-response","251","224393","0.0-226.0","5ed68cac121a540dfb82f4ea","665500ab8938657b03fbdba8","665793ee1ecf5d6289be5d33","397","stimuli/11110011.jpg"," ","","feedback_trial","1","","","","","","","","","","","","","","","","","","","","",""
"","","","","","image-keyboard-response","252","224969","0.0-227.0","5ed68cac121a540dfb82f4ea","665500ab8938657b03fbdba8","665793ee1ecf5d6289be5d33","574","stimuli/2000010.jpg","2","","prediction_trial","2","","true","","2","true","true","true","true","true","true","[2]","000","010","1","","","","","","",""
"","","","","","image-keyboard-response","253","225369","0.0-228.0","5ed68cac121a540dfb82f4ea","665500ab8938657b03fbdba8","665793ee1ecf5d6289be5d33","398","stimuli/20000102.jpg"," ","","feedback_trial","2","","","","","","","","","","","","","","","","","","","","",""
"","","","","","image-keyboard-response","254","225929","0.0-229.0","5ed68cac121a540dfb82f4ea","665500ab8938657b03fbdba8","665793ee1ecf5d6289be5d33","558","stimuli/0011011.jpg","0","","prediction_trial","0","","true","","0","true","true","true","true","true","true","[0]","011","011","1","","","","","","",""
"","","","","","image-keyboard-response","255","226249","0.0-230.0","5ed68cac121a540dfb82f4ea","665500ab8938657b03fbdba8","665793ee1ecf5d6289be5d33","318","stimuli/00110110.jpg"," ","","feedback_trial","0","","","","","","","","","","","","","","","","","","","","",""
"","","","","","image-keyboard-response","256","226809","0.0-231.0","5ed68cac121a540dfb82f4ea","665500ab8938657b03fbdba8","665793ee1ecf5d6289be5d33","558","stimuli/2111000.jpg","2","","prediction_trial","2","","true","","2","true","true","false","false","false","false","[0,1,2]","111","000","1","","","","","","",""
"","","","","","image-keyboard-response","257","227177","0.0-232.0","5ed68cac121a540dfb82f4ea","665500ab8938657b03fbdba8","665793ee1ecf5d6289be5d33","365","stimuli/21110002.jpg"," ","","feedback_trial","0","","","","","","","","","","","","","","","","","","","","",""
"","","","","","image-keyboard-response","258","227673","0.0-233.0","5ed68cac121a540dfb82f4ea","665500ab8938657b03fbdba8","665793ee1ecf5d6289be5d33","493","stimuli/2110000.jpg","2","","prediction_trial","2","","true","","2","true","true","true","true","true","true","[2]","110","000","1","","","","","","",""
"","","","","","image-keyboard-response","259","227977","0.0-234.0","5ed68cac121a540dfb82f4ea","665500ab8938657b03fbdba8","665793ee1ecf5d6289be5d33","302","stimuli/21100002.jpg"," ","","feedback_trial","2","","","","","","","","","","","","","","","","","","","","",""
"","","","","","image-keyboard-response","260","228681","0.0-235.0","5ed68cac121a540dfb82f4ea","665500ab8938657b03fbdba8","665793ee1ecf5d6289be5d33","702","stimuli/0100010.jpg","0","","prediction_trial","0","","true","","0","true","true","false","true","false","true","[0]","100","010","1","","","","","","",""
"","","","","","image-keyboard-response","261","229034","0.0-236.0","5ed68cac121a540dfb82f4ea","665500ab8938657b03fbdba8","665793ee1ecf5d6289be5d33","332","stimuli/01000100.jpg"," ","","feedback_trial","0","","","","","","","","","","","","","","","","","","","","",""
"","","","","","image-keyboard-response","262","229577","0.0-237.0","5ed68cac121a540dfb82f4ea","665500ab8938657b03fbdba8","665793ee1ecf5d6289be5d33","541","stimuli/1100100.jpg","1","","prediction_trial","1","","true","","1","true","true","true","true","true","true","[1]","100","100","1","","","","","","",""
"","","","","","image-keyboard-response","263","229850","0.0-238.0","5ed68cac121a540dfb82f4ea","665500ab8938657b03fbdba8","665793ee1ecf5d6289be5d33","270","stimuli/11001001.jpg"," ","","feedback_trial","1","","","","","","","","","","","","","","","","","","","","",""
"","","","","","image-keyboard-response","264","230954","0.0-239.0","5ed68cac121a540dfb82f4ea","665500ab8938657b03fbdba8","665793ee1ecf5d6289be5d33","1101","stimuli/2001101.jpg","0","","prediction_trial","2","","false","","2","false","false","false","true","false","false","[2]","001","101","0","","","","","","",""
"","","","","","image-keyboard-response","265","231497","0.0-240.0","5ed68cac121a540dfb82f4ea","665500ab8938657b03fbdba8","665793ee1ecf5d6289be5d33","523","stimuli/20011012.jpg"," ","","feedback_trial","2","","","","","","","","","","","","","","","","","","","","",""
"","","","","","image-keyboard-response","266","232265","0.0-241.0","5ed68cac121a540dfb82f4ea","665500ab8938657b03fbdba8","665793ee1ecf5d6289be5d33","766","stimuli/2011001.jpg","1","","prediction_trial","1","","true","","2","false","true","false","false","false","false","[1,2]","011","001","1","","","","","","",""
"","","","","","image-keyboard-response","267","233706","0.0-242.0","5ed68cac121a540dfb82f4ea","665500ab8938657b03fbdba8","665793ee1ecf5d6289be5d33","1438","stimuli/20110011.jpg"," ","","feedback_trial","1","","","","","","","","","","","","","","","","","","","","",""
"","","","","","image-keyboard-response","268","234265","0.0-243.0","5ed68cac121a540dfb82f4ea","665500ab8938657b03fbdba8","665793ee1ecf5d6289be5d33","557","stimuli/0001010.jpg","0","","prediction_trial","0","","true","","0","true","true","true","true","true","true","[0]","001","010","1","","","","","","",""
"","","","","","image-keyboard-response","269","234713","0.0-244.0","5ed68cac121a540dfb82f4ea","665500ab8938657b03fbdba8","665793ee1ecf5d6289be5d33","428","stimuli/00010100.jpg"," ","","feedback_trial","0","","","","","","","","","","","","","","","","","","","","",""
"","","","","","image-keyboard-response","270","235529","0.0-245.0","5ed68cac121a540dfb82f4ea","665500ab8938657b03fbdba8","665793ee1ecf5d6289be5d33","814","stimuli/2000011.jpg","0","","prediction_trial","2","","false","","2","false","false","true","true","false","false","[2]","000","011","0","","","","","","",""
"","","","","","image-keyboard-response","271","236041","0.0-246.0","5ed68cac121a540dfb82f4ea","665500ab8938657b03fbdba8","665793ee1ecf5d6289be5d33","510","stimuli/20000112.jpg"," ","","feedback_trial","2","","","","","","","","","","","","","","","","","","","","",""
"","","","","","image-keyboard-response","272","237017","0.0-247.0","5ed68cac121a540dfb82f4ea","665500ab8938657b03fbdba8","665793ee1ecf5d6289be5d33","974","stimuli/2001001.jpg","2","","prediction_trial","2","","true","","2","false","true","false","true","false","true","[2]","001","001","1","","","","","","",""
"","","","","","image-keyboard-response","273","237466","0.0-248.0","5ed68cac121a540dfb82f4ea","665500ab8938657b03fbdba8","665793ee1ecf5d6289be5d33","446","stimuli/20010012.jpg"," ","","feedback_trial","2","","","","","","","","","","","","","","","","","","","","",""
"","","","","","image-keyboard-response","274","238201","0.0-249.0","5ed68cac121a540dfb82f4ea","665500ab8938657b03fbdba8","665793ee1ecf5d6289be5d33","733","stimuli/0111110.jpg","0","","prediction_trial","1","","false","","0","false","false","false","false","false","false","[1,0,2]","111","110","0","","","","","","",""
"","","","","","image-keyboard-response","275","238681","0.0-250.0","5ed68cac121a540dfb82f4ea","665500ab8938657b03fbdba8","665793ee1ecf5d6289be5d33","478","stimuli/01111101.jpg"," ","","feedback_trial","1","","","","","","","","","","","","","","","","","","","","",""
"","","","","","image-keyboard-response","276","239305","0.0-251.0","5ed68cac121a540dfb82f4ea","665500ab8938657b03fbdba8","665793ee1ecf5d6289be5d33","622","stimuli/2101000.jpg","2","","prediction_trial","2","","true","","2","true","true","false","false","false","false","[0,2]","101","000","1","","","","","","",""
"","","","","","image-keyboard-response","277","239785","0.0-252.0","5ed68cac121a540dfb82f4ea","665500ab8938657b03fbdba8","665793ee1ecf5d6289be5d33","461","stimuli/21010002.jpg"," ","","feedback_trial","0","","","","","","","","","","","","","","","","","","","","",""
"","","","","","image-keyboard-response","278","240393","0.0-253.0","5ed68cac121a540dfb82f4ea","665500ab8938657b03fbdba8","665793ee1ecf5d6289be5d33","606","stimuli/0111001.jpg","0","","prediction_trial","0","","true","","0","true","true","false","false","false","false","[2,0,1]","111","001","1","","","","","","",""
"","","","","","image-keyboard-response","279","240809","0.0-254.0","5ed68cac121a540dfb82f4ea","665500ab8938657b03fbdba8","665793ee1ecf5d6289be5d33","414","stimuli/01110010.jpg"," ","","feedback_trial","2","","","","","","","","","","","","","","","","","","","","",""
"","","","","","image-keyboard-response","280","241354","0.0-255.0","5ed68cac121a540dfb82f4ea","665500ab8938657b03fbdba8","665793ee1ecf5d6289be5d33","541","stimuli/2101010.jpg","2","","prediction_trial","0","","false","","2","true","true","false","false","false","false","[2,0]","101","010","0","","","","","","",""
"","","","","","image-keyboard-response","281","241817","0.0-256.0","5ed68cac121a540dfb82f4ea","665500ab8938657b03fbdba8","665793ee1ecf5d6289be5d33","443","stimuli/21010100.jpg"," ","","feedback_trial","2","","","","","","","","","","","","","","","","","","","","",""
"","","","","","image-keyboard-response","282","242857","0.0-257.0","5ed68cac121a540dfb82f4ea","665500ab8938657b03fbdba8","665793ee1ecf5d6289be5d33","1038","stimuli/1011010.jpg","1","","prediction_trial","2","","false","","1","false","true","false","false","false","false","[1,2]","011","010","0","","","","","","",""
"","","","","","image-keyboard-response","283","243353","0.0-258.0","5ed68cac121a540dfb82f4ea","665500ab8938657b03fbdba8","665793ee1ecf5d6289be5d33","494","stimuli/10110102.jpg"," ","","feedback_trial","1","","","","","","","","","","","","","","","","","","","","",""
"","","","","","image-keyboard-response","284","244041","0.0-259.0","5ed68cac121a540dfb82f4ea","665500ab8938657b03fbdba8","665793ee1ecf5d6289be5d33","686","stimuli/2111001.jpg","1","","prediction_trial","2","","false","","2","false","true","false","false","false","false","[1,2,0]","111","001","0","","","","","","",""
"","","","","","image-keyboard-response","285","244697","0.0-260.0","5ed68cac121a540dfb82f4ea","665500ab8938657b03fbdba8","665793ee1ecf5d6289be5d33","639","stimuli/21110012.jpg"," ","","feedback_trial","1","","","","","","","","","","","","","","","","","","","","",""
"","","","","","image-keyboard-response","286","245385","0.0-261.0","5ed68cac121a540dfb82f4ea","665500ab8938657b03fbdba8","665793ee1ecf5d6289be5d33","686","stimuli/2101011.jpg","1","","prediction_trial","2","","false","","2","false","false","false","false","false","false","[0,2]","101","011","0","","","","","","",""
"","","","","","image-keyboard-response","287","245929","0.0-262.0","5ed68cac121a540dfb82f4ea","665500ab8938657b03fbdba8","665793ee1ecf5d6289be5d33","542","stimuli/21010112.jpg"," ","","feedback_trial","0","","","","","","","","","","","","","","","","","","","","",""
"","","","","","image-keyboard-response","288","246377","0.0-263.0","5ed68cac121a540dfb82f4ea","665500ab8938657b03fbdba8","665793ee1ecf5d6289be5d33","446","stimuli/1110100.jpg","1","","prediction_trial","0","","false","","1","true","true","false","false","false","false","[0,1]","110","100","0","","","","","","",""
"","","","","","image-keyboard-response","289","246793","0.0-264.0","5ed68cac121a540dfb82f4ea","665500ab8938657b03fbdba8","665793ee1ecf5d6289be5d33","397","stimuli/11101000.jpg"," ","","feedback_trial","0","","","","","","","","","","","","","","","","","","","","",""
"","","","","","image-keyboard-response","290","247385","0.0-265.0","5ed68cac121a540dfb82f4ea","665500ab8938657b03fbdba8","665793ee1ecf5d6289be5d33","590","stimuli/0110011.jpg","0","","prediction_trial","1","","false","","0","true","true","false","false","false","false","[1,0]","110","011","0","","","","","","",""
"","","","","","image-keyboard-response","291","247737","0.0-266.0","5ed68cac121a540dfb82f4ea","665500ab8938657b03fbdba8","665793ee1ecf5d6289be5d33","350","stimuli/01100111.jpg"," ","","feedback_trial","1","","","","","","","","","","","","","","","","","","","","",""
"","","","","","image-keyboard-response","292","248329","0.0-267.0","5ed68cac121a540dfb82f4ea","665500ab8938657b03fbdba8","665793ee1ecf5d6289be5d33","589","stimuli/2010000.jpg","2","","prediction_trial","2","","true","","2","true","true","true","true","true","true","[2]","010","000","1","","","","","","",""
"","","","","","image-keyboard-response","293","248761","0.0-268.0","5ed68cac121a540dfb82f4ea","665500ab8938657b03fbdba8","665793ee1ecf5d6289be5d33","415","stimuli/20100002.jpg"," ","","feedback_trial","2","","","","","","","","","","","","","","","","","","","","",""
"","","","","","image-keyboard-response","294","249401","0.0-269.0","5ed68cac121a540dfb82f4ea","665500ab8938657b03fbdba8","665793ee1ecf5d6289be5d33","638","stimuli/0101001.jpg","0","","prediction_trial","2","","false","","0","true","true","false","false","false","false","[0,2]","101","001","0","","","","","","",""
"","","","","","image-keyboard-response","295","249801","0.0-270.0","5ed68cac121a540dfb82f4ea","665500ab8938657b03fbdba8","665793ee1ecf5d6289be5d33","397","stimuli/01010012.jpg"," ","","feedback_trial","0","","","","","","","","","","","","","","","","","","","","",""
"","","","","","image-keyboard-response","296","250313","0.0-271.0","5ed68cac121a540dfb82f4ea","665500ab8938657b03fbdba8","665793ee1ecf5d6289be5d33","510","stimuli/0110000.jpg","0","","prediction_trial","1","","false","","0","true","true","false","false","false","false","[1,0]","110","000","0","","","","","","",""
"","","","","","image-keyboard-response","297","250666","0.0-272.0","5ed68cac121a540dfb82f4ea","665500ab8938657b03fbdba8","665793ee1ecf5d6289be5d33","332","stimuli/01100001.jpg"," ","","feedback_trial","1","","","","","","","","","","","","","","","","","","","","",""
"","","","","","image-keyboard-response","298","251497","0.0-273.0","5ed68cac121a540dfb82f4ea","665500ab8938657b03fbdba8","665793ee1ecf5d6289be5d33","829","stimuli/0000100.jpg","0","","prediction_trial","0","","true","","0","false","true","true","true","false","true","[0]","000","100","1","","","","","","",""
"","","","","","image-keyboard-response","299","251784","0.0-274.0","5ed68cac121a540dfb82f4ea","665500ab8938657b03fbdba8","665793ee1ecf5d6289be5d33","285","stimuli/00001000.jpg"," ","","feedback_trial","0","","","","","","","","","","","","","","","","","","","","",""
"","","","","","image-keyboard-response","300","252313","0.0-275.0","5ed68cac121a540dfb82f4ea","665500ab8938657b03fbdba8","665793ee1ecf5d6289be5d33","527","stimuli/1000100.jpg","1","","prediction_trial","1","","true","","1","true","true","true","true","true","true","[1]","000","100","1","","","","","","",""
"","","","","","image-keyboard-response","301","252601","0.0-276.0","5ed68cac121a540dfb82f4ea","665500ab8938657b03fbdba8","665793ee1ecf5d6289be5d33","267","stimuli/10001001.jpg"," ","","feedback_trial","1","","","","","","","","","","","","","","","","","","","","",""
"","","","","","image-keyboard-response","302","253161","0.0-277.0","5ed68cac121a540dfb82f4ea","665500ab8938657b03fbdba8","665793ee1ecf5d6289be5d33","558","stimuli/2100010.jpg","2","","prediction_trial","2","","true","","2","true","true","true","true","true","true","[2]","100","010","1","","","","","","",""
"","","","","","image-keyboard-response","303","253497","0.0-278.0","5ed68cac121a540dfb82f4ea","665500ab8938657b03fbdba8","665793ee1ecf5d6289be5d33","334","stimuli/21000102.jpg"," ","","feedback_trial","2","","","","","","","","","","","","","","","","","","","","",""
"","","","","","image-keyboard-response","304","254121","0.0-279.0","5ed68cac121a540dfb82f4ea","665500ab8938657b03fbdba8","665793ee1ecf5d6289be5d33","622","stimuli/2110111.jpg","2","","prediction_trial","2","","true","","2","false","false","true","true","false","false","[2]","110","111","1","","","","","","",""
"","","","","","image-keyboard-response","305","254489","0.0-280.0","5ed68cac121a540dfb82f4ea","665500ab8938657b03fbdba8","665793ee1ecf5d6289be5d33","365","stimuli/21101112.jpg"," ","","feedback_trial","2","","","","","","","","","","","","","","","","","","","","",""
"","","","","","image-keyboard-response","306","254969","0.0-281.0","5ed68cac121a540dfb82f4ea","665500ab8938657b03fbdba8","665793ee1ecf5d6289be5d33","478","stimuli/1111100.jpg","1","","prediction_trial","0","","false","","1","true","true","false","false","false","false","[2,1,0]","111","100","0","","","","","","",""
"","","","","","image-keyboard-response","307","255257","0.0-282.0","5ed68cac121a540dfb82f4ea","665500ab8938657b03fbdba8","665793ee1ecf5d6289be5d33","286","stimuli/11111000.jpg"," ","","feedback_trial","2","","","","","","","","","","","","","","","","","","","","",""
"","","","","","image-keyboard-response","308","255881","0.0-283.0","5ed68cac121a540dfb82f4ea","665500ab8938657b03fbdba8","665793ee1ecf5d6289be5d33","622","stimuli/2000101.jpg","0","","prediction_trial","2","","false","","2","false","false","true","true","false","false","[2]","000","101","0","","","","","","",""
"","","","","","image-keyboard-response","309","256185","0.0-284.0","5ed68cac121a540dfb82f4ea","665500ab8938657b03fbdba8","665793ee1ecf5d6289be5d33","283","stimuli/20001012.jpg"," ","","feedback_trial","2","","","","","","","","","","","","","","","","","","","","",""
"","","","","","image-keyboard-response","310","256793","0.0-285.0","5ed68cac121a540dfb82f4ea","665500ab8938657b03fbdba8","665793ee1ecf5d6289be5d33","606","stimuli/1100011.jpg","1","","prediction_trial","1","","true","","1","false","false","true","true","false","false","[1]","100","011","1","","","","","","",""
"","","","","","image-keyboard-response","311","257097","0.0-286.0","5ed68cac121a540dfb82f4ea","665500ab8938657b03fbdba8","665793ee1ecf5d6289be5d33","302","stimuli/11000111.jpg"," ","","feedback_trial","1","","","","","","","","","","","","","","","","","","","","",""
"","","","","","image-keyboard-response","312","257609","0.0-287.0","5ed68cac121a540dfb82f4ea","665500ab8938657b03fbdba8","665793ee1ecf5d6289be5d33","510","stimuli/0010001.jpg","0","","prediction_trial","0","","true","","0","true","true","true","true","true","true","[0]","010","001","1","","","","","","",""
"","","","","","image-keyboard-response","313","257897","0.0-288.0","5ed68cac121a540dfb82f4ea","665500ab8938657b03fbdba8","665793ee1ecf5d6289be5d33","285","stimuli/00100010.jpg"," ","","feedback_trial","0","","","","","","","","","","","","","","","","","","","","",""
"","","","","","image-keyboard-response","314","258393","0.0-289.0","5ed68cac121a540dfb82f4ea","665500ab8938657b03fbdba8","665793ee1ecf5d6289be5d33","493","stimuli/1101101.jpg","1","","prediction_trial","1","","true","","1","true","true","true","true","true","true","[1]","101","101","1","","","","","","",""
"","","","","","image-keyboard-response","315","258697","0.0-290.0","5ed68cac121a540dfb82f4ea","665500ab8938657b03fbdba8","665793ee1ecf5d6289be5d33","301","stimuli/11011011.jpg"," ","","feedback_trial","1","","","","","","","","","","","","","","","","","","","","",""
"","","","","","image-keyboard-response","316","259529","0.0-291.0","5ed68cac121a540dfb82f4ea","665500ab8938657b03fbdba8","665793ee1ecf5d6289be5d33","830","stimuli/2100111.jpg","1","","prediction_trial","2","","false","","2","false","false","true","true","false","false","[2]","100","111","0","","","","","","",""
"","","","","","image-keyboard-response","317","259913","0.0-292.0","5ed68cac121a540dfb82f4ea","665500ab8938657b03fbdba8","665793ee1ecf5d6289be5d33","362","stimuli/21001112.jpg"," ","","feedback_trial","2","","","","","","","","","","","","","","","","","","","","",""
"","","","","","survey-html-form","318","290709","0.0-293.0","5ed68cac121a540dfb82f4ea","665500ab8938657b03fbdba8","665793ee1ecf5d6289be5d33","30791","","{""feedback"":""I clicked on where I saw the ball. Otherwise, I clicked on down."",""age"":""37"",""gender"":""Male"",""other_gender"":"""",""race"":""other_race"",""other_race"":""Hispanic"",""ethnicity"":""Hispanic""}","","exit_survey","","","","","","","","","","","","","","","","I clicked on where I saw the ball. Otherwise, I clicked on down.","37","Hispanic","Male","Hispanic","0.6111111111111112","0.6111111111111112"
