"success","timeout","failed_images","failed_audio","failed_video","trial_type","trial_index","time_elapsed","internal_node_id","prolific_id","prolific_study_id","prolific_session_id","rt","stimulus","response","view_history","trial","character_choice","stimulus_dict","accuracy","correct_response","ball_pos","ego_ball_visible","ego_can_infer","alter_ball_visible","alter_can_infer","collective_ball_visible","collective_can_infer","search_locations","alter_occluders","ego_occluders","accuracy_bool","feedback","age","ethnicity","gender","race","overall_accuracy","bonus"
"true","false","[]","[]","[]","preload","0","4582","0.0-0.0","62a9513ae9305607fd5af01a","665500ab8938657b03fbdba8","6657935b84cedbe2cba480ee","","","","","","","","","","","","","","","","","","","","","","","","","","",""
"true","","","","","fullscreen","1","10043","0.0-1.0","62a9513ae9305607fd5af01a","665500ab8938657b03fbdba8","6657935b84cedbe2cba480ee","","","","","","","","","","","","","","","","","","","","","","","","","","",""
"","","","","","html-button-response","2","87313","0.0-2.0","62a9513ae9305607fd5af01a","665500ab8938657b03fbdba8","6657935b84cedbe2cba480ee","77270","<p><b>Consent Form</b></p> <div style=""text-align:left;background-color:lightgrey; padding:20px; max-width:900px;""><p>Please consider this information carefully before deciding whether to participate in this research.</p> <p>The purpose of this research is to examine which factors influence social judgment and decision-making. You will be asked to make judgements about individuals and actions in social scenarios. We are simply interested in your judgement. The study will take less than 1 hour to complete, and you will receive less than $20 on Prolific. Your compensation and time commitment are specified in the study description. There are no anticipated risks associated with participating in this study. The effects of participating should be comparable to those you would ordinarily experience from viewing a computer monitor and using a mouse or keyboard for a similar amount of time. At the end of the study, we will provide an explanation of the questions that motivate this line of research and will describe the potential implications. </p><p> Your participation in this study is completely voluntary and you may refuse to participate or you may choose to withdraw at any time without penalty or loss of benefits to you which are otherwise entitled. Your participation in this study will remain confidential. No personally identifiable information will be associated with your data. Also, all analyses of the data will be averaged across all the participants, so your individual responses will never be specifically analyzed. </p><p> If you have questions or concerns about your participation or payment, or want to request a summary of research findings, please contact Dr. Jonathan Phillips at Jonathan.S.Phillips@dartmouth.edu. </p><p> Please save a copy of this form for your records. </p><p><b>Agreement: </b>The nature and purpose of this research have been sufficiently explained and I agree to participate in this study. I understand that I am free to withdraw at any time without incurring any penalty. Please consent by clicking the button below to continue. Otherwise, please exit the study at any time. </p>","0","","","","","","","","","","","","","","","","","","","","","","","",""
"","","","","","instructions","3","343365","0.0-3.0-0.0","62a9513ae9305607fd5af01a","665500ab8938657b03fbdba8","6657935b84cedbe2cba480ee","256053","","","[{""page_index"":0,""viewing_time"":4038},{""page_index"":1,""viewing_time"":4568},{""page_index"":2,""viewing_time"":12091},{""page_index"":3,""viewing_time"":9774},{""page_index"":4,""viewing_time"":5571},{""page_index"":5,""viewing_time"":4003},{""page_index"":6,""viewing_time"":15494},{""page_index"":7,""viewing_time"":12144},{""page_index"":8,""viewing_time"":8739},{""page_index"":9,""viewing_time"":3486},{""page_index"":10,""viewing_time"":32916},{""page_index"":9,""viewing_time"":792},{""page_index"":10,""viewing_time"":6387},{""page_index"":11,""viewing_time"":8907},{""page_index"":12,""viewing_time"":8703},{""page_index"":13,""viewing_time"":118440}]","intro","","","","","","","","","","","","","","","","","","","","","",""
"","","","","","image-keyboard-response","4","356205","0.0-3.0-1.0","62a9513ae9305607fd5af01a","665500ab8938657b03fbdba8","6657935b84cedbe2cba480ee","12809","stimuli/0000000.jpg","2","","prediction_practice","0","{""filepath"":""stimuli/0000000.jpg"",""ball_pos"":0,""ego_ball_visible"":true,""ego_can_infer"":true,""alter_ball_visible"":true,""alter_can_infer"":true,""collective_ball_visible"":true,""collective_can_infer"":true,""search_locations"":[0],""alter_occluders"":""000"",""ego_occluders"":""000""}","false","","","","","","","","","","","","","","","","","","",""
"","","","","","image-keyboard-response","5","362667","0.0-3.0-2.0","62a9513ae9305607fd5af01a","665500ab8938657b03fbdba8","6657935b84cedbe2cba480ee","6453","stimuli/00000000.jpg"," ","","practrice_feedback","0","","","","","","","","","","","","","","","","","","","","",""
"","","","","","image-keyboard-response","6","365684","0.0-3.0-3.0","62a9513ae9305607fd5af01a","665500ab8938657b03fbdba8","6657935b84cedbe2cba480ee","3012","stimuli/0111100.jpg","2","","prediction_practice","2","{""filepath"":""stimuli/0111100.jpg"",""ball_pos"":0,""ego_ball_visible"":false,""ego_can_infer"":true,""alter_ball_visible"":false,""alter_can_infer"":false,""collective_ball_visible"":false,""collective_can_infer"":false,""search_locations"":[1,0,2],""alter_occluders"":""111"",""ego_occluders"":""100""}","true","","","","","","","","","","","","","","","","","","",""
"","","","","","image-keyboard-response","7","372281","0.0-3.0-4.0","62a9513ae9305607fd5af01a","665500ab8938657b03fbdba8","6657935b84cedbe2cba480ee","6589","stimuli/01111002.jpg"," ","","practrice_feedback","1","","","","","","","","","","","","","","","","","","","","",""
"","","","","","image-keyboard-response","8","374216","0.0-3.0-5.0","62a9513ae9305607fd5af01a","665500ab8938657b03fbdba8","6657935b84cedbe2cba480ee","1931","stimuli/0101100.jpg","2","","prediction_practice","2","{""filepath"":""stimuli/0101100.jpg"",""ball_pos"":0,""ego_ball_visible"":false,""ego_can_infer"":true,""alter_ball_visible"":false,""alter_can_infer"":false,""collective_ball_visible"":false,""collective_can_infer"":false,""search_locations"":[2,0],""alter_occluders"":""101"",""ego_occluders"":""100""}","true","","","","","","","","","","","","","","","","","","",""
"","","","","","image-keyboard-response","9","377581","0.0-3.0-6.0","62a9513ae9305607fd5af01a","665500ab8938657b03fbdba8","6657935b84cedbe2cba480ee","3361","stimuli/01011002.jpg"," ","","practrice_feedback","2","","","","","","","","","","","","","","","","","","","","",""
"","","","","","image-keyboard-response","10","382589","0.0-3.0-7.0","62a9513ae9305607fd5af01a","665500ab8938657b03fbdba8","6657935b84cedbe2cba480ee","5004","stimuli/2101101.jpg","1","","prediction_practice","2","{""filepath"":""stimuli/2101101.jpg"",""ball_pos"":2,""ego_ball_visible"":false,""ego_can_infer"":false,""alter_ball_visible"":false,""alter_can_infer"":false,""collective_ball_visible"":false,""collective_can_infer"":false,""search_locations"":[0,2],""alter_occluders"":""101"",""ego_occluders"":""101""}","false","","","","","","","","","","","","","","","","","","",""
"","","","","","image-keyboard-response","11","385492","0.0-3.0-8.0","62a9513ae9305607fd5af01a","665500ab8938657b03fbdba8","6657935b84cedbe2cba480ee","2899","stimuli/21011012.jpg"," ","","practrice_feedback","0","","","","","","","","","","","","","","","","","","","","",""
"","","","","","image-keyboard-response","12","556826","0.0-3.0-9.0","62a9513ae9305607fd5af01a","665500ab8938657b03fbdba8","6657935b84cedbe2cba480ee","171329","stimuli/1010000.jpg","0","","prediction_practice","1","{""filepath"":""stimuli/1010000.jpg"",""ball_pos"":1,""ego_ball_visible"":true,""ego_can_infer"":true,""alter_ball_visible"":false,""alter_can_infer"":true,""collective_ball_visible"":false,""collective_can_infer"":true,""search_locations"":[1],""alter_occluders"":""010"",""ego_occluders"":""000""}","false","","","","","","","","","","","","","","","","","","",""
"","","","","","image-keyboard-response","13","559998","0.0-3.0-10.0","62a9513ae9305607fd5af01a","665500ab8938657b03fbdba8","6657935b84cedbe2cba480ee","3168","stimuli/10100001.jpg"," ","","practrice_feedback","1","","","","","","","","","","","","","","","","","","","","",""
"","","","","","image-keyboard-response","14","562721","0.0-3.0-11.0","62a9513ae9305607fd5af01a","665500ab8938657b03fbdba8","6657935b84cedbe2cba480ee","2719","stimuli/0011010.jpg","2","","prediction_practice","0","{""filepath"":""stimuli/0011010.jpg"",""ball_pos"":0,""ego_ball_visible"":true,""ego_can_infer"":true,""alter_ball_visible"":true,""alter_can_infer"":true,""collective_ball_visible"":true,""collective_can_infer"":true,""search_locations"":[0],""alter_occluders"":""011"",""ego_occluders"":""010""}","false","","","","","","","","","","","","","","","","","","",""
"","","","","","image-keyboard-response","15","565544","0.0-3.0-12.0","62a9513ae9305607fd5af01a","665500ab8938657b03fbdba8","6657935b84cedbe2cba480ee","2821","stimuli/00110100.jpg"," ","","practrice_feedback","0","","","","","","","","","","","","","","","","","","","","",""
"","","","","","image-keyboard-response","16","567525","0.0-3.0-13.0","62a9513ae9305607fd5af01a","665500ab8938657b03fbdba8","6657935b84cedbe2cba480ee","1977","stimuli/0100100.jpg","1","","prediction_practice","0","{""filepath"":""stimuli/0100100.jpg"",""ball_pos"":0,""ego_ball_visible"":false,""ego_can_infer"":true,""alter_ball_visible"":false,""alter_can_infer"":true,""collective_ball_visible"":false,""collective_can_infer"":true,""search_locations"":[0],""alter_occluders"":""100"",""ego_occluders"":""100""}","false","","","","","","","","","","","","","","","","","","",""
"","","","","","image-keyboard-response","17","569100","0.0-3.0-14.0","62a9513ae9305607fd5af01a","665500ab8938657b03fbdba8","6657935b84cedbe2cba480ee","1573","stimuli/01001000.jpg"," ","","practrice_feedback","0","","","","","","","","","","","","","","","","","","","","",""
"","","","","","image-keyboard-response","18","573218","0.0-3.0-15.0","62a9513ae9305607fd5af01a","665500ab8938657b03fbdba8","6657935b84cedbe2cba480ee","4114","stimuli/1011010.jpg","2","","prediction_practice","1","{""filepath"":""stimuli/1011010.jpg"",""ball_pos"":1,""ego_ball_visible"":false,""ego_can_infer"":true,""alter_ball_visible"":false,""alter_can_infer"":false,""collective_ball_visible"":false,""collective_can_infer"":false,""search_locations"":[2,1],""alter_occluders"":""011"",""ego_occluders"":""010""}","false","","","","","","","","","","","","","","","","","","",""
"","","","","","image-keyboard-response","19","573960","0.0-3.0-16.0","62a9513ae9305607fd5af01a","665500ab8938657b03fbdba8","6657935b84cedbe2cba480ee","739","stimuli/10110101.jpg"," ","","practrice_feedback","2","","","","","","","","","","","","","","","","","","","","",""
"","","","","","image-keyboard-response","20","576323","0.0-3.0-17.0","62a9513ae9305607fd5af01a","665500ab8938657b03fbdba8","6657935b84cedbe2cba480ee","2360","stimuli/0011011.jpg","2","","prediction_practice","0","{""filepath"":""stimuli/0011011.jpg"",""ball_pos"":0,""ego_ball_visible"":true,""ego_can_infer"":true,""alter_ball_visible"":true,""alter_can_infer"":true,""collective_ball_visible"":true,""collective_can_infer"":true,""search_locations"":[0],""alter_occluders"":""011"",""ego_occluders"":""011""}","false","","","","","","","","","","","","","","","","","","",""
"","","","","","image-keyboard-response","21","578044","0.0-3.0-18.0","62a9513ae9305607fd5af01a","665500ab8938657b03fbdba8","6657935b84cedbe2cba480ee","1718","stimuli/00110110.jpg"," ","","practrice_feedback","0","","","","","","","","","","","","","","","","","","","","",""
"","","","","","image-keyboard-response","22","582814","0.0-3.0-19.0","62a9513ae9305607fd5af01a","665500ab8938657b03fbdba8","6657935b84cedbe2cba480ee","4767","stimuli/2001001.jpg","1","","prediction_practice","2","{""filepath"":""stimuli/2001001.jpg"",""ball_pos"":2,""ego_ball_visible"":false,""ego_can_infer"":true,""alter_ball_visible"":false,""alter_can_infer"":true,""collective_ball_visible"":false,""collective_can_infer"":true,""search_locations"":[2],""alter_occluders"":""001"",""ego_occluders"":""001""}","false","","","","","","","","","","","","","","","","","","",""
"","","","","","image-keyboard-response","23","587405","0.0-3.0-20.0","62a9513ae9305607fd5af01a","665500ab8938657b03fbdba8","6657935b84cedbe2cba480ee","4587","stimuli/20010012.jpg"," ","","practrice_feedback","2","","","","","","","","","","","","","","","","","","","","",""
"","","","","","html-button-response","24","592500","0.0-3.0-21.0","62a9513ae9305607fd5af01a","665500ab8938657b03fbdba8","6657935b84cedbe2cba480ee","5094","Now that you've had some practice, you'll be tested with a couple of easy trials. If you correctly predict Sam's choice, you'll move on to complete the experiment!","0","","","","","","","","","","","","","","","","","","","","","","","",""
"","","","","","image-keyboard-response","25","597316","0.0-3.0-22.0-0.0","62a9513ae9305607fd5af01a","665500ab8938657b03fbdba8","6657935b84cedbe2cba480ee","4814","stimuli/0000011.jpg","arrowdown","","comprehension_quiz","","","false","arrowleft","","","","","","","","","","","","","","","","","",""
"","","","","","image-keyboard-response","26","600724","0.0-3.0-22.0-1.0","62a9513ae9305607fd5af01a","665500ab8938657b03fbdba8","6657935b84cedbe2cba480ee","3404","stimuli/00000110.jpg"," ","","comprehension_quiz","","","true"," ","","","","","","","","","","","","","","","","","",""
"","","","","","image-keyboard-response","27","605383","0.0-3.0-22.0-2.0","62a9513ae9305607fd5af01a","665500ab8938657b03fbdba8","6657935b84cedbe2cba480ee","4655","stimuli/1010010.jpg","arrowleft","","comprehension_quiz","","","false","arrowdown","","","","","","","","","","","","","","","","","",""
"","","","","","image-keyboard-response","28","608510","0.0-3.0-22.0-3.0","62a9513ae9305607fd5af01a","665500ab8938657b03fbdba8","6657935b84cedbe2cba480ee","3123","stimuli/10100101.jpg"," ","","comprehension_quiz","","","true"," ","","","","","","","","","","","","","","","","","",""
"","","","","","html-button-response","29","612964","0.0-3.0-23.0-0.0","62a9513ae9305607fd5af01a","665500ab8938657b03fbdba8","6657935b84cedbe2cba480ee","4454","<p> Oops! You have answered one or more questions incorrectly.</p><p> Please Review the instructions again before continuing with the experiment </p>","0","","fail_message","","","false","","","","","","","","","","","","","","","","","","",""
"","","","","","instructions","30","654860","0.0-3.1-0.1","62a9513ae9305607fd5af01a","665500ab8938657b03fbdba8","6657935b84cedbe2cba480ee","41895","","","[{""page_index"":0,""viewing_time"":1450},{""page_index"":1,""viewing_time"":1685},{""page_index"":2,""viewing_time"":1834},{""page_index"":3,""viewing_time"":2220},{""page_index"":4,""viewing_time"":1450},{""page_index"":5,""viewing_time"":2384},{""page_index"":6,""viewing_time"":4804},{""page_index"":7,""viewing_time"":1570},{""page_index"":8,""viewing_time"":1750},{""page_index"":9,""viewing_time"":1233},{""page_index"":10,""viewing_time"":10825},{""page_index"":11,""viewing_time"":6272},{""page_index"":12,""viewing_time"":2751},{""page_index"":13,""viewing_time"":1667}]","intro","","","","","","","","","","","","","","","","","","","","","",""
"","","","","","image-keyboard-response","31","660476","0.0-3.1-1.1","62a9513ae9305607fd5af01a","665500ab8938657b03fbdba8","6657935b84cedbe2cba480ee","5611","stimuli/0000000.jpg","1","","prediction_practice","0","{""filepath"":""stimuli/0000000.jpg"",""ball_pos"":0,""ego_ball_visible"":true,""ego_can_infer"":true,""alter_ball_visible"":true,""alter_can_infer"":true,""collective_ball_visible"":true,""collective_can_infer"":true,""search_locations"":[0],""alter_occluders"":""000"",""ego_occluders"":""000""}","false","","","","","","","","","","","","","","","","","","",""
"","","","","","image-keyboard-response","32","663919","0.0-3.1-2.1","62a9513ae9305607fd5af01a","665500ab8938657b03fbdba8","6657935b84cedbe2cba480ee","3440","stimuli/00000000.jpg"," ","","practrice_feedback","0","","","","","","","","","","","","","","","","","","","","",""
"","","","","","image-keyboard-response","33","668149","0.0-3.1-3.1","62a9513ae9305607fd5af01a","665500ab8938657b03fbdba8","6657935b84cedbe2cba480ee","4225","stimuli/0111100.jpg","2","","prediction_practice","2","{""filepath"":""stimuli/0111100.jpg"",""ball_pos"":0,""ego_ball_visible"":false,""ego_can_infer"":true,""alter_ball_visible"":false,""alter_can_infer"":false,""collective_ball_visible"":false,""collective_can_infer"":false,""search_locations"":[1,0,2],""alter_occluders"":""111"",""ego_occluders"":""100""}","true","","","","","","","","","","","","","","","","","","",""
"","","","","","image-keyboard-response","34","670071","0.0-3.1-4.1","62a9513ae9305607fd5af01a","665500ab8938657b03fbdba8","6657935b84cedbe2cba480ee","1919","stimuli/01111002.jpg"," ","","practrice_feedback","1","","","","","","","","","","","","","","","","","","","","",""
"","","","","","image-keyboard-response","35","674302","0.0-3.1-5.1","62a9513ae9305607fd5af01a","665500ab8938657b03fbdba8","6657935b84cedbe2cba480ee","4227","stimuli/0101100.jpg","0","","prediction_practice","2","{""filepath"":""stimuli/0101100.jpg"",""ball_pos"":0,""ego_ball_visible"":false,""ego_can_infer"":true,""alter_ball_visible"":false,""alter_can_infer"":false,""collective_ball_visible"":false,""collective_can_infer"":false,""search_locations"":[2,0],""alter_occluders"":""101"",""ego_occluders"":""100""}","false","","","","","","","","","","","","","","","","","","",""
"","","","","","image-keyboard-response","36","676609","0.0-3.1-6.1","62a9513ae9305607fd5af01a","665500ab8938657b03fbdba8","6657935b84cedbe2cba480ee","2303","stimuli/01011002.jpg"," ","","practrice_feedback","2","","","","","","","","","","","","","","","","","","","","",""
"","","","","","image-keyboard-response","37","679151","0.0-3.1-7.1","62a9513ae9305607fd5af01a","665500ab8938657b03fbdba8","6657935b84cedbe2cba480ee","2538","stimuli/2101101.jpg","1","","prediction_practice","2","{""filepath"":""stimuli/2101101.jpg"",""ball_pos"":2,""ego_ball_visible"":false,""ego_can_infer"":false,""alter_ball_visible"":false,""alter_can_infer"":false,""collective_ball_visible"":false,""collective_can_infer"":false,""search_locations"":[0,2],""alter_occluders"":""101"",""ego_occluders"":""101""}","false","","","","","","","","","","","","","","","","","","",""
"","","","","","image-keyboard-response","38","680422","0.0-3.1-8.1","62a9513ae9305607fd5af01a","665500ab8938657b03fbdba8","6657935b84cedbe2cba480ee","1267","stimuli/21011012.jpg"," ","","practrice_feedback","0","","","","","","","","","","","","","","","","","","","","",""
"","","","","","image-keyboard-response","39","688816","0.0-3.1-9.1","62a9513ae9305607fd5af01a","665500ab8938657b03fbdba8","6657935b84cedbe2cba480ee","8391","stimuli/1010000.jpg","1","","prediction_practice","1","{""filepath"":""stimuli/1010000.jpg"",""ball_pos"":1,""ego_ball_visible"":true,""ego_can_infer"":true,""alter_ball_visible"":false,""alter_can_infer"":true,""collective_ball_visible"":false,""collective_can_infer"":true,""search_locations"":[1],""alter_occluders"":""010"",""ego_occluders"":""000""}","true","","","","","","","","","","","","","","","","","","",""
"","","","","","image-keyboard-response","40","691076","0.0-3.1-10.1","62a9513ae9305607fd5af01a","665500ab8938657b03fbdba8","6657935b84cedbe2cba480ee","2257","stimuli/10100001.jpg"," ","","practrice_feedback","1","","","","","","","","","","","","","","","","","","","","",""
"","","","","","image-keyboard-response","41","693270","0.0-3.1-11.1","62a9513ae9305607fd5af01a","665500ab8938657b03fbdba8","6657935b84cedbe2cba480ee","2191","stimuli/0011010.jpg","0","","prediction_practice","0","{""filepath"":""stimuli/0011010.jpg"",""ball_pos"":0,""ego_ball_visible"":true,""ego_can_infer"":true,""alter_ball_visible"":true,""alter_can_infer"":true,""collective_ball_visible"":true,""collective_can_infer"":true,""search_locations"":[0],""alter_occluders"":""011"",""ego_occluders"":""010""}","true","","","","","","","","","","","","","","","","","","",""
"","","","","","image-keyboard-response","42","694317","0.0-3.1-12.1","62a9513ae9305607fd5af01a","665500ab8938657b03fbdba8","6657935b84cedbe2cba480ee","1044","stimuli/00110100.jpg"," ","","practrice_feedback","0","","","","","","","","","","","","","","","","","","","","",""
"","","","","","image-keyboard-response","43","698626","0.0-3.1-13.1","62a9513ae9305607fd5af01a","665500ab8938657b03fbdba8","6657935b84cedbe2cba480ee","4305","stimuli/0100100.jpg","2","","prediction_practice","0","{""filepath"":""stimuli/0100100.jpg"",""ball_pos"":0,""ego_ball_visible"":false,""ego_can_infer"":true,""alter_ball_visible"":false,""alter_can_infer"":true,""collective_ball_visible"":false,""collective_can_infer"":true,""search_locations"":[0],""alter_occluders"":""100"",""ego_occluders"":""100""}","false","","","","","","","","","","","","","","","","","","",""
"","","","","","image-keyboard-response","44","700267","0.0-3.1-14.1","62a9513ae9305607fd5af01a","665500ab8938657b03fbdba8","6657935b84cedbe2cba480ee","1639","stimuli/01001000.jpg"," ","","practrice_feedback","0","","","","","","","","","","","","","","","","","","","","",""
"","","","","","image-keyboard-response","45","701854","0.0-3.1-15.1","62a9513ae9305607fd5af01a","665500ab8938657b03fbdba8","6657935b84cedbe2cba480ee","1583","stimuli/1011010.jpg","2","","prediction_practice","1","{""filepath"":""stimuli/1011010.jpg"",""ball_pos"":1,""ego_ball_visible"":false,""ego_can_infer"":true,""alter_ball_visible"":false,""alter_can_infer"":false,""collective_ball_visible"":false,""collective_can_infer"":false,""search_locations"":[2,1],""alter_occluders"":""011"",""ego_occluders"":""010""}","false","","","","","","","","","","","","","","","","","","",""
"","","","","","image-keyboard-response","46","703530","0.0-3.1-16.1","62a9513ae9305607fd5af01a","665500ab8938657b03fbdba8","6657935b84cedbe2cba480ee","1672","stimuli/10110101.jpg"," ","","practrice_feedback","2","","","","","","","","","","","","","","","","","","","","",""
"","","","","","image-keyboard-response","47","706410","0.0-3.1-17.1","62a9513ae9305607fd5af01a","665500ab8938657b03fbdba8","6657935b84cedbe2cba480ee","2876","stimuli/0011011.jpg","0","","prediction_practice","0","{""filepath"":""stimuli/0011011.jpg"",""ball_pos"":0,""ego_ball_visible"":true,""ego_can_infer"":true,""alter_ball_visible"":true,""alter_can_infer"":true,""collective_ball_visible"":true,""collective_can_infer"":true,""search_locations"":[0],""alter_occluders"":""011"",""ego_occluders"":""011""}","true","","","","","","","","","","","","","","","","","","",""
"","","","","","image-keyboard-response","48","709493","0.0-3.1-18.1","62a9513ae9305607fd5af01a","665500ab8938657b03fbdba8","6657935b84cedbe2cba480ee","3079","stimuli/00110110.jpg"," ","","practrice_feedback","0","","","","","","","","","","","","","","","","","","","","",""
"","","","","","image-keyboard-response","49","713971","0.0-3.1-19.1","62a9513ae9305607fd5af01a","665500ab8938657b03fbdba8","6657935b84cedbe2cba480ee","4474","stimuli/2001001.jpg","2","","prediction_practice","2","{""filepath"":""stimuli/2001001.jpg"",""ball_pos"":2,""ego_ball_visible"":false,""ego_can_infer"":true,""alter_ball_visible"":false,""alter_can_infer"":true,""collective_ball_visible"":false,""collective_can_infer"":true,""search_locations"":[2],""alter_occluders"":""001"",""ego_occluders"":""001""}","true","","","","","","","","","","","","","","","","","","",""
"","","","","","image-keyboard-response","50","716051","0.0-3.1-20.1","62a9513ae9305607fd5af01a","665500ab8938657b03fbdba8","6657935b84cedbe2cba480ee","2077","stimuli/20010012.jpg"," ","","practrice_feedback","2","","","","","","","","","","","","","","","","","","","","",""
"","","","","","html-button-response","51","720727","0.0-3.1-21.1","62a9513ae9305607fd5af01a","665500ab8938657b03fbdba8","6657935b84cedbe2cba480ee","4675","Now that you've had some practice, you'll be tested with a couple of easy trials. If you correctly predict Sam's choice, you'll move on to complete the experiment!","0","","","","","","","","","","","","","","","","","","","","","","","",""
"","","","","","image-keyboard-response","52","723849","0.0-3.1-22.1-0.1","62a9513ae9305607fd5af01a","665500ab8938657b03fbdba8","6657935b84cedbe2cba480ee","3119","stimuli/0000011.jpg","arrowleft","","comprehension_quiz","","","true","arrowleft","","","","","","","","","","","","","","","","","",""
"","","","","","image-keyboard-response","53","725649","0.0-3.1-22.1-1.1","62a9513ae9305607fd5af01a","665500ab8938657b03fbdba8","6657935b84cedbe2cba480ee","1795","stimuli/00000110.jpg"," ","","comprehension_quiz","","","true"," ","","","","","","","","","","","","","","","","","",""
"","","","","","image-keyboard-response","54","729890","0.0-3.1-22.1-2.1","62a9513ae9305607fd5af01a","665500ab8938657b03fbdba8","6657935b84cedbe2cba480ee","4237","stimuli/1010010.jpg","arrowdown","","comprehension_quiz","","","true","arrowdown","","","","","","","","","","","","","","","","","",""
"","","","","","image-keyboard-response","55","731026","0.0-3.1-22.1-3.1","62a9513ae9305607fd5af01a","665500ab8938657b03fbdba8","6657935b84cedbe2cba480ee","1132","stimuli/10100101.jpg"," ","","comprehension_quiz","","","true"," ","","","","","","","","","","","","","","","","","",""
"","","","","","html-button-response","56","734085","0.0-4.0","62a9513ae9305607fd5af01a","665500ab8938657b03fbdba8","6657935b84cedbe2cba480ee","3059","The experiment will now begin.","0","","","","","","","","","","","","","","","","","","","","","","","",""
"","","","","","image-keyboard-response","57","738351","0.0-5.0","62a9513ae9305607fd5af01a","665500ab8938657b03fbdba8","6657935b84cedbe2cba480ee","4261","stimuli/0111101.jpg","2","","prediction_trial","0","","false","","0","false","false","false","false","false","false","[0,1,2]","111","101","0","","","","","","",""
"","","","","","image-keyboard-response","58","741758","0.0-6.0","62a9513ae9305607fd5af01a","665500ab8938657b03fbdba8","6657935b84cedbe2cba480ee","3405","stimuli/01111010.jpg"," ","","feedback_trial","0","","","","","","","","","","","","","","","","","","","","",""
"","","","","","image-keyboard-response","59","744121","0.0-7.0","62a9513ae9305607fd5af01a","665500ab8938657b03fbdba8","6657935b84cedbe2cba480ee","2360","stimuli/0110100.jpg","2","","prediction_trial","0","","false","","0","false","true","false","false","false","false","[1,0]","110","100","0","","","","","","",""
"","","","","","image-keyboard-response","60","744909","0.0-8.0","62a9513ae9305607fd5af01a","665500ab8938657b03fbdba8","6657935b84cedbe2cba480ee","785","stimuli/01101000.jpg"," ","","feedback_trial","1","","","","","","","","","","","","","","","","","","","","",""
"","","","","","image-keyboard-response","61","746686","0.0-9.0","62a9513ae9305607fd5af01a","665500ab8938657b03fbdba8","6657935b84cedbe2cba480ee","1775","stimuli/0100101.jpg","0","","prediction_trial","0","","true","","0","false","false","false","true","false","false","[0]","100","101","1","","","","","","",""
"","","","","","image-keyboard-response","62","749387","0.0-10.0","62a9513ae9305607fd5af01a","665500ab8938657b03fbdba8","6657935b84cedbe2cba480ee","2696","stimuli/01001010.jpg"," ","","feedback_trial","0","","","","","","","","","","","","","","","","","","","","",""
"","","","","","image-keyboard-response","63","751546","0.0-11.0","62a9513ae9305607fd5af01a","665500ab8938657b03fbdba8","6657935b84cedbe2cba480ee","2155","stimuli/2010111.jpg","1","","prediction_trial","2","","false","","2","false","false","true","true","false","false","[2]","010","111","0","","","","","","",""
"","","","","","image-keyboard-response","64","755911","0.0-12.0","62a9513ae9305607fd5af01a","665500ab8938657b03fbdba8","6657935b84cedbe2cba480ee","4362","stimuli/20101112.jpg"," ","","feedback_trial","2","","","","","","","","","","","","","","","","","","","","",""
"","","","","","image-keyboard-response","65","758803","0.0-13.0","62a9513ae9305607fd5af01a","665500ab8938657b03fbdba8","6657935b84cedbe2cba480ee","2888","stimuli/0000101.jpg","0","","prediction_trial","0","","true","","0","false","false","true","true","false","false","[0]","000","101","1","","","","","","",""
"","","","","","image-keyboard-response","66","759860","0.0-14.0","62a9513ae9305607fd5af01a","665500ab8938657b03fbdba8","6657935b84cedbe2cba480ee","1054","stimuli/00001010.jpg"," ","","feedback_trial","0","","","","","","","","","","","","","","","","","","","","",""
"","","","","","image-keyboard-response","67","761795","0.0-15.0","62a9513ae9305607fd5af01a","665500ab8938657b03fbdba8","6657935b84cedbe2cba480ee","1933","stimuli/0001110.jpg","2","","prediction_trial","0","","false","","0","false","false","true","true","false","false","[0]","001","110","0","","","","","","",""
"","","","","","image-keyboard-response","68","764124","0.0-16.0","62a9513ae9305607fd5af01a","665500ab8938657b03fbdba8","6657935b84cedbe2cba480ee","2326","stimuli/00011100.jpg"," ","","feedback_trial","0","","","","","","","","","","","","","","","","","","","","",""
"","","","","","image-keyboard-response","69","766936","0.0-17.0","62a9513ae9305607fd5af01a","665500ab8938657b03fbdba8","6657935b84cedbe2cba480ee","2809","stimuli/2010100.jpg","2","","prediction_trial","2","","true","","2","true","true","true","true","true","true","[2]","010","100","1","","","","","","",""
"","","","","","image-keyboard-response","70","768569","0.0-18.0","62a9513ae9305607fd5af01a","665500ab8938657b03fbdba8","6657935b84cedbe2cba480ee","1627","stimuli/20101002.jpg"," ","","feedback_trial","2","","","","","","","","","","","","","","","","","","","","",""
"","","","","","image-keyboard-response","71","770717","0.0-19.0","62a9513ae9305607fd5af01a","665500ab8938657b03fbdba8","6657935b84cedbe2cba480ee","2145","stimuli/1100100.jpg","1","","prediction_trial","1","","true","","1","true","true","true","true","true","true","[1]","100","100","1","","","","","","",""
"","","","","","image-keyboard-response","72","772742","0.0-20.0","62a9513ae9305607fd5af01a","665500ab8938657b03fbdba8","6657935b84cedbe2cba480ee","2021","stimuli/11001001.jpg"," ","","feedback_trial","1","","","","","","","","","","","","","","","","","","","","",""
"","","","","","image-keyboard-response","73","776173","0.0-21.0","62a9513ae9305607fd5af01a","665500ab8938657b03fbdba8","6657935b84cedbe2cba480ee","3429","stimuli/2111101.jpg","0","","prediction_trial","0","","true","","2","false","false","false","false","false","false","[2,1,0]","111","101","1","","","","","","",""
"","","","","","image-keyboard-response","74","777017","0.0-22.0","62a9513ae9305607fd5af01a","665500ab8938657b03fbdba8","6657935b84cedbe2cba480ee","841","stimuli/21111010.jpg"," ","","feedback_trial","2","","","","","","","","","","","","","","","","","","","","",""
"","","","","","image-keyboard-response","75","780798","0.0-23.0","62a9513ae9305607fd5af01a","665500ab8938657b03fbdba8","6657935b84cedbe2cba480ee","3777","stimuli/0011001.jpg","0","","prediction_trial","0","","true","","0","true","true","true","true","true","true","[0]","011","001","1","","","","","","",""
"","","","","","image-keyboard-response","76","783712","0.0-24.0","62a9513ae9305607fd5af01a","665500ab8938657b03fbdba8","6657935b84cedbe2cba480ee","2909","stimuli/00110010.jpg"," ","","feedback_trial","0","","","","","","","","","","","","","","","","","","","","",""
"","","","","","image-keyboard-response","77","786546","0.0-25.0","62a9513ae9305607fd5af01a","665500ab8938657b03fbdba8","6657935b84cedbe2cba480ee","2830","stimuli/1000111.jpg","2","","prediction_trial","1","","false","","1","false","false","true","true","false","false","[1]","000","111","0","","","","","","",""
"","","","","","image-keyboard-response","78","788763","0.0-26.0","62a9513ae9305607fd5af01a","665500ab8938657b03fbdba8","6657935b84cedbe2cba480ee","2213","stimuli/10001111.jpg"," ","","feedback_trial","1","","","","","","","","","","","","","","","","","","","","",""
"","","","","","image-keyboard-response","79","790483","0.0-27.0","62a9513ae9305607fd5af01a","665500ab8938657b03fbdba8","6657935b84cedbe2cba480ee","1720","stimuli/1010000.jpg","1","","prediction_trial","1","","true","","1","true","true","false","true","false","true","[1]","010","000","1","","","","","","",""
"","","","","","image-keyboard-response","80","792004","0.0-28.0","62a9513ae9305607fd5af01a","665500ab8938657b03fbdba8","6657935b84cedbe2cba480ee","1520","stimuli/10100001.jpg"," ","","feedback_trial","1","","","","","","","","","","","","","","","","","","","","",""
"","","","","","image-keyboard-response","81","793555","0.0-29.0","62a9513ae9305607fd5af01a","665500ab8938657b03fbdba8","6657935b84cedbe2cba480ee","1548","stimuli/2100111.jpg","2","","prediction_trial","2","","true","","2","false","false","true","true","false","false","[2]","100","111","1","","","","","","",""
"","","","","","image-keyboard-response","82","796244","0.0-30.0","62a9513ae9305607fd5af01a","665500ab8938657b03fbdba8","6657935b84cedbe2cba480ee","2685","stimuli/21001112.jpg"," ","","feedback_trial","2","","","","","","","","","","","","","","","","","","","","",""
"","","","","","image-keyboard-response","83","798640","0.0-31.0","62a9513ae9305607fd5af01a","665500ab8938657b03fbdba8","6657935b84cedbe2cba480ee","2393","stimuli/1001101.jpg","1","","prediction_trial","1","","true","","1","true","true","true","true","true","true","[1]","001","101","1","","","","","","",""
"","","","","","image-keyboard-response","84","799732","0.0-32.0","62a9513ae9305607fd5af01a","665500ab8938657b03fbdba8","6657935b84cedbe2cba480ee","1089","stimuli/10011011.jpg"," ","","feedback_trial","1","","","","","","","","","","","","","","","","","","","","",""
"","","","","","image-keyboard-response","85","804097","0.0-33.0","62a9513ae9305607fd5af01a","665500ab8938657b03fbdba8","6657935b84cedbe2cba480ee","4361","stimuli/1100000.jpg","1","","prediction_trial","1","","true","","1","true","true","true","true","true","true","[1]","100","000","1","","","","","","",""
"","","","","","image-keyboard-response","86","805177","0.0-34.0","62a9513ae9305607fd5af01a","665500ab8938657b03fbdba8","6657935b84cedbe2cba480ee","1076","stimuli/11000001.jpg"," ","","feedback_trial","1","","","","","","","","","","","","","","","","","","","","",""
"","","","","","image-keyboard-response","87","807269","0.0-35.0","62a9513ae9305607fd5af01a","665500ab8938657b03fbdba8","6657935b84cedbe2cba480ee","2090","stimuli/2001111.jpg","0","","prediction_trial","2","","false","","2","false","false","false","true","false","false","[2]","001","111","0","","","","","","",""
"","","","","","image-keyboard-response","88","809249","0.0-36.0","62a9513ae9305607fd5af01a","665500ab8938657b03fbdba8","6657935b84cedbe2cba480ee","1977","stimuli/20011112.jpg"," ","","feedback_trial","2","","","","","","","","","","","","","","","","","","","","",""
"","","","","","image-keyboard-response","89","811454","0.0-37.0","62a9513ae9305607fd5af01a","665500ab8938657b03fbdba8","6657935b84cedbe2cba480ee","2202","stimuli/2110001.jpg","2","","prediction_trial","2","","true","","2","false","true","true","true","false","true","[2]","110","001","1","","","","","","",""
"","","","","","image-keyboard-response","90","812816","0.0-38.0","62a9513ae9305607fd5af01a","665500ab8938657b03fbdba8","6657935b84cedbe2cba480ee","1357","stimuli/21100012.jpg"," ","","feedback_trial","2","","","","","","","","","","","","","","","","","","","","",""
"","","","","","image-keyboard-response","91","814852","0.0-39.0","62a9513ae9305607fd5af01a","665500ab8938657b03fbdba8","6657935b84cedbe2cba480ee","2033","stimuli/2100101.jpg","1","","prediction_trial","2","","false","","2","false","false","true","true","false","false","[2]","100","101","0","","","","","","",""
"","","","","","image-keyboard-response","92","816393","0.0-40.0","62a9513ae9305607fd5af01a","665500ab8938657b03fbdba8","6657935b84cedbe2cba480ee","1537","stimuli/21001012.jpg"," ","","feedback_trial","2","","","","","","","","","","","","","","","","","","","","",""
"","","","","","image-keyboard-response","93","818250","0.0-41.0","62a9513ae9305607fd5af01a","665500ab8938657b03fbdba8","6657935b84cedbe2cba480ee","1852","stimuli/1101100.jpg","1","","prediction_trial","1","","true","","1","true","true","true","true","true","true","[1]","101","100","1","","","","","","",""
"","","","","","image-keyboard-response","94","819509","0.0-42.0","62a9513ae9305607fd5af01a","665500ab8938657b03fbdba8","6657935b84cedbe2cba480ee","1257","stimuli/11011001.jpg"," ","","feedback_trial","1","","","","","","","","","","","","","","","","","","","","",""
"","","","","","image-keyboard-response","95","821501","0.0-43.0","62a9513ae9305607fd5af01a","665500ab8938657b03fbdba8","6657935b84cedbe2cba480ee","1988","stimuli/1100001.jpg","1","","prediction_trial","1","","true","","1","true","true","true","true","true","true","[1]","100","001","1","","","","","","",""
"","","","","","image-keyboard-response","96","822029","0.0-44.0","62a9513ae9305607fd5af01a","665500ab8938657b03fbdba8","6657935b84cedbe2cba480ee","525","stimuli/11000011.jpg"," ","","feedback_trial","1","","","","","","","","","","","","","","","","","","","","",""
"","","","","","image-keyboard-response","97","824505","0.0-45.0","62a9513ae9305607fd5af01a","665500ab8938657b03fbdba8","6657935b84cedbe2cba480ee","2473","stimuli/2000111.jpg","0","","prediction_trial","2","","false","","2","false","false","true","true","false","false","[2]","000","111","0","","","","","","",""
"","","","","","image-keyboard-response","98","827115","0.0-46.0","62a9513ae9305607fd5af01a","665500ab8938657b03fbdba8","6657935b84cedbe2cba480ee","2606","stimuli/20001112.jpg"," ","","feedback_trial","2","","","","","","","","","","","","","","","","","","","","",""
"","","","","","image-keyboard-response","99","828623","0.0-47.0","62a9513ae9305607fd5af01a","665500ab8938657b03fbdba8","6657935b84cedbe2cba480ee","1501","stimuli/1111010.jpg","2","","prediction_trial","0","","false","","1","false","true","false","false","false","false","[1,2,0]","111","010","0","","","","","","",""
"","","","","","image-keyboard-response","100","831041","0.0-48.0","62a9513ae9305607fd5af01a","665500ab8938657b03fbdba8","6657935b84cedbe2cba480ee","2416","stimuli/11110100.jpg"," ","","feedback_trial","1","","","","","","","","","","","","","","","","","","","","",""
"","","","","","image-keyboard-response","101","833258","0.0-49.0","62a9513ae9305607fd5af01a","665500ab8938657b03fbdba8","6657935b84cedbe2cba480ee","2213","stimuli/2011100.jpg","2","","prediction_trial","2","","true","","2","true","true","false","false","false","false","[1,2]","011","100","1","","","","","","",""
"","","","","","image-keyboard-response","102","834484","0.0-50.0","62a9513ae9305607fd5af01a","665500ab8938657b03fbdba8","6657935b84cedbe2cba480ee","1223","stimuli/20111002.jpg"," ","","feedback_trial","1","","","","","","","","","","","","","","","","","","","","",""
"","","","","","image-keyboard-response","103","837735","0.0-51.0","62a9513ae9305607fd5af01a","665500ab8938657b03fbdba8","6657935b84cedbe2cba480ee","3247","stimuli/1100010.jpg","1","","prediction_trial","1","","true","","1","false","true","true","true","false","true","[1]","100","010","1","","","","","","",""
"","","","","","image-keyboard-response","104","839041","0.0-52.0","62a9513ae9305607fd5af01a","665500ab8938657b03fbdba8","6657935b84cedbe2cba480ee","1301","stimuli/11000101.jpg"," ","","feedback_trial","1","","","","","","","","","","","","","","","","","","","","",""
"","","","","","image-keyboard-response","105","842989","0.0-53.0","62a9513ae9305607fd5af01a","665500ab8938657b03fbdba8","6657935b84cedbe2cba480ee","3946","stimuli/0011111.jpg","2","","prediction_trial","0","","false","","0","false","false","true","true","false","false","[0]","011","111","0","","","","","","",""
"","","","","","image-keyboard-response","106","847151","0.0-54.0","62a9513ae9305607fd5af01a","665500ab8938657b03fbdba8","6657935b84cedbe2cba480ee","4158","stimuli/00111110.jpg"," ","","feedback_trial","0","","","","","","","","","","","","","","","","","","","","",""
"","","","","","image-keyboard-response","107","850414","0.0-55.0","62a9513ae9305607fd5af01a","665500ab8938657b03fbdba8","6657935b84cedbe2cba480ee","3259","stimuli/1001110.jpg","1","","prediction_trial","1","","true","","1","false","false","true","true","false","false","[1]","001","110","1","","","","","","",""
"","","","","","image-keyboard-response","108","851685","0.0-56.0","62a9513ae9305607fd5af01a","665500ab8938657b03fbdba8","6657935b84cedbe2cba480ee","1268","stimuli/10011101.jpg"," ","","feedback_trial","1","","","","","","","","","","","","","","","","","","","","",""
"","","","","","image-keyboard-response","109","853182","0.0-57.0","62a9513ae9305607fd5af01a","665500ab8938657b03fbdba8","6657935b84cedbe2cba480ee","1492","stimuli/1101101.jpg","1","","prediction_trial","1","","true","","1","true","true","true","true","true","true","[1]","101","101","1","","","","","","",""
"","","","","","image-keyboard-response","110","853992","0.0-58.0","62a9513ae9305607fd5af01a","665500ab8938657b03fbdba8","6657935b84cedbe2cba480ee","807","stimuli/11011011.jpg"," ","","feedback_trial","1","","","","","","","","","","","","","","","","","","","","",""
"","","","","","image-keyboard-response","111","856704","0.0-59.0","62a9513ae9305607fd5af01a","665500ab8938657b03fbdba8","6657935b84cedbe2cba480ee","2708","stimuli/0100100.jpg","2","","prediction_trial","0","","false","","0","false","true","false","true","false","true","[0]","100","100","0","","","","","","",""
"","","","","","image-keyboard-response","112","857513","0.0-60.0","62a9513ae9305607fd5af01a","665500ab8938657b03fbdba8","6657935b84cedbe2cba480ee","806","stimuli/01001000.jpg"," ","","feedback_trial","0","","","","","","","","","","","","","","","","","","","","",""
"","","","","","image-keyboard-response","113","859842","0.0-61.0","62a9513ae9305607fd5af01a","665500ab8938657b03fbdba8","6657935b84cedbe2cba480ee","2326","stimuli/1010101.jpg","1","","prediction_trial","1","","true","","1","true","true","false","true","false","true","[1]","010","101","1","","","","","","",""
"","","","","","image-keyboard-response","114","861519","0.0-62.0","62a9513ae9305607fd5af01a","665500ab8938657b03fbdba8","6657935b84cedbe2cba480ee","1672","stimuli/10101011.jpg"," ","","feedback_trial","1","","","","","","","","","","","","","","","","","","","","",""
"","","","","","image-keyboard-response","115","867121","0.0-63.0","62a9513ae9305607fd5af01a","665500ab8938657b03fbdba8","6657935b84cedbe2cba480ee","5600","stimuli/0000110.jpg","2","","prediction_trial","0","","false","","0","false","false","true","true","false","false","[0]","000","110","0","","","","","","",""
"","","","","","image-keyboard-response","116","870237","0.0-64.0","62a9513ae9305607fd5af01a","665500ab8938657b03fbdba8","6657935b84cedbe2cba480ee","3113","stimuli/00001100.jpg"," ","","feedback_trial","0","","","","","","","","","","","","","","","","","","","","",""
"","","","","","image-keyboard-response","117","873691","0.0-65.0","62a9513ae9305607fd5af01a","665500ab8938657b03fbdba8","6657935b84cedbe2cba480ee","3451","stimuli/2001010.jpg","0","","prediction_trial","2","","false","","2","true","true","false","true","false","true","[2]","001","010","0","","","","","","",""
"","","","","","image-keyboard-response","118","876762","0.0-66.0","62a9513ae9305607fd5af01a","665500ab8938657b03fbdba8","6657935b84cedbe2cba480ee","3068","stimuli/20010102.jpg"," ","","feedback_trial","2","","","","","","","","","","","","","","","","","","","","",""
"","","","","","image-keyboard-response","119","879261","0.0-67.0","62a9513ae9305607fd5af01a","665500ab8938657b03fbdba8","6657935b84cedbe2cba480ee","2494","stimuli/2011000.jpg","0","","prediction_trial","1","","false","","2","true","true","false","false","false","false","[2,1]","011","000","0","","","","","","",""
"","","","","","image-keyboard-response","120","880542","0.0-68.0","62a9513ae9305607fd5af01a","665500ab8938657b03fbdba8","6657935b84cedbe2cba480ee","1279","stimuli/20110001.jpg"," ","","feedback_trial","2","","","","","","","","","","","","","","","","","","","","",""
"","","","","","image-keyboard-response","121","883030","0.0-69.0","62a9513ae9305607fd5af01a","665500ab8938657b03fbdba8","6657935b84cedbe2cba480ee","2482","stimuli/0010001.jpg","2","","prediction_trial","0","","false","","0","true","true","true","true","true","true","[0]","010","001","0","","","","","","",""
"","","","","","image-keyboard-response","122","883603","0.0-70.0","62a9513ae9305607fd5af01a","665500ab8938657b03fbdba8","6657935b84cedbe2cba480ee","569","stimuli/00100010.jpg"," ","","feedback_trial","0","","","","","","","","","","","","","","","","","","","","",""
"","","","","","image-keyboard-response","123","886472","0.0-71.0","62a9513ae9305607fd5af01a","665500ab8938657b03fbdba8","6657935b84cedbe2cba480ee","2865","stimuli/2101100.jpg","1","","prediction_trial","0","","false","","2","true","true","false","false","false","false","[0,2]","101","100","0","","","","","","",""
"","","","","","image-keyboard-response","124","887664","0.0-72.0","62a9513ae9305607fd5af01a","665500ab8938657b03fbdba8","6657935b84cedbe2cba480ee","1189","stimuli/21011000.jpg"," ","","feedback_trial","0","","","","","","","","","","","","","","","","","","","","",""
"","","","","","image-keyboard-response","125","889892","0.0-73.0","62a9513ae9305607fd5af01a","665500ab8938657b03fbdba8","6657935b84cedbe2cba480ee","2225","stimuli/0110000.jpg","2","","prediction_trial","0","","false","","0","true","true","false","false","false","false","[1,0]","110","000","0","","","","","","",""
"","","","","","image-keyboard-response","126","890960","0.0-74.0","62a9513ae9305607fd5af01a","665500ab8938657b03fbdba8","6657935b84cedbe2cba480ee","1064","stimuli/01100000.jpg"," ","","feedback_trial","1","","","","","","","","","","","","","","","","","","","","",""
"","","","","","image-keyboard-response","127","893020","0.0-75.0","62a9513ae9305607fd5af01a","665500ab8938657b03fbdba8","6657935b84cedbe2cba480ee","2056","stimuli/0010100.jpg","1","","prediction_trial","0","","false","","0","false","true","true","true","false","true","[0]","010","100","0","","","","","","",""
"","","","","","image-keyboard-response","128","894201","0.0-76.0","62a9513ae9305607fd5af01a","665500ab8938657b03fbdba8","6657935b84cedbe2cba480ee","1178","stimuli/00101000.jpg"," ","","feedback_trial","0","","","","","","","","","","","","","","","","","","","","",""
"","","","","","image-keyboard-response","129","896113","0.0-77.0","62a9513ae9305607fd5af01a","665500ab8938657b03fbdba8","6657935b84cedbe2cba480ee","1908","stimuli/2101010.jpg","2","","prediction_trial","2","","true","","2","true","true","false","false","false","false","[2,0]","101","010","1","","","","","","",""
"","","","","","image-keyboard-response","130","897665","0.0-78.0","62a9513ae9305607fd5af01a","665500ab8938657b03fbdba8","6657935b84cedbe2cba480ee","1549","stimuli/21010102.jpg"," ","","feedback_trial","2","","","","","","","","","","","","","","","","","","","","",""
"","","","","","image-keyboard-response","131","900152","0.0-79.0","62a9513ae9305607fd5af01a","665500ab8938657b03fbdba8","6657935b84cedbe2cba480ee","2482","stimuli/0101001.jpg","2","","prediction_trial","2","","true","","0","true","true","false","false","false","false","[2,0]","101","001","1","","","","","","",""
"","","","","","image-keyboard-response","132","902807","0.0-80.0","62a9513ae9305607fd5af01a","665500ab8938657b03fbdba8","6657935b84cedbe2cba480ee","2652","stimuli/01010012.jpg"," ","","feedback_trial","2","","","","","","","","","","","","","","","","","","","","",""
"","","","","","image-keyboard-response","133","905754","0.0-81.0","62a9513ae9305607fd5af01a","665500ab8938657b03fbdba8","6657935b84cedbe2cba480ee","2945","stimuli/1001000.jpg","1","","prediction_trial","1","","true","","1","true","true","true","true","true","true","[1]","001","000","1","","","","","","",""
"","","","","","image-keyboard-response","134","907655","0.0-82.0","62a9513ae9305607fd5af01a","665500ab8938657b03fbdba8","6657935b84cedbe2cba480ee","1898","stimuli/10010001.jpg"," ","","feedback_trial","1","","","","","","","","","","","","","","","","","","","","",""
"","","","","","image-keyboard-response","135","913641","0.0-83.0","62a9513ae9305607fd5af01a","665500ab8938657b03fbdba8","6657935b84cedbe2cba480ee","5982","stimuli/2101000.jpg","2","","prediction_trial","2","","true","","2","true","true","false","false","false","false","[0,2]","101","000","1","","","","","","",""
"","","","","","image-keyboard-response","136","915081","0.0-84.0","62a9513ae9305607fd5af01a","665500ab8938657b03fbdba8","6657935b84cedbe2cba480ee","1436","stimuli/21010002.jpg"," ","","feedback_trial","0","","","","","","","","","","","","","","","","","","","","",""
"","","","","","image-keyboard-response","137","916813","0.0-85.0","62a9513ae9305607fd5af01a","665500ab8938657b03fbdba8","6657935b84cedbe2cba480ee","1729","stimuli/0100011.jpg","0","","prediction_trial","0","","true","","0","true","true","false","true","false","true","[0]","100","011","1","","","","","","",""
"","","","","","image-keyboard-response","138","917590","0.0-86.0","62a9513ae9305607fd5af01a","665500ab8938657b03fbdba8","6657935b84cedbe2cba480ee","771","stimuli/01000110.jpg"," ","","feedback_trial","0","","","","","","","","","","","","","","","","","","","","",""
"","","","","","image-keyboard-response","139","919874","0.0-87.0","62a9513ae9305607fd5af01a","665500ab8938657b03fbdba8","6657935b84cedbe2cba480ee","2281","stimuli/2000100.jpg","2","","prediction_trial","2","","true","","2","true","true","true","true","true","true","[2]","000","100","1","","","","","","",""
"","","","","","image-keyboard-response","140","921191","0.0-88.0","62a9513ae9305607fd5af01a","665500ab8938657b03fbdba8","6657935b84cedbe2cba480ee","1313","stimuli/20001002.jpg"," ","","feedback_trial","2","","","","","","","","","","","","","","","","","","","","",""
"","","","","","image-keyboard-response","141","922415","0.0-89.0","62a9513ae9305607fd5af01a","665500ab8938657b03fbdba8","6657935b84cedbe2cba480ee","1223","stimuli/0011010.jpg","0","","prediction_trial","0","","true","","0","true","true","true","true","true","true","[0]","011","010","1","","","","","","",""
"","","","","","image-keyboard-response","142","924216","0.0-90.0","62a9513ae9305607fd5af01a","665500ab8938657b03fbdba8","6657935b84cedbe2cba480ee","1797","stimuli/00110100.jpg"," ","","feedback_trial","0","","","","","","","","","","","","","","","","","","","","",""
"","","","","","image-keyboard-response","143","925657","0.0-91.0","62a9513ae9305607fd5af01a","665500ab8938657b03fbdba8","6657935b84cedbe2cba480ee","1437","stimuli/1111001.jpg","1","","prediction_trial","1","","true","","1","true","true","false","false","false","false","[0,1,2]","111","001","1","","","","","","",""
"","","","","","image-keyboard-response","144","926826","0.0-92.0","62a9513ae9305607fd5af01a","665500ab8938657b03fbdba8","6657935b84cedbe2cba480ee","1166","stimuli/11110011.jpg"," ","","feedback_trial","0","","","","","","","","","","","","","","","","","","","","",""
"","","","","","image-keyboard-response","145","928728","0.0-93.0","62a9513ae9305607fd5af01a","665500ab8938657b03fbdba8","6657935b84cedbe2cba480ee","1898","stimuli/1111101.jpg","1","","prediction_trial","0","","false","","1","true","true","false","false","false","false","[0,1,2]","111","101","0","","","","","","",""
"","","","","","image-keyboard-response","146","930246","0.0-94.0","62a9513ae9305607fd5af01a","665500ab8938657b03fbdba8","6657935b84cedbe2cba480ee","1514","stimuli/11111010.jpg"," ","","feedback_trial","0","","","","","","","","","","","","","","","","","","","","",""
"","","","","","image-keyboard-response","147","932497","0.0-95.0","62a9513ae9305607fd5af01a","665500ab8938657b03fbdba8","6657935b84cedbe2cba480ee","2247","stimuli/1100011.jpg","2","","prediction_trial","1","","false","","1","false","false","true","true","false","false","[1]","100","011","0","","","","","","",""
"","","","","","image-keyboard-response","148","934206","0.0-96.0","62a9513ae9305607fd5af01a","665500ab8938657b03fbdba8","6657935b84cedbe2cba480ee","1707","stimuli/11000111.jpg"," ","","feedback_trial","1","","","","","","","","","","","","","","","","","","","","",""
"","","","","","image-keyboard-response","149","935253","0.0-97.0","62a9513ae9305607fd5af01a","665500ab8938657b03fbdba8","6657935b84cedbe2cba480ee","1043","stimuli/1011010.jpg","1","","prediction_trial","2","","false","","1","false","true","false","false","false","false","[2,1]","011","010","0","","","","","","",""
"","","","","","image-keyboard-response","150","936693","0.0-98.0","62a9513ae9305607fd5af01a","665500ab8938657b03fbdba8","6657935b84cedbe2cba480ee","1437","stimuli/10110102.jpg"," ","","feedback_trial","2","","","","","","","","","","","","","","","","","","","","",""
"","","","","","image-keyboard-response","151","937402","0.0-99.0","62a9513ae9305607fd5af01a","665500ab8938657b03fbdba8","6657935b84cedbe2cba480ee","705","stimuli/0001100.jpg","1","","prediction_trial","0","","false","","0","false","true","true","true","false","true","[0]","001","100","0","","","","","","",""
"","","","","","image-keyboard-response","152","938065","0.0-100.0","62a9513ae9305607fd5af01a","665500ab8938657b03fbdba8","6657935b84cedbe2cba480ee","660","stimuli/00011000.jpg"," ","","feedback_trial","0","","","","","","","","","","","","","","","","","","","","",""
"","","","","","image-keyboard-response","153","939100","0.0-101.0","62a9513ae9305607fd5af01a","665500ab8938657b03fbdba8","6657935b84cedbe2cba480ee","1032","stimuli/0111111.jpg","0","","prediction_trial","0","","true","","0","false","false","false","false","false","false","[2,1,0]","111","111","1","","","","","","",""
"","","","","","image-keyboard-response","154","939674","0.0-102.0","62a9513ae9305607fd5af01a","665500ab8938657b03fbdba8","6657935b84cedbe2cba480ee","570","stimuli/01111110.jpg"," ","","feedback_trial","2","","","","","","","","","","","","","","","","","","","","",""
"","","","","","image-keyboard-response","155","941575","0.0-103.0","62a9513ae9305607fd5af01a","665500ab8938657b03fbdba8","6657935b84cedbe2cba480ee","1898","stimuli/1011111.jpg","1","","prediction_trial","1","","true","","1","false","false","false","false","false","false","[2,1]","011","111","1","","","","","","",""
"","","","","","image-keyboard-response","156","942307","0.0-104.0","62a9513ae9305607fd5af01a","665500ab8938657b03fbdba8","6657935b84cedbe2cba480ee","727","stimuli/10111111.jpg"," ","","feedback_trial","2","","","","","","","","","","","","","","","","","","","","",""
"","","","","","image-keyboard-response","157","944568","0.0-105.0","62a9513ae9305607fd5af01a","665500ab8938657b03fbdba8","6657935b84cedbe2cba480ee","2257","stimuli/1000000.jpg","1","","prediction_trial","1","","true","","1","true","true","true","true","true","true","[1]","000","000","1","","","","","","",""
"","","","","","image-keyboard-response","158","945997","0.0-106.0","62a9513ae9305607fd5af01a","665500ab8938657b03fbdba8","6657935b84cedbe2cba480ee","1426","stimuli/10000001.jpg"," ","","feedback_trial","1","","","","","","","","","","","","","","","","","","","","",""
"","","","","","image-keyboard-response","159","950362","0.0-107.0","62a9513ae9305607fd5af01a","665500ab8938657b03fbdba8","6657935b84cedbe2cba480ee","4361","stimuli/2100011.jpg","2","","prediction_trial","2","","true","","2","false","false","true","true","false","false","[2]","100","011","1","","","","","","",""
"","","","","","image-keyboard-response","160","952859","0.0-108.0","62a9513ae9305607fd5af01a","665500ab8938657b03fbdba8","6657935b84cedbe2cba480ee","2493","stimuli/21000112.jpg"," ","","feedback_trial","2","","","","","","","","","","","","","","","","","","","","",""
"","","","","","image-keyboard-response","161","955683","0.0-109.0","62a9513ae9305607fd5af01a","665500ab8938657b03fbdba8","6657935b84cedbe2cba480ee","2821","stimuli/0110011.jpg","0","","prediction_trial","1","","false","","0","true","true","false","false","false","false","[0,1]","110","011","0","","","","","","",""
"","","","","","image-keyboard-response","162","956673","0.0-110.0","62a9513ae9305607fd5af01a","665500ab8938657b03fbdba8","6657935b84cedbe2cba480ee","987","stimuli/01100111.jpg"," ","","feedback_trial","0","","","","","","","","","","","","","","","","","","","","",""
"","","","","","image-keyboard-response","163","958305","0.0-111.0","62a9513ae9305607fd5af01a","665500ab8938657b03fbdba8","6657935b84cedbe2cba480ee","1629","stimuli/0100000.jpg","2","","prediction_trial","0","","false","","0","true","true","false","true","false","true","[0]","100","000","0","","","","","","",""
"","","","","","image-keyboard-response","164","959463","0.0-112.0","62a9513ae9305607fd5af01a","665500ab8938657b03fbdba8","6657935b84cedbe2cba480ee","1155","stimuli/01000000.jpg"," ","","feedback_trial","0","","","","","","","","","","","","","","","","","","","","",""
"","","","","","image-keyboard-response","165","960770","0.0-113.0","62a9513ae9305607fd5af01a","665500ab8938657b03fbdba8","6657935b84cedbe2cba480ee","1303","stimuli/0111100.jpg","1","","prediction_trial","0","","false","","0","false","true","false","false","false","false","[1,0,2]","111","100","0","","","","","","",""
"","","","","","image-keyboard-response","166","962152","0.0-114.0","62a9513ae9305607fd5af01a","665500ab8938657b03fbdba8","6657935b84cedbe2cba480ee","1379","stimuli/01111000.jpg"," ","","feedback_trial","1","","","","","","","","","","","","","","","","","","","","",""
"","","","","","image-keyboard-response","167","964639","0.0-115.0","62a9513ae9305607fd5af01a","665500ab8938657b03fbdba8","6657935b84cedbe2cba480ee","2483","stimuli/2110000.jpg","0","","prediction_trial","2","","false","","2","true","true","true","true","true","true","[2]","110","000","0","","","","","","",""
"","","","","","image-keyboard-response","168","965538","0.0-116.0","62a9513ae9305607fd5af01a","665500ab8938657b03fbdba8","6657935b84cedbe2cba480ee","895","stimuli/21100002.jpg"," ","","feedback_trial","2","","","","","","","","","","","","","","","","","","","","",""
"","","","","","image-keyboard-response","169","966854","0.0-117.0","62a9513ae9305607fd5af01a","665500ab8938657b03fbdba8","6657935b84cedbe2cba480ee","1312","stimuli/1101111.jpg","1","","prediction_trial","1","","true","","1","false","false","true","true","false","false","[1]","101","111","1","","","","","","",""
"","","","","","image-keyboard-response","170","967710","0.0-118.0","62a9513ae9305607fd5af01a","665500ab8938657b03fbdba8","6657935b84cedbe2cba480ee","852","stimuli/11011111.jpg"," ","","feedback_trial","1","","","","","","","","","","","","","","","","","","","","",""
"","","","","","image-keyboard-response","171","969364","0.0-119.0","62a9513ae9305607fd5af01a","665500ab8938657b03fbdba8","6657935b84cedbe2cba480ee","1650","stimuli/2001000.jpg","2","","prediction_trial","2","","true","","2","true","true","false","true","false","true","[2]","001","000","1","","","","","","",""
"","","","","","image-keyboard-response","172","970837","0.0-120.0","62a9513ae9305607fd5af01a","665500ab8938657b03fbdba8","6657935b84cedbe2cba480ee","1470","stimuli/20010002.jpg"," ","","feedback_trial","2","","","","","","","","","","","","","","","","","","","","",""
"","","","","","image-keyboard-response","173","973807","0.0-121.0","62a9513ae9305607fd5af01a","665500ab8938657b03fbdba8","6657935b84cedbe2cba480ee","2966","stimuli/2111001.jpg","0","","prediction_trial","0","","true","","2","false","true","false","false","false","false","[2,0,1]","111","001","1","","","","","","",""
"","","","","","image-keyboard-response","174","974719","0.0-122.0","62a9513ae9305607fd5af01a","665500ab8938657b03fbdba8","6657935b84cedbe2cba480ee","908","stimuli/21110010.jpg"," ","","feedback_trial","2","","","","","","","","","","","","","","","","","","","","",""
"","","","","","image-keyboard-response","175","976631","0.0-123.0","62a9513ae9305607fd5af01a","665500ab8938657b03fbdba8","6657935b84cedbe2cba480ee","1909","stimuli/1010010.jpg","1","","prediction_trial","1","","true","","1","false","true","false","true","false","true","[1]","010","010","1","","","","","","",""
"","","","","","image-keyboard-response","176","977487","0.0-124.0","62a9513ae9305607fd5af01a","665500ab8938657b03fbdba8","6657935b84cedbe2cba480ee","852","stimuli/10100101.jpg"," ","","feedback_trial","1","","","","","","","","","","","","","","","","","","","","",""
"","","","","","image-keyboard-response","177","979309","0.0-125.0","62a9513ae9305607fd5af01a","665500ab8938657b03fbdba8","6657935b84cedbe2cba480ee","1819","stimuli/0001000.jpg","0","","prediction_trial","0","","true","","0","true","true","true","true","true","true","[0]","001","000","1","","","","","","",""
"","","","","","image-keyboard-response","178","980422","0.0-126.0","62a9513ae9305607fd5af01a","665500ab8938657b03fbdba8","6657935b84cedbe2cba480ee","1110","stimuli/00010000.jpg"," ","","feedback_trial","0","","","","","","","","","","","","","","","","","","","","",""
"","","","","","image-keyboard-response","179","981762","0.0-127.0","62a9513ae9305607fd5af01a","665500ab8938657b03fbdba8","6657935b84cedbe2cba480ee","1335","stimuli/0000000.jpg","0","","prediction_trial","0","","true","","0","true","true","true","true","true","true","[0]","000","000","1","","","","","","",""
"","","","","","image-keyboard-response","180","983246","0.0-128.0","62a9513ae9305607fd5af01a","665500ab8938657b03fbdba8","6657935b84cedbe2cba480ee","1480","stimuli/00000000.jpg"," ","","feedback_trial","0","","","","","","","","","","","","","","","","","","","","",""
"","","","","","image-keyboard-response","181","984947","0.0-129.0","62a9513ae9305607fd5af01a","665500ab8938657b03fbdba8","6657935b84cedbe2cba480ee","1696","stimuli/1011011.jpg","2","","prediction_trial","1","","false","","1","false","false","false","false","false","false","[1,2]","011","011","0","","","","","","",""
"","","","","","image-keyboard-response","182","985834","0.0-130.0","62a9513ae9305607fd5af01a","665500ab8938657b03fbdba8","6657935b84cedbe2cba480ee","883","stimuli/10110111.jpg"," ","","feedback_trial","1","","","","","","","","","","","","","","","","","","","","",""
"","","","","","image-keyboard-response","183","988208","0.0-131.0","62a9513ae9305607fd5af01a","665500ab8938657b03fbdba8","6657935b84cedbe2cba480ee","2371","stimuli/1100110.jpg","1","","prediction_trial","1","","true","","1","false","false","true","true","false","false","[1]","100","110","1","","","","","","",""
"","","","","","image-keyboard-response","184","989828","0.0-132.0","62a9513ae9305607fd5af01a","665500ab8938657b03fbdba8","6657935b84cedbe2cba480ee","1616","stimuli/11001101.jpg"," ","","feedback_trial","1","","","","","","","","","","","","","","","","","","","","",""
"","","","","","image-keyboard-response","185","993079","0.0-133.0","62a9513ae9305607fd5af01a","665500ab8938657b03fbdba8","6657935b84cedbe2cba480ee","3247","stimuli/1010110.jpg","0","","prediction_trial","1","","false","","1","false","false","false","true","false","false","[1]","010","110","0","","","","","","",""
"","","","","","image-keyboard-response","186","994452","0.0-134.0","62a9513ae9305607fd5af01a","665500ab8938657b03fbdba8","6657935b84cedbe2cba480ee","1369","stimuli/10101101.jpg"," ","","feedback_trial","1","","","","","","","","","","","","","","","","","","","","",""
"","","","","","image-keyboard-response","187","996375","0.0-135.0","62a9513ae9305607fd5af01a","665500ab8938657b03fbdba8","6657935b84cedbe2cba480ee","1920","stimuli/1110000.jpg","0","","prediction_trial","0","","true","","1","true","true","false","false","false","false","[0,1]","110","000","1","","","","","","",""
"","","","","","image-keyboard-response","188","996894","0.0-136.0","62a9513ae9305607fd5af01a","665500ab8938657b03fbdba8","6657935b84cedbe2cba480ee","514","stimuli/11100000.jpg"," ","","feedback_trial","0","","","","","","","","","","","","","","","","","","","","",""
"","","","","","image-keyboard-response","189","998896","0.0-137.0","62a9513ae9305607fd5af01a","665500ab8938657b03fbdba8","6657935b84cedbe2cba480ee","1999","stimuli/2000101.jpg","1","","prediction_trial","2","","false","","2","false","false","true","true","false","false","[2]","000","101","0","","","","","","",""
"","","","","","image-keyboard-response","190","999987","0.0-138.0","62a9513ae9305607fd5af01a","665500ab8938657b03fbdba8","6657935b84cedbe2cba480ee","1088","stimuli/20001012.jpg"," ","","feedback_trial","2","","","","","","","","","","","","","","","","","","","","",""
"","","","","","image-keyboard-response","191","1001304","0.0-139.0","62a9513ae9305607fd5af01a","665500ab8938657b03fbdba8","6657935b84cedbe2cba480ee","1314","stimuli/2001001.jpg","1","","prediction_trial","2","","false","","2","false","true","false","true","false","true","[2]","001","001","0","","","","","","",""
"","","","","","image-keyboard-response","192","1002181","0.0-140.0","62a9513ae9305607fd5af01a","665500ab8938657b03fbdba8","6657935b84cedbe2cba480ee","875","stimuli/20010012.jpg"," ","","feedback_trial","2","","","","","","","","","","","","","","","","","","","","",""
"","","","","","image-keyboard-response","193","1003374","0.0-141.0","62a9513ae9305607fd5af01a","665500ab8938657b03fbdba8","6657935b84cedbe2cba480ee","1189","stimuli/2100110.jpg","0","","prediction_trial","2","","false","","2","true","true","true","true","true","true","[2]","100","110","0","","","","","","",""
"","","","","","image-keyboard-response","194","1004374","0.0-142.0","62a9513ae9305607fd5af01a","665500ab8938657b03fbdba8","6657935b84cedbe2cba480ee","998","stimuli/21001102.jpg"," ","","feedback_trial","2","","","","","","","","","","","","","","","","","","","","",""
"","","","","","image-keyboard-response","195","1005534","0.0-143.0","62a9513ae9305607fd5af01a","665500ab8938657b03fbdba8","6657935b84cedbe2cba480ee","1156","stimuli/1011101.jpg","2","","prediction_trial","2","","true","","1","true","true","false","false","false","false","[1,2]","011","101","1","","","","","","",""
"","","","","","image-keyboard-response","196","1007064","0.0-144.0","62a9513ae9305607fd5af01a","665500ab8938657b03fbdba8","6657935b84cedbe2cba480ee","1526","stimuli/10111012.jpg"," ","","feedback_trial","1","","","","","","","","","","","","","","","","","","","","",""
"","","","","","image-keyboard-response","197","1008673","0.0-145.0","62a9513ae9305607fd5af01a","665500ab8938657b03fbdba8","6657935b84cedbe2cba480ee","1605","stimuli/1101001.jpg","1","","prediction_trial","1","","true","","1","true","true","true","true","true","true","[1]","101","001","1","","","","","","",""
"","","","","","image-keyboard-response","198","1010371","0.0-146.0","62a9513ae9305607fd5af01a","665500ab8938657b03fbdba8","6657935b84cedbe2cba480ee","1695","stimuli/11010011.jpg"," ","","feedback_trial","1","","","","","","","","","","","","","","","","","","","","",""
"","","","","","image-keyboard-response","199","1012092","0.0-147.0","62a9513ae9305607fd5af01a","665500ab8938657b03fbdba8","6657935b84cedbe2cba480ee","1718","stimuli/1001100.jpg","1","","prediction_trial","1","","true","","1","true","true","true","true","true","true","[1]","001","100","1","","","","","","",""
"","","","","","image-keyboard-response","200","1013554","0.0-148.0","62a9513ae9305607fd5af01a","665500ab8938657b03fbdba8","6657935b84cedbe2cba480ee","1458","stimuli/10011001.jpg"," ","","feedback_trial","1","","","","","","","","","","","","","","","","","","","","",""
"","","","","","image-keyboard-response","201","1016975","0.0-149.0","62a9513ae9305607fd5af01a","665500ab8938657b03fbdba8","6657935b84cedbe2cba480ee","3418","stimuli/2011011.jpg","2","","prediction_trial","1","","false","","2","false","false","false","false","false","false","[2,1]","011","011","0","","","","","","",""
"","","","","","image-keyboard-response","202","1018067","0.0-150.0","62a9513ae9305607fd5af01a","665500ab8938657b03fbdba8","6657935b84cedbe2cba480ee","1087","stimuli/20110111.jpg"," ","","feedback_trial","2","","","","","","","","","","","","","","","","","","","","",""
"","","","","","image-keyboard-response","203","1020024","0.0-151.0","62a9513ae9305607fd5af01a","665500ab8938657b03fbdba8","6657935b84cedbe2cba480ee","1954","stimuli/0010111.jpg","0","","prediction_trial","0","","true","","0","false","false","true","true","false","false","[0]","010","111","1","","","","","","",""
"","","","","","image-keyboard-response","204","1021441","0.0-152.0","62a9513ae9305607fd5af01a","665500ab8938657b03fbdba8","6657935b84cedbe2cba480ee","1414","stimuli/00101110.jpg"," ","","feedback_trial","0","","","","","","","","","","","","","","","","","","","","",""
"","","","","","image-keyboard-response","205","1023005","0.0-153.0","62a9513ae9305607fd5af01a","665500ab8938657b03fbdba8","6657935b84cedbe2cba480ee","1561","stimuli/2101111.jpg","2","","prediction_trial","2","","true","","2","false","false","false","false","false","false","[2,0]","101","111","1","","","","","","",""
"","","","","","image-keyboard-response","206","1024625","0.0-154.0","62a9513ae9305607fd5af01a","665500ab8938657b03fbdba8","6657935b84cedbe2cba480ee","1616","stimuli/21011112.jpg"," ","","feedback_trial","2","","","","","","","","","","","","","","","","","","","","",""
"","","","","","image-keyboard-response","207","1029002","0.0-155.0","62a9513ae9305607fd5af01a","665500ab8938657b03fbdba8","6657935b84cedbe2cba480ee","4373","stimuli/2110011.jpg","1","","prediction_trial","2","","false","","2","false","false","true","true","false","false","[2]","110","011","0","","","","","","",""
"","","","","","image-keyboard-response","208","1030003","0.0-156.0","62a9513ae9305607fd5af01a","665500ab8938657b03fbdba8","6657935b84cedbe2cba480ee","997","stimuli/21100112.jpg"," ","","feedback_trial","2","","","","","","","","","","","","","","","","","","","","",""
"","","","","","image-keyboard-response","209","1033175","0.0-157.0","62a9513ae9305607fd5af01a","665500ab8938657b03fbdba8","6657935b84cedbe2cba480ee","3169","stimuli/2001101.jpg","0","","prediction_trial","2","","false","","2","false","false","false","true","false","false","[2]","001","101","0","","","","","","",""
"","","","","","image-keyboard-response","210","1034536","0.0-158.0","62a9513ae9305607fd5af01a","665500ab8938657b03fbdba8","6657935b84cedbe2cba480ee","1358","stimuli/20011012.jpg"," ","","feedback_trial","2","","","","","","","","","","","","","","","","","","","","",""
"","","","","","image-keyboard-response","211","1035685","0.0-159.0","62a9513ae9305607fd5af01a","665500ab8938657b03fbdba8","6657935b84cedbe2cba480ee","1144","stimuli/2111110.jpg","2","","prediction_trial","0","","false","","2","true","true","false","false","false","false","[0,2,1]","111","110","0","","","","","","",""
"","","","","","image-keyboard-response","212","1036641","0.0-160.0","62a9513ae9305607fd5af01a","665500ab8938657b03fbdba8","6657935b84cedbe2cba480ee","953","stimuli/21111100.jpg"," ","","feedback_trial","0","","","","","","","","","","","","","","","","","","","","",""
"","","","","","image-keyboard-response","213","1038182","0.0-161.0","62a9513ae9305607fd5af01a","665500ab8938657b03fbdba8","6657935b84cedbe2cba480ee","1538","stimuli/2100001.jpg","1","","prediction_trial","2","","false","","2","false","true","true","true","false","true","[2]","100","001","0","","","","","","",""
"","","","","","image-keyboard-response","214","1038980","0.0-162.0","62a9513ae9305607fd5af01a","665500ab8938657b03fbdba8","6657935b84cedbe2cba480ee","795","stimuli/21000012.jpg"," ","","feedback_trial","2","","","","","","","","","","","","","","","","","","","","",""
"","","","","","image-keyboard-response","215","1040218","0.0-163.0","62a9513ae9305607fd5af01a","665500ab8938657b03fbdba8","6657935b84cedbe2cba480ee","1235","stimuli/0010110.jpg","1","","prediction_trial","0","","false","","0","false","false","true","true","false","false","[0]","010","110","0","","","","","","",""
"","","","","","image-keyboard-response","216","1041074","0.0-164.0","62a9513ae9305607fd5af01a","665500ab8938657b03fbdba8","6657935b84cedbe2cba480ee","851","stimuli/00101100.jpg"," ","","feedback_trial","0","","","","","","","","","","","","","","","","","","","","",""
"","","","","","image-keyboard-response","217","1043279","0.0-165.0","62a9513ae9305607fd5af01a","665500ab8938657b03fbdba8","6657935b84cedbe2cba480ee","2202","stimuli/0100010.jpg","2","","prediction_trial","0","","false","","0","true","true","false","true","false","true","[0]","100","010","0","","","","","","",""
"","","","","","image-keyboard-response","218","1044099","0.0-166.0","62a9513ae9305607fd5af01a","665500ab8938657b03fbdba8","6657935b84cedbe2cba480ee","816","stimuli/01000100.jpg"," ","","feedback_trial","0","","","","","","","","","","","","","","","","","","","","",""
"","","","","","image-keyboard-response","219","1045461","0.0-167.0","62a9513ae9305607fd5af01a","665500ab8938657b03fbdba8","6657935b84cedbe2cba480ee","1357","stimuli/1110010.jpg","2","","prediction_trial","0","","false","","1","false","true","false","false","false","false","[1,0]","110","010","0","","","","","","",""
"","","","","","image-keyboard-response","220","1046518","0.0-168.0","62a9513ae9305607fd5af01a","665500ab8938657b03fbdba8","6657935b84cedbe2cba480ee","1053","stimuli/11100100.jpg"," ","","feedback_trial","1","","","","","","","","","","","","","","","","","","","","",""
"","","","","","image-keyboard-response","221","1049331","0.0-169.0","62a9513ae9305607fd5af01a","665500ab8938657b03fbdba8","6657935b84cedbe2cba480ee","2810","stimuli/2000010.jpg","2","","prediction_trial","2","","true","","2","true","true","true","true","true","true","[2]","000","010","1","","","","","","",""
"","","","","","image-keyboard-response","222","1050523","0.0-170.0","62a9513ae9305607fd5af01a","665500ab8938657b03fbdba8","6657935b84cedbe2cba480ee","1188","stimuli/20000102.jpg"," ","","feedback_trial","2","","","","","","","","","","","","","","","","","","","","",""
"","","","","","image-keyboard-response","223","1052391","0.0-171.0","62a9513ae9305607fd5af01a","665500ab8938657b03fbdba8","6657935b84cedbe2cba480ee","1864","stimuli/2110111.jpg","1","","prediction_trial","2","","false","","2","false","false","true","true","false","false","[2]","110","111","0","","","","","","",""
"","","","","","image-keyboard-response","224","1053932","0.0-172.0","62a9513ae9305607fd5af01a","665500ab8938657b03fbdba8","6657935b84cedbe2cba480ee","1535","stimuli/21101112.jpg"," ","","feedback_trial","2","","","","","","","","","","","","","","","","","","","","",""
"","","","","","image-keyboard-response","225","1060176","0.0-173.0","62a9513ae9305607fd5af01a","665500ab8938657b03fbdba8","6657935b84cedbe2cba480ee","6240","stimuli/0010010.jpg","0","","prediction_trial","0","","true","","0","true","true","true","true","true","true","[0]","010","010","1","","","","","","",""
"","","","","","image-keyboard-response","226","1062898","0.0-174.0","62a9513ae9305607fd5af01a","665500ab8938657b03fbdba8","6657935b84cedbe2cba480ee","2719","stimuli/00100100.jpg"," ","","feedback_trial","0","","","","","","","","","","","","","","","","","","","","",""
"","","","","","image-keyboard-response","227","1063799","0.0-175.0","62a9513ae9305607fd5af01a","665500ab8938657b03fbdba8","6657935b84cedbe2cba480ee","897","stimuli/1001011.jpg","1","","prediction_trial","1","","true","","1","false","false","true","true","false","false","[1]","001","011","1","","","","","","",""
"","","","","","image-keyboard-response","228","1065003","0.0-176.0","62a9513ae9305607fd5af01a","665500ab8938657b03fbdba8","6657935b84cedbe2cba480ee","1201","stimuli/10010111.jpg"," ","","feedback_trial","1","","","","","","","","","","","","","","","","","","","","",""
"","","","","","image-keyboard-response","229","1066983","0.0-177.0","62a9513ae9305607fd5af01a","665500ab8938657b03fbdba8","6657935b84cedbe2cba480ee","1975","stimuli/2011001.jpg","2","","prediction_trial","1","","false","","2","false","true","false","false","false","false","[1,2]","011","001","0","","","","","","",""
"","","","","","image-keyboard-response","230","1068119","0.0-178.0","62a9513ae9305607fd5af01a","665500ab8938657b03fbdba8","6657935b84cedbe2cba480ee","1133","stimuli/20110011.jpg"," ","","feedback_trial","1","","","","","","","","","","","","","","","","","","","","",""
"","","","","","image-keyboard-response","231","1068941","0.0-179.0","62a9513ae9305607fd5af01a","665500ab8938657b03fbdba8","6657935b84cedbe2cba480ee","819","stimuli/1000010.jpg","1","","prediction_trial","1","","true","","1","false","true","true","true","false","true","[1]","000","010","1","","","","","","",""
"","","","","","image-keyboard-response","232","1069661","0.0-180.0","62a9513ae9305607fd5af01a","665500ab8938657b03fbdba8","6657935b84cedbe2cba480ee","716","stimuli/10000101.jpg"," ","","feedback_trial","1","","","","","","","","","","","","","","","","","","","","",""
"","","","","","image-keyboard-response","233","1071021","0.0-181.0","62a9513ae9305607fd5af01a","665500ab8938657b03fbdba8","6657935b84cedbe2cba480ee","1357","stimuli/0011011.jpg","0","","prediction_trial","0","","true","","0","true","true","true","true","true","true","[0]","011","011","1","","","","","","",""
"","","","","","image-keyboard-response","234","1071628","0.0-182.0","62a9513ae9305607fd5af01a","665500ab8938657b03fbdba8","6657935b84cedbe2cba480ee","604","stimuli/00110110.jpg"," ","","feedback_trial","0","","","","","","","","","","","","","","","","","","","","",""
"","","","","","image-keyboard-response","235","1073103","0.0-183.0","62a9513ae9305607fd5af01a","665500ab8938657b03fbdba8","6657935b84cedbe2cba480ee","1472","stimuli/2011111.jpg","1","","prediction_trial","2","","false","","2","false","false","false","false","false","false","[2,1]","011","111","0","","","","","","",""
"","","","","","image-keyboard-response","236","1074205","0.0-184.0","62a9513ae9305607fd5af01a","665500ab8938657b03fbdba8","6657935b84cedbe2cba480ee","1099","stimuli/20111112.jpg"," ","","feedback_trial","2","","","","","","","","","","","","","","","","","","","","",""
"","","","","","image-keyboard-response","237","1075263","0.0-185.0","62a9513ae9305607fd5af01a","665500ab8938657b03fbdba8","6657935b84cedbe2cba480ee","1054","stimuli/2000011.jpg","1","","prediction_trial","2","","false","","2","false","false","true","true","false","false","[2]","000","011","0","","","","","","",""
"","","","","","image-keyboard-response","238","1075993","0.0-186.0","62a9513ae9305607fd5af01a","665500ab8938657b03fbdba8","6657935b84cedbe2cba480ee","728","stimuli/20000112.jpg"," ","","feedback_trial","2","","","","","","","","","","","","","","","","","","","","",""
"","","","","","image-keyboard-response","239","1076669","0.0-187.0","62a9513ae9305607fd5af01a","665500ab8938657b03fbdba8","6657935b84cedbe2cba480ee","671","stimuli/0001001.jpg","0","","prediction_trial","0","","true","","0","true","true","true","true","true","true","[0]","001","001","1","","","","","","",""
"","","","","","image-keyboard-response","240","1077760","0.0-188.0","62a9513ae9305607fd5af01a","665500ab8938657b03fbdba8","6657935b84cedbe2cba480ee","1088","stimuli/00010010.jpg"," ","","feedback_trial","0","","","","","","","","","","","","","","","","","","","","",""
"","","","","","image-keyboard-response","241","1079268","0.0-189.0","62a9513ae9305607fd5af01a","665500ab8938657b03fbdba8","6657935b84cedbe2cba480ee","1505","stimuli/2011110.jpg","2","","prediction_trial","1","","false","","2","true","true","false","false","false","false","[1,2]","011","110","0","","","","","","",""
"","","","","","image-keyboard-response","242","1079943","0.0-190.0","62a9513ae9305607fd5af01a","665500ab8938657b03fbdba8","6657935b84cedbe2cba480ee","672","stimuli/20111101.jpg"," ","","feedback_trial","1","","","","","","","","","","","","","","","","","","","","",""
"","","","","","image-keyboard-response","243","1081215","0.0-191.0","62a9513ae9305607fd5af01a","665500ab8938657b03fbdba8","6657935b84cedbe2cba480ee","1268","stimuli/0101000.jpg","0","","prediction_trial","0","","true","","0","true","true","false","false","false","false","[0,2]","101","000","1","","","","","","",""
"","","","","","image-keyboard-response","244","1082081","0.0-192.0","62a9513ae9305607fd5af01a","665500ab8938657b03fbdba8","6657935b84cedbe2cba480ee","861","stimuli/01010000.jpg"," ","","feedback_trial","0","","","","","","","","","","","","","","","","","","","","",""
"","","","","","image-keyboard-response","245","1083690","0.0-193.0","62a9513ae9305607fd5af01a","665500ab8938657b03fbdba8","6657935b84cedbe2cba480ee","1605","stimuli/1001010.jpg","1","","prediction_trial","1","","true","","1","false","true","true","true","false","true","[1]","001","010","1","","","","","","",""
"","","","","","image-keyboard-response","246","1085265","0.0-194.0","62a9513ae9305607fd5af01a","665500ab8938657b03fbdba8","6657935b84cedbe2cba480ee","1572","stimuli/10010101.jpg"," ","","feedback_trial","1","","","","","","","","","","","","","","","","","","","","",""
"","","","","","image-keyboard-response","247","1086570","0.0-195.0","62a9513ae9305607fd5af01a","665500ab8938657b03fbdba8","6657935b84cedbe2cba480ee","1301","stimuli/1011110.jpg","2","","prediction_trial","2","","true","","1","false","false","false","false","false","false","[2,1]","011","110","1","","","","","","",""
"","","","","","image-keyboard-response","248","1087391","0.0-196.0","62a9513ae9305607fd5af01a","665500ab8938657b03fbdba8","6657935b84cedbe2cba480ee","816","stimuli/10111102.jpg"," ","","feedback_trial","2","","","","","","","","","","","","","","","","","","","","",""
"","","","","","image-keyboard-response","249","1090350","0.0-197.0","62a9513ae9305607fd5af01a","665500ab8938657b03fbdba8","6657935b84cedbe2cba480ee","2955","stimuli/0100111.jpg","1","","prediction_trial","0","","false","","0","false","false","false","true","false","false","[0]","100","111","0","","","","","","",""
"","","","","","image-keyboard-response","250","1091013","0.0-198.0","62a9513ae9305607fd5af01a","665500ab8938657b03fbdba8","6657935b84cedbe2cba480ee","660","stimuli/01001110.jpg"," ","","feedback_trial","0","","","","","","","","","","","","","","","","","","","","",""
"","","","","","image-keyboard-response","251","1092915","0.0-199.0","62a9513ae9305607fd5af01a","665500ab8938657b03fbdba8","6657935b84cedbe2cba480ee","1898","stimuli/0110101.jpg","2","","prediction_trial","0","","false","","0","false","false","false","false","false","false","[1,0]","110","101","0","","","","","","",""
"","","","","","image-keyboard-response","252","1093758","0.0-200.0","62a9513ae9305607fd5af01a","665500ab8938657b03fbdba8","6657935b84cedbe2cba480ee","840","stimuli/01101010.jpg"," ","","feedback_trial","1","","","","","","","","","","","","","","","","","","","","",""
"","","","","","image-keyboard-response","253","1096132","0.0-201.0","62a9513ae9305607fd5af01a","665500ab8938657b03fbdba8","6657935b84cedbe2cba480ee","2370","stimuli/2110100.jpg","0","","prediction_trial","2","","false","","2","true","true","true","true","true","true","[2]","110","100","0","","","","","","",""
"","","","","","image-keyboard-response","254","1097853","0.0-202.0","62a9513ae9305607fd5af01a","665500ab8938657b03fbdba8","6657935b84cedbe2cba480ee","1717","stimuli/21101002.jpg"," ","","feedback_trial","2","","","","","","","","","","","","","","","","","","","","",""
"","","","","","image-keyboard-response","255","1100070","0.0-203.0","62a9513ae9305607fd5af01a","665500ab8938657b03fbdba8","6657935b84cedbe2cba480ee","2214","stimuli/1111110.jpg","1","","prediction_trial","0","","false","","1","false","false","false","false","false","false","[1,2,0]","111","110","0","","","","","","",""
"","","","","","image-keyboard-response","256","1101184","0.0-204.0","62a9513ae9305607fd5af01a","665500ab8938657b03fbdba8","6657935b84cedbe2cba480ee","1110","stimuli/11111100.jpg"," ","","feedback_trial","1","","","","","","","","","","","","","","","","","","","","",""
"","","","","","image-keyboard-response","257","1101926","0.0-205.0","62a9513ae9305607fd5af01a","665500ab8938657b03fbdba8","6657935b84cedbe2cba480ee","739","stimuli/0010000.jpg","1","","prediction_trial","0","","false","","0","true","true","true","true","true","true","[0]","010","000","0","","","","","","",""
"","","","","","image-keyboard-response","258","1102747","0.0-206.0","62a9513ae9305607fd5af01a","665500ab8938657b03fbdba8","6657935b84cedbe2cba480ee","817","stimuli/00100000.jpg"," ","","feedback_trial","0","","","","","","","","","","","","","","","","","","","","",""
"","","","","","image-keyboard-response","259","1103535","0.0-207.0","62a9513ae9305607fd5af01a","665500ab8938657b03fbdba8","6657935b84cedbe2cba480ee","783","stimuli/2101101.jpg","2","","prediction_trial","0","","false","","2","false","false","false","false","false","false","[0,2]","101","101","0","","","","","","",""
"","","","","","image-keyboard-response","260","1104694","0.0-208.0","62a9513ae9305607fd5af01a","665500ab8938657b03fbdba8","6657935b84cedbe2cba480ee","1155","stimuli/21011010.jpg"," ","","feedback_trial","0","","","","","","","","","","","","","","","","","","","","",""
"","","","","","image-keyboard-response","261","1105302","0.0-209.0","62a9513ae9305607fd5af01a","665500ab8938657b03fbdba8","6657935b84cedbe2cba480ee","605","stimuli/1000101.jpg","1","","prediction_trial","1","","true","","1","true","true","true","true","true","true","[1]","000","101","1","","","","","","",""
"","","","","","image-keyboard-response","262","1106359","0.0-210.0","62a9513ae9305607fd5af01a","665500ab8938657b03fbdba8","6657935b84cedbe2cba480ee","1054","stimuli/10001011.jpg"," ","","feedback_trial","1","","","","","","","","","","","","","","","","","","","","",""
"","","","","","image-keyboard-response","263","1107237","0.0-211.0","62a9513ae9305607fd5af01a","665500ab8938657b03fbdba8","6657935b84cedbe2cba480ee","875","stimuli/0101110.jpg","1","","prediction_trial","0","","false","","0","false","false","false","false","false","false","[2,0]","101","110","0","","","","","","",""
"","","","","","image-keyboard-response","264","1108181","0.0-212.0","62a9513ae9305607fd5af01a","665500ab8938657b03fbdba8","6657935b84cedbe2cba480ee","940","stimuli/01011100.jpg"," ","","feedback_trial","2","","","","","","","","","","","","","","","","","","","","",""
"","","","","","image-keyboard-response","265","1109824","0.0-213.0","62a9513ae9305607fd5af01a","665500ab8938657b03fbdba8","6657935b84cedbe2cba480ee","1639","stimuli/2101001.jpg","2","","prediction_trial","2","","true","","2","false","true","false","false","false","false","[0,2]","101","001","1","","","","","","",""
"","","","","","image-keyboard-response","266","1110678","0.0-214.0","62a9513ae9305607fd5af01a","665500ab8938657b03fbdba8","6657935b84cedbe2cba480ee","851","stimuli/21010012.jpg"," ","","feedback_trial","0","","","","","","","","","","","","","","","","","","","","",""
"","","","","","image-keyboard-response","267","1111692","0.0-215.0","62a9513ae9305607fd5af01a","665500ab8938657b03fbdba8","6657935b84cedbe2cba480ee","1009","stimuli/1010100.jpg","2","","prediction_trial","1","","false","","1","true","true","false","true","false","true","[1]","010","100","0","","","","","","",""
"","","","","","image-keyboard-response","268","1112581","0.0-216.0","62a9513ae9305607fd5af01a","665500ab8938657b03fbdba8","6657935b84cedbe2cba480ee","885","stimuli/10101001.jpg"," ","","feedback_trial","1","","","","","","","","","","","","","","","","","","","","",""
"","","","","","image-keyboard-response","269","1113322","0.0-217.0","62a9513ae9305607fd5af01a","665500ab8938657b03fbdba8","6657935b84cedbe2cba480ee","737","stimuli/2000110.jpg","2","","prediction_trial","2","","true","","2","true","true","true","true","true","true","[2]","000","110","1","","","","","","",""
"","","","","","image-keyboard-response","270","1114291","0.0-218.0","62a9513ae9305607fd5af01a","665500ab8938657b03fbdba8","6657935b84cedbe2cba480ee","965","stimuli/20001102.jpg"," ","","feedback_trial","2","","","","","","","","","","","","","","","","","","","","",""
"","","","","","image-keyboard-response","271","1115270","0.0-219.0","62a9513ae9305607fd5af01a","665500ab8938657b03fbdba8","6657935b84cedbe2cba480ee","974","stimuli/1111111.jpg","0","","prediction_trial","2","","false","","1","false","false","false","false","false","false","[1,2,0]","111","111","0","","","","","","",""
"","","","","","image-keyboard-response","272","1116293","0.0-220.0","62a9513ae9305607fd5af01a","665500ab8938657b03fbdba8","6657935b84cedbe2cba480ee","1021","stimuli/11111112.jpg"," ","","feedback_trial","1","","","","","","","","","","","","","","","","","","","","",""
"","","","","","image-keyboard-response","273","1117509","0.0-221.0","62a9513ae9305607fd5af01a","665500ab8938657b03fbdba8","6657935b84cedbe2cba480ee","1212","stimuli/1000100.jpg","2","","prediction_trial","1","","false","","1","true","true","true","true","true","true","[1]","000","100","0","","","","","","",""
"","","","","","image-keyboard-response","274","1118520","0.0-222.0","62a9513ae9305607fd5af01a","665500ab8938657b03fbdba8","6657935b84cedbe2cba480ee","1009","stimuli/10001001.jpg"," ","","feedback_trial","1","","","","","","","","","","","","","","","","","","","","",""
"","","","","","image-keyboard-response","275","1119195","0.0-223.0","62a9513ae9305607fd5af01a","665500ab8938657b03fbdba8","6657935b84cedbe2cba480ee","671","stimuli/1101011.jpg","1","","prediction_trial","1","","true","","1","false","false","true","true","false","false","[1]","101","011","1","","","","","","",""
"","","","","","image-keyboard-response","276","1120310","0.0-224.0","62a9513ae9305607fd5af01a","665500ab8938657b03fbdba8","6657935b84cedbe2cba480ee","1109","stimuli/11010111.jpg"," ","","feedback_trial","1","","","","","","","","","","","","","","","","","","","","",""
"","","","","","image-keyboard-response","277","1121197","0.0-225.0","62a9513ae9305607fd5af01a","665500ab8938657b03fbdba8","6657935b84cedbe2cba480ee","884","stimuli/0111001.jpg","0","","prediction_trial","1","","false","","0","true","true","false","false","false","false","[0,1,2]","111","001","0","","","","","","",""
"","","","","","image-keyboard-response","278","1122852","0.0-226.0","62a9513ae9305607fd5af01a","665500ab8938657b03fbdba8","6657935b84cedbe2cba480ee","1650","stimuli/01110011.jpg"," ","","feedback_trial","0","","","","","","","","","","","","","","","","","","","","",""
"","","","","","image-keyboard-response","279","1124438","0.0-227.0","62a9513ae9305607fd5af01a","665500ab8938657b03fbdba8","6657935b84cedbe2cba480ee","1582","stimuli/1011100.jpg","1","","prediction_trial","1","","true","","1","true","true","false","false","false","false","[1,2]","011","100","1","","","","","","",""
"","","","","","image-keyboard-response","280","1125417","0.0-228.0","62a9513ae9305607fd5af01a","665500ab8938657b03fbdba8","6657935b84cedbe2cba480ee","976","stimuli/10111001.jpg"," ","","feedback_trial","1","","","","","","","","","","","","","","","","","","","","",""
"","","","","","image-keyboard-response","281","1126542","0.0-229.0","62a9513ae9305607fd5af01a","665500ab8938657b03fbdba8","6657935b84cedbe2cba480ee","1122","stimuli/1101000.jpg","1","","prediction_trial","1","","true","","1","true","true","true","true","true","true","[1]","101","000","1","","","","","","",""
"","","","","","image-keyboard-response","282","1127375","0.0-230.0","62a9513ae9305607fd5af01a","665500ab8938657b03fbdba8","6657935b84cedbe2cba480ee","829","stimuli/11010001.jpg"," ","","feedback_trial","1","","","","","","","","","","","","","","","","","","","","",""
"","","","","","image-keyboard-response","283","1129445","0.0-231.0","62a9513ae9305607fd5af01a","665500ab8938657b03fbdba8","6657935b84cedbe2cba480ee","2066","stimuli/1000011.jpg","2","","prediction_trial","1","","false","","1","false","false","true","true","false","false","[1]","000","011","0","","","","","","",""
"","","","","","image-keyboard-response","284","1130231","0.0-232.0","62a9513ae9305607fd5af01a","665500ab8938657b03fbdba8","6657935b84cedbe2cba480ee","784","stimuli/10000111.jpg"," ","","feedback_trial","1","","","","","","","","","","","","","","","","","","","","",""
"","","","","","image-keyboard-response","285","1132662","0.0-233.0","62a9513ae9305607fd5af01a","665500ab8938657b03fbdba8","6657935b84cedbe2cba480ee","2427","stimuli/2101110.jpg","2","","prediction_trial","2","","true","","2","true","true","false","false","false","false","[2,0]","101","110","1","","","","","","",""
"","","","","","image-keyboard-response","286","1133437","0.0-234.0","62a9513ae9305607fd5af01a","665500ab8938657b03fbdba8","6657935b84cedbe2cba480ee","772","stimuli/21011102.jpg"," ","","feedback_trial","2","","","","","","","","","","","","","","","","","","","","",""
"","","","","","image-keyboard-response","287","1136172","0.0-235.0","62a9513ae9305607fd5af01a","665500ab8938657b03fbdba8","6657935b84cedbe2cba480ee","2731","stimuli/2100000.jpg","2","","prediction_trial","2","","true","","2","true","true","true","true","true","true","[2]","100","000","1","","","","","","",""
"","","","","","image-keyboard-response","288","1137443","0.0-236.0","62a9513ae9305607fd5af01a","665500ab8938657b03fbdba8","6657935b84cedbe2cba480ee","1268","stimuli/21000002.jpg"," ","","feedback_trial","2","","","","","","","","","","","","","","","","","","","","",""
"","","","","","image-keyboard-response","289","1138489","0.0-237.0","62a9513ae9305607fd5af01a","665500ab8938657b03fbdba8","6657935b84cedbe2cba480ee","1044","stimuli/2001110.jpg","2","","prediction_trial","2","","true","","2","true","true","false","true","false","true","[2]","001","110","1","","","","","","",""
"","","","","","image-keyboard-response","290","1139447","0.0-238.0","62a9513ae9305607fd5af01a","665500ab8938657b03fbdba8","6657935b84cedbe2cba480ee","954","stimuli/20011102.jpg"," ","","feedback_trial","2","","","","","","","","","","","","","","","","","","","","",""
"","","","","","image-keyboard-response","291","1140673","0.0-239.0","62a9513ae9305607fd5af01a","665500ab8938657b03fbdba8","6657935b84cedbe2cba480ee","1221","stimuli/1011000.jpg","0","","prediction_trial","2","","false","","1","true","true","false","false","false","false","[2,1]","011","000","0","","","","","","",""
"","","","","","image-keyboard-response","292","1141932","0.0-240.0","62a9513ae9305607fd5af01a","665500ab8938657b03fbdba8","6657935b84cedbe2cba480ee","1256","stimuli/10110002.jpg"," ","","feedback_trial","2","","","","","","","","","","","","","","","","","","","","",""
"","","","","","image-keyboard-response","293","1143092","0.0-241.0","62a9513ae9305607fd5af01a","665500ab8938657b03fbdba8","6657935b84cedbe2cba480ee","1157","stimuli/2010101.jpg","1","","prediction_trial","2","","false","","2","false","false","true","true","false","false","[2]","010","101","0","","","","","","",""
"","","","","","image-keyboard-response","294","1143778","0.0-242.0","62a9513ae9305607fd5af01a","665500ab8938657b03fbdba8","6657935b84cedbe2cba480ee","681","stimuli/20101012.jpg"," ","","feedback_trial","2","","","","","","","","","","","","","","","","","","","","",""
"","","","","","image-keyboard-response","295","1144474","0.0-243.0","62a9513ae9305607fd5af01a","665500ab8938657b03fbdba8","6657935b84cedbe2cba480ee","693","stimuli/1100111.jpg","0","","prediction_trial","1","","false","","1","false","false","true","true","false","false","[1]","100","111","0","","","","","","",""
"","","","","","image-keyboard-response","296","1145150","0.0-244.0","62a9513ae9305607fd5af01a","665500ab8938657b03fbdba8","6657935b84cedbe2cba480ee","672","stimuli/11001111.jpg"," ","","feedback_trial","1","","","","","","","","","","","","","","","","","","","","",""
"","","","","","image-keyboard-response","297","1146354","0.0-245.0","62a9513ae9305607fd5af01a","665500ab8938657b03fbdba8","6657935b84cedbe2cba480ee","1200","stimuli/0111000.jpg","0","","prediction_trial","0","","true","","0","true","true","false","false","false","false","[1,2,0]","111","000","1","","","","","","",""
"","","","","","image-keyboard-response","298","1147355","0.0-246.0","62a9513ae9305607fd5af01a","665500ab8938657b03fbdba8","6657935b84cedbe2cba480ee","997","stimuli/01110000.jpg"," ","","feedback_trial","1","","","","","","","","","","","","","","","","","","","","",""
"","","","","","image-keyboard-response","299","1148537","0.0-247.0","62a9513ae9305607fd5af01a","665500ab8938657b03fbdba8","6657935b84cedbe2cba480ee","1177","stimuli/0101111.jpg","1","","prediction_trial","0","","false","","0","false","false","false","false","false","false","[0,2]","101","111","0","","","","","","",""
"","","","","","image-keyboard-response","300","1149211","0.0-248.0","62a9513ae9305607fd5af01a","665500ab8938657b03fbdba8","6657935b84cedbe2cba480ee","671","stimuli/01011110.jpg"," ","","feedback_trial","0","","","","","","","","","","","","","","","","","","","","",""
"","","","","","image-keyboard-response","301","1149898","0.0-249.0","62a9513ae9305607fd5af01a","665500ab8938657b03fbdba8","6657935b84cedbe2cba480ee","683","stimuli/2110010.jpg","2","","prediction_trial","2","","true","","2","true","true","true","true","true","true","[2]","110","010","1","","","","","","",""
"","","","","","image-keyboard-response","302","1150821","0.0-250.0","62a9513ae9305607fd5af01a","665500ab8938657b03fbdba8","6657935b84cedbe2cba480ee","919","stimuli/21100102.jpg"," ","","feedback_trial","2","","","","","","","","","","","","","","","","","","","","",""
"","","","","","image-keyboard-response","303","1151641","0.0-251.0","62a9513ae9305607fd5af01a","665500ab8938657b03fbdba8","6657935b84cedbe2cba480ee","817","stimuli/0100001.jpg","0","","prediction_trial","0","","true","","0","true","true","false","true","false","true","[0]","100","001","1","","","","","","",""
"","","","","","image-keyboard-response","304","1152811","0.0-252.0","62a9513ae9305607fd5af01a","665500ab8938657b03fbdba8","6657935b84cedbe2cba480ee","1167","stimuli/01000010.jpg"," ","","feedback_trial","0","","","","","","","","","","","","","","","","","","","","",""
"","","","","","image-keyboard-response","305","1153790","0.0-253.0","62a9513ae9305607fd5af01a","665500ab8938657b03fbdba8","6657935b84cedbe2cba480ee","975","stimuli/0001111.jpg","2","","prediction_trial","0","","false","","0","false","false","true","true","false","false","[0]","001","111","0","","","","","","",""
"","","","","","image-keyboard-response","306","1154970","0.0-254.0","62a9513ae9305607fd5af01a","665500ab8938657b03fbdba8","6657935b84cedbe2cba480ee","1177","stimuli/00011110.jpg"," ","","feedback_trial","0","","","","","","","","","","","","","","","","","","","","",""
"","","","","","image-keyboard-response","307","1156231","0.0-255.0","62a9513ae9305607fd5af01a","665500ab8938657b03fbdba8","6657935b84cedbe2cba480ee","1256","stimuli/2001100.jpg","2","","prediction_trial","2","","true","","2","true","true","false","true","false","true","[2]","001","100","1","","","","","","",""
"","","","","","image-keyboard-response","308","1157120","0.0-256.0","62a9513ae9305607fd5af01a","665500ab8938657b03fbdba8","6657935b84cedbe2cba480ee","886","stimuli/20011002.jpg"," ","","feedback_trial","2","","","","","","","","","","","","","","","","","","","","",""
