"success","timeout","failed_images","failed_audio","failed_video","trial_type","trial_index","time_elapsed","internal_node_id","prolific_id","prolific_study_id","prolific_session_id","rt","stimulus","response","view_history","trial","character_choice","stimulus_dict","accuracy","correct_response","ball_pos","ego_ball_visible","ego_can_infer","alter_ball_visible","alter_can_infer","collective_ball_visible","collective_can_infer","search_locations","alter_occluders","ego_occluders","accuracy_bool","feedback","age","ethnicity","gender","race","overall_accuracy","bonus"
"true","false","[]","[]","[]","preload","0","4916","0.0-0.0","55ced0d234e9060012e5677c","665500ab8938657b03fbdba8","66577be492ec5e2c1d517f18","","","","","","","","","","","","","","","","","","","","","","","","","","",""
"true","","","","","fullscreen","1","7882","0.0-1.0","55ced0d234e9060012e5677c","665500ab8938657b03fbdba8","66577be492ec5e2c1d517f18","","","","","","","","","","","","","","","","","","","","","","","","","","",""
"","","","","","html-button-response","2","21354","0.0-2.0","55ced0d234e9060012e5677c","665500ab8938657b03fbdba8","66577be492ec5e2c1d517f18","13466","<p><b>Consent Form</b></p> <div style=""text-align:left;background-color:lightgrey; padding:20px; max-width:900px;""><p>Please consider this information carefully before deciding whether to participate in this research.</p> <p>The purpose of this research is to examine which factors influence social judgment and decision-making. You will be asked to make judgements about individuals and actions in social scenarios. We are simply interested in your judgement. The study will take less than 1 hour to complete, and you will receive less than $20 on Prolific. Your compensation and time commitment are specified in the study description. There are no anticipated risks associated with participating in this study. The effects of participating should be comparable to those you would ordinarily experience from viewing a computer monitor and using a mouse or keyboard for a similar amount of time. At the end of the study, we will provide an explanation of the questions that motivate this line of research and will describe the potential implications. </p><p> Your participation in this study is completely voluntary and you may refuse to participate or you may choose to withdraw at any time without penalty or loss of benefits to you which are otherwise entitled. Your participation in this study will remain confidential. No personally identifiable information will be associated with your data. Also, all analyses of the data will be averaged across all the participants, so your individual responses will never be specifically analyzed. </p><p> If you have questions or concerns about your participation or payment, or want to request a summary of research findings, please contact Dr. Jonathan Phillips at Jonathan.S.Phillips@dartmouth.edu. </p><p> Please save a copy of this form for your records. </p><p><b>Agreement: </b>The nature and purpose of this research have been sufficiently explained and I agree to participate in this study. I understand that I am free to withdraw at any time without incurring any penalty. Please consent by clicking the button below to continue. Otherwise, please exit the study at any time. </p>","0","","","","","","","","","","","","","","","","","","","","","","","",""
"","","","","","instructions","3","73834","0.0-3.0-0.0","55ced0d234e9060012e5677c","665500ab8938657b03fbdba8","66577be492ec5e2c1d517f18","52476","","","[{""page_index"":0,""viewing_time"":1662},{""page_index"":1,""viewing_time"":2326},{""page_index"":2,""viewing_time"":1801},{""page_index"":3,""viewing_time"":3802},{""page_index"":4,""viewing_time"":3543},{""page_index"":5,""viewing_time"":2729},{""page_index"":6,""viewing_time"":3303},{""page_index"":7,""viewing_time"":2676},{""page_index"":8,""viewing_time"":3817},{""page_index"":9,""viewing_time"":2281},{""page_index"":10,""viewing_time"":9932},{""page_index"":11,""viewing_time"":6962},{""page_index"":12,""viewing_time"":6345},{""page_index"":13,""viewing_time"":1297}]","intro","","","","","","","","","","","","","","","","","","","","","",""
"","","","","","image-keyboard-response","4","75518","0.0-3.0-1.0","55ced0d234e9060012e5677c","665500ab8938657b03fbdba8","66577be492ec5e2c1d517f18","1671","stimuli/0000101.jpg","2","","prediction_practice","0","{""filepath"":""stimuli/0000101.jpg"",""ball_pos"":0,""ego_ball_visible"":false,""ego_can_infer"":false,""alter_ball_visible"":true,""alter_can_infer"":true,""collective_ball_visible"":false,""collective_can_infer"":false,""search_locations"":[0],""alter_occluders"":""000"",""ego_occluders"":""101""}","false","","","","","","","","","","","","","","","","","","",""
"","","","","","image-keyboard-response","5","77165","0.0-3.0-2.0","55ced0d234e9060012e5677c","665500ab8938657b03fbdba8","66577be492ec5e2c1d517f18","1642","stimuli/00001010.jpg"," ","","practrice_feedback","0","","","","","","","","","","","","","","","","","","","","",""
"","","","","","image-keyboard-response","6","79634","0.0-3.0-3.0","55ced0d234e9060012e5677c","665500ab8938657b03fbdba8","66577be492ec5e2c1d517f18","2464","stimuli/2110000.jpg","2","","prediction_practice","2","{""filepath"":""stimuli/2110000.jpg"",""ball_pos"":2,""ego_ball_visible"":true,""ego_can_infer"":true,""alter_ball_visible"":true,""alter_can_infer"":true,""collective_ball_visible"":true,""collective_can_infer"":true,""search_locations"":[2],""alter_occluders"":""110"",""ego_occluders"":""000""}","true","","","","","","","","","","","","","","","","","","",""
"","","","","","image-keyboard-response","7","80960","0.0-3.0-4.0","55ced0d234e9060012e5677c","665500ab8938657b03fbdba8","66577be492ec5e2c1d517f18","1323","stimuli/21100002.jpg"," ","","practrice_feedback","2","","","","","","","","","","","","","","","","","","","","",""
"","","","","","image-keyboard-response","8","85225","0.0-3.0-5.0","55ced0d234e9060012e5677c","665500ab8938657b03fbdba8","66577be492ec5e2c1d517f18","4262","stimuli/1100110.jpg","1","","prediction_practice","1","{""filepath"":""stimuli/1100110.jpg"",""ball_pos"":1,""ego_ball_visible"":false,""ego_can_infer"":false,""alter_ball_visible"":true,""alter_can_infer"":true,""collective_ball_visible"":false,""collective_can_infer"":false,""search_locations"":[1],""alter_occluders"":""100"",""ego_occluders"":""110""}","true","","","","","","","","","","","","","","","","","","",""
"","","","","","image-keyboard-response","9","86574","0.0-3.0-6.0","55ced0d234e9060012e5677c","665500ab8938657b03fbdba8","66577be492ec5e2c1d517f18","1345","stimuli/11001101.jpg"," ","","practrice_feedback","1","","","","","","","","","","","","","","","","","","","","",""
"","","","","","image-keyboard-response","10","87932","0.0-3.0-7.0","55ced0d234e9060012e5677c","665500ab8938657b03fbdba8","66577be492ec5e2c1d517f18","1354","stimuli/1000001.jpg","1","","prediction_practice","1","{""filepath"":""stimuli/1000001.jpg"",""ball_pos"":1,""ego_ball_visible"":true,""ego_can_infer"":true,""alter_ball_visible"":true,""alter_can_infer"":true,""collective_ball_visible"":true,""collective_can_infer"":true,""search_locations"":[1],""alter_occluders"":""000"",""ego_occluders"":""001""}","true","","","","","","","","","","","","","","","","","","",""
"","","","","","image-keyboard-response","11","88488","0.0-3.0-8.0","55ced0d234e9060012e5677c","665500ab8938657b03fbdba8","66577be492ec5e2c1d517f18","553","stimuli/10000011.jpg"," ","","practrice_feedback","1","","","","","","","","","","","","","","","","","","","","",""
"","","","","","image-keyboard-response","12","90873","0.0-3.0-9.0","55ced0d234e9060012e5677c","665500ab8938657b03fbdba8","66577be492ec5e2c1d517f18","2381","stimuli/0110100.jpg","0","","prediction_practice","0","{""filepath"":""stimuli/0110100.jpg"",""ball_pos"":0,""ego_ball_visible"":false,""ego_can_infer"":true,""alter_ball_visible"":false,""alter_can_infer"":false,""collective_ball_visible"":false,""collective_can_infer"":false,""search_locations"":[0,1],""alter_occluders"":""110"",""ego_occluders"":""100""}","true","","","","","","","","","","","","","","","","","","",""
"","","","","","image-keyboard-response","13","91734","0.0-3.0-10.0","55ced0d234e9060012e5677c","665500ab8938657b03fbdba8","66577be492ec5e2c1d517f18","858","stimuli/01101000.jpg"," ","","practrice_feedback","0","","","","","","","","","","","","","","","","","","","","",""
"","","","","","image-keyboard-response","14","98048","0.0-3.0-11.0","55ced0d234e9060012e5677c","665500ab8938657b03fbdba8","66577be492ec5e2c1d517f18","6287","stimuli/2010001.jpg","2","","prediction_practice","2","{""filepath"":""stimuli/2010001.jpg"",""ball_pos"":2,""ego_ball_visible"":false,""ego_can_infer"":true,""alter_ball_visible"":true,""alter_can_infer"":true,""collective_ball_visible"":false,""collective_can_infer"":true,""search_locations"":[2],""alter_occluders"":""010"",""ego_occluders"":""001""}","true","","","","","","","","","","","","","","","","","","",""
"","","","","","image-keyboard-response","15","98455","0.0-3.0-12.0","55ced0d234e9060012e5677c","665500ab8938657b03fbdba8","66577be492ec5e2c1d517f18","404","stimuli/20100012.jpg"," ","","practrice_feedback","2","","","","","","","","","","","","","","","","","","","","",""
"","","","","","image-keyboard-response","16","100539","0.0-3.0-13.0","55ced0d234e9060012e5677c","665500ab8938657b03fbdba8","66577be492ec5e2c1d517f18","2081","stimuli/0111110.jpg","0","","prediction_practice","1","{""filepath"":""stimuli/0111110.jpg"",""ball_pos"":0,""ego_ball_visible"":false,""ego_can_infer"":false,""alter_ball_visible"":false,""alter_can_infer"":false,""collective_ball_visible"":false,""collective_can_infer"":false,""search_locations"":[1,2,0],""alter_occluders"":""111"",""ego_occluders"":""110""}","false","","","","","","","","","","","","","","","","","","",""
"","","","","","image-keyboard-response","17","101819","0.0-3.0-14.0","55ced0d234e9060012e5677c","665500ab8938657b03fbdba8","66577be492ec5e2c1d517f18","1277","stimuli/01111101.jpg"," ","","practrice_feedback","1","","","","","","","","","","","","","","","","","","","","",""
"","","","","","image-keyboard-response","18","106899","0.0-3.0-15.0","55ced0d234e9060012e5677c","665500ab8938657b03fbdba8","66577be492ec5e2c1d517f18","5078","stimuli/1011110.jpg","0","","prediction_practice","1","{""filepath"":""stimuli/1011110.jpg"",""ball_pos"":1,""ego_ball_visible"":false,""ego_can_infer"":false,""alter_ball_visible"":false,""alter_can_infer"":false,""collective_ball_visible"":false,""collective_can_infer"":false,""search_locations"":[1,2],""alter_occluders"":""011"",""ego_occluders"":""110""}","false","","","","","","","","","","","","","","","","","","",""
"","","","","","image-keyboard-response","19","107961","0.0-3.0-16.0","55ced0d234e9060012e5677c","665500ab8938657b03fbdba8","66577be492ec5e2c1d517f18","1060","stimuli/10111101.jpg"," ","","practrice_feedback","1","","","","","","","","","","","","","","","","","","","","",""
"","","","","","image-keyboard-response","20","110058","0.0-3.0-17.0","55ced0d234e9060012e5677c","665500ab8938657b03fbdba8","66577be492ec5e2c1d517f18","2093","stimuli/2010101.jpg","2","","prediction_practice","2","{""filepath"":""stimuli/2010101.jpg"",""ball_pos"":2,""ego_ball_visible"":false,""ego_can_infer"":false,""alter_ball_visible"":true,""alter_can_infer"":true,""collective_ball_visible"":false,""collective_can_infer"":false,""search_locations"":[2],""alter_occluders"":""010"",""ego_occluders"":""101""}","true","","","","","","","","","","","","","","","","","","",""
"","","","","","image-keyboard-response","21","110804","0.0-3.0-18.0","55ced0d234e9060012e5677c","665500ab8938657b03fbdba8","66577be492ec5e2c1d517f18","743","stimuli/20101012.jpg"," ","","practrice_feedback","2","","","","","","","","","","","","","","","","","","","","",""
"","","","","","image-keyboard-response","22","114453","0.0-3.0-19.0","55ced0d234e9060012e5677c","665500ab8938657b03fbdba8","66577be492ec5e2c1d517f18","3645","stimuli/0110101.jpg","0","","prediction_practice","1","{""filepath"":""stimuli/0110101.jpg"",""ball_pos"":0,""ego_ball_visible"":false,""ego_can_infer"":false,""alter_ball_visible"":false,""alter_can_infer"":false,""collective_ball_visible"":false,""collective_can_infer"":false,""search_locations"":[0,1],""alter_occluders"":""110"",""ego_occluders"":""101""}","false","","","","","","","","","","","","","","","","","","",""
"","","","","","image-keyboard-response","23","116033","0.0-3.0-20.0","55ced0d234e9060012e5677c","665500ab8938657b03fbdba8","66577be492ec5e2c1d517f18","1577","stimuli/01101011.jpg"," ","","practrice_feedback","0","","","","","","","","","","","","","","","","","","","","",""
"","","","","","html-button-response","24","120460","0.0-3.0-21.0","55ced0d234e9060012e5677c","665500ab8938657b03fbdba8","66577be492ec5e2c1d517f18","4424","Now that you've had some practice, you'll be tested with a couple of easy trials. If you correctly predict Sam's choice, you'll move on to complete the experiment!","0","","","","","","","","","","","","","","","","","","","","","","","",""
"","","","","","image-keyboard-response","25","121587","0.0-3.0-22.0-0.0","55ced0d234e9060012e5677c","665500ab8938657b03fbdba8","66577be492ec5e2c1d517f18","1126","stimuli/0000011.jpg","arrowleft","","comprehension_quiz","","","true","arrowleft","","","","","","","","","","","","","","","","","",""
"","","","","","image-keyboard-response","26","122562","0.0-3.0-22.0-1.0","55ced0d234e9060012e5677c","665500ab8938657b03fbdba8","66577be492ec5e2c1d517f18","963","stimuli/00000110.jpg"," ","","comprehension_quiz","","","true"," ","","","","","","","","","","","","","","","","","",""
"","","","","","image-keyboard-response","27","124954","0.0-3.0-22.0-2.0","55ced0d234e9060012e5677c","665500ab8938657b03fbdba8","66577be492ec5e2c1d517f18","2389","stimuli/1010010.jpg","arrowdown","","comprehension_quiz","","","true","arrowdown","","","","","","","","","","","","","","","","","",""
"","","","","","image-keyboard-response","28","125358","0.0-3.0-22.0-3.0","55ced0d234e9060012e5677c","665500ab8938657b03fbdba8","66577be492ec5e2c1d517f18","400","stimuli/10100101.jpg"," ","","comprehension_quiz","","","true"," ","","","","","","","","","","","","","","","","","",""
"","","","","","html-button-response","29","127994","0.0-4.0","55ced0d234e9060012e5677c","665500ab8938657b03fbdba8","66577be492ec5e2c1d517f18","2631","The experiment will now begin.","0","","","","","","","","","","","","","","","","","","","","","","","",""
"","","","","","image-keyboard-response","30","130775","0.0-5.0","55ced0d234e9060012e5677c","665500ab8938657b03fbdba8","66577be492ec5e2c1d517f18","2779","stimuli/0011111.jpg","0","","prediction_trial","0","","true","","0","false","false","true","true","false","false","[0]","011","111","1","","","","","","",""
"","","","","","image-keyboard-response","31","131972","0.0-6.0","55ced0d234e9060012e5677c","665500ab8938657b03fbdba8","66577be492ec5e2c1d517f18","1193","stimuli/00111110.jpg"," ","","feedback_trial","0","","","","","","","","","","","","","","","","","","","","",""
"","","","","","image-keyboard-response","32","135089","0.0-7.0","55ced0d234e9060012e5677c","665500ab8938657b03fbdba8","66577be492ec5e2c1d517f18","3112","stimuli/1110010.jpg","1","","prediction_trial","1","","true","","1","false","true","false","false","false","false","[1,0]","110","010","1","","","","","","",""
"","","","","","image-keyboard-response","33","135829","0.0-8.0","55ced0d234e9060012e5677c","665500ab8938657b03fbdba8","66577be492ec5e2c1d517f18","737","stimuli/11100101.jpg"," ","","feedback_trial","1","","","","","","","","","","","","","","","","","","","","",""
"","","","","","image-keyboard-response","34","137008","0.0-9.0","55ced0d234e9060012e5677c","665500ab8938657b03fbdba8","66577be492ec5e2c1d517f18","1176","stimuli/1001000.jpg","1","","prediction_trial","1","","true","","1","true","true","true","true","true","true","[1]","001","000","1","","","","","","",""
"","","","","","image-keyboard-response","35","138018","0.0-10.0","55ced0d234e9060012e5677c","665500ab8938657b03fbdba8","66577be492ec5e2c1d517f18","1007","stimuli/10010001.jpg"," ","","feedback_trial","1","","","","","","","","","","","","","","","","","","","","",""
"","","","","","image-keyboard-response","36","139730","0.0-11.0","55ced0d234e9060012e5677c","665500ab8938657b03fbdba8","66577be492ec5e2c1d517f18","1709","stimuli/0110111.jpg","2","","prediction_trial","1","","false","","0","false","false","false","false","false","false","[1,0]","110","111","0","","","","","","",""
"","","","","","image-keyboard-response","37","140806","0.0-12.0","55ced0d234e9060012e5677c","665500ab8938657b03fbdba8","66577be492ec5e2c1d517f18","1073","stimuli/01101111.jpg"," ","","feedback_trial","1","","","","","","","","","","","","","","","","","","","","",""
"","","","","","image-keyboard-response","38","143395","0.0-13.0","55ced0d234e9060012e5677c","665500ab8938657b03fbdba8","66577be492ec5e2c1d517f18","2562","stimuli/1011110.jpg","1","","prediction_trial","1","","true","","1","false","false","false","false","false","false","[1,2]","011","110","1","","","","","","",""
"","","","","","image-keyboard-response","39","144073","0.0-14.0","55ced0d234e9060012e5677c","665500ab8938657b03fbdba8","66577be492ec5e2c1d517f18","675","stimuli/10111101.jpg"," ","","feedback_trial","1","","","","","","","","","","","","","","","","","","","","",""
"","","","","","image-keyboard-response","40","145865","0.0-15.0","55ced0d234e9060012e5677c","665500ab8938657b03fbdba8","66577be492ec5e2c1d517f18","1789","stimuli/1110100.jpg","1","","prediction_trial","0","","false","","1","true","true","false","false","false","false","[1,0]","110","100","0","","","","","","",""
"","","","","","image-keyboard-response","41","146765","0.0-16.0","55ced0d234e9060012e5677c","665500ab8938657b03fbdba8","66577be492ec5e2c1d517f18","896","stimuli/11101000.jpg"," ","","feedback_trial","1","","","","","","","","","","","","","","","","","","","","",""
"","","","","","image-keyboard-response","42","148555","0.0-17.0","55ced0d234e9060012e5677c","665500ab8938657b03fbdba8","66577be492ec5e2c1d517f18","1787","stimuli/1011100.jpg","1","","prediction_trial","1","","true","","1","true","true","false","false","false","false","[1,2]","011","100","1","","","","","","",""
"","","","","","image-keyboard-response","43","149387","0.0-18.0","55ced0d234e9060012e5677c","665500ab8938657b03fbdba8","66577be492ec5e2c1d517f18","828","stimuli/10111001.jpg"," ","","feedback_trial","1","","","","","","","","","","","","","","","","","","","","",""
"","","","","","image-keyboard-response","44","151743","0.0-19.0","55ced0d234e9060012e5677c","665500ab8938657b03fbdba8","66577be492ec5e2c1d517f18","2353","stimuli/0010110.jpg","0","","prediction_trial","0","","true","","0","false","false","true","true","false","false","[0]","010","110","1","","","","","","",""
"","","","","","image-keyboard-response","45","152421","0.0-20.0","55ced0d234e9060012e5677c","665500ab8938657b03fbdba8","66577be492ec5e2c1d517f18","675","stimuli/00101100.jpg"," ","","feedback_trial","0","","","","","","","","","","","","","","","","","","","","",""
"","","","","","image-keyboard-response","46","154605","0.0-21.0","55ced0d234e9060012e5677c","665500ab8938657b03fbdba8","66577be492ec5e2c1d517f18","2180","stimuli/2010111.jpg","2","","prediction_trial","2","","true","","2","false","false","true","true","false","false","[2]","010","111","1","","","","","","",""
"","","","","","image-keyboard-response","47","155592","0.0-22.0","55ced0d234e9060012e5677c","665500ab8938657b03fbdba8","66577be492ec5e2c1d517f18","981","stimuli/20101112.jpg"," ","","feedback_trial","2","","","","","","","","","","","","","","","","","","","","",""
"","","","","","image-keyboard-response","48","158528","0.0-23.0","55ced0d234e9060012e5677c","665500ab8938657b03fbdba8","66577be492ec5e2c1d517f18","2932","stimuli/2111011.jpg","2","","prediction_trial","1","","false","","2","false","false","false","false","false","false","[2,1,0]","111","011","0","","","","","","",""
"","","","","","image-keyboard-response","49","159293","0.0-24.0","55ced0d234e9060012e5677c","665500ab8938657b03fbdba8","66577be492ec5e2c1d517f18","749","stimuli/21110111.jpg"," ","","feedback_trial","2","","","","","","","","","","","","","","","","","","","","",""
"","","","","","image-keyboard-response","50","161687","0.0-25.0","55ced0d234e9060012e5677c","665500ab8938657b03fbdba8","66577be492ec5e2c1d517f18","2390","stimuli/1101010.jpg","1","","prediction_trial","1","","true","","1","false","true","true","true","false","true","[1]","101","010","1","","","","","","",""
"","","","","","image-keyboard-response","51","162087","0.0-26.0","55ced0d234e9060012e5677c","665500ab8938657b03fbdba8","66577be492ec5e2c1d517f18","397","stimuli/11010101.jpg"," ","","feedback_trial","1","","","","","","","","","","","","","","","","","","","","",""
"","","","","","image-keyboard-response","52","164140","0.0-27.0","55ced0d234e9060012e5677c","665500ab8938657b03fbdba8","66577be492ec5e2c1d517f18","2050","stimuli/0101100.jpg","0","","prediction_trial","2","","false","","0","false","true","false","false","false","false","[0,2]","101","100","0","","","","","","",""
"","","","","","image-keyboard-response","53","165013","0.0-28.0","55ced0d234e9060012e5677c","665500ab8938657b03fbdba8","66577be492ec5e2c1d517f18","870","stimuli/01011002.jpg"," ","","feedback_trial","0","","","","","","","","","","","","","","","","","","","","",""
"","","","","","image-keyboard-response","54","167149","0.0-29.0","55ced0d234e9060012e5677c","665500ab8938657b03fbdba8","66577be492ec5e2c1d517f18","2133","stimuli/0110100.jpg","1","","prediction_trial","1","","true","","0","false","true","false","false","false","false","[0,1]","110","100","1","","","","","","",""
"","","","","","image-keyboard-response","55","167701","0.0-30.0","55ced0d234e9060012e5677c","665500ab8938657b03fbdba8","66577be492ec5e2c1d517f18","548","stimuli/01101001.jpg"," ","","feedback_trial","0","","","","","","","","","","","","","","","","","","","","",""
"","","","","","image-keyboard-response","56","171306","0.0-31.0","55ced0d234e9060012e5677c","665500ab8938657b03fbdba8","66577be492ec5e2c1d517f18","3600","stimuli/1110110.jpg","0","","prediction_trial","0","","true","","1","false","false","false","false","false","false","[0,1]","110","110","1","","","","","","",""
"","","","","","image-keyboard-response","57","171718","0.0-32.0","55ced0d234e9060012e5677c","665500ab8938657b03fbdba8","66577be492ec5e2c1d517f18","409","stimuli/11101100.jpg"," ","","feedback_trial","0","","","","","","","","","","","","","","","","","","","","",""
"","","","","","image-keyboard-response","58","173707","0.0-33.0","55ced0d234e9060012e5677c","665500ab8938657b03fbdba8","66577be492ec5e2c1d517f18","1986","stimuli/0101011.jpg","0","","prediction_trial","2","","false","","0","true","true","false","false","false","false","[0,2]","101","011","0","","","","","","",""
"","","","","","image-keyboard-response","59","174429","0.0-34.0","55ced0d234e9060012e5677c","665500ab8938657b03fbdba8","66577be492ec5e2c1d517f18","718","stimuli/01010112.jpg"," ","","feedback_trial","0","","","","","","","","","","","","","","","","","","","","",""
"","","","","","image-keyboard-response","60","178139","0.0-35.0","55ced0d234e9060012e5677c","665500ab8938657b03fbdba8","66577be492ec5e2c1d517f18","3699","stimuli/0100101.jpg","2","","prediction_trial","0","","false","","0","false","false","false","true","false","false","[0]","100","101","0","","","","","","",""
"","","","","","image-keyboard-response","61","178841","0.0-36.0","55ced0d234e9060012e5677c","665500ab8938657b03fbdba8","66577be492ec5e2c1d517f18","699","stimuli/01001010.jpg"," ","","feedback_trial","0","","","","","","","","","","","","","","","","","","","","",""
"","","","","","image-keyboard-response","62","182868","0.0-37.0","55ced0d234e9060012e5677c","665500ab8938657b03fbdba8","66577be492ec5e2c1d517f18","4022","stimuli/0011110.jpg","2","","prediction_trial","0","","false","","0","false","false","true","true","false","false","[0]","011","110","0","","","","","","",""
"","","","","","image-keyboard-response","63","183700","0.0-38.0","55ced0d234e9060012e5677c","665500ab8938657b03fbdba8","66577be492ec5e2c1d517f18","830","stimuli/00111100.jpg"," ","","feedback_trial","0","","","","","","","","","","","","","","","","","","","","",""
"","","","","","image-keyboard-response","64","188375","0.0-39.0","55ced0d234e9060012e5677c","665500ab8938657b03fbdba8","66577be492ec5e2c1d517f18","4673","stimuli/1101110.jpg","2","","prediction_trial","1","","false","","1","false","false","true","true","false","false","[1]","101","110","0","","","","","","",""
"","","","","","image-keyboard-response","65","189158","0.0-40.0","55ced0d234e9060012e5677c","665500ab8938657b03fbdba8","66577be492ec5e2c1d517f18","780","stimuli/11011101.jpg"," ","","feedback_trial","1","","","","","","","","","","","","","","","","","","","","",""
"","","","","","image-keyboard-response","66","191504","0.0-41.0","55ced0d234e9060012e5677c","665500ab8938657b03fbdba8","66577be492ec5e2c1d517f18","2342","stimuli/0011100.jpg","0","","prediction_trial","0","","true","","0","false","true","true","true","false","true","[0]","011","100","1","","","","","","",""
"","","","","","image-keyboard-response","67","192234","0.0-42.0","55ced0d234e9060012e5677c","665500ab8938657b03fbdba8","66577be492ec5e2c1d517f18","727","stimuli/00111000.jpg"," ","","feedback_trial","0","","","","","","","","","","","","","","","","","","","","",""
"","","","","","image-keyboard-response","68","194092","0.0-43.0","55ced0d234e9060012e5677c","665500ab8938657b03fbdba8","66577be492ec5e2c1d517f18","1856","stimuli/2011011.jpg","2","","prediction_trial","1","","false","","2","false","false","false","false","false","false","[2,1]","011","011","0","","","","","","",""
"","","","","","image-keyboard-response","69","194669","0.0-44.0","55ced0d234e9060012e5677c","665500ab8938657b03fbdba8","66577be492ec5e2c1d517f18","574","stimuli/20110111.jpg"," ","","feedback_trial","2","","","","","","","","","","","","","","","","","","","","",""
"","","","","","image-keyboard-response","70","195513","0.0-45.0","55ced0d234e9060012e5677c","665500ab8938657b03fbdba8","66577be492ec5e2c1d517f18","841","stimuli/2000100.jpg","2","","prediction_trial","2","","true","","2","true","true","true","true","true","true","[2]","000","100","1","","","","","","",""
"","","","","","image-keyboard-response","71","195945","0.0-46.0","55ced0d234e9060012e5677c","665500ab8938657b03fbdba8","66577be492ec5e2c1d517f18","429","stimuli/20001002.jpg"," ","","feedback_trial","2","","","","","","","","","","","","","","","","","","","","",""
"","","","","","image-keyboard-response","72","198172","0.0-47.0","55ced0d234e9060012e5677c","665500ab8938657b03fbdba8","66577be492ec5e2c1d517f18","2223","stimuli/1100110.jpg","1","","prediction_trial","1","","true","","1","false","false","true","true","false","false","[1]","100","110","1","","","","","","",""
"","","","","","image-keyboard-response","73","198878","0.0-48.0","55ced0d234e9060012e5677c","665500ab8938657b03fbdba8","66577be492ec5e2c1d517f18","702","stimuli/11001101.jpg"," ","","feedback_trial","1","","","","","","","","","","","","","","","","","","","","",""
"","","","","","image-keyboard-response","74","199929","0.0-49.0","55ced0d234e9060012e5677c","665500ab8938657b03fbdba8","66577be492ec5e2c1d517f18","1048","stimuli/1100000.jpg","1","","prediction_trial","1","","true","","1","true","true","true","true","true","true","[1]","100","000","1","","","","","","",""
"","","","","","image-keyboard-response","75","200693","0.0-50.0","55ced0d234e9060012e5677c","665500ab8938657b03fbdba8","66577be492ec5e2c1d517f18","762","stimuli/11000001.jpg"," ","","feedback_trial","1","","","","","","","","","","","","","","","","","","","","",""
"","","","","","image-keyboard-response","76","201723","0.0-51.0","55ced0d234e9060012e5677c","665500ab8938657b03fbdba8","66577be492ec5e2c1d517f18","1027","stimuli/2100010.jpg","2","","prediction_trial","2","","true","","2","true","true","true","true","true","true","[2]","100","010","1","","","","","","",""
"","","","","","image-keyboard-response","77","202189","0.0-52.0","55ced0d234e9060012e5677c","665500ab8938657b03fbdba8","66577be492ec5e2c1d517f18","463","stimuli/21000102.jpg"," ","","feedback_trial","2","","","","","","","","","","","","","","","","","","","","",""
"","","","","","image-keyboard-response","78","204255","0.0-53.0","55ced0d234e9060012e5677c","665500ab8938657b03fbdba8","66577be492ec5e2c1d517f18","2063","stimuli/2001100.jpg","2","","prediction_trial","2","","true","","2","true","true","false","true","false","true","[2]","001","100","1","","","","","","",""
"","","","","","image-keyboard-response","79","205368","0.0-54.0","55ced0d234e9060012e5677c","665500ab8938657b03fbdba8","66577be492ec5e2c1d517f18","1109","stimuli/20011002.jpg"," ","","feedback_trial","2","","","","","","","","","","","","","","","","","","","","",""
"","","","","","image-keyboard-response","80","207515","0.0-55.0","55ced0d234e9060012e5677c","665500ab8938657b03fbdba8","66577be492ec5e2c1d517f18","2145","stimuli/0111111.jpg","1","","prediction_trial","0","","false","","0","false","false","false","false","false","false","[1,0,2]","111","111","0","","","","","","",""
"","","","","","image-keyboard-response","81","208296","0.0-56.0","55ced0d234e9060012e5677c","665500ab8938657b03fbdba8","66577be492ec5e2c1d517f18","778","stimuli/01111110.jpg"," ","","feedback_trial","1","","","","","","","","","","","","","","","","","","","","",""
"","","","","","image-keyboard-response","82","209649","0.0-57.0","55ced0d234e9060012e5677c","665500ab8938657b03fbdba8","66577be492ec5e2c1d517f18","1347","stimuli/0110010.jpg","0","","prediction_trial","0","","true","","0","true","true","false","false","false","false","[0,1]","110","010","1","","","","","","",""
"","","","","","image-keyboard-response","83","210270","0.0-58.0","55ced0d234e9060012e5677c","665500ab8938657b03fbdba8","66577be492ec5e2c1d517f18","617","stimuli/01100100.jpg"," ","","feedback_trial","0","","","","","","","","","","","","","","","","","","","","",""
"","","","","","image-keyboard-response","84","211628","0.0-59.0","55ced0d234e9060012e5677c","665500ab8938657b03fbdba8","66577be492ec5e2c1d517f18","1355","stimuli/0010111.jpg","2","","prediction_trial","0","","false","","0","false","false","true","true","false","false","[0]","010","111","0","","","","","","",""
"","","","","","image-keyboard-response","85","212322","0.0-60.0","55ced0d234e9060012e5677c","665500ab8938657b03fbdba8","66577be492ec5e2c1d517f18","691","stimuli/00101110.jpg"," ","","feedback_trial","0","","","","","","","","","","","","","","","","","","","","",""
"","","","","","image-keyboard-response","86","213572","0.0-61.0","55ced0d234e9060012e5677c","665500ab8938657b03fbdba8","66577be492ec5e2c1d517f18","1247","stimuli/0000001.jpg","0","","prediction_trial","0","","true","","0","true","true","true","true","true","true","[0]","000","001","1","","","","","","",""
"","","","","","image-keyboard-response","87","213952","0.0-62.0","55ced0d234e9060012e5677c","665500ab8938657b03fbdba8","66577be492ec5e2c1d517f18","375","stimuli/00000010.jpg"," ","","feedback_trial","0","","","","","","","","","","","","","","","","","","","","",""
"","","","","","image-keyboard-response","88","215686","0.0-63.0","55ced0d234e9060012e5677c","665500ab8938657b03fbdba8","66577be492ec5e2c1d517f18","1730","stimuli/0111101.jpg","0","","prediction_trial","2","","false","","0","false","false","false","false","false","false","[2,0,1]","111","101","0","","","","","","",""
"","","","","","image-keyboard-response","89","216289","0.0-64.0","55ced0d234e9060012e5677c","665500ab8938657b03fbdba8","66577be492ec5e2c1d517f18","600","stimuli/01111012.jpg"," ","","feedback_trial","2","","","","","","","","","","","","","","","","","","","","",""
"","","","","","image-keyboard-response","90","217213","0.0-65.0","55ced0d234e9060012e5677c","665500ab8938657b03fbdba8","66577be492ec5e2c1d517f18","921","stimuli/0001001.jpg","0","","prediction_trial","0","","true","","0","true","true","true","true","true","true","[0]","001","001","1","","","","","","",""
"","","","","","image-keyboard-response","91","217614","0.0-66.0","55ced0d234e9060012e5677c","665500ab8938657b03fbdba8","66577be492ec5e2c1d517f18","398","stimuli/00010010.jpg"," ","","feedback_trial","0","","","","","","","","","","","","","","","","","","","","",""
"","","","","","image-keyboard-response","92","220576","0.0-67.0","55ced0d234e9060012e5677c","665500ab8938657b03fbdba8","66577be492ec5e2c1d517f18","2960","stimuli/2011001.jpg","1","","prediction_trial","1","","true","","2","false","true","false","false","false","false","[1,2]","011","001","1","","","","","","",""
"","","","","","image-keyboard-response","93","221085","0.0-68.0","55ced0d234e9060012e5677c","665500ab8938657b03fbdba8","66577be492ec5e2c1d517f18","498","stimuli/20110011.jpg"," ","","feedback_trial","1","","","","","","","","","","","","","","","","","","","","",""
"","","","","","image-keyboard-response","94","223098","0.0-69.0","55ced0d234e9060012e5677c","665500ab8938657b03fbdba8","66577be492ec5e2c1d517f18","2010","stimuli/2000111.jpg","2","","prediction_trial","2","","true","","2","false","false","true","true","false","false","[2]","000","111","1","","","","","","",""
"","","","","","image-keyboard-response","95","223727","0.0-70.0","55ced0d234e9060012e5677c","665500ab8938657b03fbdba8","66577be492ec5e2c1d517f18","625","stimuli/20001112.jpg"," ","","feedback_trial","2","","","","","","","","","","","","","","","","","","","","",""
"","","","","","image-keyboard-response","96","226937","0.0-71.0","55ced0d234e9060012e5677c","665500ab8938657b03fbdba8","66577be492ec5e2c1d517f18","3208","stimuli/1001110.jpg","1","","prediction_trial","1","","true","","1","false","false","true","true","false","false","[1]","001","110","1","","","","","","",""
"","","","","","image-keyboard-response","97","227470","0.0-72.0","55ced0d234e9060012e5677c","665500ab8938657b03fbdba8","66577be492ec5e2c1d517f18","530","stimuli/10011101.jpg"," ","","feedback_trial","1","","","","","","","","","","","","","","","","","","","","",""
"","","","","","image-keyboard-response","98","228440","0.0-73.0","55ced0d234e9060012e5677c","665500ab8938657b03fbdba8","66577be492ec5e2c1d517f18","967","stimuli/1100101.jpg","1","","prediction_trial","1","","true","","1","true","true","true","true","true","true","[1]","100","101","1","","","","","","",""
"","","","","","image-keyboard-response","99","228828","0.0-74.0","55ced0d234e9060012e5677c","665500ab8938657b03fbdba8","66577be492ec5e2c1d517f18","384","stimuli/11001011.jpg"," ","","feedback_trial","1","","","","","","","","","","","","","","","","","","","","",""
"","","","","","image-keyboard-response","100","229786","0.0-75.0","55ced0d234e9060012e5677c","665500ab8938657b03fbdba8","66577be492ec5e2c1d517f18","954","stimuli/1001101.jpg","1","","prediction_trial","1","","true","","1","true","true","true","true","true","true","[1]","001","101","1","","","","","","",""
"","","","","","image-keyboard-response","101","230129","0.0-76.0","55ced0d234e9060012e5677c","665500ab8938657b03fbdba8","66577be492ec5e2c1d517f18","341","stimuli/10011011.jpg"," ","","feedback_trial","1","","","","","","","","","","","","","","","","","","","","",""
"","","","","","image-keyboard-response","102","231723","0.0-77.0","55ced0d234e9060012e5677c","665500ab8938657b03fbdba8","66577be492ec5e2c1d517f18","1591","stimuli/2110001.jpg","2","","prediction_trial","2","","true","","2","false","true","true","true","false","true","[2]","110","001","1","","","","","","",""
"","","","","","image-keyboard-response","103","232101","0.0-78.0","55ced0d234e9060012e5677c","665500ab8938657b03fbdba8","66577be492ec5e2c1d517f18","375","stimuli/21100012.jpg"," ","","feedback_trial","2","","","","","","","","","","","","","","","","","","","","",""
"","","","","","image-keyboard-response","104","233723","0.0-79.0","55ced0d234e9060012e5677c","665500ab8938657b03fbdba8","66577be492ec5e2c1d517f18","1617","stimuli/1001010.jpg","1","","prediction_trial","1","","true","","1","false","true","true","true","false","true","[1]","001","010","1","","","","","","",""
"","","","","","image-keyboard-response","105","234230","0.0-80.0","55ced0d234e9060012e5677c","665500ab8938657b03fbdba8","66577be492ec5e2c1d517f18","504","stimuli/10010101.jpg"," ","","feedback_trial","1","","","","","","","","","","","","","","","","","","","","",""
"","","","","","image-keyboard-response","106","235945","0.0-81.0","55ced0d234e9060012e5677c","665500ab8938657b03fbdba8","66577be492ec5e2c1d517f18","1712","stimuli/2001011.jpg","2","","prediction_trial","2","","true","","2","false","false","false","true","false","false","[2]","001","011","1","","","","","","",""
"","","","","","image-keyboard-response","107","236355","0.0-82.0","55ced0d234e9060012e5677c","665500ab8938657b03fbdba8","66577be492ec5e2c1d517f18","406","stimuli/20010112.jpg"," ","","feedback_trial","2","","","","","","","","","","","","","","","","","","","","",""
"","","","","","image-keyboard-response","108","237506","0.0-83.0","55ced0d234e9060012e5677c","665500ab8938657b03fbdba8","66577be492ec5e2c1d517f18","1147","stimuli/1110001.jpg","1","","prediction_trial","1","","true","","1","true","true","false","false","false","false","[0,1]","110","001","1","","","","","","",""
"","","","","","image-keyboard-response","109","237899","0.0-84.0","55ced0d234e9060012e5677c","665500ab8938657b03fbdba8","66577be492ec5e2c1d517f18","390","stimuli/11100011.jpg"," ","","feedback_trial","0","","","","","","","","","","","","","","","","","","","","",""
"","","","","","image-keyboard-response","110","239254","0.0-85.0","55ced0d234e9060012e5677c","665500ab8938657b03fbdba8","66577be492ec5e2c1d517f18","1352","stimuli/2111100.jpg","2","","prediction_trial","2","","true","","2","true","true","false","false","false","false","[0,1,2]","111","100","1","","","","","","",""
"","","","","","image-keyboard-response","111","239676","0.0-86.0","55ced0d234e9060012e5677c","665500ab8938657b03fbdba8","66577be492ec5e2c1d517f18","420","stimuli/21111002.jpg"," ","","feedback_trial","0","","","","","","","","","","","","","","","","","","","","",""
"","","","","","image-keyboard-response","112","241272","0.0-87.0","55ced0d234e9060012e5677c","665500ab8938657b03fbdba8","66577be492ec5e2c1d517f18","1593","stimuli/2110111.jpg","2","","prediction_trial","2","","true","","2","false","false","true","true","false","false","[2]","110","111","1","","","","","","",""
"","","","","","image-keyboard-response","113","241749","0.0-88.0","55ced0d234e9060012e5677c","665500ab8938657b03fbdba8","66577be492ec5e2c1d517f18","473","stimuli/21101112.jpg"," ","","feedback_trial","2","","","","","","","","","","","","","","","","","","","","",""
"","","","","","image-keyboard-response","114","243412","0.0-89.0","55ced0d234e9060012e5677c","665500ab8938657b03fbdba8","66577be492ec5e2c1d517f18","1660","stimuli/2101110.jpg","2","","prediction_trial","0","","false","","2","true","true","false","false","false","false","[2,0]","101","110","0","","","","","","",""
"","","","","","image-keyboard-response","115","244103","0.0-90.0","55ced0d234e9060012e5677c","665500ab8938657b03fbdba8","66577be492ec5e2c1d517f18","680","stimuli/21011100.jpg"," ","","feedback_trial","2","","","","","","","","","","","","","","","","","","","","",""
"","","","","","image-keyboard-response","116","244824","0.0-91.0","55ced0d234e9060012e5677c","665500ab8938657b03fbdba8","66577be492ec5e2c1d517f18","717","stimuli/2110100.jpg","2","","prediction_trial","2","","true","","2","true","true","true","true","true","true","[2]","110","100","1","","","","","","",""
"","","","","","image-keyboard-response","117","245221","0.0-92.0","55ced0d234e9060012e5677c","665500ab8938657b03fbdba8","66577be492ec5e2c1d517f18","395","stimuli/21101002.jpg"," ","","feedback_trial","2","","","","","","","","","","","","","","","","","","","","",""
"","","","","","image-keyboard-response","118","249819","0.0-93.0","55ced0d234e9060012e5677c","665500ab8938657b03fbdba8","66577be492ec5e2c1d517f18","4595","stimuli/2010001.jpg","2","","prediction_trial","2","","true","","2","false","true","true","true","false","true","[2]","010","001","1","","","","","","",""
"","","","","","image-keyboard-response","119","250235","0.0-94.0","55ced0d234e9060012e5677c","665500ab8938657b03fbdba8","66577be492ec5e2c1d517f18","413","stimuli/20100012.jpg"," ","","feedback_trial","2","","","","","","","","","","","","","","","","","","","","",""
"","","","","","image-keyboard-response","120","252129","0.0-95.0","55ced0d234e9060012e5677c","665500ab8938657b03fbdba8","66577be492ec5e2c1d517f18","1891","stimuli/0101001.jpg","0","","prediction_trial","0","","true","","0","true","true","false","false","false","false","[0,2]","101","001","1","","","","","","",""
"","","","","","image-keyboard-response","121","252563","0.0-96.0","55ced0d234e9060012e5677c","665500ab8938657b03fbdba8","66577be492ec5e2c1d517f18","430","stimuli/01010010.jpg"," ","","feedback_trial","0","","","","","","","","","","","","","","","","","","","","",""
"","","","","","image-keyboard-response","122","253320","0.0-97.0","55ced0d234e9060012e5677c","665500ab8938657b03fbdba8","66577be492ec5e2c1d517f18","754","stimuli/1101001.jpg","1","","prediction_trial","1","","true","","1","true","true","true","true","true","true","[1]","101","001","1","","","","","","",""
"","","","","","image-keyboard-response","123","253681","0.0-98.0","55ced0d234e9060012e5677c","665500ab8938657b03fbdba8","66577be492ec5e2c1d517f18","358","stimuli/11010011.jpg"," ","","feedback_trial","1","","","","","","","","","","","","","","","","","","","","",""
"","","","","","image-keyboard-response","124","254797","0.0-99.0","55ced0d234e9060012e5677c","665500ab8938657b03fbdba8","66577be492ec5e2c1d517f18","1113","stimuli/1100011.jpg","1","","prediction_trial","1","","true","","1","false","false","true","true","false","false","[1]","100","011","1","","","","","","",""
"","","","","","image-keyboard-response","125","255225","0.0-100.0","55ced0d234e9060012e5677c","665500ab8938657b03fbdba8","66577be492ec5e2c1d517f18","426","stimuli/11000111.jpg"," ","","feedback_trial","1","","","","","","","","","","","","","","","","","","","","",""
"","","","","","image-keyboard-response","126","256357","0.0-101.0","55ced0d234e9060012e5677c","665500ab8938657b03fbdba8","66577be492ec5e2c1d517f18","1125","stimuli/1011111.jpg","2","","prediction_trial","2","","true","","1","false","false","false","false","false","false","[2,1]","011","111","1","","","","","","",""
"","","","","","image-keyboard-response","127","256819","0.0-102.0","55ced0d234e9060012e5677c","665500ab8938657b03fbdba8","66577be492ec5e2c1d517f18","458","stimuli/10111112.jpg"," ","","feedback_trial","2","","","","","","","","","","","","","","","","","","","","",""
"","","","","","image-keyboard-response","128","257516","0.0-103.0","55ced0d234e9060012e5677c","665500ab8938657b03fbdba8","66577be492ec5e2c1d517f18","694","stimuli/2100110.jpg","2","","prediction_trial","2","","true","","2","true","true","true","true","true","true","[2]","100","110","1","","","","","","",""
"","","","","","image-keyboard-response","129","257924","0.0-104.0","55ced0d234e9060012e5677c","665500ab8938657b03fbdba8","66577be492ec5e2c1d517f18","404","stimuli/21001102.jpg"," ","","feedback_trial","2","","","","","","","","","","","","","","","","","","","","",""
"","","","","","image-keyboard-response","130","259569","0.0-105.0","55ced0d234e9060012e5677c","665500ab8938657b03fbdba8","66577be492ec5e2c1d517f18","1642","stimuli/1010100.jpg","1","","prediction_trial","1","","true","","1","true","true","false","true","false","true","[1]","010","100","1","","","","","","",""
"","","","","","image-keyboard-response","131","259954","0.0-106.0","55ced0d234e9060012e5677c","665500ab8938657b03fbdba8","66577be492ec5e2c1d517f18","382","stimuli/10101001.jpg"," ","","feedback_trial","1","","","","","","","","","","","","","","","","","","","","",""
"","","","","","image-keyboard-response","132","261569","0.0-107.0","55ced0d234e9060012e5677c","665500ab8938657b03fbdba8","66577be492ec5e2c1d517f18","1612","stimuli/0001100.jpg","0","","prediction_trial","0","","true","","0","false","true","true","true","false","true","[0]","001","100","1","","","","","","",""
"","","","","","image-keyboard-response","133","261878","0.0-108.0","55ced0d234e9060012e5677c","665500ab8938657b03fbdba8","66577be492ec5e2c1d517f18","306","stimuli/00011000.jpg"," ","","feedback_trial","0","","","","","","","","","","","","","","","","","","","","",""
"","","","","","image-keyboard-response","134","264268","0.0-109.0","55ced0d234e9060012e5677c","665500ab8938657b03fbdba8","66577be492ec5e2c1d517f18","2387","stimuli/1101011.jpg","1","","prediction_trial","1","","true","","1","false","false","true","true","false","false","[1]","101","011","1","","","","","","",""
"","","","","","image-keyboard-response","135","264638","0.0-110.0","55ced0d234e9060012e5677c","665500ab8938657b03fbdba8","66577be492ec5e2c1d517f18","366","stimuli/11010111.jpg"," ","","feedback_trial","1","","","","","","","","","","","","","","","","","","","","",""
"","","","","","image-keyboard-response","136","265354","0.0-111.0","55ced0d234e9060012e5677c","665500ab8938657b03fbdba8","66577be492ec5e2c1d517f18","713","stimuli/2010100.jpg","2","","prediction_trial","2","","true","","2","true","true","true","true","true","true","[2]","010","100","1","","","","","","",""
"","","","","","image-keyboard-response","137","265739","0.0-112.0","55ced0d234e9060012e5677c","665500ab8938657b03fbdba8","66577be492ec5e2c1d517f18","371","stimuli/20101002.jpg"," ","","feedback_trial","2","","","","","","","","","","","","","","","","","","","","",""
"","","","","","image-keyboard-response","138","266676","0.0-113.0","55ced0d234e9060012e5677c","665500ab8938657b03fbdba8","66577be492ec5e2c1d517f18","934","stimuli/0000100.jpg","0","","prediction_trial","0","","true","","0","false","true","true","true","false","true","[0]","000","100","1","","","","","","",""
"","","","","","image-keyboard-response","139","267032","0.0-114.0","55ced0d234e9060012e5677c","665500ab8938657b03fbdba8","66577be492ec5e2c1d517f18","352","stimuli/00001000.jpg"," ","","feedback_trial","0","","","","","","","","","","","","","","","","","","","","",""
"","","","","","image-keyboard-response","140","268301","0.0-115.0","55ced0d234e9060012e5677c","665500ab8938657b03fbdba8","66577be492ec5e2c1d517f18","1266","stimuli/0000110.jpg","1","","prediction_trial","0","","false","","0","false","false","true","true","false","false","[0]","000","110","0","","","","","","",""
"","","","","","image-keyboard-response","141","268954","0.0-116.0","55ced0d234e9060012e5677c","665500ab8938657b03fbdba8","66577be492ec5e2c1d517f18","650","stimuli/00001100.jpg"," ","","feedback_trial","0","","","","","","","","","","","","","","","","","","","","",""
"","","","","","image-keyboard-response","142","270256","0.0-117.0","55ced0d234e9060012e5677c","665500ab8938657b03fbdba8","66577be492ec5e2c1d517f18","1298","stimuli/2011010.jpg","2","","prediction_trial","2","","true","","2","true","true","false","false","false","false","[2,1]","011","010","1","","","","","","",""
"","","","","","image-keyboard-response","143","270656","0.0-118.0","55ced0d234e9060012e5677c","665500ab8938657b03fbdba8","66577be492ec5e2c1d517f18","397","stimuli/20110102.jpg"," ","","feedback_trial","2","","","","","","","","","","","","","","","","","","","","",""
"","","","","","image-keyboard-response","144","271761","0.0-119.0","55ced0d234e9060012e5677c","665500ab8938657b03fbdba8","66577be492ec5e2c1d517f18","1102","stimuli/0010101.jpg","2","","prediction_trial","0","","false","","0","false","false","true","true","false","false","[0]","010","101","0","","","","","","",""
"","","","","","image-keyboard-response","145","272379","0.0-120.0","55ced0d234e9060012e5677c","665500ab8938657b03fbdba8","66577be492ec5e2c1d517f18","614","stimuli/00101010.jpg"," ","","feedback_trial","0","","","","","","","","","","","","","","","","","","","","",""
"","","","","","image-keyboard-response","146","273509","0.0-121.0","55ced0d234e9060012e5677c","665500ab8938657b03fbdba8","66577be492ec5e2c1d517f18","1127","stimuli/0100110.jpg","1","","prediction_trial","0","","false","","0","false","false","false","true","false","false","[0]","100","110","0","","","","","","",""
"","","","","","image-keyboard-response","147","274198","0.0-122.0","55ced0d234e9060012e5677c","665500ab8938657b03fbdba8","66577be492ec5e2c1d517f18","686","stimuli/01001100.jpg"," ","","feedback_trial","0","","","","","","","","","","","","","","","","","","","","",""
"","","","","","image-keyboard-response","148","277017","0.0-123.0","55ced0d234e9060012e5677c","665500ab8938657b03fbdba8","66577be492ec5e2c1d517f18","2794","stimuli/0110000.jpg","1","","prediction_trial","0","","false","","0","true","true","false","false","false","false","[0,1]","110","000","0","","","","","","",""
"","","","","","image-keyboard-response","149","277661","0.0-124.0","55ced0d234e9060012e5677c","665500ab8938657b03fbdba8","66577be492ec5e2c1d517f18","640","stimuli/01100000.jpg"," ","","feedback_trial","0","","","","","","","","","","","","","","","","","","","","",""
"","","","","","image-keyboard-response","150","279515","0.0-125.0","55ced0d234e9060012e5677c","665500ab8938657b03fbdba8","66577be492ec5e2c1d517f18","1851","stimuli/2110101.jpg","2","","prediction_trial","2","","true","","2","false","false","true","true","false","false","[2]","110","101","1","","","","","","",""
"","","","","","image-keyboard-response","151","279906","0.0-126.0","55ced0d234e9060012e5677c","665500ab8938657b03fbdba8","66577be492ec5e2c1d517f18","388","stimuli/21101012.jpg"," ","","feedback_trial","2","","","","","","","","","","","","","","","","","","","","",""
"","","","","","image-keyboard-response","152","281850","0.0-127.0","55ced0d234e9060012e5677c","665500ab8938657b03fbdba8","66577be492ec5e2c1d517f18","1941","stimuli/1001111.jpg","2","","prediction_trial","1","","false","","1","false","false","true","true","false","false","[1]","001","111","0","","","","","","",""
"","","","","","image-keyboard-response","153","282546","0.0-128.0","55ced0d234e9060012e5677c","665500ab8938657b03fbdba8","66577be492ec5e2c1d517f18","692","stimuli/10011111.jpg"," ","","feedback_trial","1","","","","","","","","","","","","","","","","","","","","",""
"","","","","","image-keyboard-response","154","283252","0.0-129.0","55ced0d234e9060012e5677c","665500ab8938657b03fbdba8","66577be492ec5e2c1d517f18","703","stimuli/2100100.jpg","2","","prediction_trial","2","","true","","2","true","true","true","true","true","true","[2]","100","100","1","","","","","","",""
"","","","","","image-keyboard-response","155","283582","0.0-130.0","55ced0d234e9060012e5677c","665500ab8938657b03fbdba8","66577be492ec5e2c1d517f18","327","stimuli/21001002.jpg"," ","","feedback_trial","2","","","","","","","","","","","","","","","","","","","","",""
"","","","","","image-keyboard-response","156","284416","0.0-131.0","55ced0d234e9060012e5677c","665500ab8938657b03fbdba8","66577be492ec5e2c1d517f18","830","stimuli/0100100.jpg","0","","prediction_trial","0","","true","","0","false","true","false","true","false","true","[0]","100","100","1","","","","","","",""
"","","","","","image-keyboard-response","157","284750","0.0-132.0","55ced0d234e9060012e5677c","665500ab8938657b03fbdba8","66577be492ec5e2c1d517f18","331","stimuli/01001000.jpg"," ","","feedback_trial","0","","","","","","","","","","","","","","","","","","","","",""
"","","","","","image-keyboard-response","158","286788","0.0-133.0","55ced0d234e9060012e5677c","665500ab8938657b03fbdba8","66577be492ec5e2c1d517f18","2035","stimuli/1010110.jpg","0","","prediction_trial","1","","false","","1","false","false","false","true","false","false","[1]","010","110","0","","","","","","",""
"","","","","","image-keyboard-response","159","287341","0.0-134.0","55ced0d234e9060012e5677c","665500ab8938657b03fbdba8","66577be492ec5e2c1d517f18","548","stimuli/10101101.jpg"," ","","feedback_trial","1","","","","","","","","","","","","","","","","","","","","",""
"","","","","","image-keyboard-response","160","289628","0.0-135.0","55ced0d234e9060012e5677c","665500ab8938657b03fbdba8","66577be492ec5e2c1d517f18","2283","stimuli/0111100.jpg","2","","prediction_trial","0","","false","","0","false","true","false","false","false","false","[2,1,0]","111","100","0","","","","","","",""
"","","","","","image-keyboard-response","161","290244","0.0-136.0","55ced0d234e9060012e5677c","665500ab8938657b03fbdba8","66577be492ec5e2c1d517f18","610","stimuli/01111000.jpg"," ","","feedback_trial","2","","","","","","","","","","","","","","","","","","","","",""
"","","","","","image-keyboard-response","162","291175","0.0-137.0","55ced0d234e9060012e5677c","665500ab8938657b03fbdba8","66577be492ec5e2c1d517f18","928","stimuli/1101101.jpg","1","","prediction_trial","1","","true","","1","true","true","true","true","true","true","[1]","101","101","1","","","","","","",""
"","","","","","image-keyboard-response","163","291519","0.0-138.0","55ced0d234e9060012e5677c","665500ab8938657b03fbdba8","66577be492ec5e2c1d517f18","341","stimuli/11011011.jpg"," ","","feedback_trial","1","","","","","","","","","","","","","","","","","","","","",""
"","","","","","image-keyboard-response","164","293589","0.0-139.0","55ced0d234e9060012e5677c","665500ab8938657b03fbdba8","66577be492ec5e2c1d517f18","2066","stimuli/1111011.jpg","2","","prediction_trial","1","","false","","1","false","false","false","false","false","false","[0,1,2]","111","011","0","","","","","","",""
"","","","","","image-keyboard-response","165","294193","0.0-140.0","55ced0d234e9060012e5677c","665500ab8938657b03fbdba8","66577be492ec5e2c1d517f18","600","stimuli/11110111.jpg"," ","","feedback_trial","0","","","","","","","","","","","","","","","","","","","","",""
"","","","","","image-keyboard-response","166","295582","0.0-141.0","55ced0d234e9060012e5677c","665500ab8938657b03fbdba8","66577be492ec5e2c1d517f18","1386","stimuli/0101010.jpg","0","","prediction_trial","2","","false","","0","true","true","false","false","false","false","[2,0]","101","010","0","","","","","","",""
"","","","","","image-keyboard-response","167","296175","0.0-142.0","55ced0d234e9060012e5677c","665500ab8938657b03fbdba8","66577be492ec5e2c1d517f18","590","stimuli/01010102.jpg"," ","","feedback_trial","2","","","","","","","","","","","","","","","","","","","","",""
"","","","","","image-keyboard-response","168","297791","0.0-143.0","55ced0d234e9060012e5677c","665500ab8938657b03fbdba8","66577be492ec5e2c1d517f18","1613","stimuli/1000011.jpg","1","","prediction_trial","1","","true","","1","false","false","true","true","false","false","[1]","000","011","1","","","","","","",""
"","","","","","image-keyboard-response","169","298210","0.0-144.0","55ced0d234e9060012e5677c","665500ab8938657b03fbdba8","66577be492ec5e2c1d517f18","415","stimuli/10000111.jpg"," ","","feedback_trial","1","","","","","","","","","","","","","","","","","","","","",""
"","","","","","image-keyboard-response","170","298928","0.0-145.0","55ced0d234e9060012e5677c","665500ab8938657b03fbdba8","66577be492ec5e2c1d517f18","706","stimuli/1101100.jpg","1","","prediction_trial","1","","true","","1","true","true","true","true","true","true","[1]","101","100","1","","","","","","",""
"","","","","","image-keyboard-response","171","299235","0.0-146.0","55ced0d234e9060012e5677c","665500ab8938657b03fbdba8","66577be492ec5e2c1d517f18","303","stimuli/11011001.jpg"," ","","feedback_trial","1","","","","","","","","","","","","","","","","","","","","",""
"","","","","","image-keyboard-response","172","300738","0.0-147.0","55ced0d234e9060012e5677c","665500ab8938657b03fbdba8","66577be492ec5e2c1d517f18","1498","stimuli/0100010.jpg","0","","prediction_trial","0","","true","","0","true","true","false","true","false","true","[0]","100","010","1","","","","","","",""
"","","","","","image-keyboard-response","173","301057","0.0-148.0","55ced0d234e9060012e5677c","665500ab8938657b03fbdba8","66577be492ec5e2c1d517f18","315","stimuli/01000100.jpg"," ","","feedback_trial","0","","","","","","","","","","","","","","","","","","","","",""
"","","","","","image-keyboard-response","174","301925","0.0-149.0","55ced0d234e9060012e5677c","665500ab8938657b03fbdba8","66577be492ec5e2c1d517f18","865","stimuli/1001001.jpg","1","","prediction_trial","1","","true","","1","true","true","true","true","true","true","[1]","001","001","1","","","","","","",""
"","","","","","image-keyboard-response","175","302193","0.0-150.0","55ced0d234e9060012e5677c","665500ab8938657b03fbdba8","66577be492ec5e2c1d517f18","264","stimuli/10010011.jpg"," ","","feedback_trial","1","","","","","","","","","","","","","","","","","","","","",""
"","","","","","image-keyboard-response","176","303713","0.0-151.0","55ced0d234e9060012e5677c","665500ab8938657b03fbdba8","66577be492ec5e2c1d517f18","1517","stimuli/0001111.jpg","2","","prediction_trial","0","","false","","0","false","false","true","true","false","false","[0]","001","111","0","","","","","","",""
"","","","","","image-keyboard-response","177","304364","0.0-152.0","55ced0d234e9060012e5677c","665500ab8938657b03fbdba8","66577be492ec5e2c1d517f18","649","stimuli/00011110.jpg"," ","","feedback_trial","0","","","","","","","","","","","","","","","","","","","","",""
"","","","","","image-keyboard-response","178","306286","0.0-153.0","55ced0d234e9060012e5677c","665500ab8938657b03fbdba8","66577be492ec5e2c1d517f18","1918","stimuli/2111001.jpg","1","","prediction_trial","0","","false","","2","false","true","false","false","false","false","[0,1,2]","111","001","0","","","","","","",""
"","","","","","image-keyboard-response","179","306851","0.0-154.0","55ced0d234e9060012e5677c","665500ab8938657b03fbdba8","66577be492ec5e2c1d517f18","561","stimuli/21110010.jpg"," ","","feedback_trial","0","","","","","","","","","","","","","","","","","","","","",""
"","","","","","image-keyboard-response","180","308711","0.0-155.0","55ced0d234e9060012e5677c","665500ab8938657b03fbdba8","66577be492ec5e2c1d517f18","1859","stimuli/2010101.jpg","0","","prediction_trial","2","","false","","2","false","false","true","true","false","false","[2]","010","101","0","","","","","","",""
"","","","","","image-keyboard-response","181","309215","0.0-156.0","55ced0d234e9060012e5677c","665500ab8938657b03fbdba8","66577be492ec5e2c1d517f18","500","stimuli/20101012.jpg"," ","","feedback_trial","2","","","","","","","","","","","","","","","","","","","","",""
"","","","","","image-keyboard-response","182","309879","0.0-157.0","55ced0d234e9060012e5677c","665500ab8938657b03fbdba8","66577be492ec5e2c1d517f18","660","stimuli/0000010.jpg","0","","prediction_trial","0","","true","","0","true","true","true","true","true","true","[0]","000","010","1","","","","","","",""
"","","","","","image-keyboard-response","183","310196","0.0-158.0","55ced0d234e9060012e5677c","665500ab8938657b03fbdba8","66577be492ec5e2c1d517f18","314","stimuli/00000100.jpg"," ","","feedback_trial","0","","","","","","","","","","","","","","","","","","","","",""
"","","","","","image-keyboard-response","184","311808","0.0-159.0","55ced0d234e9060012e5677c","665500ab8938657b03fbdba8","66577be492ec5e2c1d517f18","1608","stimuli/1000010.jpg","1","","prediction_trial","1","","true","","1","false","true","true","true","false","true","[1]","000","010","1","","","","","","",""
"","","","","","image-keyboard-response","185","312092","0.0-160.0","55ced0d234e9060012e5677c","665500ab8938657b03fbdba8","66577be492ec5e2c1d517f18","283","stimuli/10000101.jpg"," ","","feedback_trial","1","","","","","","","","","","","","","","","","","","","","",""
"","","","","","image-keyboard-response","186","316479","0.0-161.0","55ced0d234e9060012e5677c","665500ab8938657b03fbdba8","66577be492ec5e2c1d517f18","4383","stimuli/2101011.jpg","0","","prediction_trial","0","","true","","2","false","false","false","false","false","false","[2,0]","101","011","1","","","","","","",""
"","","","","","image-keyboard-response","187","316972","0.0-162.0","55ced0d234e9060012e5677c","665500ab8938657b03fbdba8","66577be492ec5e2c1d517f18","490","stimuli/21010110.jpg"," ","","feedback_trial","2","","","","","","","","","","","","","","","","","","","","",""
"","","","","","image-keyboard-response","188","319332","0.0-163.0","55ced0d234e9060012e5677c","665500ab8938657b03fbdba8","66577be492ec5e2c1d517f18","2357","stimuli/1111010.jpg","1","","prediction_trial","0","","false","","1","false","true","false","false","false","false","[1,0,2]","111","010","0","","","","","","",""
"","","","","","image-keyboard-response","189","319966","0.0-164.0","55ced0d234e9060012e5677c","665500ab8938657b03fbdba8","66577be492ec5e2c1d517f18","630","stimuli/11110100.jpg"," ","","feedback_trial","1","","","","","","","","","","","","","","","","","","","","",""
"","","","","","image-keyboard-response","190","321270","0.0-165.0","55ced0d234e9060012e5677c","665500ab8938657b03fbdba8","66577be492ec5e2c1d517f18","1301","stimuli/2000110.jpg","2","","prediction_trial","2","","true","","2","true","true","true","true","true","true","[2]","000","110","1","","","","","","",""
"","","","","","image-keyboard-response","191","321807","0.0-166.0","55ced0d234e9060012e5677c","665500ab8938657b03fbdba8","66577be492ec5e2c1d517f18","533","stimuli/20001102.jpg"," ","","feedback_trial","2","","","","","","","","","","","","","","","","","","","","",""
"","","","","","image-keyboard-response","192","323005","0.0-167.0","55ced0d234e9060012e5677c","665500ab8938657b03fbdba8","66577be492ec5e2c1d517f18","1195","stimuli/0010011.jpg","0","","prediction_trial","0","","true","","0","true","true","true","true","true","true","[0]","010","011","1","","","","","","",""
"","","","","","image-keyboard-response","193","323541","0.0-168.0","55ced0d234e9060012e5677c","665500ab8938657b03fbdba8","66577be492ec5e2c1d517f18","532","stimuli/00100110.jpg"," ","","feedback_trial","0","","","","","","","","","","","","","","","","","","","","",""
"","","","","","image-keyboard-response","194","324580","0.0-169.0","55ced0d234e9060012e5677c","665500ab8938657b03fbdba8","66577be492ec5e2c1d517f18","1035","stimuli/2011111.jpg","0","","prediction_trial","1","","false","","2","false","false","false","false","false","false","[1,2]","011","111","0","","","","","","",""
"","","","","","image-keyboard-response","195","325268","0.0-170.0","55ced0d234e9060012e5677c","665500ab8938657b03fbdba8","66577be492ec5e2c1d517f18","685","stimuli/20111111.jpg"," ","","feedback_trial","1","","","","","","","","","","","","","","","","","","","","",""
"","","","","","image-keyboard-response","196","326329","0.0-171.0","55ced0d234e9060012e5677c","665500ab8938657b03fbdba8","66577be492ec5e2c1d517f18","1058","stimuli/1111100.jpg","1","","prediction_trial","0","","false","","1","true","true","false","false","false","false","[2,1,0]","111","100","0","","","","","","",""
"","","","","","image-keyboard-response","197","328464","0.0-172.0","55ced0d234e9060012e5677c","665500ab8938657b03fbdba8","66577be492ec5e2c1d517f18","2131","stimuli/11111000.jpg"," ","","feedback_trial","2","","","","","","","","","","","","","","","","","","","","",""
"","","","","","image-keyboard-response","198","329500","0.0-173.0","55ced0d234e9060012e5677c","665500ab8938657b03fbdba8","66577be492ec5e2c1d517f18","1032","stimuli/1100001.jpg","1","","prediction_trial","1","","true","","1","true","true","true","true","true","true","[1]","100","001","1","","","","","","",""
"","","","","","image-keyboard-response","199","329888","0.0-174.0","55ced0d234e9060012e5677c","665500ab8938657b03fbdba8","66577be492ec5e2c1d517f18","385","stimuli/11000011.jpg"," ","","feedback_trial","1","","","","","","","","","","","","","","","","","","","","",""
"","","","","","image-keyboard-response","200","332433","0.0-175.0","55ced0d234e9060012e5677c","665500ab8938657b03fbdba8","66577be492ec5e2c1d517f18","2541","stimuli/2100001.jpg","2","","prediction_trial","2","","true","","2","false","true","true","true","false","true","[2]","100","001","1","","","","","","",""
"","","","","","image-keyboard-response","201","332779","0.0-176.0","55ced0d234e9060012e5677c","665500ab8938657b03fbdba8","66577be492ec5e2c1d517f18","342","stimuli/21000012.jpg"," ","","feedback_trial","2","","","","","","","","","","","","","","","","","","","","",""
"","","","","","image-keyboard-response","202","340763","0.0-177.0","55ced0d234e9060012e5677c","665500ab8938657b03fbdba8","66577be492ec5e2c1d517f18","7980","stimuli/0110011.jpg","0","","prediction_trial","0","","true","","0","true","true","false","false","false","false","[0,1]","110","011","1","","","","","","",""
"","","","","","image-keyboard-response","203","341245","0.0-178.0","55ced0d234e9060012e5677c","665500ab8938657b03fbdba8","66577be492ec5e2c1d517f18","471","stimuli/01100110.jpg"," ","","feedback_trial","0","","","","","","","","","","","","","","","","","","","","",""
"","","","","","image-keyboard-response","204","342050","0.0-179.0","55ced0d234e9060012e5677c","665500ab8938657b03fbdba8","66577be492ec5e2c1d517f18","801","stimuli/0000000.jpg","0","","prediction_trial","0","","true","","0","true","true","true","true","true","true","[0]","000","000","1","","","","","","",""
"","","","","","image-keyboard-response","205","342655","0.0-180.0","55ced0d234e9060012e5677c","665500ab8938657b03fbdba8","66577be492ec5e2c1d517f18","602","stimuli/00000000.jpg"," ","","feedback_trial","0","","","","","","","","","","","","","","","","","","","","",""
"","","","","","image-keyboard-response","206","344186","0.0-181.0","55ced0d234e9060012e5677c","665500ab8938657b03fbdba8","66577be492ec5e2c1d517f18","1527","stimuli/0101000.jpg","0","","prediction_trial","0","","true","","0","true","true","false","false","false","false","[2,0]","101","000","1","","","","","","",""
"","","","","","image-keyboard-response","207","344607","0.0-182.0","55ced0d234e9060012e5677c","665500ab8938657b03fbdba8","66577be492ec5e2c1d517f18","418","stimuli/01010000.jpg"," ","","feedback_trial","2","","","","","","","","","","","","","","","","","","","","",""
"","","","","","image-keyboard-response","208","346235","0.0-183.0","55ced0d234e9060012e5677c","665500ab8938657b03fbdba8","66577be492ec5e2c1d517f18","1625","stimuli/1010010.jpg","1","","prediction_trial","1","","true","","1","false","true","false","true","false","true","[1]","010","010","1","","","","","","",""
"","","","","","image-keyboard-response","209","346574","0.0-184.0","55ced0d234e9060012e5677c","665500ab8938657b03fbdba8","66577be492ec5e2c1d517f18","335","stimuli/10100101.jpg"," ","","feedback_trial","1","","","","","","","","","","","","","","","","","","","","",""
"","","","","","image-keyboard-response","210","348089","0.0-185.0","55ced0d234e9060012e5677c","665500ab8938657b03fbdba8","66577be492ec5e2c1d517f18","1512","stimuli/0110110.jpg","1","","prediction_trial","1","","true","","0","false","false","false","false","false","false","[0,1]","110","110","1","","","","","","",""
"","","","","","image-keyboard-response","211","348503","0.0-186.0","55ced0d234e9060012e5677c","665500ab8938657b03fbdba8","66577be492ec5e2c1d517f18","411","stimuli/01101101.jpg"," ","","feedback_trial","0","","","","","","","","","","","","","","","","","","","","",""
"","","","","","image-keyboard-response","212","349737","0.0-187.0","55ced0d234e9060012e5677c","665500ab8938657b03fbdba8","66577be492ec5e2c1d517f18","1231","stimuli/2111111.jpg","2","","prediction_trial","0","","false","","2","false","false","false","false","false","false","[2,1,0]","111","111","0","","","","","","",""
"","","","","","image-keyboard-response","213","350260","0.0-188.0","55ced0d234e9060012e5677c","665500ab8938657b03fbdba8","66577be492ec5e2c1d517f18","519","stimuli/21111110.jpg"," ","","feedback_trial","2","","","","","","","","","","","","","","","","","","","","",""
"","","","","","image-keyboard-response","214","351657","0.0-189.0","55ced0d234e9060012e5677c","665500ab8938657b03fbdba8","66577be492ec5e2c1d517f18","1393","stimuli/1001011.jpg","1","","prediction_trial","1","","true","","1","false","false","true","true","false","false","[1]","001","011","1","","","","","","",""
"","","","","","image-keyboard-response","215","352127","0.0-190.0","55ced0d234e9060012e5677c","665500ab8938657b03fbdba8","66577be492ec5e2c1d517f18","467","stimuli/10010111.jpg"," ","","feedback_trial","1","","","","","","","","","","","","","","","","","","","","",""
"","","","","","image-keyboard-response","216","353308","0.0-191.0","55ced0d234e9060012e5677c","665500ab8938657b03fbdba8","66577be492ec5e2c1d517f18","1178","stimuli/0111000.jpg","0","","prediction_trial","0","","true","","0","true","true","false","false","false","false","[2,0,1]","111","000","1","","","","","","",""
"","","","","","image-keyboard-response","217","353751","0.0-192.0","55ced0d234e9060012e5677c","665500ab8938657b03fbdba8","66577be492ec5e2c1d517f18","440","stimuli/01110000.jpg"," ","","feedback_trial","2","","","","","","","","","","","","","","","","","","","","",""
"","","","","","image-keyboard-response","218","355047","0.0-193.0","55ced0d234e9060012e5677c","665500ab8938657b03fbdba8","66577be492ec5e2c1d517f18","1292","stimuli/1101111.jpg","1","","prediction_trial","1","","true","","1","false","false","true","true","false","false","[1]","101","111","1","","","","","","",""
"","","","","","image-keyboard-response","219","355506","0.0-194.0","55ced0d234e9060012e5677c","665500ab8938657b03fbdba8","66577be492ec5e2c1d517f18","456","stimuli/11011111.jpg"," ","","feedback_trial","1","","","","","","","","","","","","","","","","","","","","",""
"","","","","","image-keyboard-response","220","357591","0.0-195.0","55ced0d234e9060012e5677c","665500ab8938657b03fbdba8","66577be492ec5e2c1d517f18","2082","stimuli/2000011.jpg","1","","prediction_trial","2","","false","","2","false","false","true","true","false","false","[2]","000","011","0","","","","","","",""
"","","","","","image-keyboard-response","221","358168","0.0-196.0","55ced0d234e9060012e5677c","665500ab8938657b03fbdba8","66577be492ec5e2c1d517f18","575","stimuli/20000112.jpg"," ","","feedback_trial","2","","","","","","","","","","","","","","","","","","","","",""
"","","","","","image-keyboard-response","222","359045","0.0-197.0","55ced0d234e9060012e5677c","665500ab8938657b03fbdba8","66577be492ec5e2c1d517f18","874","stimuli/1000000.jpg","1","","prediction_trial","1","","true","","1","true","true","true","true","true","true","[1]","000","000","1","","","","","","",""
"","","","","","image-keyboard-response","223","359367","0.0-198.0","55ced0d234e9060012e5677c","665500ab8938657b03fbdba8","66577be492ec5e2c1d517f18","319","stimuli/10000001.jpg"," ","","feedback_trial","1","","","","","","","","","","","","","","","","","","","","",""
"","","","","","image-keyboard-response","224","360202","0.0-199.0","55ced0d234e9060012e5677c","665500ab8938657b03fbdba8","66577be492ec5e2c1d517f18","832","stimuli/0010010.jpg","0","","prediction_trial","0","","true","","0","true","true","true","true","true","true","[0]","010","010","1","","","","","","",""
"","","","","","image-keyboard-response","225","360503","0.0-200.0","55ced0d234e9060012e5677c","665500ab8938657b03fbdba8","66577be492ec5e2c1d517f18","290","stimuli/00100100.jpg"," ","","feedback_trial","0","","","","","","","","","","","","","","","","","","","","",""
"","","","","","image-keyboard-response","226","361827","0.0-201.0","55ced0d234e9060012e5677c","665500ab8938657b03fbdba8","66577be492ec5e2c1d517f18","1321","stimuli/2011101.jpg","0","","prediction_trial","2","","false","","2","false","false","false","false","false","false","[2,1]","011","101","0","","","","","","",""
"","","","","","image-keyboard-response","227","362581","0.0-202.0","55ced0d234e9060012e5677c","665500ab8938657b03fbdba8","66577be492ec5e2c1d517f18","752","stimuli/20111012.jpg"," ","","feedback_trial","2","","","","","","","","","","","","","","","","","","","","",""
"","","","","","image-keyboard-response","228","363179","0.0-203.0","55ced0d234e9060012e5677c","665500ab8938657b03fbdba8","66577be492ec5e2c1d517f18","595","stimuli/0001011.jpg","0","","prediction_trial","0","","true","","0","true","true","true","true","true","true","[0]","001","011","1","","","","","","",""
"","","","","","image-keyboard-response","229","363487","0.0-204.0","55ced0d234e9060012e5677c","665500ab8938657b03fbdba8","66577be492ec5e2c1d517f18","304","stimuli/00010110.jpg"," ","","feedback_trial","0","","","","","","","","","","","","","","","","","","","","",""
"","","","","","image-keyboard-response","230","364188","0.0-205.0","55ced0d234e9060012e5677c","665500ab8938657b03fbdba8","66577be492ec5e2c1d517f18","698","stimuli/2110000.jpg","2","","prediction_trial","2","","true","","2","true","true","true","true","true","true","[2]","110","000","1","","","","","","",""
"","","","","","image-keyboard-response","231","364514","0.0-206.0","55ced0d234e9060012e5677c","665500ab8938657b03fbdba8","66577be492ec5e2c1d517f18","322","stimuli/21100002.jpg"," ","","feedback_trial","2","","","","","","","","","","","","","","","","","","","","",""
"","","","","","image-keyboard-response","232","365506","0.0-207.0","55ced0d234e9060012e5677c","665500ab8938657b03fbdba8","66577be492ec5e2c1d517f18","989","stimuli/2010000.jpg","2","","prediction_trial","2","","true","","2","true","true","true","true","true","true","[2]","010","000","1","","","","","","",""
"","","","","","image-keyboard-response","233","365835","0.0-208.0","55ced0d234e9060012e5677c","665500ab8938657b03fbdba8","66577be492ec5e2c1d517f18","326","stimuli/20100002.jpg"," ","","feedback_trial","2","","","","","","","","","","","","","","","","","","","","",""
"","","","","","image-keyboard-response","234","366464","0.0-209.0","55ced0d234e9060012e5677c","665500ab8938657b03fbdba8","66577be492ec5e2c1d517f18","626","stimuli/2010010.jpg","2","","prediction_trial","2","","true","","2","true","true","true","true","true","true","[2]","010","010","1","","","","","","",""
"","","","","","image-keyboard-response","235","366794","0.0-210.0","55ced0d234e9060012e5677c","665500ab8938657b03fbdba8","66577be492ec5e2c1d517f18","327","stimuli/20100102.jpg"," ","","feedback_trial","2","","","","","","","","","","","","","","","","","","","","",""
"","","","","","image-keyboard-response","236","368782","0.0-211.0","55ced0d234e9060012e5677c","665500ab8938657b03fbdba8","66577be492ec5e2c1d517f18","1961","stimuli/1011010.jpg","2","","prediction_trial","2","","true","","1","false","true","false","false","false","false","[1,2]","011","010","1","","","","","","",""
"","","","","","image-keyboard-response","237","369211","0.0-212.0","55ced0d234e9060012e5677c","665500ab8938657b03fbdba8","66577be492ec5e2c1d517f18","425","stimuli/10110102.jpg"," ","","feedback_trial","1","","","","","","","","","","","","","","","","","","","","",""
"","","","","","image-keyboard-response","238","370637","0.0-213.0","55ced0d234e9060012e5677c","665500ab8938657b03fbdba8","66577be492ec5e2c1d517f18","1422","stimuli/2000001.jpg","2","","prediction_trial","2","","true","","2","false","true","true","true","false","true","[2]","000","001","1","","","","","","",""
"","","","","","image-keyboard-response","239","370928","0.0-214.0","55ced0d234e9060012e5677c","665500ab8938657b03fbdba8","66577be492ec5e2c1d517f18","288","stimuli/20000012.jpg"," ","","feedback_trial","2","","","","","","","","","","","","","","","","","","","","",""
"","","","","","image-keyboard-response","240","373314","0.0-215.0","55ced0d234e9060012e5677c","665500ab8938657b03fbdba8","66577be492ec5e2c1d517f18","2383","stimuli/0010100.jpg","0","","prediction_trial","0","","true","","0","false","true","true","true","false","true","[0]","010","100","1","","","","","","",""
"","","","","","image-keyboard-response","241","373637","0.0-216.0","55ced0d234e9060012e5677c","665500ab8938657b03fbdba8","66577be492ec5e2c1d517f18","320","stimuli/00101000.jpg"," ","","feedback_trial","0","","","","","","","","","","","","","","","","","","","","",""
"","","","","","image-keyboard-response","242","374923","0.0-217.0","55ced0d234e9060012e5677c","665500ab8938657b03fbdba8","66577be492ec5e2c1d517f18","1285","stimuli/2001000.jpg","2","","prediction_trial","2","","true","","2","true","true","false","true","false","true","[2]","001","000","1","","","","","","",""
"","","","","","image-keyboard-response","243","375218","0.0-218.0","55ced0d234e9060012e5677c","665500ab8938657b03fbdba8","66577be492ec5e2c1d517f18","293","stimuli/20010002.jpg"," ","","feedback_trial","2","","","","","","","","","","","","","","","","","","","","",""
"","","","","","image-keyboard-response","244","376624","0.0-219.0","55ced0d234e9060012e5677c","665500ab8938657b03fbdba8","66577be492ec5e2c1d517f18","1404","stimuli/1011101.jpg","1","","prediction_trial","2","","false","","1","true","true","false","false","false","false","[1,2]","011","101","0","","","","","","",""
"","","","","","image-keyboard-response","245","377413","0.0-220.0","55ced0d234e9060012e5677c","665500ab8938657b03fbdba8","66577be492ec5e2c1d517f18","786","stimuli/10111012.jpg"," ","","feedback_trial","1","","","","","","","","","","","","","","","","","","","","",""
"","","","","","image-keyboard-response","246","378730","0.0-221.0","55ced0d234e9060012e5677c","665500ab8938657b03fbdba8","66577be492ec5e2c1d517f18","1313","stimuli/1110011.jpg","2","","prediction_trial","0","","false","","1","false","false","false","false","false","false","[0,1]","110","011","0","","","","","","",""
"","","","","","image-keyboard-response","247","379368","0.0-222.0","55ced0d234e9060012e5677c","665500ab8938657b03fbdba8","66577be492ec5e2c1d517f18","628","stimuli/11100110.jpg"," ","","feedback_trial","0","","","","","","","","","","","","","","","","","","","","",""
"","","","","","image-keyboard-response","248","381196","0.0-223.0","55ced0d234e9060012e5677c","665500ab8938657b03fbdba8","66577be492ec5e2c1d517f18","1824","stimuli/1000110.jpg","1","","prediction_trial","1","","true","","1","false","false","true","true","false","false","[1]","000","110","1","","","","","","",""
"","","","","","image-keyboard-response","249","381606","0.0-224.0","55ced0d234e9060012e5677c","665500ab8938657b03fbdba8","66577be492ec5e2c1d517f18","407","stimuli/10001101.jpg"," ","","feedback_trial","1","","","","","","","","","","","","","","","","","","","","",""
"","","","","","image-keyboard-response","250","382369","0.0-225.0","55ced0d234e9060012e5677c","665500ab8938657b03fbdba8","66577be492ec5e2c1d517f18","759","stimuli/0010000.jpg","0","","prediction_trial","0","","true","","0","true","true","true","true","true","true","[0]","010","000","1","","","","","","",""
"","","","","","image-keyboard-response","251","382668","0.0-226.0","55ced0d234e9060012e5677c","665500ab8938657b03fbdba8","66577be492ec5e2c1d517f18","296","stimuli/00100000.jpg"," ","","feedback_trial","0","","","","","","","","","","","","","","","","","","","","",""
"","","","","","image-keyboard-response","252","383517","0.0-227.0","55ced0d234e9060012e5677c","665500ab8938657b03fbdba8","66577be492ec5e2c1d517f18","846","stimuli/0011001.jpg","0","","prediction_trial","0","","true","","0","true","true","true","true","true","true","[0]","011","001","1","","","","","","",""
"","","","","","image-keyboard-response","253","383829","0.0-228.0","55ced0d234e9060012e5677c","665500ab8938657b03fbdba8","66577be492ec5e2c1d517f18","308","stimuli/00110010.jpg"," ","","feedback_trial","0","","","","","","","","","","","","","","","","","","","","",""
"","","","","","image-keyboard-response","254","384415","0.0-229.0","55ced0d234e9060012e5677c","665500ab8938657b03fbdba8","66577be492ec5e2c1d517f18","583","stimuli/0001000.jpg","0","","prediction_trial","0","","true","","0","true","true","true","true","true","true","[0]","001","000","1","","","","","","",""
"","","","","","image-keyboard-response","255","384757","0.0-230.0","55ced0d234e9060012e5677c","665500ab8938657b03fbdba8","66577be492ec5e2c1d517f18","339","stimuli/00010000.jpg"," ","","feedback_trial","0","","","","","","","","","","","","","","","","","","","","",""
"","","","","","image-keyboard-response","256","385974","0.0-231.0","55ced0d234e9060012e5677c","665500ab8938657b03fbdba8","66577be492ec5e2c1d517f18","1213","stimuli/1010101.jpg","1","","prediction_trial","1","","true","","1","true","true","false","true","false","true","[1]","010","101","1","","","","","","",""
"","","","","","image-keyboard-response","257","386299","0.0-232.0","55ced0d234e9060012e5677c","665500ab8938657b03fbdba8","66577be492ec5e2c1d517f18","322","stimuli/10101011.jpg"," ","","feedback_trial","1","","","","","","","","","","","","","","","","","","","","",""
"","","","","","image-keyboard-response","258","386938","0.0-233.0","55ced0d234e9060012e5677c","665500ab8938657b03fbdba8","66577be492ec5e2c1d517f18","626","stimuli/2100000.jpg","2","","prediction_trial","2","","true","","2","true","true","true","true","true","true","[2]","100","000","1","","","","","","",""
"","","","","","image-keyboard-response","259","387256","0.0-234.0","55ced0d234e9060012e5677c","665500ab8938657b03fbdba8","66577be492ec5e2c1d517f18","315","stimuli/21000002.jpg"," ","","feedback_trial","2","","","","","","","","","","","","","","","","","","","","",""
"","","","","","image-keyboard-response","260","389378","0.0-235.0","55ced0d234e9060012e5677c","665500ab8938657b03fbdba8","66577be492ec5e2c1d517f18","2120","stimuli/2101010.jpg","0","","prediction_trial","0","","true","","2","true","true","false","false","false","false","[0,2]","101","010","1","","","","","","",""
"","","","","","image-keyboard-response","261","389796","0.0-236.0","55ced0d234e9060012e5677c","665500ab8938657b03fbdba8","66577be492ec5e2c1d517f18","415","stimuli/21010100.jpg"," ","","feedback_trial","0","","","","","","","","","","","","","","","","","","","","",""
"","","","","","image-keyboard-response","262","390483","0.0-237.0","55ced0d234e9060012e5677c","665500ab8938657b03fbdba8","66577be492ec5e2c1d517f18","683","stimuli/1000101.jpg","1","","prediction_trial","1","","true","","1","true","true","true","true","true","true","[1]","000","101","1","","","","","","",""
"","","","","","image-keyboard-response","263","390815","0.0-238.0","55ced0d234e9060012e5677c","665500ab8938657b03fbdba8","66577be492ec5e2c1d517f18","330","stimuli/10001011.jpg"," ","","feedback_trial","1","","","","","","","","","","","","","","","","","","","","",""
"","","","","","image-keyboard-response","264","391562","0.0-239.0","55ced0d234e9060012e5677c","665500ab8938657b03fbdba8","66577be492ec5e2c1d517f18","742","stimuli/0011011.jpg","0","","prediction_trial","0","","true","","0","true","true","true","true","true","true","[0]","011","011","1","","","","","","",""
"","","","","","image-keyboard-response","265","391800","0.0-240.0","55ced0d234e9060012e5677c","665500ab8938657b03fbdba8","66577be492ec5e2c1d517f18","235","stimuli/00110110.jpg"," ","","feedback_trial","0","","","","","","","","","","","","","","","","","","","","",""
"","","","","","image-keyboard-response","266","392458","0.0-241.0","55ced0d234e9060012e5677c","665500ab8938657b03fbdba8","66577be492ec5e2c1d517f18","655","stimuli/1000100.jpg","1","","prediction_trial","1","","true","","1","true","true","true","true","true","true","[1]","000","100","1","","","","","","",""
"","","","","","image-keyboard-response","267","392733","0.0-242.0","55ced0d234e9060012e5677c","665500ab8938657b03fbdba8","66577be492ec5e2c1d517f18","272","stimuli/10001001.jpg"," ","","feedback_trial","1","","","","","","","","","","","","","","","","","","","","",""
"","","","","","image-keyboard-response","268","393917","0.0-243.0","55ced0d234e9060012e5677c","665500ab8938657b03fbdba8","66577be492ec5e2c1d517f18","1180","stimuli/2101101.jpg","2","","prediction_trial","2","","true","","2","false","false","false","false","false","false","[0,2]","101","101","1","","","","","","",""
"","","","","","image-keyboard-response","269","394289","0.0-244.0","55ced0d234e9060012e5677c","665500ab8938657b03fbdba8","66577be492ec5e2c1d517f18","368","stimuli/21011012.jpg"," ","","feedback_trial","0","","","","","","","","","","","","","","","","","","","","",""
"","","","","","image-keyboard-response","270","395539","0.0-245.0","55ced0d234e9060012e5677c","665500ab8938657b03fbdba8","66577be492ec5e2c1d517f18","1246","stimuli/1100010.jpg","1","","prediction_trial","1","","true","","1","false","true","true","true","false","true","[1]","100","010","1","","","","","","",""
"","","","","","image-keyboard-response","271","395815","0.0-246.0","55ced0d234e9060012e5677c","665500ab8938657b03fbdba8","66577be492ec5e2c1d517f18","272","stimuli/11000101.jpg"," ","","feedback_trial","1","","","","","","","","","","","","","","","","","","","","",""
"","","","","","image-keyboard-response","272","396736","0.0-247.0","55ced0d234e9060012e5677c","665500ab8938657b03fbdba8","66577be492ec5e2c1d517f18","919","stimuli/1010000.jpg","1","","prediction_trial","1","","true","","1","true","true","false","true","false","true","[1]","010","000","1","","","","","","",""
"","","","","","image-keyboard-response","273","397252","0.0-248.0","55ced0d234e9060012e5677c","665500ab8938657b03fbdba8","66577be492ec5e2c1d517f18","511","stimuli/10100001.jpg"," ","","feedback_trial","1","","","","","","","","","","","","","","","","","","","","",""
"","","","","","image-keyboard-response","274","398431","0.0-249.0","55ced0d234e9060012e5677c","665500ab8938657b03fbdba8","66577be492ec5e2c1d517f18","1177","stimuli/2111101.jpg","0","","prediction_trial","1","","false","","2","false","false","false","false","false","false","[0,1,2]","111","101","0","","","","","","",""
"","","","","","image-keyboard-response","275","398949","0.0-250.0","55ced0d234e9060012e5677c","665500ab8938657b03fbdba8","66577be492ec5e2c1d517f18","514","stimuli/21111011.jpg"," ","","feedback_trial","0","","","","","","","","","","","","","","","","","","","","",""
"","","","","","image-keyboard-response","276","399744","0.0-251.0","55ced0d234e9060012e5677c","665500ab8938657b03fbdba8","66577be492ec5e2c1d517f18","792","stimuli/1011001.jpg","1","","prediction_trial","1","","true","","1","true","true","false","false","false","false","[2,1]","011","001","1","","","","","","",""
"","","","","","image-keyboard-response","277","400136","0.0-252.0","55ced0d234e9060012e5677c","665500ab8938657b03fbdba8","66577be492ec5e2c1d517f18","389","stimuli/10110011.jpg"," ","","feedback_trial","2","","","","","","","","","","","","","","","","","","","","",""
"","","","","","image-keyboard-response","278","401864","0.0-253.0","55ced0d234e9060012e5677c","665500ab8938657b03fbdba8","66577be492ec5e2c1d517f18","1724","stimuli/2010011.jpg","2","","prediction_trial","2","","true","","2","false","false","true","true","false","false","[2]","010","011","1","","","","","","",""
"","","","","","image-keyboard-response","279","402237","0.0-254.0","55ced0d234e9060012e5677c","665500ab8938657b03fbdba8","66577be492ec5e2c1d517f18","370","stimuli/20100112.jpg"," ","","feedback_trial","2","","","","","","","","","","","","","","","","","","","","",""
"","","","","","image-keyboard-response","280","403152","0.0-255.0","55ced0d234e9060012e5677c","665500ab8938657b03fbdba8","66577be492ec5e2c1d517f18","911","stimuli/2001110.jpg","2","","prediction_trial","2","","true","","2","true","true","false","true","false","true","[2]","001","110","1","","","","","","",""
"","","","","","image-keyboard-response","281","403484","0.0-256.0","55ced0d234e9060012e5677c","665500ab8938657b03fbdba8","66577be492ec5e2c1d517f18","328","stimuli/20011102.jpg"," ","","feedback_trial","2","","","","","","","","","","","","","","","","","","","","",""
"","","","","","image-keyboard-response","282","405596","0.0-257.0","55ced0d234e9060012e5677c","665500ab8938657b03fbdba8","66577be492ec5e2c1d517f18","2108","stimuli/2011000.jpg","2","","prediction_trial","2","","true","","2","true","true","false","false","false","false","[2,1]","011","000","1","","","","","","",""
"","","","","","image-keyboard-response","283","405889","0.0-258.0","55ced0d234e9060012e5677c","665500ab8938657b03fbdba8","66577be492ec5e2c1d517f18","290","stimuli/20110002.jpg"," ","","feedback_trial","2","","","","","","","","","","","","","","","","","","","","",""
"","","","","","image-keyboard-response","284","407898","0.0-259.0","55ced0d234e9060012e5677c","665500ab8938657b03fbdba8","66577be492ec5e2c1d517f18","2006","stimuli/0101110.jpg","1","","prediction_trial","2","","false","","0","false","false","false","false","false","false","[0,2]","101","110","0","","","","","","",""
"","","","","","image-keyboard-response","285","409546","0.0-260.0","55ced0d234e9060012e5677c","665500ab8938657b03fbdba8","66577be492ec5e2c1d517f18","1645","stimuli/01011102.jpg"," ","","feedback_trial","0","","","","","","","","","","","","","","","","","","","","",""
"","","","","","image-keyboard-response","286","411052","0.0-261.0","55ced0d234e9060012e5677c","665500ab8938657b03fbdba8","66577be492ec5e2c1d517f18","1501","stimuli/0100001.jpg","0","","prediction_trial","0","","true","","0","true","true","false","true","false","true","[0]","100","001","1","","","","","","",""
"","","","","","image-keyboard-response","287","411991","0.0-262.0","55ced0d234e9060012e5677c","665500ab8938657b03fbdba8","66577be492ec5e2c1d517f18","936","stimuli/01000010.jpg"," ","","feedback_trial","0","","","","","","","","","","","","","","","","","","","","",""
"","","","","","image-keyboard-response","288","420664","0.0-263.0","55ced0d234e9060012e5677c","665500ab8938657b03fbdba8","66577be492ec5e2c1d517f18","8670","stimuli/1110101.jpg","1","","prediction_trial","1","","true","","1","true","true","false","false","false","false","[1,0]","110","101","1","","","","","","",""
"","","","","","image-keyboard-response","289","421069","0.0-264.0","55ced0d234e9060012e5677c","665500ab8938657b03fbdba8","66577be492ec5e2c1d517f18","402","stimuli/11101011.jpg"," ","","feedback_trial","1","","","","","","","","","","","","","","","","","","","","",""
"","","","","","image-keyboard-response","290","422635","0.0-265.0","55ced0d234e9060012e5677c","665500ab8938657b03fbdba8","66577be492ec5e2c1d517f18","1562","stimuli/2011110.jpg","2","","prediction_trial","1","","false","","2","true","true","false","false","false","false","[2,1]","011","110","0","","","","","","",""
"","","","","","image-keyboard-response","291","424446","0.0-266.0","55ced0d234e9060012e5677c","665500ab8938657b03fbdba8","66577be492ec5e2c1d517f18","1800","stimuli/20111101.jpg"," ","","feedback_trial","2","","","","","","","","","","","","","","","","","","","","",""
"","","","","","image-keyboard-response","292","425161","0.0-267.0","55ced0d234e9060012e5677c","665500ab8938657b03fbdba8","66577be492ec5e2c1d517f18","712","stimuli/0001010.jpg","0","","prediction_trial","0","","true","","0","true","true","true","true","true","true","[0]","001","010","1","","","","","","",""
"","","","","","image-keyboard-response","293","425477","0.0-268.0","55ced0d234e9060012e5677c","665500ab8938657b03fbdba8","66577be492ec5e2c1d517f18","312","stimuli/00010100.jpg"," ","","feedback_trial","0","","","","","","","","","","","","","","","","","","","","",""
"","","","","","image-keyboard-response","294","427315","0.0-269.0","55ced0d234e9060012e5677c","665500ab8938657b03fbdba8","66577be492ec5e2c1d517f18","1835","stimuli/2101100.jpg","0","","prediction_trial","2","","false","","2","true","true","false","false","false","false","[2,0]","101","100","0","","","","","","",""
"","","","","","image-keyboard-response","295","428034","0.0-270.0","55ced0d234e9060012e5677c","665500ab8938657b03fbdba8","66577be492ec5e2c1d517f18","715","stimuli/21011002.jpg"," ","","feedback_trial","2","","","","","","","","","","","","","","","","","","","","",""
"","","","","","image-keyboard-response","296","429722","0.0-271.0","55ced0d234e9060012e5677c","665500ab8938657b03fbdba8","66577be492ec5e2c1d517f18","1685","stimuli/1101000.jpg","1","","prediction_trial","1","","true","","1","true","true","true","true","true","true","[1]","101","000","1","","","","","","",""
"","","","","","image-keyboard-response","297","430066","0.0-272.0","55ced0d234e9060012e5677c","665500ab8938657b03fbdba8","66577be492ec5e2c1d517f18","342","stimuli/11010001.jpg"," ","","feedback_trial","1","","","","","","","","","","","","","","","","","","","","",""
"","","","","","image-keyboard-response","298","431894","0.0-273.0","55ced0d234e9060012e5677c","665500ab8938657b03fbdba8","66577be492ec5e2c1d517f18","1824","stimuli/2100101.jpg","2","","prediction_trial","2","","true","","2","false","false","true","true","false","false","[2]","100","101","1","","","","","","",""
"","","","","","image-keyboard-response","299","432514","0.0-274.0","55ced0d234e9060012e5677c","665500ab8938657b03fbdba8","66577be492ec5e2c1d517f18","617","stimuli/21001012.jpg"," ","","feedback_trial","2","","","","","","","","","","","","","","","","","","","","",""
"","","","","","image-keyboard-response","300","433335","0.0-275.0","55ced0d234e9060012e5677c","665500ab8938657b03fbdba8","66577be492ec5e2c1d517f18","818","stimuli/2110110.jpg","2","","prediction_trial","2","","true","","2","true","true","true","true","true","true","[2]","110","110","1","","","","","","",""
"","","","","","image-keyboard-response","301","433751","0.0-276.0","55ced0d234e9060012e5677c","665500ab8938657b03fbdba8","66577be492ec5e2c1d517f18","413","stimuli/21101102.jpg"," ","","feedback_trial","2","","","","","","","","","","","","","","","","","","","","",""
"","","","","","image-keyboard-response","302","434791","0.0-277.0","55ced0d234e9060012e5677c","665500ab8938657b03fbdba8","66577be492ec5e2c1d517f18","1036","stimuli/1010001.jpg","1","","prediction_trial","1","","true","","1","true","true","false","true","false","true","[1]","010","001","1","","","","","","",""
"","","","","","image-keyboard-response","303","435153","0.0-278.0","55ced0d234e9060012e5677c","665500ab8938657b03fbdba8","66577be492ec5e2c1d517f18","359","stimuli/10100011.jpg"," ","","feedback_trial","1","","","","","","","","","","","","","","","","","","","","",""
"","","","","","image-keyboard-response","304","436562","0.0-279.0","55ced0d234e9060012e5677c","665500ab8938657b03fbdba8","66577be492ec5e2c1d517f18","1407","stimuli/0111001.jpg","0","","prediction_trial","0","","true","","0","true","true","false","false","false","false","[2,1,0]","111","001","1","","","","","","",""
"","","","","","image-keyboard-response","305","436918","0.0-280.0","55ced0d234e9060012e5677c","665500ab8938657b03fbdba8","66577be492ec5e2c1d517f18","352","stimuli/01110010.jpg"," ","","feedback_trial","2","","","","","","","","","","","","","","","","","","","","",""
"","","","","","image-keyboard-response","306","437640","0.0-281.0","55ced0d234e9060012e5677c","665500ab8938657b03fbdba8","66577be492ec5e2c1d517f18","719","stimuli/2000010.jpg","2","","prediction_trial","2","","true","","2","true","true","true","true","true","true","[2]","000","010","1","","","","","","",""
"","","","","","image-keyboard-response","307","437916","0.0-282.0","55ced0d234e9060012e5677c","665500ab8938657b03fbdba8","66577be492ec5e2c1d517f18","273","stimuli/20000102.jpg"," ","","feedback_trial","2","","","","","","","","","","","","","","","","","","","","",""
"","","","","","image-keyboard-response","308","439184","0.0-283.0","55ced0d234e9060012e5677c","665500ab8938657b03fbdba8","66577be492ec5e2c1d517f18","1264","stimuli/0110101.jpg","2","","prediction_trial","1","","false","","0","false","false","false","false","false","false","[0,1]","110","101","0","","","","","","",""
"","","","","","image-keyboard-response","309","440041","0.0-284.0","55ced0d234e9060012e5677c","665500ab8938657b03fbdba8","66577be492ec5e2c1d517f18","854","stimuli/01101011.jpg"," ","","feedback_trial","0","","","","","","","","","","","","","","","","","","","","",""
"","","","","","image-keyboard-response","310","440675","0.0-285.0","55ced0d234e9060012e5677c","665500ab8938657b03fbdba8","66577be492ec5e2c1d517f18","631","stimuli/0000011.jpg","0","","prediction_trial","0","","true","","0","true","true","true","true","true","true","[0]","000","011","1","","","","","","",""
"","","","","","image-keyboard-response","311","441031","0.0-286.0","55ced0d234e9060012e5677c","665500ab8938657b03fbdba8","66577be492ec5e2c1d517f18","354","stimuli/00000110.jpg"," ","","feedback_trial","0","","","","","","","","","","","","","","","","","","","","",""
"","","","","","image-keyboard-response","312","441642","0.0-287.0","55ced0d234e9060012e5677c","665500ab8938657b03fbdba8","66577be492ec5e2c1d517f18","609","stimuli/1100100.jpg","1","","prediction_trial","1","","true","","1","true","true","true","true","true","true","[1]","100","100","1","","","","","","",""
"","","","","","image-keyboard-response","313","441882","0.0-288.0","55ced0d234e9060012e5677c","665500ab8938657b03fbdba8","66577be492ec5e2c1d517f18","226","stimuli/11001001.jpg"," ","","feedback_trial","1","","","","","","","","","","","","","","","","","","","","",""
"","","","","","image-keyboard-response","314","443156","0.0-289.0","55ced0d234e9060012e5677c","665500ab8938657b03fbdba8","66577be492ec5e2c1d517f18","1271","stimuli/0011101.jpg","0","","prediction_trial","0","","true","","0","false","false","true","true","false","false","[0]","011","101","1","","","","","","",""
"","","","","","image-keyboard-response","315","443499","0.0-290.0","55ced0d234e9060012e5677c","665500ab8938657b03fbdba8","66577be492ec5e2c1d517f18","340","stimuli/00111010.jpg"," ","","feedback_trial","0","","","","","","","","","","","","","","","","","","","","",""
"","","","","","image-keyboard-response","316","444632","0.0-291.0","55ced0d234e9060012e5677c","665500ab8938657b03fbdba8","66577be492ec5e2c1d517f18","1129","stimuli/0110001.jpg","0","","prediction_trial","0","","true","","0","true","true","false","false","false","false","[0,1]","110","001","1","","","","","","",""
"","","","","","image-keyboard-response","317","444983","0.0-292.0","55ced0d234e9060012e5677c","665500ab8938657b03fbdba8","66577be492ec5e2c1d517f18","347","stimuli/01100010.jpg"," ","","feedback_trial","0","","","","","","","","","","","","","","","","","","","","",""
"","","","","","survey-html-form","318","484500","0.0-293.0","55ced0d234e9060012e5677c","665500ab8938657b03fbdba8","66577be492ec5e2c1d517f18","39512","","{""feedback"":""Just gut instinct when he couldn't see where the ball was or should be."",""age"":""41"",""gender"":""Female"",""other_gender"":"""",""race"":""White"",""other_race"":"""",""ethnicity"":""Hispanic""}","","exit_survey","","","","","","","","","","","","","","","","Just gut instinct when he couldn't see where the ball was or should be.","41","Hispanic","Female","White","0.7361111111111112","0.7361111111111112"
