"success","timeout","failed_images","failed_audio","failed_video","trial_type","trial_index","time_elapsed","internal_node_id","prolific_id","prolific_study_id","prolific_session_id","rt","stimulus","response","view_history","trial","character_choice","stimulus_dict","accuracy","correct_response","ball_pos","ego_ball_visible","ego_can_infer","alter_ball_visible","alter_can_infer","collective_ball_visible","collective_can_infer","search_locations","alter_occluders","ego_occluders","accuracy_bool","feedback","age","ethnicity","gender","race","overall_accuracy","bonus"
"true","false","[]","[]","[]","preload","0","3093","0.0-0.0","5c7f489defd9e20015751167","665500ab8938657b03fbdba8","6657925c480d7e783d0b7ba9","","","","","","","","","","","","","","","","","","","","","","","","","","",""
"true","","","","","fullscreen","1","6306","0.0-1.0","5c7f489defd9e20015751167","665500ab8938657b03fbdba8","6657925c480d7e783d0b7ba9","","","","","","","","","","","","","","","","","","","","","","","","","","",""
"","","","","","html-button-response","2","11171","0.0-2.0","5c7f489defd9e20015751167","665500ab8938657b03fbdba8","6657925c480d7e783d0b7ba9","4861","<p><b>Consent Form</b></p> <div style=""text-align:left;background-color:lightgrey; padding:20px; max-width:900px;""><p>Please consider this information carefully before deciding whether to participate in this research.</p> <p>The purpose of this research is to examine which factors influence social judgment and decision-making. You will be asked to make judgements about individuals and actions in social scenarios. We are simply interested in your judgement. The study will take less than 1 hour to complete, and you will receive less than $20 on Prolific. Your compensation and time commitment are specified in the study description. There are no anticipated risks associated with participating in this study. The effects of participating should be comparable to those you would ordinarily experience from viewing a computer monitor and using a mouse or keyboard for a similar amount of time. At the end of the study, we will provide an explanation of the questions that motivate this line of research and will describe the potential implications. </p><p> Your participation in this study is completely voluntary and you may refuse to participate or you may choose to withdraw at any time without penalty or loss of benefits to you which are otherwise entitled. Your participation in this study will remain confidential. No personally identifiable information will be associated with your data. Also, all analyses of the data will be averaged across all the participants, so your individual responses will never be specifically analyzed. </p><p> If you have questions or concerns about your participation or payment, or want to request a summary of research findings, please contact Dr. Jonathan Phillips at Jonathan.S.Phillips@dartmouth.edu. </p><p> Please save a copy of this form for your records. </p><p><b>Agreement: </b>The nature and purpose of this research have been sufficiently explained and I agree to participate in this study. I understand that I am free to withdraw at any time without incurring any penalty. Please consent by clicking the button below to continue. Otherwise, please exit the study at any time. </p>","0","","","","","","","","","","","","","","","","","","","","","","","",""
"","","","","","instructions","3","73424","0.0-3.0-0.0","5c7f489defd9e20015751167","665500ab8938657b03fbdba8","6657925c480d7e783d0b7ba9","62252","","","[{""page_index"":0,""viewing_time"":1682},{""page_index"":1,""viewing_time"":2365},{""page_index"":2,""viewing_time"":4251},{""page_index"":3,""viewing_time"":4999},{""page_index"":4,""viewing_time"":2767},{""page_index"":5,""viewing_time"":3200},{""page_index"":6,""viewing_time"":3583},{""page_index"":7,""viewing_time"":3150},{""page_index"":8,""viewing_time"":3284},{""page_index"":9,""viewing_time"":2383},{""page_index"":10,""viewing_time"":14767},{""page_index"":11,""viewing_time"":8450},{""page_index"":12,""viewing_time"":5535},{""page_index"":13,""viewing_time"":1833}]","intro","","","","","","","","","","","","","","","","","","","","","",""
"","","","","","image-keyboard-response","4","76678","0.0-3.0-1.0","5c7f489defd9e20015751167","665500ab8938657b03fbdba8","6657925c480d7e783d0b7ba9","3249","stimuli/1100100.jpg","1","","prediction_practice","1","{""filepath"":""stimuli/1100100.jpg"",""ball_pos"":1,""ego_ball_visible"":true,""ego_can_infer"":true,""alter_ball_visible"":true,""alter_can_infer"":true,""collective_ball_visible"":true,""collective_can_infer"":true,""search_locations"":[1],""alter_occluders"":""100"",""ego_occluders"":""100""}","true","","","","","","","","","","","","","","","","","","",""
"","","","","","image-keyboard-response","5","78313","0.0-3.0-2.0","5c7f489defd9e20015751167","665500ab8938657b03fbdba8","6657925c480d7e783d0b7ba9","1632","stimuli/11001001.jpg"," ","","practrice_feedback","1","","","","","","","","","","","","","","","","","","","","",""
"","","","","","image-keyboard-response","6","79346","0.0-3.0-3.0","5c7f489defd9e20015751167","665500ab8938657b03fbdba8","6657925c480d7e783d0b7ba9","1031","stimuli/1100001.jpg","1","","prediction_practice","1","{""filepath"":""stimuli/1100001.jpg"",""ball_pos"":1,""ego_ball_visible"":true,""ego_can_infer"":true,""alter_ball_visible"":true,""alter_can_infer"":true,""collective_ball_visible"":true,""collective_can_infer"":true,""search_locations"":[1],""alter_occluders"":""100"",""ego_occluders"":""001""}","true","","","","","","","","","","","","","","","","","","",""
"","","","","","image-keyboard-response","7","80010","0.0-3.0-4.0","5c7f489defd9e20015751167","665500ab8938657b03fbdba8","6657925c480d7e783d0b7ba9","662","stimuli/11000011.jpg"," ","","practrice_feedback","1","","","","","","","","","","","","","","","","","","","","",""
"","","","","","image-keyboard-response","8","82628","0.0-3.0-5.0","5c7f489defd9e20015751167","665500ab8938657b03fbdba8","6657925c480d7e783d0b7ba9","2616","stimuli/0101001.jpg","0","","prediction_practice","2","{""filepath"":""stimuli/0101001.jpg"",""ball_pos"":0,""ego_ball_visible"":true,""ego_can_infer"":true,""alter_ball_visible"":false,""alter_can_infer"":false,""collective_ball_visible"":false,""collective_can_infer"":false,""search_locations"":[2,0],""alter_occluders"":""101"",""ego_occluders"":""001""}","false","","","","","","","","","","","","","","","","","","",""
"","","","","","image-keyboard-response","9","83987","0.0-3.0-6.0","5c7f489defd9e20015751167","665500ab8938657b03fbdba8","6657925c480d7e783d0b7ba9","1358","stimuli/01010012.jpg"," ","","practrice_feedback","2","","","","","","","","","","","","","","","","","","","","",""
"","","","","","image-keyboard-response","10","85376","0.0-3.0-7.0","5c7f489defd9e20015751167","665500ab8938657b03fbdba8","6657925c480d7e783d0b7ba9","1386","stimuli/0100100.jpg","0","","prediction_practice","0","{""filepath"":""stimuli/0100100.jpg"",""ball_pos"":0,""ego_ball_visible"":false,""ego_can_infer"":true,""alter_ball_visible"":false,""alter_can_infer"":true,""collective_ball_visible"":false,""collective_can_infer"":true,""search_locations"":[0],""alter_occluders"":""100"",""ego_occluders"":""100""}","true","","","","","","","","","","","","","","","","","","",""
"","","","","","image-keyboard-response","11","86068","0.0-3.0-8.0","5c7f489defd9e20015751167","665500ab8938657b03fbdba8","6657925c480d7e783d0b7ba9","690","stimuli/01001000.jpg"," ","","practrice_feedback","0","","","","","","","","","","","","","","","","","","","","",""
"","","","","","image-keyboard-response","12","87604","0.0-3.0-9.0","5c7f489defd9e20015751167","665500ab8938657b03fbdba8","6657925c480d7e783d0b7ba9","1534","stimuli/0110011.jpg","1","","prediction_practice","1","{""filepath"":""stimuli/0110011.jpg"",""ball_pos"":0,""ego_ball_visible"":true,""ego_can_infer"":true,""alter_ball_visible"":false,""alter_can_infer"":false,""collective_ball_visible"":false,""collective_can_infer"":false,""search_locations"":[1,0],""alter_occluders"":""110"",""ego_occluders"":""011""}","true","","","","","","","","","","","","","","","","","","",""
"","","","","","image-keyboard-response","13","88402","0.0-3.0-10.0","5c7f489defd9e20015751167","665500ab8938657b03fbdba8","6657925c480d7e783d0b7ba9","796","stimuli/01100111.jpg"," ","","practrice_feedback","1","","","","","","","","","","","","","","","","","","","","",""
"","","","","","image-keyboard-response","14","90208","0.0-3.0-11.0","5c7f489defd9e20015751167","665500ab8938657b03fbdba8","6657925c480d7e783d0b7ba9","1797","stimuli/2011010.jpg","2","","prediction_practice","1","{""filepath"":""stimuli/2011010.jpg"",""ball_pos"":2,""ego_ball_visible"":true,""ego_can_infer"":true,""alter_ball_visible"":false,""alter_can_infer"":false,""collective_ball_visible"":false,""collective_can_infer"":false,""search_locations"":[1,2],""alter_occluders"":""011"",""ego_occluders"":""010""}","false","","","","","","","","","","","","","","","","","","",""
"","","","","","image-keyboard-response","15","90970","0.0-3.0-12.0","5c7f489defd9e20015751167","665500ab8938657b03fbdba8","6657925c480d7e783d0b7ba9","760","stimuli/20110101.jpg"," ","","practrice_feedback","1","","","","","","","","","","","","","","","","","","","","",""
"","","","","","image-keyboard-response","16","92824","0.0-3.0-13.0","5c7f489defd9e20015751167","665500ab8938657b03fbdba8","6657925c480d7e783d0b7ba9","1851","stimuli/2011100.jpg","1","","prediction_practice","1","{""filepath"":""stimuli/2011100.jpg"",""ball_pos"":2,""ego_ball_visible"":true,""ego_can_infer"":true,""alter_ball_visible"":false,""alter_can_infer"":false,""collective_ball_visible"":false,""collective_can_infer"":false,""search_locations"":[1,2],""alter_occluders"":""011"",""ego_occluders"":""100""}","true","","","","","","","","","","","","","","","","","","",""
"","","","","","image-keyboard-response","17","93486","0.0-3.0-14.0","5c7f489defd9e20015751167","665500ab8938657b03fbdba8","6657925c480d7e783d0b7ba9","660","stimuli/20111001.jpg"," ","","practrice_feedback","1","","","","","","","","","","","","","","","","","","","","",""
"","","","","","image-keyboard-response","18","94403","0.0-3.0-15.0","5c7f489defd9e20015751167","665500ab8938657b03fbdba8","6657925c480d7e783d0b7ba9","915","stimuli/2011111.jpg","1","","prediction_practice","2","{""filepath"":""stimuli/2011111.jpg"",""ball_pos"":2,""ego_ball_visible"":false,""ego_can_infer"":false,""alter_ball_visible"":false,""alter_can_infer"":false,""collective_ball_visible"":false,""collective_can_infer"":false,""search_locations"":[1,2],""alter_occluders"":""011"",""ego_occluders"":""111""}","false","","","","","","","","","","","","","","","","","","",""
"","","","","","image-keyboard-response","19","95603","0.0-3.0-16.0","5c7f489defd9e20015751167","665500ab8938657b03fbdba8","6657925c480d7e783d0b7ba9","1198","stimuli/20111112.jpg"," ","","practrice_feedback","1","","","","","","","","","","","","","","","","","","","","",""
"","","","","","image-keyboard-response","20","96683","0.0-3.0-17.0","5c7f489defd9e20015751167","665500ab8938657b03fbdba8","6657925c480d7e783d0b7ba9","1080","stimuli/0100110.jpg","0","","prediction_practice","0","{""filepath"":""stimuli/0100110.jpg"",""ball_pos"":0,""ego_ball_visible"":false,""ego_can_infer"":false,""alter_ball_visible"":false,""alter_can_infer"":true,""collective_ball_visible"":false,""collective_can_infer"":false,""search_locations"":[0],""alter_occluders"":""100"",""ego_occluders"":""110""}","true","","","","","","","","","","","","","","","","","","",""
"","","","","","image-keyboard-response","21","97140","0.0-3.0-18.0","5c7f489defd9e20015751167","665500ab8938657b03fbdba8","6657925c480d7e783d0b7ba9","455","stimuli/01001100.jpg"," ","","practrice_feedback","0","","","","","","","","","","","","","","","","","","","","",""
"","","","","","image-keyboard-response","22","98552","0.0-3.0-19.0","5c7f489defd9e20015751167","665500ab8938657b03fbdba8","6657925c480d7e783d0b7ba9","1411","stimuli/0111001.jpg","1","","prediction_practice","0","{""filepath"":""stimuli/0111001.jpg"",""ball_pos"":0,""ego_ball_visible"":true,""ego_can_infer"":true,""alter_ball_visible"":false,""alter_can_infer"":false,""collective_ball_visible"":false,""collective_can_infer"":false,""search_locations"":[0,1,2],""alter_occluders"":""111"",""ego_occluders"":""001""}","false","","","","","","","","","","","","","","","","","","",""
"","","","","","image-keyboard-response","23","99306","0.0-3.0-20.0","5c7f489defd9e20015751167","665500ab8938657b03fbdba8","6657925c480d7e783d0b7ba9","752","stimuli/01110010.jpg"," ","","practrice_feedback","0","","","","","","","","","","","","","","","","","","","","",""
"","","","","","html-button-response","24","103672","0.0-3.0-21.0","5c7f489defd9e20015751167","665500ab8938657b03fbdba8","6657925c480d7e783d0b7ba9","4364","Now that you've had some practice, you'll be tested with a couple of easy trials. If you correctly predict Sam's choice, you'll move on to complete the experiment!","0","","","","","","","","","","","","","","","","","","","","","","","",""
"","","","","","image-keyboard-response","25","105726","0.0-3.0-22.0-0.0","5c7f489defd9e20015751167","665500ab8938657b03fbdba8","6657925c480d7e783d0b7ba9","2053","stimuli/0000011.jpg","arrowleft","","comprehension_quiz","","","true","arrowleft","","","","","","","","","","","","","","","","","",""
"","","","","","image-keyboard-response","26","106495","0.0-3.0-22.0-1.0","5c7f489defd9e20015751167","665500ab8938657b03fbdba8","6657925c480d7e783d0b7ba9","766","stimuli/00000110.jpg"," ","","comprehension_quiz","","","true"," ","","","","","","","","","","","","","","","","","",""
"","","","","","image-keyboard-response","27","108046","0.0-3.0-22.0-2.0","5c7f489defd9e20015751167","665500ab8938657b03fbdba8","6657925c480d7e783d0b7ba9","1549","stimuli/1010010.jpg","arrowdown","","comprehension_quiz","","","true","arrowdown","","","","","","","","","","","","","","","","","",""
"","","","","","image-keyboard-response","28","108453","0.0-3.0-22.0-3.0","5c7f489defd9e20015751167","665500ab8938657b03fbdba8","6657925c480d7e783d0b7ba9","405","stimuli/10100101.jpg"," ","","comprehension_quiz","","","true"," ","","","","","","","","","","","","","","","","","",""
"","","","","","html-button-response","29","111273","0.0-4.0","5c7f489defd9e20015751167","665500ab8938657b03fbdba8","6657925c480d7e783d0b7ba9","2817","The experiment will now begin.","0","","","","","","","","","","","","","","","","","","","","","","","",""
"","","","","","image-keyboard-response","30","113332","0.0-5.0","5c7f489defd9e20015751167","665500ab8938657b03fbdba8","6657925c480d7e783d0b7ba9","2057","stimuli/2111001.jpg","1","","prediction_trial","0","","false","","2","false","true","false","false","false","false","[0,2,1]","111","001","0","","","","","","",""
"","","","","","image-keyboard-response","31","114375","0.0-6.0","5c7f489defd9e20015751167","665500ab8938657b03fbdba8","6657925c480d7e783d0b7ba9","1041","stimuli/21110010.jpg"," ","","feedback_trial","0","","","","","","","","","","","","","","","","","","","","",""
"","","","","","image-keyboard-response","32","115878","0.0-7.0","5c7f489defd9e20015751167","665500ab8938657b03fbdba8","6657925c480d7e783d0b7ba9","1501","stimuli/0000111.jpg","0","","prediction_trial","0","","true","","0","false","false","true","true","false","false","[0]","000","111","1","","","","","","",""
"","","","","","image-keyboard-response","33","116682","0.0-8.0","5c7f489defd9e20015751167","665500ab8938657b03fbdba8","6657925c480d7e783d0b7ba9","803","stimuli/00001110.jpg"," ","","feedback_trial","0","","","","","","","","","","","","","","","","","","","","",""
"","","","","","image-keyboard-response","34","118264","0.0-9.0","5c7f489defd9e20015751167","665500ab8938657b03fbdba8","6657925c480d7e783d0b7ba9","1580","stimuli/2110011.jpg","0","","prediction_trial","2","","false","","2","false","false","true","true","false","false","[2]","110","011","0","","","","","","",""
"","","","","","image-keyboard-response","35","119402","0.0-10.0","5c7f489defd9e20015751167","665500ab8938657b03fbdba8","6657925c480d7e783d0b7ba9","1136","stimuli/21100112.jpg"," ","","feedback_trial","2","","","","","","","","","","","","","","","","","","","","",""
"","","","","","image-keyboard-response","36","120741","0.0-11.0","5c7f489defd9e20015751167","665500ab8938657b03fbdba8","6657925c480d7e783d0b7ba9","1338","stimuli/1101010.jpg","1","","prediction_trial","1","","true","","1","false","true","true","true","false","true","[1]","101","010","1","","","","","","",""
"","","","","","image-keyboard-response","37","121094","0.0-12.0","5c7f489defd9e20015751167","665500ab8938657b03fbdba8","6657925c480d7e783d0b7ba9","351","stimuli/11010101.jpg"," ","","feedback_trial","1","","","","","","","","","","","","","","","","","","","","",""
"","","","","","image-keyboard-response","38","122947","0.0-13.0","5c7f489defd9e20015751167","665500ab8938657b03fbdba8","6657925c480d7e783d0b7ba9","1843","stimuli/1001011.jpg","1","","prediction_trial","1","","true","","1","false","false","true","true","false","false","[1]","001","011","1","","","","","","",""
"","","","","","image-keyboard-response","39","123497","0.0-14.0","5c7f489defd9e20015751167","665500ab8938657b03fbdba8","6657925c480d7e783d0b7ba9","548","stimuli/10010111.jpg"," ","","feedback_trial","1","","","","","","","","","","","","","","","","","","","","",""
"","","","","","image-keyboard-response","40","125133","0.0-15.0","5c7f489defd9e20015751167","665500ab8938657b03fbdba8","6657925c480d7e783d0b7ba9","1634","stimuli/0001110.jpg","1","","prediction_trial","0","","false","","0","false","false","true","true","false","false","[0]","001","110","0","","","","","","",""
"","","","","","image-keyboard-response","41","125697","0.0-16.0","5c7f489defd9e20015751167","665500ab8938657b03fbdba8","6657925c480d7e783d0b7ba9","562","stimuli/00011100.jpg"," ","","feedback_trial","0","","","","","","","","","","","","","","","","","","","","",""
"","","","","","image-keyboard-response","42","126870","0.0-17.0","5c7f489defd9e20015751167","665500ab8938657b03fbdba8","6657925c480d7e783d0b7ba9","1171","stimuli/1010010.jpg","1","","prediction_trial","1","","true","","1","false","true","false","true","false","true","[1]","010","010","1","","","","","","",""
"","","","","","image-keyboard-response","43","127225","0.0-18.0","5c7f489defd9e20015751167","665500ab8938657b03fbdba8","6657925c480d7e783d0b7ba9","353","stimuli/10100101.jpg"," ","","feedback_trial","1","","","","","","","","","","","","","","","","","","","","",""
"","","","","","image-keyboard-response","44","130198","0.0-19.0","5c7f489defd9e20015751167","665500ab8938657b03fbdba8","6657925c480d7e783d0b7ba9","2972","stimuli/1010110.jpg","0","","prediction_trial","1","","false","","1","false","false","false","true","false","false","[1]","010","110","0","","","","","","",""
"","","","","","image-keyboard-response","45","130928","0.0-20.0","5c7f489defd9e20015751167","665500ab8938657b03fbdba8","6657925c480d7e783d0b7ba9","728","stimuli/10101101.jpg"," ","","feedback_trial","1","","","","","","","","","","","","","","","","","","","","",""
"","","","","","image-keyboard-response","46","133078","0.0-21.0","5c7f489defd9e20015751167","665500ab8938657b03fbdba8","6657925c480d7e783d0b7ba9","2149","stimuli/0101011.jpg","0","","prediction_trial","0","","true","","0","true","true","false","false","false","false","[0,2]","101","011","1","","","","","","",""
"","","","","","image-keyboard-response","47","133645","0.0-22.0","5c7f489defd9e20015751167","665500ab8938657b03fbdba8","6657925c480d7e783d0b7ba9","566","stimuli/01010110.jpg"," ","","feedback_trial","0","","","","","","","","","","","","","","","","","","","","",""
"","","","","","image-keyboard-response","48","135569","0.0-23.0","5c7f489defd9e20015751167","665500ab8938657b03fbdba8","6657925c480d7e783d0b7ba9","1922","stimuli/1111010.jpg","1","","prediction_trial","1","","true","","1","false","true","false","false","false","false","[1,0,2]","111","010","1","","","","","","",""
"","","","","","image-keyboard-response","49","136213","0.0-24.0","5c7f489defd9e20015751167","665500ab8938657b03fbdba8","6657925c480d7e783d0b7ba9","642","stimuli/11110101.jpg"," ","","feedback_trial","1","","","","","","","","","","","","","","","","","","","","",""
"","","","","","image-keyboard-response","50","137984","0.0-25.0","5c7f489defd9e20015751167","665500ab8938657b03fbdba8","6657925c480d7e783d0b7ba9","1769","stimuli/2100001.jpg","2","","prediction_trial","2","","true","","2","false","true","true","true","false","true","[2]","100","001","1","","","","","","",""
"","","","","","image-keyboard-response","51","138485","0.0-26.0","5c7f489defd9e20015751167","665500ab8938657b03fbdba8","6657925c480d7e783d0b7ba9","499","stimuli/21000012.jpg"," ","","feedback_trial","2","","","","","","","","","","","","","","","","","","","","",""
"","","","","","image-keyboard-response","52","141207","0.0-27.0","5c7f489defd9e20015751167","665500ab8938657b03fbdba8","6657925c480d7e783d0b7ba9","2721","stimuli/2111101.jpg","2","","prediction_trial","1","","false","","2","false","false","false","false","false","false","[0,1,2]","111","101","0","","","","","","",""
"","","","","","image-keyboard-response","53","141693","0.0-28.0","5c7f489defd9e20015751167","665500ab8938657b03fbdba8","6657925c480d7e783d0b7ba9","484","stimuli/21111011.jpg"," ","","feedback_trial","0","","","","","","","","","","","","","","","","","","","","",""
"","","","","","image-keyboard-response","54","143303","0.0-29.0","5c7f489defd9e20015751167","665500ab8938657b03fbdba8","6657925c480d7e783d0b7ba9","1608","stimuli/0111001.jpg","0","","prediction_trial","1","","false","","0","true","true","false","false","false","false","[0,1,2]","111","001","0","","","","","","",""
"","","","","","image-keyboard-response","55","143771","0.0-30.0","5c7f489defd9e20015751167","665500ab8938657b03fbdba8","6657925c480d7e783d0b7ba9","467","stimuli/01110011.jpg"," ","","feedback_trial","0","","","","","","","","","","","","","","","","","","","","",""
"","","","","","image-keyboard-response","56","144832","0.0-31.0","5c7f489defd9e20015751167","665500ab8938657b03fbdba8","6657925c480d7e783d0b7ba9","1059","stimuli/2001001.jpg","2","","prediction_trial","2","","true","","2","false","true","false","true","false","true","[2]","001","001","1","","","","","","",""
"","","","","","image-keyboard-response","57","145194","0.0-32.0","5c7f489defd9e20015751167","665500ab8938657b03fbdba8","6657925c480d7e783d0b7ba9","360","stimuli/20010012.jpg"," ","","feedback_trial","2","","","","","","","","","","","","","","","","","","","","",""
"","","","","","image-keyboard-response","58","146027","0.0-33.0","5c7f489defd9e20015751167","665500ab8938657b03fbdba8","6657925c480d7e783d0b7ba9","832","stimuli/2110010.jpg","2","","prediction_trial","2","","true","","2","true","true","true","true","true","true","[2]","110","010","1","","","","","","",""
"","","","","","image-keyboard-response","59","146352","0.0-34.0","5c7f489defd9e20015751167","665500ab8938657b03fbdba8","6657925c480d7e783d0b7ba9","323","stimuli/21100102.jpg"," ","","feedback_trial","2","","","","","","","","","","","","","","","","","","","","",""
"","","","","","image-keyboard-response","60","147051","0.0-35.0","5c7f489defd9e20015751167","665500ab8938657b03fbdba8","6657925c480d7e783d0b7ba9","697","stimuli/0000000.jpg","0","","prediction_trial","0","","true","","0","true","true","true","true","true","true","[0]","000","000","1","","","","","","",""
"","","","","","image-keyboard-response","61","147345","0.0-36.0","5c7f489defd9e20015751167","665500ab8938657b03fbdba8","6657925c480d7e783d0b7ba9","292","stimuli/00000000.jpg"," ","","feedback_trial","0","","","","","","","","","","","","","","","","","","","","",""
"","","","","","image-keyboard-response","62","149434","0.0-37.0","5c7f489defd9e20015751167","665500ab8938657b03fbdba8","6657925c480d7e783d0b7ba9","2087","stimuli/0101001.jpg","2","","prediction_trial","2","","true","","0","true","true","false","false","false","false","[2,0]","101","001","1","","","","","","",""
"","","","","","image-keyboard-response","63","149838","0.0-38.0","5c7f489defd9e20015751167","665500ab8938657b03fbdba8","6657925c480d7e783d0b7ba9","402","stimuli/01010012.jpg"," ","","feedback_trial","2","","","","","","","","","","","","","","","","","","","","",""
"","","","","","image-keyboard-response","64","150611","0.0-39.0","5c7f489defd9e20015751167","665500ab8938657b03fbdba8","6657925c480d7e783d0b7ba9","772","stimuli/2000110.jpg","2","","prediction_trial","2","","true","","2","true","true","true","true","true","true","[2]","000","110","1","","","","","","",""
"","","","","","image-keyboard-response","65","150962","0.0-40.0","5c7f489defd9e20015751167","665500ab8938657b03fbdba8","6657925c480d7e783d0b7ba9","349","stimuli/20001102.jpg"," ","","feedback_trial","2","","","","","","","","","","","","","","","","","","","","",""
"","","","","","image-keyboard-response","66","152521","0.0-41.0","5c7f489defd9e20015751167","665500ab8938657b03fbdba8","6657925c480d7e783d0b7ba9","1556","stimuli/0101111.jpg","1","","prediction_trial","2","","false","","0","false","false","false","false","false","false","[0,2]","101","111","0","","","","","","",""
"","","","","","image-keyboard-response","67","152937","0.0-42.0","5c7f489defd9e20015751167","665500ab8938657b03fbdba8","6657925c480d7e783d0b7ba9","414","stimuli/01011112.jpg"," ","","feedback_trial","0","","","","","","","","","","","","","","","","","","","","",""
"","","","","","image-keyboard-response","68","153842","0.0-43.0","5c7f489defd9e20015751167","665500ab8938657b03fbdba8","6657925c480d7e783d0b7ba9","903","stimuli/2100000.jpg","2","","prediction_trial","2","","true","","2","true","true","true","true","true","true","[2]","100","000","1","","","","","","",""
"","","","","","image-keyboard-response","69","154123","0.0-44.0","5c7f489defd9e20015751167","665500ab8938657b03fbdba8","6657925c480d7e783d0b7ba9","279","stimuli/21000002.jpg"," ","","feedback_trial","2","","","","","","","","","","","","","","","","","","","","",""
"","","","","","image-keyboard-response","70","155491","0.0-45.0","5c7f489defd9e20015751167","665500ab8938657b03fbdba8","6657925c480d7e783d0b7ba9","1366","stimuli/1010101.jpg","1","","prediction_trial","1","","true","","1","true","true","false","true","false","true","[1]","010","101","1","","","","","","",""
"","","","","","image-keyboard-response","71","155828","0.0-46.0","5c7f489defd9e20015751167","665500ab8938657b03fbdba8","6657925c480d7e783d0b7ba9","334","stimuli/10101011.jpg"," ","","feedback_trial","1","","","","","","","","","","","","","","","","","","","","",""
"","","","","","image-keyboard-response","72","157556","0.0-47.0","5c7f489defd9e20015751167","665500ab8938657b03fbdba8","6657925c480d7e783d0b7ba9","1726","stimuli/1100011.jpg","1","","prediction_trial","1","","true","","1","false","false","true","true","false","false","[1]","100","011","1","","","","","","",""
"","","","","","image-keyboard-response","73","157971","0.0-48.0","5c7f489defd9e20015751167","665500ab8938657b03fbdba8","6657925c480d7e783d0b7ba9","414","stimuli/11000111.jpg"," ","","feedback_trial","1","","","","","","","","","","","","","","","","","","","","",""
"","","","","","image-keyboard-response","74","159554","0.0-49.0","5c7f489defd9e20015751167","665500ab8938657b03fbdba8","6657925c480d7e783d0b7ba9","1581","stimuli/1010011.jpg","2","","prediction_trial","1","","false","","1","false","false","false","true","false","false","[1]","010","011","0","","","","","","",""
"","","","","","image-keyboard-response","75","159959","0.0-50.0","5c7f489defd9e20015751167","665500ab8938657b03fbdba8","6657925c480d7e783d0b7ba9","402","stimuli/10100111.jpg"," ","","feedback_trial","1","","","","","","","","","","","","","","","","","","","","",""
"","","","","","image-keyboard-response","76","160696","0.0-51.0","5c7f489defd9e20015751167","665500ab8938657b03fbdba8","6657925c480d7e783d0b7ba9","735","stimuli/1001000.jpg","1","","prediction_trial","1","","true","","1","true","true","true","true","true","true","[1]","001","000","1","","","","","","",""
"","","","","","image-keyboard-response","77","160990","0.0-52.0","5c7f489defd9e20015751167","665500ab8938657b03fbdba8","6657925c480d7e783d0b7ba9","293","stimuli/10010001.jpg"," ","","feedback_trial","1","","","","","","","","","","","","","","","","","","","","",""
"","","","","","image-keyboard-response","78","161908","0.0-53.0","5c7f489defd9e20015751167","665500ab8938657b03fbdba8","6657925c480d7e783d0b7ba9","916","stimuli/1001110.jpg","1","","prediction_trial","1","","true","","1","false","false","true","true","false","false","[1]","001","110","1","","","","","","",""
"","","","","","image-keyboard-response","79","162263","0.0-54.0","5c7f489defd9e20015751167","665500ab8938657b03fbdba8","6657925c480d7e783d0b7ba9","353","stimuli/10011101.jpg"," ","","feedback_trial","1","","","","","","","","","","","","","","","","","","","","",""
"","","","","","image-keyboard-response","80","163151","0.0-55.0","5c7f489defd9e20015751167","665500ab8938657b03fbdba8","6657925c480d7e783d0b7ba9","886","stimuli/2010000.jpg","2","","prediction_trial","2","","true","","2","true","true","true","true","true","true","[2]","010","000","1","","","","","","",""
"","","","","","image-keyboard-response","81","163460","0.0-56.0","5c7f489defd9e20015751167","665500ab8938657b03fbdba8","6657925c480d7e783d0b7ba9","307","stimuli/20100002.jpg"," ","","feedback_trial","2","","","","","","","","","","","","","","","","","","","","",""
"","","","","","image-keyboard-response","82","164311","0.0-57.0","5c7f489defd9e20015751167","665500ab8938657b03fbdba8","6657925c480d7e783d0b7ba9","844","stimuli/2100100.jpg","2","","prediction_trial","2","","true","","2","true","true","true","true","true","true","[2]","100","100","1","","","","","","",""
"","","","","","image-keyboard-response","83","164755","0.0-58.0","5c7f489defd9e20015751167","665500ab8938657b03fbdba8","6657925c480d7e783d0b7ba9","442","stimuli/21001002.jpg"," ","","feedback_trial","2","","","","","","","","","","","","","","","","","","","","",""
"","","","","","image-keyboard-response","84","165962","0.0-59.0","5c7f489defd9e20015751167","665500ab8938657b03fbdba8","6657925c480d7e783d0b7ba9","1205","stimuli/1011001.jpg","1","","prediction_trial","2","","false","","1","true","true","false","false","false","false","[1,2]","011","001","0","","","","","","",""
"","","","","","image-keyboard-response","85","166372","0.0-60.0","5c7f489defd9e20015751167","665500ab8938657b03fbdba8","6657925c480d7e783d0b7ba9","408","stimuli/10110012.jpg"," ","","feedback_trial","1","","","","","","","","","","","","","","","","","","","","",""
"","","","","","image-keyboard-response","86","167135","0.0-61.0","5c7f489defd9e20015751167","665500ab8938657b03fbdba8","6657925c480d7e783d0b7ba9","761","stimuli/1101100.jpg","1","","prediction_trial","1","","true","","1","true","true","true","true","true","true","[1]","101","100","1","","","","","","",""
"","","","","","image-keyboard-response","87","167372","0.0-62.0","5c7f489defd9e20015751167","665500ab8938657b03fbdba8","6657925c480d7e783d0b7ba9","235","stimuli/11011001.jpg"," ","","feedback_trial","1","","","","","","","","","","","","","","","","","","","","",""
"","","","","","image-keyboard-response","88","168899","0.0-63.0","5c7f489defd9e20015751167","665500ab8938657b03fbdba8","6657925c480d7e783d0b7ba9","1525","stimuli/2101101.jpg","0","","prediction_trial","2","","false","","2","false","false","false","false","false","false","[0,2]","101","101","0","","","","","","",""
"","","","","","image-keyboard-response","89","169392","0.0-64.0","5c7f489defd9e20015751167","665500ab8938657b03fbdba8","6657925c480d7e783d0b7ba9","491","stimuli/21011012.jpg"," ","","feedback_trial","0","","","","","","","","","","","","","","","","","","","","",""
"","","","","","image-keyboard-response","90","169979","0.0-65.0","5c7f489defd9e20015751167","665500ab8938657b03fbdba8","6657925c480d7e783d0b7ba9","585","stimuli/0000010.jpg","0","","prediction_trial","0","","true","","0","true","true","true","true","true","true","[0]","000","010","1","","","","","","",""
"","","","","","image-keyboard-response","91","170254","0.0-66.0","5c7f489defd9e20015751167","665500ab8938657b03fbdba8","6657925c480d7e783d0b7ba9","273","stimuli/00000100.jpg"," ","","feedback_trial","0","","","","","","","","","","","","","","","","","","","","",""
"","","","","","image-keyboard-response","92","172502","0.0-67.0","5c7f489defd9e20015751167","665500ab8938657b03fbdba8","6657925c480d7e783d0b7ba9","2246","stimuli/1101110.jpg","1","","prediction_trial","1","","true","","1","false","false","true","true","false","false","[1]","101","110","1","","","","","","",""
"","","","","","image-keyboard-response","93","172896","0.0-68.0","5c7f489defd9e20015751167","665500ab8938657b03fbdba8","6657925c480d7e783d0b7ba9","391","stimuli/11011101.jpg"," ","","feedback_trial","1","","","","","","","","","","","","","","","","","","","","",""
"","","","","","image-keyboard-response","94","173594","0.0-69.0","5c7f489defd9e20015751167","665500ab8938657b03fbdba8","6657925c480d7e783d0b7ba9","696","stimuli/2011111.jpg","0","","prediction_trial","1","","false","","2","false","false","false","false","false","false","[1,2]","011","111","0","","","","","","",""
"","","","","","image-keyboard-response","95","174675","0.0-70.0","5c7f489defd9e20015751167","665500ab8938657b03fbdba8","6657925c480d7e783d0b7ba9","1080","stimuli/20111111.jpg"," ","","feedback_trial","1","","","","","","","","","","","","","","","","","","","","",""
"","","","","","image-keyboard-response","96","175492","0.0-71.0","5c7f489defd9e20015751167","665500ab8938657b03fbdba8","6657925c480d7e783d0b7ba9","815","stimuli/2010100.jpg","2","","prediction_trial","2","","true","","2","true","true","true","true","true","true","[2]","010","100","1","","","","","","",""
"","","","","","image-keyboard-response","97","175781","0.0-72.0","5c7f489defd9e20015751167","665500ab8938657b03fbdba8","6657925c480d7e783d0b7ba9","288","stimuli/20101002.jpg"," ","","feedback_trial","2","","","","","","","","","","","","","","","","","","","","",""
"","","","","","image-keyboard-response","98","176341","0.0-73.0","5c7f489defd9e20015751167","665500ab8938657b03fbdba8","6657925c480d7e783d0b7ba9","558","stimuli/1101000.jpg","1","","prediction_trial","1","","true","","1","true","true","true","true","true","true","[1]","101","000","1","","","","","","",""
"","","","","","image-keyboard-response","99","176615","0.0-74.0","5c7f489defd9e20015751167","665500ab8938657b03fbdba8","6657925c480d7e783d0b7ba9","272","stimuli/11010001.jpg"," ","","feedback_trial","1","","","","","","","","","","","","","","","","","","","","",""
"","","","","","image-keyboard-response","100","178765","0.0-75.0","5c7f489defd9e20015751167","665500ab8938657b03fbdba8","6657925c480d7e783d0b7ba9","2148","stimuli/0100111.jpg","1","","prediction_trial","0","","false","","0","false","false","false","true","false","false","[0]","100","111","0","","","","","","",""
"","","","","","image-keyboard-response","101","179208","0.0-76.0","5c7f489defd9e20015751167","665500ab8938657b03fbdba8","6657925c480d7e783d0b7ba9","441","stimuli/01001110.jpg"," ","","feedback_trial","0","","","","","","","","","","","","","","","","","","","","",""
"","","","","","image-keyboard-response","102","179752","0.0-77.0","5c7f489defd9e20015751167","665500ab8938657b03fbdba8","6657925c480d7e783d0b7ba9","542","stimuli/1000100.jpg","1","","prediction_trial","1","","true","","1","true","true","true","true","true","true","[1]","000","100","1","","","","","","",""
"","","","","","image-keyboard-response","103","180056","0.0-78.0","5c7f489defd9e20015751167","665500ab8938657b03fbdba8","6657925c480d7e783d0b7ba9","302","stimuli/10001001.jpg"," ","","feedback_trial","1","","","","","","","","","","","","","","","","","","","","",""
"","","","","","image-keyboard-response","104","181385","0.0-79.0","5c7f489defd9e20015751167","665500ab8938657b03fbdba8","6657925c480d7e783d0b7ba9","1327","stimuli/0110010.jpg","0","","prediction_trial","1","","false","","0","true","true","false","false","false","false","[1,0]","110","010","0","","","","","","",""
"","","","","","image-keyboard-response","105","181809","0.0-80.0","5c7f489defd9e20015751167","665500ab8938657b03fbdba8","6657925c480d7e783d0b7ba9","422","stimuli/01100101.jpg"," ","","feedback_trial","1","","","","","","","","","","","","","","","","","","","","",""
"","","","","","image-keyboard-response","106","182932","0.0-81.0","5c7f489defd9e20015751167","665500ab8938657b03fbdba8","6657925c480d7e783d0b7ba9","1121","stimuli/2001110.jpg","2","","prediction_trial","2","","true","","2","true","true","false","true","false","true","[2]","001","110","1","","","","","","",""
"","","","","","image-keyboard-response","107","183636","0.0-82.0","5c7f489defd9e20015751167","665500ab8938657b03fbdba8","6657925c480d7e783d0b7ba9","702","stimuli/20011102.jpg"," ","","feedback_trial","2","","","","","","","","","","","","","","","","","","","","",""
"","","","","","image-keyboard-response","108","184910","0.0-83.0","5c7f489defd9e20015751167","665500ab8938657b03fbdba8","6657925c480d7e783d0b7ba9","1271","stimuli/2000001.jpg","2","","prediction_trial","2","","true","","2","false","true","true","true","false","true","[2]","000","001","1","","","","","","",""
"","","","","","image-keyboard-response","109","185210","0.0-84.0","5c7f489defd9e20015751167","665500ab8938657b03fbdba8","6657925c480d7e783d0b7ba9","298","stimuli/20000012.jpg"," ","","feedback_trial","2","","","","","","","","","","","","","","","","","","","","",""
"","","","","","image-keyboard-response","110","186541","0.0-85.0","5c7f489defd9e20015751167","665500ab8938657b03fbdba8","6657925c480d7e783d0b7ba9","1330","stimuli/0110100.jpg","1","","prediction_trial","0","","false","","0","false","true","false","false","false","false","[1,0]","110","100","0","","","","","","",""
"","","","","","image-keyboard-response","111","186946","0.0-86.0","5c7f489defd9e20015751167","665500ab8938657b03fbdba8","6657925c480d7e783d0b7ba9","403","stimuli/01101000.jpg"," ","","feedback_trial","1","","","","","","","","","","","","","","","","","","","","",""
"","","","","","image-keyboard-response","112","188954","0.0-87.0","5c7f489defd9e20015751167","665500ab8938657b03fbdba8","6657925c480d7e783d0b7ba9","2006","stimuli/2000011.jpg","1","","prediction_trial","2","","false","","2","false","false","true","true","false","false","[2]","000","011","0","","","","","","",""
"","","","","","image-keyboard-response","113","189423","0.0-88.0","5c7f489defd9e20015751167","665500ab8938657b03fbdba8","6657925c480d7e783d0b7ba9","467","stimuli/20000112.jpg"," ","","feedback_trial","2","","","","","","","","","","","","","","","","","","","","",""
"","","","","","image-keyboard-response","114","190582","0.0-89.0","5c7f489defd9e20015751167","665500ab8938657b03fbdba8","6657925c480d7e783d0b7ba9","1157","stimuli/2000010.jpg","2","","prediction_trial","2","","true","","2","true","true","true","true","true","true","[2]","000","010","1","","","","","","",""
"","","","","","image-keyboard-response","115","190895","0.0-90.0","5c7f489defd9e20015751167","665500ab8938657b03fbdba8","6657925c480d7e783d0b7ba9","310","stimuli/20000102.jpg"," ","","feedback_trial","2","","","","","","","","","","","","","","","","","","","","",""
"","","","","","image-keyboard-response","116","193134","0.0-91.0","5c7f489defd9e20015751167","665500ab8938657b03fbdba8","6657925c480d7e783d0b7ba9","2237","stimuli/1011100.jpg","1","","prediction_trial","2","","false","","1","true","true","false","false","false","false","[1,2]","011","100","0","","","","","","",""
"","","","","","image-keyboard-response","117","193500","0.0-92.0","5c7f489defd9e20015751167","665500ab8938657b03fbdba8","6657925c480d7e783d0b7ba9","364","stimuli/10111002.jpg"," ","","feedback_trial","1","","","","","","","","","","","","","","","","","","","","",""
"","","","","","image-keyboard-response","118","194203","0.0-93.0","5c7f489defd9e20015751167","665500ab8938657b03fbdba8","6657925c480d7e783d0b7ba9","701","stimuli/0010000.jpg","0","","prediction_trial","0","","true","","0","true","true","true","true","true","true","[0]","010","000","1","","","","","","",""
"","","","","","image-keyboard-response","119","194448","0.0-94.0","5c7f489defd9e20015751167","665500ab8938657b03fbdba8","6657925c480d7e783d0b7ba9","243","stimuli/00100000.jpg"," ","","feedback_trial","0","","","","","","","","","","","","","","","","","","","","",""
"","","","","","image-keyboard-response","120","195709","0.0-95.0","5c7f489defd9e20015751167","665500ab8938657b03fbdba8","6657925c480d7e783d0b7ba9","1259","stimuli/2010001.jpg","2","","prediction_trial","2","","true","","2","false","true","true","true","false","true","[2]","010","001","1","","","","","","",""
"","","","","","image-keyboard-response","121","196059","0.0-96.0","5c7f489defd9e20015751167","665500ab8938657b03fbdba8","6657925c480d7e783d0b7ba9","348","stimuli/20100012.jpg"," ","","feedback_trial","2","","","","","","","","","","","","","","","","","","","","",""
"","","","","","image-keyboard-response","122","196712","0.0-97.0","5c7f489defd9e20015751167","665500ab8938657b03fbdba8","6657925c480d7e783d0b7ba9","651","stimuli/1110011.jpg","2","","prediction_trial","1","","false","","1","false","false","false","false","false","false","[0,1]","110","011","0","","","","","","",""
"","","","","","image-keyboard-response","123","197306","0.0-98.0","5c7f489defd9e20015751167","665500ab8938657b03fbdba8","6657925c480d7e783d0b7ba9","591","stimuli/11100111.jpg"," ","","feedback_trial","0","","","","","","","","","","","","","","","","","","","","",""
"","","","","","image-keyboard-response","124","197976","0.0-99.0","5c7f489defd9e20015751167","665500ab8938657b03fbdba8","6657925c480d7e783d0b7ba9","669","stimuli/1000001.jpg","1","","prediction_trial","1","","true","","1","true","true","true","true","true","true","[1]","000","001","1","","","","","","",""
"","","","","","image-keyboard-response","125","198343","0.0-100.0","5c7f489defd9e20015751167","665500ab8938657b03fbdba8","6657925c480d7e783d0b7ba9","365","stimuli/10000011.jpg"," ","","feedback_trial","1","","","","","","","","","","","","","","","","","","","","",""
"","","","","","image-keyboard-response","126","199689","0.0-101.0","5c7f489defd9e20015751167","665500ab8938657b03fbdba8","6657925c480d7e783d0b7ba9","1345","stimuli/2000101.jpg","2","","prediction_trial","2","","true","","2","false","false","true","true","false","false","[2]","000","101","1","","","","","","",""
"","","","","","image-keyboard-response","127","200060","0.0-102.0","5c7f489defd9e20015751167","665500ab8938657b03fbdba8","6657925c480d7e783d0b7ba9","369","stimuli/20001012.jpg"," ","","feedback_trial","2","","","","","","","","","","","","","","","","","","","","",""
"","","","","","image-keyboard-response","128","201246","0.0-103.0","5c7f489defd9e20015751167","665500ab8938657b03fbdba8","6657925c480d7e783d0b7ba9","1184","stimuli/0100101.jpg","2","","prediction_trial","0","","false","","0","false","false","false","true","false","false","[0]","100","101","0","","","","","","",""
"","","","","","image-keyboard-response","129","202059","0.0-104.0","5c7f489defd9e20015751167","665500ab8938657b03fbdba8","6657925c480d7e783d0b7ba9","811","stimuli/01001010.jpg"," ","","feedback_trial","0","","","","","","","","","","","","","","","","","","","","",""
"","","","","","image-keyboard-response","130","204506","0.0-105.0","5c7f489defd9e20015751167","665500ab8938657b03fbdba8","6657925c480d7e783d0b7ba9","2445","stimuli/0110101.jpg","2","","prediction_trial","1","","false","","0","false","false","false","false","false","false","[1,0]","110","101","0","","","","","","",""
"","","","","","image-keyboard-response","131","204927","0.0-106.0","5c7f489defd9e20015751167","665500ab8938657b03fbdba8","6657925c480d7e783d0b7ba9","419","stimuli/01101011.jpg"," ","","feedback_trial","1","","","","","","","","","","","","","","","","","","","","",""
"","","","","","image-keyboard-response","132","206496","0.0-107.0","5c7f489defd9e20015751167","665500ab8938657b03fbdba8","6657925c480d7e783d0b7ba9","1568","stimuli/2010101.jpg","0","","prediction_trial","2","","false","","2","false","false","true","true","false","false","[2]","010","101","0","","","","","","",""
"","","","","","image-keyboard-response","133","206961","0.0-108.0","5c7f489defd9e20015751167","665500ab8938657b03fbdba8","6657925c480d7e783d0b7ba9","463","stimuli/20101012.jpg"," ","","feedback_trial","2","","","","","","","","","","","","","","","","","","","","",""
"","","","","","image-keyboard-response","134","207910","0.0-109.0","5c7f489defd9e20015751167","665500ab8938657b03fbdba8","6657925c480d7e783d0b7ba9","947","stimuli/2111100.jpg","2","","prediction_trial","0","","false","","2","true","true","false","false","false","false","[0,2,1]","111","100","0","","","","","","",""
"","","","","","image-keyboard-response","135","208465","0.0-110.0","5c7f489defd9e20015751167","665500ab8938657b03fbdba8","6657925c480d7e783d0b7ba9","553","stimuli/21111000.jpg"," ","","feedback_trial","0","","","","","","","","","","","","","","","","","","","","",""
"","","","","","image-keyboard-response","136","210243","0.0-111.0","5c7f489defd9e20015751167","665500ab8938657b03fbdba8","6657925c480d7e783d0b7ba9","1776","stimuli/0100001.jpg","0","","prediction_trial","0","","true","","0","true","true","false","true","false","true","[0]","100","001","1","","","","","","",""
"","","","","","image-keyboard-response","137","210528","0.0-112.0","5c7f489defd9e20015751167","665500ab8938657b03fbdba8","6657925c480d7e783d0b7ba9","282","stimuli/01000010.jpg"," ","","feedback_trial","0","","","","","","","","","","","","","","","","","","","","",""
"","","","","","image-keyboard-response","138","211476","0.0-113.0","5c7f489defd9e20015751167","665500ab8938657b03fbdba8","6657925c480d7e783d0b7ba9","946","stimuli/0010101.jpg","0","","prediction_trial","0","","true","","0","false","false","true","true","false","false","[0]","010","101","1","","","","","","",""
"","","","","","image-keyboard-response","139","211860","0.0-114.0","5c7f489defd9e20015751167","665500ab8938657b03fbdba8","6657925c480d7e783d0b7ba9","382","stimuli/00101010.jpg"," ","","feedback_trial","0","","","","","","","","","","","","","","","","","","","","",""
"","","","","","image-keyboard-response","140","212991","0.0-115.0","5c7f489defd9e20015751167","665500ab8938657b03fbdba8","6657925c480d7e783d0b7ba9","1129","stimuli/1111110.jpg","0","","prediction_trial","0","","true","","1","false","false","false","false","false","false","[0,2,1]","111","110","1","","","","","","",""
"","","","","","image-keyboard-response","141","213498","0.0-116.0","5c7f489defd9e20015751167","665500ab8938657b03fbdba8","6657925c480d7e783d0b7ba9","504","stimuli/11111100.jpg"," ","","feedback_trial","0","","","","","","","","","","","","","","","","","","","","",""
"","","","","","image-keyboard-response","142","214897","0.0-117.0","5c7f489defd9e20015751167","665500ab8938657b03fbdba8","6657925c480d7e783d0b7ba9","1398","stimuli/2011010.jpg","2","","prediction_trial","2","","true","","2","true","true","false","false","false","false","[1,2]","011","010","1","","","","","","",""
"","","","","","image-keyboard-response","143","215293","0.0-118.0","5c7f489defd9e20015751167","665500ab8938657b03fbdba8","6657925c480d7e783d0b7ba9","393","stimuli/20110102.jpg"," ","","feedback_trial","1","","","","","","","","","","","","","","","","","","","","",""
"","","","","","image-keyboard-response","144","216366","0.0-119.0","5c7f489defd9e20015751167","665500ab8938657b03fbdba8","6657925c480d7e783d0b7ba9","1072","stimuli/1111100.jpg","1","","prediction_trial","0","","false","","1","true","true","false","false","false","false","[2,1,0]","111","100","0","","","","","","",""
"","","","","","image-keyboard-response","145","216735","0.0-120.0","5c7f489defd9e20015751167","665500ab8938657b03fbdba8","6657925c480d7e783d0b7ba9","367","stimuli/11111000.jpg"," ","","feedback_trial","2","","","","","","","","","","","","","","","","","","","","",""
"","","","","","image-keyboard-response","146","217418","0.0-121.0","5c7f489defd9e20015751167","665500ab8938657b03fbdba8","6657925c480d7e783d0b7ba9","681","stimuli/0011001.jpg","0","","prediction_trial","0","","true","","0","true","true","true","true","true","true","[0]","011","001","1","","","","","","",""
"","","","","","image-keyboard-response","147","217758","0.0-122.0","5c7f489defd9e20015751167","665500ab8938657b03fbdba8","6657925c480d7e783d0b7ba9","337","stimuli/00110010.jpg"," ","","feedback_trial","0","","","","","","","","","","","","","","","","","","","","",""
"","","","","","image-keyboard-response","148","218514","0.0-123.0","5c7f489defd9e20015751167","665500ab8938657b03fbdba8","6657925c480d7e783d0b7ba9","748","stimuli/2100110.jpg","2","","prediction_trial","2","","true","","2","true","true","true","true","true","true","[2]","100","110","1","","","","","","",""
"","","","","","image-keyboard-response","149","218827","0.0-124.0","5c7f489defd9e20015751167","665500ab8938657b03fbdba8","6657925c480d7e783d0b7ba9","311","stimuli/21001102.jpg"," ","","feedback_trial","2","","","","","","","","","","","","","","","","","","","","",""
"","","","","","image-keyboard-response","150","219331","0.0-125.0","5c7f489defd9e20015751167","665500ab8938657b03fbdba8","6657925c480d7e783d0b7ba9","502","stimuli/2110100.jpg","2","","prediction_trial","2","","true","","2","true","true","true","true","true","true","[2]","110","100","1","","","","","","",""
"","","","","","image-keyboard-response","151","219629","0.0-126.0","5c7f489defd9e20015751167","665500ab8938657b03fbdba8","6657925c480d7e783d0b7ba9","296","stimuli/21101002.jpg"," ","","feedback_trial","2","","","","","","","","","","","","","","","","","","","","",""
"","","","","","image-keyboard-response","152","220496","0.0-127.0","5c7f489defd9e20015751167","665500ab8938657b03fbdba8","6657925c480d7e783d0b7ba9","865","stimuli/1100111.jpg","1","","prediction_trial","1","","true","","1","false","false","true","true","false","false","[1]","100","111","1","","","","","","",""
"","","","","","image-keyboard-response","153","220873","0.0-128.0","5c7f489defd9e20015751167","665500ab8938657b03fbdba8","6657925c480d7e783d0b7ba9","374","stimuli/11001111.jpg"," ","","feedback_trial","1","","","","","","","","","","","","","","","","","","","","",""
"","","","","","image-keyboard-response","154","221726","0.0-129.0","5c7f489defd9e20015751167","665500ab8938657b03fbdba8","6657925c480d7e783d0b7ba9","851","stimuli/2001011.jpg","1","","prediction_trial","2","","false","","2","false","false","false","true","false","false","[2]","001","011","0","","","","","","",""
"","","","","","image-keyboard-response","155","222119","0.0-130.0","5c7f489defd9e20015751167","665500ab8938657b03fbdba8","6657925c480d7e783d0b7ba9","391","stimuli/20010112.jpg"," ","","feedback_trial","2","","","","","","","","","","","","","","","","","","","","",""
"","","","","","image-keyboard-response","156","222833","0.0-131.0","5c7f489defd9e20015751167","665500ab8938657b03fbdba8","6657925c480d7e783d0b7ba9","713","stimuli/0100000.jpg","0","","prediction_trial","0","","true","","0","true","true","false","true","false","true","[0]","100","000","1","","","","","","",""
"","","","","","image-keyboard-response","157","223444","0.0-132.0","5c7f489defd9e20015751167","665500ab8938657b03fbdba8","6657925c480d7e783d0b7ba9","609","stimuli/01000000.jpg"," ","","feedback_trial","0","","","","","","","","","","","","","","","","","","","","",""
"","","","","","image-keyboard-response","158","224463","0.0-133.0","5c7f489defd9e20015751167","665500ab8938657b03fbdba8","6657925c480d7e783d0b7ba9","1017","stimuli/2111110.jpg","2","","prediction_trial","0","","false","","2","true","true","false","false","false","false","[0,1,2]","111","110","0","","","","","","",""
"","","","","","image-keyboard-response","159","224831","0.0-134.0","5c7f489defd9e20015751167","665500ab8938657b03fbdba8","6657925c480d7e783d0b7ba9","366","stimuli/21111100.jpg"," ","","feedback_trial","0","","","","","","","","","","","","","","","","","","","","",""
"","","","","","image-keyboard-response","160","225380","0.0-135.0","5c7f489defd9e20015751167","665500ab8938657b03fbdba8","6657925c480d7e783d0b7ba9","547","stimuli/0001010.jpg","0","","prediction_trial","0","","true","","0","true","true","true","true","true","true","[0]","001","010","1","","","","","","",""
"","","","","","image-keyboard-response","161","225687","0.0-136.0","5c7f489defd9e20015751167","665500ab8938657b03fbdba8","6657925c480d7e783d0b7ba9","305","stimuli/00010100.jpg"," ","","feedback_trial","0","","","","","","","","","","","","","","","","","","","","",""
"","","","","","image-keyboard-response","162","227619","0.0-137.0","5c7f489defd9e20015751167","665500ab8938657b03fbdba8","6657925c480d7e783d0b7ba9","1930","stimuli/2010011.jpg","1","","prediction_trial","2","","false","","2","false","false","true","true","false","false","[2]","010","011","0","","","","","","",""
"","","","","","image-keyboard-response","163","227986","0.0-138.0","5c7f489defd9e20015751167","665500ab8938657b03fbdba8","6657925c480d7e783d0b7ba9","366","stimuli/20100112.jpg"," ","","feedback_trial","2","","","","","","","","","","","","","","","","","","","","",""
"","","","","","image-keyboard-response","164","229233","0.0-139.0","5c7f489defd9e20015751167","665500ab8938657b03fbdba8","6657925c480d7e783d0b7ba9","1245","stimuli/1011010.jpg","2","","prediction_trial","2","","true","","1","false","true","false","false","false","false","[1,2]","011","010","1","","","","","","",""
"","","","","","image-keyboard-response","165","229652","0.0-140.0","5c7f489defd9e20015751167","665500ab8938657b03fbdba8","6657925c480d7e783d0b7ba9","417","stimuli/10110102.jpg"," ","","feedback_trial","1","","","","","","","","","","","","","","","","","","","","",""
"","","","","","image-keyboard-response","166","230928","0.0-141.0","5c7f489defd9e20015751167","665500ab8938657b03fbdba8","6657925c480d7e783d0b7ba9","1275","stimuli/0110000.jpg","1","","prediction_trial","0","","false","","0","true","true","false","false","false","false","[1,0]","110","000","0","","","","","","",""
"","","","","","image-keyboard-response","167","231293","0.0-142.0","5c7f489defd9e20015751167","665500ab8938657b03fbdba8","6657925c480d7e783d0b7ba9","363","stimuli/01100000.jpg"," ","","feedback_trial","1","","","","","","","","","","","","","","","","","","","","",""
"","","","","","image-keyboard-response","168","231979","0.0-143.0","5c7f489defd9e20015751167","665500ab8938657b03fbdba8","6657925c480d7e783d0b7ba9","684","stimuli/0010111.jpg","1","","prediction_trial","0","","false","","0","false","false","true","true","false","false","[0]","010","111","0","","","","","","",""
"","","","","","image-keyboard-response","169","232382","0.0-144.0","5c7f489defd9e20015751167","665500ab8938657b03fbdba8","6657925c480d7e783d0b7ba9","401","stimuli/00101110.jpg"," ","","feedback_trial","0","","","","","","","","","","","","","","","","","","","","",""
"","","","","","image-keyboard-response","170","234150","0.0-145.0","5c7f489defd9e20015751167","665500ab8938657b03fbdba8","6657925c480d7e783d0b7ba9","1765","stimuli/0001101.jpg","0","","prediction_trial","0","","true","","0","false","false","true","true","false","false","[0]","001","101","1","","","","","","",""
"","","","","","image-keyboard-response","171","234494","0.0-146.0","5c7f489defd9e20015751167","665500ab8938657b03fbdba8","6657925c480d7e783d0b7ba9","342","stimuli/00011010.jpg"," ","","feedback_trial","0","","","","","","","","","","","","","","","","","","","","",""
"","","","","","image-keyboard-response","172","234990","0.0-147.0","5c7f489defd9e20015751167","665500ab8938657b03fbdba8","6657925c480d7e783d0b7ba9","495","stimuli/0010001.jpg","0","","prediction_trial","0","","true","","0","true","true","true","true","true","true","[0]","010","001","1","","","","","","",""
"","","","","","image-keyboard-response","173","235248","0.0-148.0","5c7f489defd9e20015751167","665500ab8938657b03fbdba8","6657925c480d7e783d0b7ba9","256","stimuli/00100010.jpg"," ","","feedback_trial","0","","","","","","","","","","","","","","","","","","","","",""
"","","","","","image-keyboard-response","174","236984","0.0-149.0","5c7f489defd9e20015751167","665500ab8938657b03fbdba8","6657925c480d7e783d0b7ba9","1734","stimuli/0010110.jpg","0","","prediction_trial","0","","true","","0","false","false","true","true","false","false","[0]","010","110","1","","","","","","",""
"","","","","","image-keyboard-response","175","237335","0.0-150.0","5c7f489defd9e20015751167","665500ab8938657b03fbdba8","6657925c480d7e783d0b7ba9","349","stimuli/00101100.jpg"," ","","feedback_trial","0","","","","","","","","","","","","","","","","","","","","",""
"","","","","","image-keyboard-response","176","237936","0.0-151.0","5c7f489defd9e20015751167","665500ab8938657b03fbdba8","6657925c480d7e783d0b7ba9","600","stimuli/0011111.jpg","0","","prediction_trial","0","","true","","0","false","false","true","true","false","false","[0]","011","111","1","","","","","","",""
"","","","","","image-keyboard-response","177","238294","0.0-152.0","5c7f489defd9e20015751167","665500ab8938657b03fbdba8","6657925c480d7e783d0b7ba9","357","stimuli/00111110.jpg"," ","","feedback_trial","0","","","","","","","","","","","","","","","","","","","","",""
"","","","","","image-keyboard-response","178","239050","0.0-153.0","5c7f489defd9e20015751167","665500ab8938657b03fbdba8","6657925c480d7e783d0b7ba9","754","stimuli/2110111.jpg","2","","prediction_trial","2","","true","","2","false","false","true","true","false","false","[2]","110","111","1","","","","","","",""
"","","","","","image-keyboard-response","179","239384","0.0-154.0","5c7f489defd9e20015751167","665500ab8938657b03fbdba8","6657925c480d7e783d0b7ba9","332","stimuli/21101112.jpg"," ","","feedback_trial","2","","","","","","","","","","","","","","","","","","","","",""
"","","","","","image-keyboard-response","180","240001","0.0-155.0","5c7f489defd9e20015751167","665500ab8938657b03fbdba8","6657925c480d7e783d0b7ba9","616","stimuli/1001101.jpg","1","","prediction_trial","1","","true","","1","true","true","true","true","true","true","[1]","001","101","1","","","","","","",""
"","","","","","image-keyboard-response","181","240303","0.0-156.0","5c7f489defd9e20015751167","665500ab8938657b03fbdba8","6657925c480d7e783d0b7ba9","299","stimuli/10011011.jpg"," ","","feedback_trial","1","","","","","","","","","","","","","","","","","","","","",""
"","","","","","image-keyboard-response","182","240874","0.0-157.0","5c7f489defd9e20015751167","665500ab8938657b03fbdba8","6657925c480d7e783d0b7ba9","569","stimuli/0011110.jpg","0","","prediction_trial","0","","true","","0","false","false","true","true","false","false","[0]","011","110","1","","","","","","",""
"","","","","","image-keyboard-response","183","241174","0.0-158.0","5c7f489defd9e20015751167","665500ab8938657b03fbdba8","6657925c480d7e783d0b7ba9","297","stimuli/00111100.jpg"," ","","feedback_trial","0","","","","","","","","","","","","","","","","","","","","",""
"","","","","","image-keyboard-response","184","241885","0.0-159.0","5c7f489defd9e20015751167","665500ab8938657b03fbdba8","6657925c480d7e783d0b7ba9","709","stimuli/1101011.jpg","1","","prediction_trial","1","","true","","1","false","false","true","true","false","false","[1]","101","011","1","","","","","","",""
"","","","","","image-keyboard-response","185","242240","0.0-160.0","5c7f489defd9e20015751167","665500ab8938657b03fbdba8","6657925c480d7e783d0b7ba9","354","stimuli/11010111.jpg"," ","","feedback_trial","1","","","","","","","","","","","","","","","","","","","","",""
"","","","","","image-keyboard-response","186","242818","0.0-161.0","5c7f489defd9e20015751167","665500ab8938657b03fbdba8","6657925c480d7e783d0b7ba9","576","stimuli/0011011.jpg","0","","prediction_trial","0","","true","","0","true","true","true","true","true","true","[0]","011","011","1","","","","","","",""
"","","","","","image-keyboard-response","187","243070","0.0-162.0","5c7f489defd9e20015751167","665500ab8938657b03fbdba8","6657925c480d7e783d0b7ba9","250","stimuli/00110110.jpg"," ","","feedback_trial","0","","","","","","","","","","","","","","","","","","","","",""
"","","","","","image-keyboard-response","188","245653","0.0-163.0","5c7f489defd9e20015751167","665500ab8938657b03fbdba8","6657925c480d7e783d0b7ba9","2581","stimuli/2001101.jpg","0","","prediction_trial","2","","false","","2","false","false","false","true","false","false","[2]","001","101","0","","","","","","",""
"","","","","","image-keyboard-response","189","246169","0.0-164.0","5c7f489defd9e20015751167","665500ab8938657b03fbdba8","6657925c480d7e783d0b7ba9","514","stimuli/20011012.jpg"," ","","feedback_trial","2","","","","","","","","","","","","","","","","","","","","",""
"","","","","","image-keyboard-response","190","246953","0.0-165.0","5c7f489defd9e20015751167","665500ab8938657b03fbdba8","6657925c480d7e783d0b7ba9","782","stimuli/1000111.jpg","1","","prediction_trial","1","","true","","1","false","false","true","true","false","false","[1]","000","111","1","","","","","","",""
"","","","","","image-keyboard-response","191","247290","0.0-166.0","5c7f489defd9e20015751167","665500ab8938657b03fbdba8","6657925c480d7e783d0b7ba9","335","stimuli/10001111.jpg"," ","","feedback_trial","1","","","","","","","","","","","","","","","","","","","","",""
"","","","","","image-keyboard-response","192","248390","0.0-167.0","5c7f489defd9e20015751167","665500ab8938657b03fbdba8","6657925c480d7e783d0b7ba9","1098","stimuli/0011100.jpg","0","","prediction_trial","0","","true","","0","false","true","true","true","false","true","[0]","011","100","1","","","","","","",""
"","","","","","image-keyboard-response","193","248652","0.0-168.0","5c7f489defd9e20015751167","665500ab8938657b03fbdba8","6657925c480d7e783d0b7ba9","260","stimuli/00111000.jpg"," ","","feedback_trial","0","","","","","","","","","","","","","","","","","","","","",""
"","","","","","image-keyboard-response","194","249722","0.0-169.0","5c7f489defd9e20015751167","665500ab8938657b03fbdba8","6657925c480d7e783d0b7ba9","1068","stimuli/0100011.jpg","0","","prediction_trial","0","","true","","0","true","true","false","true","false","true","[0]","100","011","1","","","","","","",""
"","","","","","image-keyboard-response","195","249975","0.0-170.0","5c7f489defd9e20015751167","665500ab8938657b03fbdba8","6657925c480d7e783d0b7ba9","251","stimuli/01000110.jpg"," ","","feedback_trial","0","","","","","","","","","","","","","","","","","","","","",""
"","","","","","image-keyboard-response","196","251065","0.0-171.0","5c7f489defd9e20015751167","665500ab8938657b03fbdba8","6657925c480d7e783d0b7ba9","1088","stimuli/2011000.jpg","2","","prediction_trial","2","","true","","2","true","true","false","false","false","false","[1,2]","011","000","1","","","","","","",""
"","","","","","image-keyboard-response","197","251427","0.0-172.0","5c7f489defd9e20015751167","665500ab8938657b03fbdba8","6657925c480d7e783d0b7ba9","360","stimuli/20110002.jpg"," ","","feedback_trial","1","","","","","","","","","","","","","","","","","","","","",""
"","","","","","image-keyboard-response","198","252499","0.0-173.0","5c7f489defd9e20015751167","665500ab8938657b03fbdba8","6657925c480d7e783d0b7ba9","1070","stimuli/0101010.jpg","2","","prediction_trial","0","","false","","0","true","true","false","false","false","false","[0,2]","101","010","0","","","","","","",""
"","","","","","image-keyboard-response","199","252916","0.0-174.0","5c7f489defd9e20015751167","665500ab8938657b03fbdba8","6657925c480d7e783d0b7ba9","415","stimuli/01010100.jpg"," ","","feedback_trial","0","","","","","","","","","","","","","","","","","","","","",""
"","","","","","image-keyboard-response","200","253610","0.0-175.0","5c7f489defd9e20015751167","665500ab8938657b03fbdba8","6657925c480d7e783d0b7ba9","692","stimuli/2110000.jpg","2","","prediction_trial","2","","true","","2","true","true","true","true","true","true","[2]","110","000","1","","","","","","",""
"","","","","","image-keyboard-response","201","253886","0.0-176.0","5c7f489defd9e20015751167","665500ab8938657b03fbdba8","6657925c480d7e783d0b7ba9","274","stimuli/21100002.jpg"," ","","feedback_trial","2","","","","","","","","","","","","","","","","","","","","",""
"","","","","","image-keyboard-response","202","254986","0.0-177.0","5c7f489defd9e20015751167","665500ab8938657b03fbdba8","6657925c480d7e783d0b7ba9","1098","stimuli/0111101.jpg","2","","prediction_trial","2","","true","","0","false","false","false","false","false","false","[0,1,2]","111","101","1","","","","","","",""
"","","","","","image-keyboard-response","203","255291","0.0-178.0","5c7f489defd9e20015751167","665500ab8938657b03fbdba8","6657925c480d7e783d0b7ba9","303","stimuli/01111012.jpg"," ","","feedback_trial","0","","","","","","","","","","","","","","","","","","","","",""
"","","","","","image-keyboard-response","204","255984","0.0-179.0","5c7f489defd9e20015751167","665500ab8938657b03fbdba8","6657925c480d7e783d0b7ba9","690","stimuli/0010011.jpg","0","","prediction_trial","0","","true","","0","true","true","true","true","true","true","[0]","010","011","1","","","","","","",""
"","","","","","image-keyboard-response","205","256195","0.0-180.0","5c7f489defd9e20015751167","665500ab8938657b03fbdba8","6657925c480d7e783d0b7ba9","209","stimuli/00100110.jpg"," ","","feedback_trial","0","","","","","","","","","","","","","","","","","","","","",""
"","","","","","image-keyboard-response","206","256853","0.0-181.0","5c7f489defd9e20015751167","665500ab8938657b03fbdba8","6657925c480d7e783d0b7ba9","657","stimuli/1101001.jpg","1","","prediction_trial","1","","true","","1","true","true","true","true","true","true","[1]","101","001","1","","","","","","",""
"","","","","","image-keyboard-response","207","257159","0.0-182.0","5c7f489defd9e20015751167","665500ab8938657b03fbdba8","6657925c480d7e783d0b7ba9","304","stimuli/11010011.jpg"," ","","feedback_trial","1","","","","","","","","","","","","","","","","","","","","",""
"","","","","","image-keyboard-response","208","258329","0.0-183.0","5c7f489defd9e20015751167","665500ab8938657b03fbdba8","6657925c480d7e783d0b7ba9","1168","stimuli/1011111.jpg","0","","prediction_trial","1","","false","","1","false","false","false","false","false","false","[1,2]","011","111","0","","","","","","",""
"","","","","","image-keyboard-response","209","258723","0.0-184.0","5c7f489defd9e20015751167","665500ab8938657b03fbdba8","6657925c480d7e783d0b7ba9","393","stimuli/10111111.jpg"," ","","feedback_trial","1","","","","","","","","","","","","","","","","","","","","",""
"","","","","","image-keyboard-response","210","259897","0.0-185.0","5c7f489defd9e20015751167","665500ab8938657b03fbdba8","6657925c480d7e783d0b7ba9","1172","stimuli/2101110.jpg","0","","prediction_trial","0","","true","","2","true","true","false","false","false","false","[2,0]","101","110","1","","","","","","",""
"","","","","","image-keyboard-response","211","260186","0.0-186.0","5c7f489defd9e20015751167","665500ab8938657b03fbdba8","6657925c480d7e783d0b7ba9","287","stimuli/21011100.jpg"," ","","feedback_trial","2","","","","","","","","","","","","","","","","","","","","",""
"","","","","","image-keyboard-response","212","261404","0.0-187.0","5c7f489defd9e20015751167","665500ab8938657b03fbdba8","6657925c480d7e783d0b7ba9","1216","stimuli/2011100.jpg","2","","prediction_trial","1","","false","","2","true","true","false","false","false","false","[1,2]","011","100","0","","","","","","",""
"","","","","","image-keyboard-response","213","261817","0.0-188.0","5c7f489defd9e20015751167","665500ab8938657b03fbdba8","6657925c480d7e783d0b7ba9","412","stimuli/20111001.jpg"," ","","feedback_trial","1","","","","","","","","","","","","","","","","","","","","",""
"","","","","","image-keyboard-response","214","262626","0.0-189.0","5c7f489defd9e20015751167","665500ab8938657b03fbdba8","6657925c480d7e783d0b7ba9","807","stimuli/1011011.jpg","1","","prediction_trial","1","","true","","1","false","false","false","false","false","false","[1,2]","011","011","1","","","","","","",""
"","","","","","image-keyboard-response","215","262925","0.0-190.0","5c7f489defd9e20015751167","665500ab8938657b03fbdba8","6657925c480d7e783d0b7ba9","297","stimuli/10110111.jpg"," ","","feedback_trial","1","","","","","","","","","","","","","","","","","","","","",""
"","","","","","image-keyboard-response","216","263575","0.0-191.0","5c7f489defd9e20015751167","665500ab8938657b03fbdba8","6657925c480d7e783d0b7ba9","647","stimuli/1111101.jpg","1","","prediction_trial","1","","true","","1","true","true","false","false","false","false","[0,1,2]","111","101","1","","","","","","",""
"","","","","","image-keyboard-response","217","263888","0.0-192.0","5c7f489defd9e20015751167","665500ab8938657b03fbdba8","6657925c480d7e783d0b7ba9","311","stimuli/11111011.jpg"," ","","feedback_trial","0","","","","","","","","","","","","","","","","","","","","",""
"","","","","","image-keyboard-response","218","264450","0.0-193.0","5c7f489defd9e20015751167","665500ab8938657b03fbdba8","6657925c480d7e783d0b7ba9","561","stimuli/1001100.jpg","1","","prediction_trial","1","","true","","1","true","true","true","true","true","true","[1]","001","100","1","","","","","","",""
"","","","","","image-keyboard-response","219","264720","0.0-194.0","5c7f489defd9e20015751167","665500ab8938657b03fbdba8","6657925c480d7e783d0b7ba9","268","stimuli/10011001.jpg"," ","","feedback_trial","1","","","","","","","","","","","","","","","","","","","","",""
"","","","","","image-keyboard-response","220","266029","0.0-195.0","5c7f489defd9e20015751167","665500ab8938657b03fbdba8","6657925c480d7e783d0b7ba9","1307","stimuli/1011110.jpg","1","","prediction_trial","1","","true","","1","false","false","false","false","false","false","[2,1]","011","110","1","","","","","","",""
"","","","","","image-keyboard-response","221","266339","0.0-196.0","5c7f489defd9e20015751167","665500ab8938657b03fbdba8","6657925c480d7e783d0b7ba9","307","stimuli/10111101.jpg"," ","","feedback_trial","2","","","","","","","","","","","","","","","","","","","","",""
"","","","","","image-keyboard-response","222","266932","0.0-197.0","5c7f489defd9e20015751167","665500ab8938657b03fbdba8","6657925c480d7e783d0b7ba9","591","stimuli/1100000.jpg","1","","prediction_trial","1","","true","","1","true","true","true","true","true","true","[1]","100","000","1","","","","","","",""
"","","","","","image-keyboard-response","223","267168","0.0-198.0","5c7f489defd9e20015751167","665500ab8938657b03fbdba8","6657925c480d7e783d0b7ba9","235","stimuli/11000001.jpg"," ","","feedback_trial","1","","","","","","","","","","","","","","","","","","","","",""
"","","","","","image-keyboard-response","224","268283","0.0-199.0","5c7f489defd9e20015751167","665500ab8938657b03fbdba8","6657925c480d7e783d0b7ba9","1112","stimuli/0110011.jpg","0","","prediction_trial","1","","false","","0","true","true","false","false","false","false","[1,0]","110","011","0","","","","","","",""
"","","","","","image-keyboard-response","225","268665","0.0-200.0","5c7f489defd9e20015751167","665500ab8938657b03fbdba8","6657925c480d7e783d0b7ba9","380","stimuli/01100111.jpg"," ","","feedback_trial","1","","","","","","","","","","","","","","","","","","","","",""
"","","","","","image-keyboard-response","226","269175","0.0-201.0","5c7f489defd9e20015751167","665500ab8938657b03fbdba8","6657925c480d7e783d0b7ba9","508","stimuli/1000000.jpg","1","","prediction_trial","1","","true","","1","true","true","true","true","true","true","[1]","000","000","1","","","","","","",""
"","","","","","image-keyboard-response","227","269472","0.0-202.0","5c7f489defd9e20015751167","665500ab8938657b03fbdba8","6657925c480d7e783d0b7ba9","296","stimuli/10000001.jpg"," ","","feedback_trial","1","","","","","","","","","","","","","","","","","","","","",""
"","","","","","image-keyboard-response","228","270338","0.0-203.0","5c7f489defd9e20015751167","665500ab8938657b03fbdba8","6657925c480d7e783d0b7ba9","865","stimuli/0101000.jpg","0","","prediction_trial","0","","true","","0","true","true","false","false","false","false","[2,0]","101","000","1","","","","","","",""
"","","","","","image-keyboard-response","229","270819","0.0-204.0","5c7f489defd9e20015751167","665500ab8938657b03fbdba8","6657925c480d7e783d0b7ba9","479","stimuli/01010000.jpg"," ","","feedback_trial","2","","","","","","","","","","","","","","","","","","","","",""
"","","","","","image-keyboard-response","230","272037","0.0-205.0","5c7f489defd9e20015751167","665500ab8938657b03fbdba8","6657925c480d7e783d0b7ba9","1216","stimuli/0100010.jpg","0","","prediction_trial","0","","true","","0","true","true","false","true","false","true","[0]","100","010","1","","","","","","",""
"","","","","","image-keyboard-response","231","272311","0.0-206.0","5c7f489defd9e20015751167","665500ab8938657b03fbdba8","6657925c480d7e783d0b7ba9","272","stimuli/01000100.jpg"," ","","feedback_trial","0","","","","","","","","","","","","","","","","","","","","",""
"","","","","","image-keyboard-response","232","272979","0.0-207.0","5c7f489defd9e20015751167","665500ab8938657b03fbdba8","6657925c480d7e783d0b7ba9","666","stimuli/0010010.jpg","0","","prediction_trial","0","","true","","0","true","true","true","true","true","true","[0]","010","010","1","","","","","","",""
"","","","","","image-keyboard-response","233","273294","0.0-208.0","5c7f489defd9e20015751167","665500ab8938657b03fbdba8","6657925c480d7e783d0b7ba9","314","stimuli/00100100.jpg"," ","","feedback_trial","0","","","","","","","","","","","","","","","","","","","","",""
"","","","","","image-keyboard-response","234","274175","0.0-209.0","5c7f489defd9e20015751167","665500ab8938657b03fbdba8","6657925c480d7e783d0b7ba9","879","stimuli/0101101.jpg","0","","prediction_trial","2","","false","","0","false","false","false","false","false","false","[0,2]","101","101","0","","","","","","",""
"","","","","","image-keyboard-response","235","274490","0.0-210.0","5c7f489defd9e20015751167","665500ab8938657b03fbdba8","6657925c480d7e783d0b7ba9","313","stimuli/01011012.jpg"," ","","feedback_trial","0","","","","","","","","","","","","","","","","","","","","",""
"","","","","","image-keyboard-response","236","275517","0.0-211.0","5c7f489defd9e20015751167","665500ab8938657b03fbdba8","6657925c480d7e783d0b7ba9","1024","stimuli/0101110.jpg","1","","prediction_trial","0","","false","","0","false","false","false","false","false","false","[2,0]","101","110","0","","","","","","",""
"","","","","","image-keyboard-response","237","275901","0.0-212.0","5c7f489defd9e20015751167","665500ab8938657b03fbdba8","6657925c480d7e783d0b7ba9","382","stimuli/01011100.jpg"," ","","feedback_trial","2","","","","","","","","","","","","","","","","","","","","",""
"","","","","","image-keyboard-response","238","276391","0.0-213.0","5c7f489defd9e20015751167","665500ab8938657b03fbdba8","6657925c480d7e783d0b7ba9","488","stimuli/0111000.jpg","0","","prediction_trial","1","","false","","0","true","true","false","false","false","false","[0,2,1]","111","000","0","","","","","","",""
"","","","","","image-keyboard-response","239","276806","0.0-214.0","5c7f489defd9e20015751167","665500ab8938657b03fbdba8","6657925c480d7e783d0b7ba9","414","stimuli/01110001.jpg"," ","","feedback_trial","0","","","","","","","","","","","","","","","","","","","","",""
"","","","","","image-keyboard-response","240","277396","0.0-215.0","5c7f489defd9e20015751167","665500ab8938657b03fbdba8","6657925c480d7e783d0b7ba9","588","stimuli/1000110.jpg","1","","prediction_trial","1","","true","","1","false","false","true","true","false","false","[1]","000","110","1","","","","","","",""
"","","","","","image-keyboard-response","241","277817","0.0-216.0","5c7f489defd9e20015751167","665500ab8938657b03fbdba8","6657925c480d7e783d0b7ba9","418","stimuli/10001101.jpg"," ","","feedback_trial","1","","","","","","","","","","","","","","","","","","","","",""
"","","","","","image-keyboard-response","242","278923","0.0-217.0","5c7f489defd9e20015751167","665500ab8938657b03fbdba8","6657925c480d7e783d0b7ba9","1105","stimuli/2011001.jpg","1","","prediction_trial","2","","false","","2","false","true","false","false","false","false","[2,1]","011","001","0","","","","","","",""
"","","","","","image-keyboard-response","243","279291","0.0-218.0","5c7f489defd9e20015751167","665500ab8938657b03fbdba8","6657925c480d7e783d0b7ba9","366","stimuli/20110012.jpg"," ","","feedback_trial","2","","","","","","","","","","","","","","","","","","","","",""
"","","","","","image-keyboard-response","244","280803","0.0-219.0","5c7f489defd9e20015751167","665500ab8938657b03fbdba8","6657925c480d7e783d0b7ba9","1510","stimuli/2110001.jpg","2","","prediction_trial","2","","true","","2","false","true","true","true","false","true","[2]","110","001","1","","","","","","",""
"","","","","","image-keyboard-response","245","281053","0.0-220.0","5c7f489defd9e20015751167","665500ab8938657b03fbdba8","6657925c480d7e783d0b7ba9","248","stimuli/21100012.jpg"," ","","feedback_trial","2","","","","","","","","","","","","","","","","","","","","",""
"","","","","","image-keyboard-response","246","282350","0.0-221.0","5c7f489defd9e20015751167","665500ab8938657b03fbdba8","6657925c480d7e783d0b7ba9","1294","stimuli/1001010.jpg","1","","prediction_trial","1","","true","","1","false","true","true","true","false","true","[1]","001","010","1","","","","","","",""
"","","","","","image-keyboard-response","247","282676","0.0-222.0","5c7f489defd9e20015751167","665500ab8938657b03fbdba8","6657925c480d7e783d0b7ba9","324","stimuli/10010101.jpg"," ","","feedback_trial","1","","","","","","","","","","","","","","","","","","","","",""
"","","","","","image-keyboard-response","248","284172","0.0-223.0","5c7f489defd9e20015751167","665500ab8938657b03fbdba8","6657925c480d7e783d0b7ba9","1493","stimuli/2001111.jpg","1","","prediction_trial","2","","false","","2","false","false","false","true","false","false","[2]","001","111","0","","","","","","",""
"","","","","","image-keyboard-response","249","284570","0.0-224.0","5c7f489defd9e20015751167","665500ab8938657b03fbdba8","6657925c480d7e783d0b7ba9","396","stimuli/20011112.jpg"," ","","feedback_trial","2","","","","","","","","","","","","","","","","","","","","",""
"","","","","","image-keyboard-response","250","285056","0.0-225.0","5c7f489defd9e20015751167","665500ab8938657b03fbdba8","6657925c480d7e783d0b7ba9","484","stimuli/0001000.jpg","0","","prediction_trial","0","","true","","0","true","true","true","true","true","true","[0]","001","000","1","","","","","","",""
"","","","","","image-keyboard-response","251","285317","0.0-226.0","5c7f489defd9e20015751167","665500ab8938657b03fbdba8","6657925c480d7e783d0b7ba9","259","stimuli/00010000.jpg"," ","","feedback_trial","0","","","","","","","","","","","","","","","","","","","","",""
"","","","","","image-keyboard-response","252","285946","0.0-227.0","5c7f489defd9e20015751167","665500ab8938657b03fbdba8","6657925c480d7e783d0b7ba9","628","stimuli/1001001.jpg","1","","prediction_trial","1","","true","","1","true","true","true","true","true","true","[1]","001","001","1","","","","","","",""
"","","","","","image-keyboard-response","253","286232","0.0-228.0","5c7f489defd9e20015751167","665500ab8938657b03fbdba8","6657925c480d7e783d0b7ba9","284","stimuli/10010011.jpg"," ","","feedback_trial","1","","","","","","","","","","","","","","","","","","","","",""
"","","","","","image-keyboard-response","254","286883","0.0-229.0","5c7f489defd9e20015751167","665500ab8938657b03fbdba8","6657925c480d7e783d0b7ba9","649","stimuli/2111010.jpg","2","","prediction_trial","0","","false","","2","true","true","false","false","false","false","[0,1,2]","111","010","0","","","","","","",""
"","","","","","image-keyboard-response","255","287273","0.0-230.0","5c7f489defd9e20015751167","665500ab8938657b03fbdba8","6657925c480d7e783d0b7ba9","388","stimuli/21110100.jpg"," ","","feedback_trial","0","","","","","","","","","","","","","","","","","","","","",""
"","","","","","image-keyboard-response","256","287878","0.0-231.0","5c7f489defd9e20015751167","665500ab8938657b03fbdba8","6657925c480d7e783d0b7ba9","603","stimuli/1101101.jpg","1","","prediction_trial","1","","true","","1","true","true","true","true","true","true","[1]","101","101","1","","","","","","",""
"","","","","","image-keyboard-response","257","288104","0.0-232.0","5c7f489defd9e20015751167","665500ab8938657b03fbdba8","6657925c480d7e783d0b7ba9","224","stimuli/11011011.jpg"," ","","feedback_trial","1","","","","","","","","","","","","","","","","","","","","",""
"","","","","","image-keyboard-response","258","289592","0.0-233.0","5c7f489defd9e20015751167","665500ab8938657b03fbdba8","6657925c480d7e783d0b7ba9","1485","stimuli/0000110.jpg","0","","prediction_trial","0","","true","","0","false","false","true","true","false","false","[0]","000","110","1","","","","","","",""
"","","","","","image-keyboard-response","259","289901","0.0-234.0","5c7f489defd9e20015751167","665500ab8938657b03fbdba8","6657925c480d7e783d0b7ba9","307","stimuli/00001100.jpg"," ","","feedback_trial","0","","","","","","","","","","","","","","","","","","","","",""
"","","","","","image-keyboard-response","260","290629","0.0-235.0","5c7f489defd9e20015751167","665500ab8938657b03fbdba8","6657925c480d7e783d0b7ba9","726","stimuli/2000000.jpg","2","","prediction_trial","2","","true","","2","true","true","true","true","true","true","[2]","000","000","1","","","","","","",""
"","","","","","image-keyboard-response","261","290853","0.0-236.0","5c7f489defd9e20015751167","665500ab8938657b03fbdba8","6657925c480d7e783d0b7ba9","222","stimuli/20000002.jpg"," ","","feedback_trial","2","","","","","","","","","","","","","","","","","","","","",""
"","","","","","image-keyboard-response","262","292252","0.0-237.0","5c7f489defd9e20015751167","665500ab8938657b03fbdba8","6657925c480d7e783d0b7ba9","1397","stimuli/1010001.jpg","1","","prediction_trial","1","","true","","1","true","true","false","true","false","true","[1]","010","001","1","","","","","","",""
"","","","","","image-keyboard-response","263","292547","0.0-238.0","5c7f489defd9e20015751167","665500ab8938657b03fbdba8","6657925c480d7e783d0b7ba9","293","stimuli/10100011.jpg"," ","","feedback_trial","1","","","","","","","","","","","","","","","","","","","","",""
"","","","","","image-keyboard-response","264","293075","0.0-239.0","5c7f489defd9e20015751167","665500ab8938657b03fbdba8","6657925c480d7e783d0b7ba9","527","stimuli/0000011.jpg","0","","prediction_trial","0","","true","","0","true","true","true","true","true","true","[0]","000","011","1","","","","","","",""
"","","","","","image-keyboard-response","265","293372","0.0-240.0","5c7f489defd9e20015751167","665500ab8938657b03fbdba8","6657925c480d7e783d0b7ba9","294","stimuli/00000110.jpg"," ","","feedback_trial","0","","","","","","","","","","","","","","","","","","","","",""
"","","","","","image-keyboard-response","266","294483","0.0-241.0","5c7f489defd9e20015751167","665500ab8938657b03fbdba8","6657925c480d7e783d0b7ba9","1109","stimuli/1110001.jpg","1","","prediction_trial","1","","true","","1","true","true","false","false","false","false","[1,0]","110","001","1","","","","","","",""
"","","","","","image-keyboard-response","267","294839","0.0-242.0","5c7f489defd9e20015751167","665500ab8938657b03fbdba8","6657925c480d7e783d0b7ba9","354","stimuli/11100011.jpg"," ","","feedback_trial","1","","","","","","","","","","","","","","","","","","","","",""
"","","","","","image-keyboard-response","268","295386","0.0-243.0","5c7f489defd9e20015751167","665500ab8938657b03fbdba8","6657925c480d7e783d0b7ba9","545","stimuli/1000101.jpg","1","","prediction_trial","1","","true","","1","true","true","true","true","true","true","[1]","000","101","1","","","","","","",""
"","","","","","image-keyboard-response","269","295661","0.0-244.0","5c7f489defd9e20015751167","665500ab8938657b03fbdba8","6657925c480d7e783d0b7ba9","272","stimuli/10001011.jpg"," ","","feedback_trial","1","","","","","","","","","","","","","","","","","","","","",""
"","","","","","image-keyboard-response","270","296547","0.0-245.0","5c7f489defd9e20015751167","665500ab8938657b03fbdba8","6657925c480d7e783d0b7ba9","884","stimuli/1110010.jpg","0","","prediction_trial","1","","false","","1","false","true","false","false","false","false","[1,0]","110","010","0","","","","","","",""
"","","","","","image-keyboard-response","271","297283","0.0-246.0","5c7f489defd9e20015751167","665500ab8938657b03fbdba8","6657925c480d7e783d0b7ba9","733","stimuli/11100101.jpg"," ","","feedback_trial","1","","","","","","","","","","","","","","","","","","","","",""
"","","","","","image-keyboard-response","272","297775","0.0-247.0","5c7f489defd9e20015751167","665500ab8938657b03fbdba8","6657925c480d7e783d0b7ba9","491","stimuli/0001011.jpg","0","","prediction_trial","0","","true","","0","true","true","true","true","true","true","[0]","001","011","1","","","","","","",""
"","","","","","image-keyboard-response","273","298046","0.0-248.0","5c7f489defd9e20015751167","665500ab8938657b03fbdba8","6657925c480d7e783d0b7ba9","269","stimuli/00010110.jpg"," ","","feedback_trial","0","","","","","","","","","","","","","","","","","","","","",""
"","","","","","image-keyboard-response","274","298730","0.0-249.0","5c7f489defd9e20015751167","665500ab8938657b03fbdba8","6657925c480d7e783d0b7ba9","682","stimuli/2010010.jpg","2","","prediction_trial","2","","true","","2","true","true","true","true","true","true","[2]","010","010","1","","","","","","",""
"","","","","","image-keyboard-response","275","299019","0.0-250.0","5c7f489defd9e20015751167","665500ab8938657b03fbdba8","6657925c480d7e783d0b7ba9","287","stimuli/20100102.jpg"," ","","feedback_trial","2","","","","","","","","","","","","","","","","","","","","",""
"","","","","","image-keyboard-response","276","301282","0.0-251.0","5c7f489defd9e20015751167","665500ab8938657b03fbdba8","6657925c480d7e783d0b7ba9","2261","stimuli/2011101.jpg","1","","prediction_trial","2","","false","","2","false","false","false","false","false","false","[2,1]","011","101","0","","","","","","",""
"","","","","","image-keyboard-response","277","301893","0.0-252.0","5c7f489defd9e20015751167","665500ab8938657b03fbdba8","6657925c480d7e783d0b7ba9","609","stimuli/20111012.jpg"," ","","feedback_trial","2","","","","","","","","","","","","","","","","","","","","",""
"","","","","","image-keyboard-response","278","302591","0.0-253.0","5c7f489defd9e20015751167","665500ab8938657b03fbdba8","6657925c480d7e783d0b7ba9","696","stimuli/2111011.jpg","1","","prediction_trial","2","","false","","2","false","false","false","false","false","false","[1,2,0]","111","011","0","","","","","","",""
"","","","","","image-keyboard-response","279","303031","0.0-254.0","5c7f489defd9e20015751167","665500ab8938657b03fbdba8","6657925c480d7e783d0b7ba9","439","stimuli/21110112.jpg"," ","","feedback_trial","1","","","","","","","","","","","","","","","","","","","","",""
"","","","","","image-keyboard-response","280","304498","0.0-255.0","5c7f489defd9e20015751167","665500ab8938657b03fbdba8","6657925c480d7e783d0b7ba9","1464","stimuli/1110100.jpg","1","","prediction_trial","0","","false","","1","true","true","false","false","false","false","[1,0]","110","100","0","","","","","","",""
"","","","","","image-keyboard-response","281","304914","0.0-256.0","5c7f489defd9e20015751167","665500ab8938657b03fbdba8","6657925c480d7e783d0b7ba9","414","stimuli/11101000.jpg"," ","","feedback_trial","1","","","","","","","","","","","","","","","","","","","","",""
"","","","","","image-keyboard-response","282","305403","0.0-257.0","5c7f489defd9e20015751167","665500ab8938657b03fbdba8","6657925c480d7e783d0b7ba9","487","stimuli/1010000.jpg","1","","prediction_trial","1","","true","","1","true","true","false","true","false","true","[1]","010","000","1","","","","","","",""
"","","","","","image-keyboard-response","283","305727","0.0-258.0","5c7f489defd9e20015751167","665500ab8938657b03fbdba8","6657925c480d7e783d0b7ba9","322","stimuli/10100001.jpg"," ","","feedback_trial","1","","","","","","","","","","","","","","","","","","","","",""
"","","","","","image-keyboard-response","284","306224","0.0-259.0","5c7f489defd9e20015751167","665500ab8938657b03fbdba8","6657925c480d7e783d0b7ba9","495","stimuli/2110110.jpg","2","","prediction_trial","2","","true","","2","true","true","true","true","true","true","[2]","110","110","1","","","","","","",""
"","","","","","image-keyboard-response","285","306505","0.0-260.0","5c7f489defd9e20015751167","665500ab8938657b03fbdba8","6657925c480d7e783d0b7ba9","279","stimuli/21101102.jpg"," ","","feedback_trial","2","","","","","","","","","","","","","","","","","","","","",""
"","","","","","image-keyboard-response","286","307550","0.0-261.0","5c7f489defd9e20015751167","665500ab8938657b03fbdba8","6657925c480d7e783d0b7ba9","1043","stimuli/2011110.jpg","2","","prediction_trial","2","","true","","2","true","true","false","false","false","false","[2,1]","011","110","1","","","","","","",""
"","","","","","image-keyboard-response","287","307918","0.0-262.0","5c7f489defd9e20015751167","665500ab8938657b03fbdba8","6657925c480d7e783d0b7ba9","366","stimuli/20111102.jpg"," ","","feedback_trial","2","","","","","","","","","","","","","","","","","","","","",""
"","","","","","image-keyboard-response","288","308751","0.0-263.0","5c7f489defd9e20015751167","665500ab8938657b03fbdba8","6657925c480d7e783d0b7ba9","832","stimuli/1110110.jpg","1","","prediction_trial","0","","false","","1","false","false","false","false","false","false","[1,0]","110","110","0","","","","","","",""
"","","","","","image-keyboard-response","289","309104","0.0-264.0","5c7f489defd9e20015751167","665500ab8938657b03fbdba8","6657925c480d7e783d0b7ba9","351","stimuli/11101100.jpg"," ","","feedback_trial","1","","","","","","","","","","","","","","","","","","","","",""
"","","","","","image-keyboard-response","290","309697","0.0-265.0","5c7f489defd9e20015751167","665500ab8938657b03fbdba8","6657925c480d7e783d0b7ba9","591","stimuli/2010110.jpg","2","","prediction_trial","2","","true","","2","true","true","true","true","true","true","[2]","010","110","1","","","","","","",""
"","","","","","image-keyboard-response","291","310016","0.0-266.0","5c7f489defd9e20015751167","665500ab8938657b03fbdba8","6657925c480d7e783d0b7ba9","317","stimuli/20101102.jpg"," ","","feedback_trial","2","","","","","","","","","","","","","","","","","","","","",""
"","","","","","image-keyboard-response","292","311379","0.0-267.0","5c7f489defd9e20015751167","665500ab8938657b03fbdba8","6657925c480d7e783d0b7ba9","1360","stimuli/0001100.jpg","0","","prediction_trial","0","","true","","0","false","true","true","true","false","true","[0]","001","100","1","","","","","","",""
"","","","","","image-keyboard-response","293","311644","0.0-268.0","5c7f489defd9e20015751167","665500ab8938657b03fbdba8","6657925c480d7e783d0b7ba9","263","stimuli/00011000.jpg"," ","","feedback_trial","0","","","","","","","","","","","","","","","","","","","","",""
"","","","","","image-keyboard-response","294","312921","0.0-269.0","5c7f489defd9e20015751167","665500ab8938657b03fbdba8","6657925c480d7e783d0b7ba9","1275","stimuli/1101111.jpg","0","","prediction_trial","1","","false","","1","false","false","true","true","false","false","[1]","101","111","0","","","","","","",""
"","","","","","image-keyboard-response","295","313255","0.0-270.0","5c7f489defd9e20015751167","665500ab8938657b03fbdba8","6657925c480d7e783d0b7ba9","332","stimuli/11011111.jpg"," ","","feedback_trial","1","","","","","","","","","","","","","","","","","","","","",""
"","","","","","image-keyboard-response","296","314007","0.0-271.0","5c7f489defd9e20015751167","665500ab8938657b03fbdba8","6657925c480d7e783d0b7ba9","749","stimuli/0111100.jpg","0","","prediction_trial","1","","false","","0","false","true","false","false","false","false","[1,0,2]","111","100","0","","","","","","",""
"","","","","","image-keyboard-response","297","314385","0.0-272.0","5c7f489defd9e20015751167","665500ab8938657b03fbdba8","6657925c480d7e783d0b7ba9","377","stimuli/01111001.jpg"," ","","feedback_trial","1","","","","","","","","","","","","","","","","","","","","",""
"","","","","","image-keyboard-response","298","315058","0.0-273.0","5c7f489defd9e20015751167","665500ab8938657b03fbdba8","6657925c480d7e783d0b7ba9","670","stimuli/0111010.jpg","0","","prediction_trial","2","","false","","0","true","true","false","false","false","false","[2,1,0]","111","010","0","","","","","","",""
"","","","","","image-keyboard-response","299","315430","0.0-274.0","5c7f489defd9e20015751167","665500ab8938657b03fbdba8","6657925c480d7e783d0b7ba9","370","stimuli/01110102.jpg"," ","","feedback_trial","2","","","","","","","","","","","","","","","","","","","","",""
"","","","","","image-keyboard-response","300","316113","0.0-275.0","5c7f489defd9e20015751167","665500ab8938657b03fbdba8","6657925c480d7e783d0b7ba9","681","stimuli/2101010.jpg","2","","prediction_trial","2","","true","","2","true","true","false","false","false","false","[0,2]","101","010","1","","","","","","",""
"","","","","","image-keyboard-response","301","316518","0.0-276.0","5c7f489defd9e20015751167","665500ab8938657b03fbdba8","6657925c480d7e783d0b7ba9","403","stimuli/21010102.jpg"," ","","feedback_trial","0","","","","","","","","","","","","","","","","","","","","",""
"","","","","","image-keyboard-response","302","317043","0.0-277.0","5c7f489defd9e20015751167","665500ab8938657b03fbdba8","6657925c480d7e783d0b7ba9","523","stimuli/0011000.jpg","0","","prediction_trial","0","","true","","0","true","true","true","true","true","true","[0]","011","000","1","","","","","","",""
"","","","","","image-keyboard-response","303","317310","0.0-278.0","5c7f489defd9e20015751167","665500ab8938657b03fbdba8","6657925c480d7e783d0b7ba9","265","stimuli/00110000.jpg"," ","","feedback_trial","0","","","","","","","","","","","","","","","","","","","","",""
"","","","","","image-keyboard-response","304","318337","0.0-279.0","5c7f489defd9e20015751167","665500ab8938657b03fbdba8","6657925c480d7e783d0b7ba9","1025","stimuli/1011000.jpg","1","","prediction_trial","1","","true","","1","true","true","false","false","false","false","[1,2]","011","000","1","","","","","","",""
"","","","","","image-keyboard-response","305","318649","0.0-280.0","5c7f489defd9e20015751167","665500ab8938657b03fbdba8","6657925c480d7e783d0b7ba9","310","stimuli/10110001.jpg"," ","","feedback_trial","1","","","","","","","","","","","","","","","","","","","","",""
"","","","","","image-keyboard-response","306","319494","0.0-281.0","5c7f489defd9e20015751167","665500ab8938657b03fbdba8","6657925c480d7e783d0b7ba9","843","stimuli/0110110.jpg","1","","prediction_trial","0","","false","","0","false","false","false","false","false","false","[0,1]","110","110","0","","","","","","",""
"","","","","","image-keyboard-response","307","319774","0.0-282.0","5c7f489defd9e20015751167","665500ab8938657b03fbdba8","6657925c480d7e783d0b7ba9","279","stimuli/01101100.jpg"," ","","feedback_trial","0","","","","","","","","","","","","","","","","","","","","",""
"","","","","","image-keyboard-response","308","320321","0.0-283.0","5c7f489defd9e20015751167","665500ab8938657b03fbdba8","6657925c480d7e783d0b7ba9","545","stimuli/1111001.jpg","1","","prediction_trial","1","","true","","1","true","true","false","false","false","false","[2,1,0]","111","001","1","","","","","","",""
"","","","","","image-keyboard-response","309","320650","0.0-284.0","5c7f489defd9e20015751167","665500ab8938657b03fbdba8","6657925c480d7e783d0b7ba9","328","stimuli/11110011.jpg"," ","","feedback_trial","2","","","","","","","","","","","","","","","","","","","","",""
"","","","","","image-keyboard-response","310","321776","0.0-285.0","5c7f489defd9e20015751167","665500ab8938657b03fbdba8","6657925c480d7e783d0b7ba9","1125","stimuli/2000111.jpg","1","","prediction_trial","2","","false","","2","false","false","true","true","false","false","[2]","000","111","0","","","","","","",""
"","","","","","image-keyboard-response","311","322164","0.0-286.0","5c7f489defd9e20015751167","665500ab8938657b03fbdba8","6657925c480d7e783d0b7ba9","386","stimuli/20001112.jpg"," ","","feedback_trial","2","","","","","","","","","","","","","","","","","","","","",""
"","","","","","image-keyboard-response","312","322678","0.0-287.0","5c7f489defd9e20015751167","665500ab8938657b03fbdba8","6657925c480d7e783d0b7ba9","511","stimuli/2100010.jpg","2","","prediction_trial","2","","true","","2","true","true","true","true","true","true","[2]","100","010","1","","","","","","",""
"","","","","","image-keyboard-response","313","322909","0.0-288.0","5c7f489defd9e20015751167","665500ab8938657b03fbdba8","6657925c480d7e783d0b7ba9","229","stimuli/21000102.jpg"," ","","feedback_trial","2","","","","","","","","","","","","","","","","","","","","",""
"","","","","","image-keyboard-response","314","323412","0.0-289.0","5c7f489defd9e20015751167","665500ab8938657b03fbdba8","6657925c480d7e783d0b7ba9","501","stimuli/0001001.jpg","0","","prediction_trial","0","","true","","0","true","true","true","true","true","true","[0]","001","001","1","","","","","","",""
"","","","","","image-keyboard-response","315","323651","0.0-290.0","5c7f489defd9e20015751167","665500ab8938657b03fbdba8","6657925c480d7e783d0b7ba9","237","stimuli/00010010.jpg"," ","","feedback_trial","0","","","","","","","","","","","","","","","","","","","","",""
"","","","","","image-keyboard-response","316","324439","0.0-291.0","5c7f489defd9e20015751167","665500ab8938657b03fbdba8","6657925c480d7e783d0b7ba9","786","stimuli/1110000.jpg","1","","prediction_trial","0","","false","","1","true","true","false","false","false","false","[1,0]","110","000","0","","","","","","",""
"","","","","","image-keyboard-response","317","324704","0.0-292.0","5c7f489defd9e20015751167","665500ab8938657b03fbdba8","6657925c480d7e783d0b7ba9","263","stimuli/11100000.jpg"," ","","feedback_trial","1","","","","","","","","","","","","","","","","","","","","",""
"","","","","","survey-html-form","318","414534","0.0-293.0","5c7f489defd9e20015751167","665500ab8938657b03fbdba8","6657925c480d7e783d0b7ba9","89827","","{""feedback"":""Some were obvious as he could see what was in some baskets. If it was not obvious by deduction, then really just guessed randomly. If I couldn't see any baskets, then I would select whichever (if any) he could see the contents of."",""age"":""41"",""gender"":""Male"",""other_gender"":"""",""race"":""White"",""other_race"":"""",""ethnicity"":""Non-Hispanic""}","","exit_survey","","","","","","","","","","","","","","","","Some were obvious as he could see what was in some baskets. If it was not obvious by deduction, then really just guessed randomly. If I couldn't see any baskets, then I would select whichever (if any) he could see the contents of.","41","Non-Hispanic","Male","White","0.6597222222222222","0.6597222222222222"
