"success","timeout","failed_images","failed_audio","failed_video","trial_type","trial_index","time_elapsed","internal_node_id","prolific_id","prolific_study_id","prolific_session_id","rt","stimulus","response","view_history","trial","character_choice","stimulus_dict","accuracy","correct_response","ball_pos","ego_ball_visible","ego_can_infer","alter_ball_visible","alter_can_infer","collective_ball_visible","collective_can_infer","search_locations","alter_occluders","ego_occluders","accuracy_bool","feedback","age","ethnicity","gender","race","overall_accuracy","bonus"
"true","false","[]","[]","[]","preload","0","8924","0.0-0.0","60feb2be3bb57f04327c03f4","665500ab8938657b03fbdba8","665780b7c8835dc947089449","","","","","","","","","","","","","","","","","","","","","","","","","","",""
"true","","","","","fullscreen","1","18962","0.0-1.0","60feb2be3bb57f04327c03f4","665500ab8938657b03fbdba8","665780b7c8835dc947089449","","","","","","","","","","","","","","","","","","","","","","","","","","",""
"","","","","","html-button-response","2","27047","0.0-2.0","60feb2be3bb57f04327c03f4","665500ab8938657b03fbdba8","665780b7c8835dc947089449","8081","<p><b>Consent Form</b></p> <div style=""text-align:left;background-color:lightgrey; padding:20px; max-width:900px;""><p>Please consider this information carefully before deciding whether to participate in this research.</p> <p>The purpose of this research is to examine which factors influence social judgment and decision-making. You will be asked to make judgements about individuals and actions in social scenarios. We are simply interested in your judgement. The study will take less than 1 hour to complete, and you will receive less than $20 on Prolific. Your compensation and time commitment are specified in the study description. There are no anticipated risks associated with participating in this study. The effects of participating should be comparable to those you would ordinarily experience from viewing a computer monitor and using a mouse or keyboard for a similar amount of time. At the end of the study, we will provide an explanation of the questions that motivate this line of research and will describe the potential implications. </p><p> Your participation in this study is completely voluntary and you may refuse to participate or you may choose to withdraw at any time without penalty or loss of benefits to you which are otherwise entitled. Your participation in this study will remain confidential. No personally identifiable information will be associated with your data. Also, all analyses of the data will be averaged across all the participants, so your individual responses will never be specifically analyzed. </p><p> If you have questions or concerns about your participation or payment, or want to request a summary of research findings, please contact Dr. Jonathan Phillips at Jonathan.S.Phillips@dartmouth.edu. </p><p> Please save a copy of this form for your records. </p><p><b>Agreement: </b>The nature and purpose of this research have been sufficiently explained and I agree to participate in this study. I understand that I am free to withdraw at any time without incurring any penalty. Please consent by clicking the button below to continue. Otherwise, please exit the study at any time. </p>","0","","","","","","","","","","","","","","","","","","","","","","","",""
"","","","","","instructions","3","125420","0.0-3.0-0.0","60feb2be3bb57f04327c03f4","665500ab8938657b03fbdba8","665780b7c8835dc947089449","98368","","","[{""page_index"":0,""viewing_time"":2719},{""page_index"":1,""viewing_time"":2656},{""page_index"":2,""viewing_time"":3041},{""page_index"":3,""viewing_time"":9095},{""page_index"":4,""viewing_time"":3952},{""page_index"":5,""viewing_time"":3848},{""page_index"":6,""viewing_time"":4464},{""page_index"":7,""viewing_time"":4800},{""page_index"":8,""viewing_time"":5840},{""page_index"":9,""viewing_time"":28032},{""page_index"":10,""viewing_time"":13224},{""page_index"":11,""viewing_time"":9577},{""page_index"":12,""viewing_time"":4864},{""page_index"":13,""viewing_time"":2255}]","intro","","","","","","","","","","","","","","","","","","","","","",""
"","","","","","image-keyboard-response","4","126803","0.0-3.0-1.0","60feb2be3bb57f04327c03f4","665500ab8938657b03fbdba8","665780b7c8835dc947089449","1361","stimuli/1000000.jpg","1","","prediction_practice","1","{""filepath"":""stimuli/1000000.jpg"",""ball_pos"":1,""ego_ball_visible"":true,""ego_can_infer"":true,""alter_ball_visible"":true,""alter_can_infer"":true,""collective_ball_visible"":true,""collective_can_infer"":true,""search_locations"":[1],""alter_occluders"":""000"",""ego_occluders"":""000""}","true","","","","","","","","","","","","","","","","","","",""
"","","","","","image-keyboard-response","5","127963","0.0-3.0-2.0","60feb2be3bb57f04327c03f4","665500ab8938657b03fbdba8","665780b7c8835dc947089449","1158","stimuli/10000001.jpg"," ","","practrice_feedback","1","","","","","","","","","","","","","","","","","","","","",""
"","","","","","image-keyboard-response","6","129916","0.0-3.0-3.0","60feb2be3bb57f04327c03f4","665500ab8938657b03fbdba8","665780b7c8835dc947089449","1951","stimuli/1110100.jpg","1","","prediction_practice","1","{""filepath"":""stimuli/1110100.jpg"",""ball_pos"":1,""ego_ball_visible"":true,""ego_can_infer"":true,""alter_ball_visible"":false,""alter_can_infer"":false,""collective_ball_visible"":false,""collective_can_infer"":false,""search_locations"":[0,1],""alter_occluders"":""110"",""ego_occluders"":""100""}","true","","","","","","","","","","","","","","","","","","",""
"","","","","","image-keyboard-response","7","131379","0.0-3.0-4.0","60feb2be3bb57f04327c03f4","665500ab8938657b03fbdba8","665780b7c8835dc947089449","1462","stimuli/11101001.jpg"," ","","practrice_feedback","0","","","","","","","","","","","","","","","","","","","","",""
"","","","","","image-keyboard-response","8","133155","0.0-3.0-5.0","60feb2be3bb57f04327c03f4","665500ab8938657b03fbdba8","665780b7c8835dc947089449","1775","stimuli/0011110.jpg","1","","prediction_practice","0","{""filepath"":""stimuli/0011110.jpg"",""ball_pos"":0,""ego_ball_visible"":false,""ego_can_infer"":false,""alter_ball_visible"":true,""alter_can_infer"":true,""collective_ball_visible"":false,""collective_can_infer"":false,""search_locations"":[0],""alter_occluders"":""011"",""ego_occluders"":""110""}","false","","","","","","","","","","","","","","","","","","",""
"","","","","","image-keyboard-response","9","135795","0.0-3.0-6.0","60feb2be3bb57f04327c03f4","665500ab8938657b03fbdba8","665780b7c8835dc947089449","2639","stimuli/00111100.jpg"," ","","practrice_feedback","0","","","","","","","","","","","","","","","","","","","","",""
"","","","","","image-keyboard-response","10","138069","0.0-3.0-7.0","60feb2be3bb57f04327c03f4","665500ab8938657b03fbdba8","665780b7c8835dc947089449","2273","stimuli/1010001.jpg","1","","prediction_practice","1","{""filepath"":""stimuli/1010001.jpg"",""ball_pos"":1,""ego_ball_visible"":true,""ego_can_infer"":true,""alter_ball_visible"":false,""alter_can_infer"":true,""collective_ball_visible"":false,""collective_can_infer"":true,""search_locations"":[1],""alter_occluders"":""010"",""ego_occluders"":""001""}","true","","","","","","","","","","","","","","","","","","",""
"","","","","","image-keyboard-response","11","138654","0.0-3.0-8.0","60feb2be3bb57f04327c03f4","665500ab8938657b03fbdba8","665780b7c8835dc947089449","582","stimuli/10100011.jpg"," ","","practrice_feedback","1","","","","","","","","","","","","","","","","","","","","",""
"","","","","","image-keyboard-response","12","139827","0.0-3.0-9.0","60feb2be3bb57f04327c03f4","665500ab8938657b03fbdba8","665780b7c8835dc947089449","1171","stimuli/1111111.jpg","1","","prediction_practice","1","{""filepath"":""stimuli/1111111.jpg"",""ball_pos"":1,""ego_ball_visible"":false,""ego_can_infer"":false,""alter_ball_visible"":false,""alter_can_infer"":false,""collective_ball_visible"":false,""collective_can_infer"":false,""search_locations"":[0,1,2],""alter_occluders"":""111"",""ego_occluders"":""111""}","true","","","","","","","","","","","","","","","","","","",""
"","","","","","image-keyboard-response","13","140630","0.0-3.0-10.0","60feb2be3bb57f04327c03f4","665500ab8938657b03fbdba8","665780b7c8835dc947089449","802","stimuli/11111111.jpg"," ","","practrice_feedback","0","","","","","","","","","","","","","","","","","","","","",""
"","","","","","image-keyboard-response","14","142076","0.0-3.0-11.0","60feb2be3bb57f04327c03f4","665500ab8938657b03fbdba8","665780b7c8835dc947089449","1421","stimuli/0011111.jpg","0","","prediction_practice","0","{""filepath"":""stimuli/0011111.jpg"",""ball_pos"":0,""ego_ball_visible"":false,""ego_can_infer"":false,""alter_ball_visible"":true,""alter_can_infer"":true,""collective_ball_visible"":false,""collective_can_infer"":false,""search_locations"":[0],""alter_occluders"":""011"",""ego_occluders"":""111""}","true","","","","","","","","","","","","","","","","","","",""
"","","","","","image-keyboard-response","15","143287","0.0-3.0-12.0","60feb2be3bb57f04327c03f4","665500ab8938657b03fbdba8","665780b7c8835dc947089449","1210","stimuli/00111110.jpg"," ","","practrice_feedback","0","","","","","","","","","","","","","","","","","","","","",""
"","","","","","image-keyboard-response","16","145163","0.0-3.0-13.0","60feb2be3bb57f04327c03f4","665500ab8938657b03fbdba8","665780b7c8835dc947089449","1873","stimuli/2001010.jpg","2","","prediction_practice","2","{""filepath"":""stimuli/2001010.jpg"",""ball_pos"":2,""ego_ball_visible"":true,""ego_can_infer"":true,""alter_ball_visible"":false,""alter_can_infer"":true,""collective_ball_visible"":false,""collective_can_infer"":true,""search_locations"":[2],""alter_occluders"":""001"",""ego_occluders"":""010""}","true","","","","","","","","","","","","","","","","","","",""
"","","","","","image-keyboard-response","17","145702","0.0-3.0-14.0","60feb2be3bb57f04327c03f4","665500ab8938657b03fbdba8","665780b7c8835dc947089449","538","stimuli/20010102.jpg"," ","","practrice_feedback","2","","","","","","","","","","","","","","","","","","","","",""
"","","","","","image-keyboard-response","18","147278","0.0-3.0-15.0","60feb2be3bb57f04327c03f4","665500ab8938657b03fbdba8","665780b7c8835dc947089449","1572","stimuli/1000111.jpg","2","","prediction_practice","1","{""filepath"":""stimuli/1000111.jpg"",""ball_pos"":1,""ego_ball_visible"":false,""ego_can_infer"":false,""alter_ball_visible"":true,""alter_can_infer"":true,""collective_ball_visible"":false,""collective_can_infer"":false,""search_locations"":[1],""alter_occluders"":""000"",""ego_occluders"":""111""}","false","","","","","","","","","","","","","","","","","","",""
"","","","","","image-keyboard-response","19","148012","0.0-3.0-16.0","60feb2be3bb57f04327c03f4","665500ab8938657b03fbdba8","665780b7c8835dc947089449","730","stimuli/10001111.jpg"," ","","practrice_feedback","1","","","","","","","","","","","","","","","","","","","","",""
"","","","","","image-keyboard-response","20","149140","0.0-3.0-17.0","60feb2be3bb57f04327c03f4","665500ab8938657b03fbdba8","665780b7c8835dc947089449","1127","stimuli/1001010.jpg","1","","prediction_practice","1","{""filepath"":""stimuli/1001010.jpg"",""ball_pos"":1,""ego_ball_visible"":false,""ego_can_infer"":true,""alter_ball_visible"":true,""alter_can_infer"":true,""collective_ball_visible"":false,""collective_can_infer"":true,""search_locations"":[1],""alter_occluders"":""001"",""ego_occluders"":""010""}","true","","","","","","","","","","","","","","","","","","",""
"","","","","","image-keyboard-response","21","149502","0.0-3.0-18.0","60feb2be3bb57f04327c03f4","665500ab8938657b03fbdba8","665780b7c8835dc947089449","360","stimuli/10010101.jpg"," ","","practrice_feedback","1","","","","","","","","","","","","","","","","","","","","",""
"","","","","","image-keyboard-response","22","150467","0.0-3.0-19.0","60feb2be3bb57f04327c03f4","665500ab8938657b03fbdba8","665780b7c8835dc947089449","935","stimuli/2010010.jpg","2","","prediction_practice","2","{""filepath"":""stimuli/2010010.jpg"",""ball_pos"":2,""ego_ball_visible"":true,""ego_can_infer"":true,""alter_ball_visible"":true,""alter_can_infer"":true,""collective_ball_visible"":true,""collective_can_infer"":true,""search_locations"":[2],""alter_occluders"":""010"",""ego_occluders"":""010""}","true","","","","","","","","","","","","","","","","","","",""
"","","","","","image-keyboard-response","23","150790","0.0-3.0-20.0","60feb2be3bb57f04327c03f4","665500ab8938657b03fbdba8","665780b7c8835dc947089449","322","stimuli/20100102.jpg"," ","","practrice_feedback","2","","","","","","","","","","","","","","","","","","","","",""
"","","","","","html-button-response","24","157932","0.0-3.0-21.0","60feb2be3bb57f04327c03f4","665500ab8938657b03fbdba8","665780b7c8835dc947089449","7138","Now that you've had some practice, you'll be tested with a couple of easy trials. If you correctly predict Sam's choice, you'll move on to complete the experiment!","0","","","","","","","","","","","","","","","","","","","","","","","",""
"","","","","","image-keyboard-response","25","159008","0.0-3.0-22.0-0.0","60feb2be3bb57f04327c03f4","665500ab8938657b03fbdba8","665780b7c8835dc947089449","1074","stimuli/0000011.jpg","arrowleft","","comprehension_quiz","","","true","arrowleft","","","","","","","","","","","","","","","","","",""
"","","","","","image-keyboard-response","26","159398","0.0-3.0-22.0-1.0","60feb2be3bb57f04327c03f4","665500ab8938657b03fbdba8","665780b7c8835dc947089449","385","stimuli/00000110.jpg"," ","","comprehension_quiz","","","true"," ","","","","","","","","","","","","","","","","","",""
"","","","","","image-keyboard-response","27","160467","0.0-3.0-22.0-2.0","60feb2be3bb57f04327c03f4","665500ab8938657b03fbdba8","665780b7c8835dc947089449","1066","stimuli/1010010.jpg","arrowdown","","comprehension_quiz","","","true","arrowdown","","","","","","","","","","","","","","","","","",""
"","","","","","image-keyboard-response","28","160868","0.0-3.0-22.0-3.0","60feb2be3bb57f04327c03f4","665500ab8938657b03fbdba8","665780b7c8835dc947089449","400","stimuli/10100101.jpg"," ","","comprehension_quiz","","","true"," ","","","","","","","","","","","","","","","","","",""
"","","","","","html-button-response","29","162572","0.0-4.0","60feb2be3bb57f04327c03f4","665500ab8938657b03fbdba8","665780b7c8835dc947089449","1702","The experiment will now begin.","0","","","","","","","","","","","","","","","","","","","","","","","",""
"","","","","","image-keyboard-response","30","163766","0.0-5.0","60feb2be3bb57f04327c03f4","665500ab8938657b03fbdba8","665780b7c8835dc947089449","1193","stimuli/0010100.jpg","0","","prediction_trial","0","","true","","0","false","true","true","true","false","true","[0]","010","100","1","","","","","","",""
"","","","","","image-keyboard-response","31","164060","0.0-6.0","60feb2be3bb57f04327c03f4","665500ab8938657b03fbdba8","665780b7c8835dc947089449","290","stimuli/00101000.jpg"," ","","feedback_trial","0","","","","","","","","","","","","","","","","","","","","",""
"","","","","","image-keyboard-response","32","165683","0.0-7.0","60feb2be3bb57f04327c03f4","665500ab8938657b03fbdba8","665780b7c8835dc947089449","1601","stimuli/0101001.jpg","0","","prediction_trial","0","","true","","0","true","true","false","false","false","false","[0,2]","101","001","1","","","","","","",""
"","","","","","image-keyboard-response","33","166206","0.0-8.0","60feb2be3bb57f04327c03f4","665500ab8938657b03fbdba8","665780b7c8835dc947089449","522","stimuli/01010010.jpg"," ","","feedback_trial","0","","","","","","","","","","","","","","","","","","","","",""
"","","","","","image-keyboard-response","34","166891","0.0-9.0","60feb2be3bb57f04327c03f4","665500ab8938657b03fbdba8","665780b7c8835dc947089449","682","stimuli/0001000.jpg","0","","prediction_trial","0","","true","","0","true","true","true","true","true","true","[0]","001","000","1","","","","","","",""
"","","","","","image-keyboard-response","35","167254","0.0-10.0","60feb2be3bb57f04327c03f4","665500ab8938657b03fbdba8","665780b7c8835dc947089449","362","stimuli/00010000.jpg"," ","","feedback_trial","0","","","","","","","","","","","","","","","","","","","","",""
"","","","","","image-keyboard-response","36","168775","0.0-11.0","60feb2be3bb57f04327c03f4","665500ab8938657b03fbdba8","665780b7c8835dc947089449","1517","stimuli/0101101.jpg","2","","prediction_trial","0","","false","","0","false","false","false","false","false","false","[0,2]","101","101","0","","","","","","",""
"","","","","","image-keyboard-response","37","169487","0.0-12.0","60feb2be3bb57f04327c03f4","665500ab8938657b03fbdba8","665780b7c8835dc947089449","708","stimuli/01011010.jpg"," ","","feedback_trial","0","","","","","","","","","","","","","","","","","","","","",""
"","","","","","image-keyboard-response","38","170643","0.0-13.0","60feb2be3bb57f04327c03f4","665500ab8938657b03fbdba8","665780b7c8835dc947089449","1153","stimuli/0001111.jpg","0","","prediction_trial","0","","true","","0","false","false","true","true","false","false","[0]","001","111","1","","","","","","",""
"","","","","","image-keyboard-response","39","171398","0.0-14.0","60feb2be3bb57f04327c03f4","665500ab8938657b03fbdba8","665780b7c8835dc947089449","754","stimuli/00011110.jpg"," ","","feedback_trial","0","","","","","","","","","","","","","","","","","","","","",""
"","","","","","image-keyboard-response","40","173638","0.0-15.0","60feb2be3bb57f04327c03f4","665500ab8938657b03fbdba8","665780b7c8835dc947089449","2211","stimuli/2010111.jpg","0","","prediction_trial","2","","false","","2","false","false","true","true","false","false","[2]","010","111","0","","","","","","",""
"","","","","","image-keyboard-response","41","174622","0.0-16.0","60feb2be3bb57f04327c03f4","665500ab8938657b03fbdba8","665780b7c8835dc947089449","981","stimuli/20101112.jpg"," ","","feedback_trial","2","","","","","","","","","","","","","","","","","","","","",""
"","","","","","image-keyboard-response","42","175891","0.0-17.0","60feb2be3bb57f04327c03f4","665500ab8938657b03fbdba8","665780b7c8835dc947089449","1266","stimuli/0101100.jpg","0","","prediction_trial","2","","false","","0","false","true","false","false","false","false","[2,0]","101","100","0","","","","","","",""
"","","","","","image-keyboard-response","43","176757","0.0-18.0","60feb2be3bb57f04327c03f4","665500ab8938657b03fbdba8","665780b7c8835dc947089449","865","stimuli/01011002.jpg"," ","","feedback_trial","2","","","","","","","","","","","","","","","","","","","","",""
"","","","","","image-keyboard-response","44","177526","0.0-19.0","60feb2be3bb57f04327c03f4","665500ab8938657b03fbdba8","665780b7c8835dc947089449","766","stimuli/1100001.jpg","1","","prediction_trial","1","","true","","1","true","true","true","true","true","true","[1]","100","001","1","","","","","","",""
"","","","","","image-keyboard-response","45","177894","0.0-20.0","60feb2be3bb57f04327c03f4","665500ab8938657b03fbdba8","665780b7c8835dc947089449","365","stimuli/11000011.jpg"," ","","feedback_trial","1","","","","","","","","","","","","","","","","","","","","",""
"","","","","","image-keyboard-response","46","178523","0.0-21.0","60feb2be3bb57f04327c03f4","665500ab8938657b03fbdba8","665780b7c8835dc947089449","627","stimuli/1101100.jpg","1","","prediction_trial","1","","true","","1","true","true","true","true","true","true","[1]","101","100","1","","","","","","",""
"","","","","","image-keyboard-response","47","178830","0.0-22.0","60feb2be3bb57f04327c03f4","665500ab8938657b03fbdba8","665780b7c8835dc947089449","306","stimuli/11011001.jpg"," ","","feedback_trial","1","","","","","","","","","","","","","","","","","","","","",""
"","","","","","image-keyboard-response","48","180495","0.0-23.0","60feb2be3bb57f04327c03f4","665500ab8938657b03fbdba8","665780b7c8835dc947089449","1638","stimuli/1110010.jpg","1","","prediction_trial","0","","false","","1","false","true","false","false","false","false","[1,0]","110","010","0","","","","","","",""
"","","","","","image-keyboard-response","49","181053","0.0-24.0","60feb2be3bb57f04327c03f4","665500ab8938657b03fbdba8","665780b7c8835dc947089449","554","stimuli/11100100.jpg"," ","","feedback_trial","1","","","","","","","","","","","","","","","","","","","","",""
"","","","","","image-keyboard-response","50","182584","0.0-25.0","60feb2be3bb57f04327c03f4","665500ab8938657b03fbdba8","665780b7c8835dc947089449","1531","stimuli/0010111.jpg","2","","prediction_trial","0","","false","","0","false","false","true","true","false","false","[0]","010","111","0","","","","","","",""
"","","","","","image-keyboard-response","51","183201","0.0-26.0","60feb2be3bb57f04327c03f4","665500ab8938657b03fbdba8","665780b7c8835dc947089449","613","stimuli/00101110.jpg"," ","","feedback_trial","0","","","","","","","","","","","","","","","","","","","","",""
"","","","","","image-keyboard-response","52","184308","0.0-27.0","60feb2be3bb57f04327c03f4","665500ab8938657b03fbdba8","665780b7c8835dc947089449","1105","stimuli/1111100.jpg","1","","prediction_trial","1","","true","","1","true","true","false","false","false","false","[1,2,0]","111","100","1","","","","","","",""
"","","","","","image-keyboard-response","53","184784","0.0-28.0","60feb2be3bb57f04327c03f4","665500ab8938657b03fbdba8","665780b7c8835dc947089449","474","stimuli/11111001.jpg"," ","","feedback_trial","1","","","","","","","","","","","","","","","","","","","","",""
"","","","","","image-keyboard-response","54","185693","0.0-29.0","60feb2be3bb57f04327c03f4","665500ab8938657b03fbdba8","665780b7c8835dc947089449","906","stimuli/0111101.jpg","0","","prediction_trial","0","","true","","0","false","false","false","false","false","false","[0,2,1]","111","101","1","","","","","","",""
"","","","","","image-keyboard-response","55","186244","0.0-30.0","60feb2be3bb57f04327c03f4","665500ab8938657b03fbdba8","665780b7c8835dc947089449","551","stimuli/01111010.jpg"," ","","feedback_trial","0","","","","","","","","","","","","","","","","","","","","",""
"","","","","","image-keyboard-response","56","188407","0.0-31.0","60feb2be3bb57f04327c03f4","665500ab8938657b03fbdba8","665780b7c8835dc947089449","2150","stimuli/2010001.jpg","2","","prediction_trial","2","","true","","2","false","true","true","true","false","true","[2]","010","001","1","","","","","","",""
"","","","","","image-keyboard-response","57","188828","0.0-32.0","60feb2be3bb57f04327c03f4","665500ab8938657b03fbdba8","665780b7c8835dc947089449","417","stimuli/20100012.jpg"," ","","feedback_trial","2","","","","","","","","","","","","","","","","","","","","",""
"","","","","","image-keyboard-response","58","189500","0.0-33.0","60feb2be3bb57f04327c03f4","665500ab8938657b03fbdba8","665780b7c8835dc947089449","671","stimuli/0010010.jpg","0","","prediction_trial","0","","true","","0","true","true","true","true","true","true","[0]","010","010","1","","","","","","",""
"","","","","","image-keyboard-response","59","189856","0.0-34.0","60feb2be3bb57f04327c03f4","665500ab8938657b03fbdba8","665780b7c8835dc947089449","354","stimuli/00100100.jpg"," ","","feedback_trial","0","","","","","","","","","","","","","","","","","","","","",""
"","","","","","image-keyboard-response","60","191148","0.0-35.0","60feb2be3bb57f04327c03f4","665500ab8938657b03fbdba8","665780b7c8835dc947089449","1290","stimuli/1100110.jpg","1","","prediction_trial","1","","true","","1","false","false","true","true","false","false","[1]","100","110","1","","","","","","",""
"","","","","","image-keyboard-response","61","191637","0.0-36.0","60feb2be3bb57f04327c03f4","665500ab8938657b03fbdba8","665780b7c8835dc947089449","488","stimuli/11001101.jpg"," ","","feedback_trial","1","","","","","","","","","","","","","","","","","","","","",""
"","","","","","image-keyboard-response","62","192687","0.0-37.0","60feb2be3bb57f04327c03f4","665500ab8938657b03fbdba8","665780b7c8835dc947089449","1049","stimuli/2101000.jpg","2","","prediction_trial","2","","true","","2","true","true","false","false","false","false","[2,0]","101","000","1","","","","","","",""
"","","","","","image-keyboard-response","63","193108","0.0-38.0","60feb2be3bb57f04327c03f4","665500ab8938657b03fbdba8","665780b7c8835dc947089449","418","stimuli/21010002.jpg"," ","","feedback_trial","2","","","","","","","","","","","","","","","","","","","","",""
"","","","","","image-keyboard-response","64","194229","0.0-39.0","60feb2be3bb57f04327c03f4","665500ab8938657b03fbdba8","665780b7c8835dc947089449","1109","stimuli/1110101.jpg","1","","prediction_trial","0","","false","","1","true","true","false","false","false","false","[1,0]","110","101","0","","","","","","",""
"","","","","","image-keyboard-response","65","194597","0.0-40.0","60feb2be3bb57f04327c03f4","665500ab8938657b03fbdba8","665780b7c8835dc947089449","366","stimuli/11101010.jpg"," ","","feedback_trial","1","","","","","","","","","","","","","","","","","","","","",""
"","","","","","image-keyboard-response","66","195351","0.0-41.0","60feb2be3bb57f04327c03f4","665500ab8938657b03fbdba8","665780b7c8835dc947089449","753","stimuli/1111011.jpg","1","","prediction_trial","2","","false","","1","false","false","false","false","false","false","[2,1,0]","111","011","0","","","","","","",""
"","","","","","image-keyboard-response","67","195759","0.0-42.0","60feb2be3bb57f04327c03f4","665500ab8938657b03fbdba8","665780b7c8835dc947089449","405","stimuli/11110112.jpg"," ","","feedback_trial","2","","","","","","","","","","","","","","","","","","","","",""
"","","","","","image-keyboard-response","68","196484","0.0-43.0","60feb2be3bb57f04327c03f4","665500ab8938657b03fbdba8","665780b7c8835dc947089449","723","stimuli/2011001.jpg","2","","prediction_trial","1","","false","","2","false","true","false","false","false","false","[2,1]","011","001","0","","","","","","",""
"","","","","","image-keyboard-response","69","196937","0.0-44.0","60feb2be3bb57f04327c03f4","665500ab8938657b03fbdba8","665780b7c8835dc947089449","451","stimuli/20110011.jpg"," ","","feedback_trial","2","","","","","","","","","","","","","","","","","","","","",""
"","","","","","image-keyboard-response","70","197728","0.0-45.0","60feb2be3bb57f04327c03f4","665500ab8938657b03fbdba8","665780b7c8835dc947089449","789","stimuli/1011110.jpg","1","","prediction_trial","1","","true","","1","false","false","false","false","false","false","[1,2]","011","110","1","","","","","","",""
"","","","","","image-keyboard-response","71","198128","0.0-46.0","60feb2be3bb57f04327c03f4","665500ab8938657b03fbdba8","665780b7c8835dc947089449","397","stimuli/10111101.jpg"," ","","feedback_trial","1","","","","","","","","","","","","","","","","","","","","",""
"","","","","","image-keyboard-response","72","199188","0.0-47.0","60feb2be3bb57f04327c03f4","665500ab8938657b03fbdba8","665780b7c8835dc947089449","1056","stimuli/2111000.jpg","2","","prediction_trial","2","","true","","2","true","true","false","false","false","false","[1,2,0]","111","000","1","","","","","","",""
"","","","","","image-keyboard-response","73","199544","0.0-48.0","60feb2be3bb57f04327c03f4","665500ab8938657b03fbdba8","665780b7c8835dc947089449","354","stimuli/21110002.jpg"," ","","feedback_trial","1","","","","","","","","","","","","","","","","","","","","",""
"","","","","","image-keyboard-response","74","200361","0.0-49.0","60feb2be3bb57f04327c03f4","665500ab8938657b03fbdba8","665780b7c8835dc947089449","813","stimuli/2010110.jpg","2","","prediction_trial","2","","true","","2","true","true","true","true","true","true","[2]","010","110","1","","","","","","",""
"","","","","","image-keyboard-response","75","200645","0.0-50.0","60feb2be3bb57f04327c03f4","665500ab8938657b03fbdba8","665780b7c8835dc947089449","281","stimuli/20101102.jpg"," ","","feedback_trial","2","","","","","","","","","","","","","","","","","","","","",""
"","","","","","image-keyboard-response","76","201263","0.0-51.0","60feb2be3bb57f04327c03f4","665500ab8938657b03fbdba8","665780b7c8835dc947089449","617","stimuli/0100000.jpg","0","","prediction_trial","0","","true","","0","true","true","false","true","false","true","[0]","100","000","1","","","","","","",""
"","","","","","image-keyboard-response","77","201628","0.0-52.0","60feb2be3bb57f04327c03f4","665500ab8938657b03fbdba8","665780b7c8835dc947089449","362","stimuli/01000000.jpg"," ","","feedback_trial","0","","","","","","","","","","","","","","","","","","","","",""
"","","","","","image-keyboard-response","78","202893","0.0-53.0","60feb2be3bb57f04327c03f4","665500ab8938657b03fbdba8","665780b7c8835dc947089449","1264","stimuli/0011101.jpg","2","","prediction_trial","0","","false","","0","false","false","true","true","false","false","[0]","011","101","0","","","","","","",""
"","","","","","image-keyboard-response","79","203304","0.0-54.0","60feb2be3bb57f04327c03f4","665500ab8938657b03fbdba8","665780b7c8835dc947089449","409","stimuli/00111010.jpg"," ","","feedback_trial","0","","","","","","","","","","","","","","","","","","","","",""
"","","","","","image-keyboard-response","80","204428","0.0-55.0","60feb2be3bb57f04327c03f4","665500ab8938657b03fbdba8","665780b7c8835dc947089449","1098","stimuli/2101011.jpg","1","","prediction_trial","2","","false","","2","false","false","false","false","false","false","[2,0]","101","011","0","","","","","","",""
"","","","","","image-keyboard-response","81","204775","0.0-56.0","60feb2be3bb57f04327c03f4","665500ab8938657b03fbdba8","665780b7c8835dc947089449","346","stimuli/21010112.jpg"," ","","feedback_trial","2","","","","","","","","","","","","","","","","","","","","",""
"","","","","","image-keyboard-response","82","205653","0.0-57.0","60feb2be3bb57f04327c03f4","665500ab8938657b03fbdba8","665780b7c8835dc947089449","873","stimuli/2011000.jpg","2","","prediction_trial","2","","true","","2","true","true","false","false","false","false","[1,2]","011","000","1","","","","","","",""
"","","","","","image-keyboard-response","83","205997","0.0-58.0","60feb2be3bb57f04327c03f4","665500ab8938657b03fbdba8","665780b7c8835dc947089449","343","stimuli/20110002.jpg"," ","","feedback_trial","1","","","","","","","","","","","","","","","","","","","","",""
"","","","","","image-keyboard-response","84","207303","0.0-59.0","60feb2be3bb57f04327c03f4","665500ab8938657b03fbdba8","665780b7c8835dc947089449","1304","stimuli/1000010.jpg","1","","prediction_trial","1","","true","","1","false","true","true","true","false","true","[1]","000","010","1","","","","","","",""
"","","","","","image-keyboard-response","85","207598","0.0-60.0","60feb2be3bb57f04327c03f4","665500ab8938657b03fbdba8","665780b7c8835dc947089449","291","stimuli/10000101.jpg"," ","","feedback_trial","1","","","","","","","","","","","","","","","","","","","","",""
"","","","","","image-keyboard-response","86","208248","0.0-61.0","60feb2be3bb57f04327c03f4","665500ab8938657b03fbdba8","665780b7c8835dc947089449","648","stimuli/0000010.jpg","0","","prediction_trial","0","","true","","0","true","true","true","true","true","true","[0]","000","010","1","","","","","","",""
"","","","","","image-keyboard-response","87","208551","0.0-62.0","60feb2be3bb57f04327c03f4","665500ab8938657b03fbdba8","665780b7c8835dc947089449","300","stimuli/00000100.jpg"," ","","feedback_trial","0","","","","","","","","","","","","","","","","","","","","",""
"","","","","","image-keyboard-response","88","209332","0.0-63.0","60feb2be3bb57f04327c03f4","665500ab8938657b03fbdba8","665780b7c8835dc947089449","755","stimuli/0000000.jpg","0","","prediction_trial","0","","true","","0","true","true","true","true","true","true","[0]","000","000","1","","","","","","",""
"","","","","","image-keyboard-response","89","209613","0.0-64.0","60feb2be3bb57f04327c03f4","665500ab8938657b03fbdba8","665780b7c8835dc947089449","279","stimuli/00000000.jpg"," ","","feedback_trial","0","","","","","","","","","","","","","","","","","","","","",""
"","","","","","image-keyboard-response","90","210919","0.0-65.0","60feb2be3bb57f04327c03f4","665500ab8938657b03fbdba8","665780b7c8835dc947089449","1305","stimuli/0110001.jpg","0","","prediction_trial","0","","true","","0","true","true","false","false","false","false","[0,1]","110","001","1","","","","","","",""
"","","","","","image-keyboard-response","91","211193","0.0-66.0","60feb2be3bb57f04327c03f4","665500ab8938657b03fbdba8","665780b7c8835dc947089449","271","stimuli/01100010.jpg"," ","","feedback_trial","0","","","","","","","","","","","","","","","","","","","","",""
"","","","","","image-keyboard-response","92","212060","0.0-67.0","60feb2be3bb57f04327c03f4","665500ab8938657b03fbdba8","665780b7c8835dc947089449","865","stimuli/0001100.jpg","0","","prediction_trial","0","","true","","0","false","true","true","true","false","true","[0]","001","100","1","","","","","","",""
"","","","","","image-keyboard-response","93","212296","0.0-68.0","60feb2be3bb57f04327c03f4","665500ab8938657b03fbdba8","665780b7c8835dc947089449","234","stimuli/00011000.jpg"," ","","feedback_trial","0","","","","","","","","","","","","","","","","","","","","",""
"","","","","","image-keyboard-response","94","213919","0.0-69.0","60feb2be3bb57f04327c03f4","665500ab8938657b03fbdba8","665780b7c8835dc947089449","1620","stimuli/2100111.jpg","1","","prediction_trial","2","","false","","2","false","false","true","true","false","false","[2]","100","111","0","","","","","","",""
"","","","","","image-keyboard-response","95","214452","0.0-70.0","60feb2be3bb57f04327c03f4","665500ab8938657b03fbdba8","665780b7c8835dc947089449","530","stimuli/21001112.jpg"," ","","feedback_trial","2","","","","","","","","","","","","","","","","","","","","",""
"","","","","","image-keyboard-response","96","215128","0.0-71.0","60feb2be3bb57f04327c03f4","665500ab8938657b03fbdba8","665780b7c8835dc947089449","674","stimuli/2010100.jpg","2","","prediction_trial","2","","true","","2","true","true","true","true","true","true","[2]","010","100","1","","","","","","",""
"","","","","","image-keyboard-response","97","215440","0.0-72.0","60feb2be3bb57f04327c03f4","665500ab8938657b03fbdba8","665780b7c8835dc947089449","308","stimuli/20101002.jpg"," ","","feedback_trial","2","","","","","","","","","","","","","","","","","","","","",""
"","","","","","image-keyboard-response","98","216696","0.0-73.0","60feb2be3bb57f04327c03f4","665500ab8938657b03fbdba8","665780b7c8835dc947089449","1252","stimuli/0011111.jpg","0","","prediction_trial","0","","true","","0","false","false","true","true","false","false","[0]","011","111","1","","","","","","",""
"","","","","","image-keyboard-response","99","216989","0.0-74.0","60feb2be3bb57f04327c03f4","665500ab8938657b03fbdba8","665780b7c8835dc947089449","290","stimuli/00111110.jpg"," ","","feedback_trial","0","","","","","","","","","","","","","","","","","","","","",""
"","","","","","image-keyboard-response","100","218151","0.0-75.0","60feb2be3bb57f04327c03f4","665500ab8938657b03fbdba8","665780b7c8835dc947089449","1161","stimuli/2001110.jpg","2","","prediction_trial","2","","true","","2","true","true","false","true","false","true","[2]","001","110","1","","","","","","",""
"","","","","","image-keyboard-response","101","218454","0.0-76.0","60feb2be3bb57f04327c03f4","665500ab8938657b03fbdba8","665780b7c8835dc947089449","300","stimuli/20011102.jpg"," ","","feedback_trial","2","","","","","","","","","","","","","","","","","","","","",""
"","","","","","image-keyboard-response","102","219772","0.0-77.0","60feb2be3bb57f04327c03f4","665500ab8938657b03fbdba8","665780b7c8835dc947089449","1317","stimuli/0000111.jpg","0","","prediction_trial","0","","true","","0","false","false","true","true","false","false","[0]","000","111","1","","","","","","",""
"","","","","","image-keyboard-response","103","220184","0.0-78.0","60feb2be3bb57f04327c03f4","665500ab8938657b03fbdba8","665780b7c8835dc947089449","410","stimuli/00001110.jpg"," ","","feedback_trial","0","","","","","","","","","","","","","","","","","","","","",""
"","","","","","image-keyboard-response","104","221096","0.0-79.0","60feb2be3bb57f04327c03f4","665500ab8938657b03fbdba8","665780b7c8835dc947089449","888","stimuli/2000101.jpg","0","","prediction_trial","2","","false","","2","false","false","true","true","false","false","[2]","000","101","0","","","","","","",""
"","","","","","image-keyboard-response","105","221616","0.0-80.0","60feb2be3bb57f04327c03f4","665500ab8938657b03fbdba8","665780b7c8835dc947089449","516","stimuli/20001012.jpg"," ","","feedback_trial","2","","","","","","","","","","","","","","","","","","","","",""
"","","","","","image-keyboard-response","106","222172","0.0-81.0","60feb2be3bb57f04327c03f4","665500ab8938657b03fbdba8","665780b7c8835dc947089449","554","stimuli/0100110.jpg","0","","prediction_trial","0","","true","","0","false","false","false","true","false","false","[0]","100","110","1","","","","","","",""
"","","","","","image-keyboard-response","107","222591","0.0-82.0","60feb2be3bb57f04327c03f4","665500ab8938657b03fbdba8","665780b7c8835dc947089449","417","stimuli/01001100.jpg"," ","","feedback_trial","0","","","","","","","","","","","","","","","","","","","","",""
"","","","","","image-keyboard-response","108","223533","0.0-83.0","60feb2be3bb57f04327c03f4","665500ab8938657b03fbdba8","665780b7c8835dc947089449","938","stimuli/2001011.jpg","2","","prediction_trial","2","","true","","2","false","false","false","true","false","false","[2]","001","011","1","","","","","","",""
"","","","","","image-keyboard-response","109","223919","0.0-84.0","60feb2be3bb57f04327c03f4","665500ab8938657b03fbdba8","665780b7c8835dc947089449","384","stimuli/20010112.jpg"," ","","feedback_trial","2","","","","","","","","","","","","","","","","","","","","",""
"","","","","","image-keyboard-response","110","225285","0.0-85.0","60feb2be3bb57f04327c03f4","665500ab8938657b03fbdba8","665780b7c8835dc947089449","1364","stimuli/2011101.jpg","2","","prediction_trial","1","","false","","2","false","false","false","false","false","false","[2,1]","011","101","0","","","","","","",""
"","","","","","image-keyboard-response","111","225856","0.0-86.0","60feb2be3bb57f04327c03f4","665500ab8938657b03fbdba8","665780b7c8835dc947089449","568","stimuli/20111011.jpg"," ","","feedback_trial","2","","","","","","","","","","","","","","","","","","","","",""
"","","","","","image-keyboard-response","112","227677","0.0-87.0","60feb2be3bb57f04327c03f4","665500ab8938657b03fbdba8","665780b7c8835dc947089449","1818","stimuli/2001111.jpg","2","","prediction_trial","2","","true","","2","false","false","false","true","false","false","[2]","001","111","1","","","","","","",""
"","","","","","image-keyboard-response","113","228184","0.0-88.0","60feb2be3bb57f04327c03f4","665500ab8938657b03fbdba8","665780b7c8835dc947089449","505","stimuli/20011112.jpg"," ","","feedback_trial","2","","","","","","","","","","","","","","","","","","","","",""
"","","","","","image-keyboard-response","114","228888","0.0-89.0","60feb2be3bb57f04327c03f4","665500ab8938657b03fbdba8","665780b7c8835dc947089449","701","stimuli/2100110.jpg","2","","prediction_trial","2","","true","","2","true","true","true","true","true","true","[2]","100","110","1","","","","","","",""
"","","","","","image-keyboard-response","115","229177","0.0-90.0","60feb2be3bb57f04327c03f4","665500ab8938657b03fbdba8","665780b7c8835dc947089449","285","stimuli/21001102.jpg"," ","","feedback_trial","2","","","","","","","","","","","","","","","","","","","","",""
"","","","","","image-keyboard-response","116","230213","0.0-91.0","60feb2be3bb57f04327c03f4","665500ab8938657b03fbdba8","665780b7c8835dc947089449","1034","stimuli/0111010.jpg","0","","prediction_trial","1","","false","","0","true","true","false","false","false","false","[1,2,0]","111","010","0","","","","","","",""
"","","","","","image-keyboard-response","117","230649","0.0-92.0","60feb2be3bb57f04327c03f4","665500ab8938657b03fbdba8","665780b7c8835dc947089449","434","stimuli/01110101.jpg"," ","","feedback_trial","1","","","","","","","","","","","","","","","","","","","","",""
"","","","","","image-keyboard-response","118","231928","0.0-93.0","60feb2be3bb57f04327c03f4","665500ab8938657b03fbdba8","665780b7c8835dc947089449","1275","stimuli/1101010.jpg","1","","prediction_trial","1","","true","","1","false","true","true","true","false","true","[1]","101","010","1","","","","","","",""
"","","","","","image-keyboard-response","119","232260","0.0-94.0","60feb2be3bb57f04327c03f4","665500ab8938657b03fbdba8","665780b7c8835dc947089449","329","stimuli/11010101.jpg"," ","","feedback_trial","1","","","","","","","","","","","","","","","","","","","","",""
"","","","","","image-keyboard-response","120","233399","0.0-95.0","60feb2be3bb57f04327c03f4","665500ab8938657b03fbdba8","665780b7c8835dc947089449","1137","stimuli/1110011.jpg","1","","prediction_trial","0","","false","","1","false","false","false","false","false","false","[0,1]","110","011","0","","","","","","",""
"","","","","","image-keyboard-response","121","234054","0.0-96.0","60feb2be3bb57f04327c03f4","665500ab8938657b03fbdba8","665780b7c8835dc947089449","652","stimuli/11100110.jpg"," ","","feedback_trial","0","","","","","","","","","","","","","","","","","","","","",""
"","","","","","image-keyboard-response","122","235308","0.0-97.0","60feb2be3bb57f04327c03f4","665500ab8938657b03fbdba8","665780b7c8835dc947089449","1253","stimuli/0001010.jpg","0","","prediction_trial","0","","true","","0","true","true","true","true","true","true","[0]","001","010","1","","","","","","",""
"","","","","","image-keyboard-response","123","235694","0.0-98.0","60feb2be3bb57f04327c03f4","665500ab8938657b03fbdba8","665780b7c8835dc947089449","384","stimuli/00010100.jpg"," ","","feedback_trial","0","","","","","","","","","","","","","","","","","","","","",""
"","","","","","image-keyboard-response","124","236718","0.0-99.0","60feb2be3bb57f04327c03f4","665500ab8938657b03fbdba8","665780b7c8835dc947089449","1023","stimuli/0000110.jpg","1","","prediction_trial","0","","false","","0","false","false","true","true","false","false","[0]","000","110","0","","","","","","",""
"","","","","","image-keyboard-response","125","237148","0.0-100.0","60feb2be3bb57f04327c03f4","665500ab8938657b03fbdba8","665780b7c8835dc947089449","428","stimuli/00001100.jpg"," ","","feedback_trial","0","","","","","","","","","","","","","","","","","","","","",""
"","","","","","image-keyboard-response","126","238516","0.0-101.0","60feb2be3bb57f04327c03f4","665500ab8938657b03fbdba8","665780b7c8835dc947089449","1367","stimuli/1010100.jpg","1","","prediction_trial","1","","true","","1","true","true","false","true","false","true","[1]","010","100","1","","","","","","",""
"","","","","","image-keyboard-response","127","238759","0.0-102.0","60feb2be3bb57f04327c03f4","665500ab8938657b03fbdba8","665780b7c8835dc947089449","241","stimuli/10101001.jpg"," ","","feedback_trial","1","","","","","","","","","","","","","","","","","","","","",""
"","","","","","image-keyboard-response","128","239656","0.0-103.0","60feb2be3bb57f04327c03f4","665500ab8938657b03fbdba8","665780b7c8835dc947089449","870","stimuli/2011011.jpg","1","","prediction_trial","1","","true","","2","false","false","false","false","false","false","[1,2]","011","011","1","","","","","","",""
"","","","","","image-keyboard-response","129","240044","0.0-104.0","60feb2be3bb57f04327c03f4","665500ab8938657b03fbdba8","665780b7c8835dc947089449","386","stimuli/20110111.jpg"," ","","feedback_trial","1","","","","","","","","","","","","","","","","","","","","",""
"","","","","","image-keyboard-response","130","240786","0.0-105.0","60feb2be3bb57f04327c03f4","665500ab8938657b03fbdba8","665780b7c8835dc947089449","738","stimuli/2111111.jpg","0","","prediction_trial","0","","true","","2","false","false","false","false","false","false","[0,1,2]","111","111","1","","","","","","",""
"","","","","","image-keyboard-response","131","241170","0.0-106.0","60feb2be3bb57f04327c03f4","665500ab8938657b03fbdba8","665780b7c8835dc947089449","380","stimuli/21111110.jpg"," ","","feedback_trial","0","","","","","","","","","","","","","","","","","","","","",""
"","","","","","image-keyboard-response","132","241913","0.0-107.0","60feb2be3bb57f04327c03f4","665500ab8938657b03fbdba8","665780b7c8835dc947089449","740","stimuli/2101111.jpg","0","","prediction_trial","2","","false","","2","false","false","false","false","false","false","[0,2]","101","111","0","","","","","","",""
"","","","","","image-keyboard-response","133","242346","0.0-108.0","60feb2be3bb57f04327c03f4","665500ab8938657b03fbdba8","665780b7c8835dc947089449","429","stimuli/21011112.jpg"," ","","feedback_trial","0","","","","","","","","","","","","","","","","","","","","",""
"","","","","","image-keyboard-response","134","242950","0.0-109.0","60feb2be3bb57f04327c03f4","665500ab8938657b03fbdba8","665780b7c8835dc947089449","602","stimuli/2001100.jpg","2","","prediction_trial","2","","true","","2","true","true","false","true","false","true","[2]","001","100","1","","","","","","",""
"","","","","","image-keyboard-response","135","243289","0.0-110.0","60feb2be3bb57f04327c03f4","665500ab8938657b03fbdba8","665780b7c8835dc947089449","338","stimuli/20011002.jpg"," ","","feedback_trial","2","","","","","","","","","","","","","","","","","","","","",""
"","","","","","image-keyboard-response","136","244542","0.0-111.0","60feb2be3bb57f04327c03f4","665500ab8938657b03fbdba8","665780b7c8835dc947089449","1225","stimuli/1010101.jpg","1","","prediction_trial","1","","true","","1","true","true","false","true","false","true","[1]","010","101","1","","","","","","",""
"","","","","","image-keyboard-response","137","244798","0.0-112.0","60feb2be3bb57f04327c03f4","665500ab8938657b03fbdba8","665780b7c8835dc947089449","255","stimuli/10101011.jpg"," ","","feedback_trial","1","","","","","","","","","","","","","","","","","","","","",""
"","","","","","image-keyboard-response","138","245390","0.0-113.0","60feb2be3bb57f04327c03f4","665500ab8938657b03fbdba8","665780b7c8835dc947089449","591","stimuli/0011001.jpg","0","","prediction_trial","0","","true","","0","true","true","true","true","true","true","[0]","011","001","1","","","","","","",""
"","","","","","image-keyboard-response","139","245662","0.0-114.0","60feb2be3bb57f04327c03f4","665500ab8938657b03fbdba8","665780b7c8835dc947089449","271","stimuli/00110010.jpg"," ","","feedback_trial","0","","","","","","","","","","","","","","","","","","","","",""
"","","","","","image-keyboard-response","140","247246","0.0-115.0","60feb2be3bb57f04327c03f4","665500ab8938657b03fbdba8","665780b7c8835dc947089449","1583","stimuli/1011111.jpg","2","","prediction_trial","1","","false","","1","false","false","false","false","false","false","[2,1]","011","111","0","","","","","","",""
"","","","","","image-keyboard-response","141","247710","0.0-116.0","60feb2be3bb57f04327c03f4","665500ab8938657b03fbdba8","665780b7c8835dc947089449","463","stimuli/10111111.jpg"," ","","feedback_trial","2","","","","","","","","","","","","","","","","","","","","",""
"","","","","","image-keyboard-response","142","248854","0.0-117.0","60feb2be3bb57f04327c03f4","665500ab8938657b03fbdba8","665780b7c8835dc947089449","1143","stimuli/1000110.jpg","0","","prediction_trial","1","","false","","1","false","false","true","true","false","false","[1]","000","110","0","","","","","","",""
"","","","","","image-keyboard-response","143","249230","0.0-118.0","60feb2be3bb57f04327c03f4","665500ab8938657b03fbdba8","665780b7c8835dc947089449","375","stimuli/10001101.jpg"," ","","feedback_trial","1","","","","","","","","","","","","","","","","","","","","",""
"","","","","","image-keyboard-response","144","250214","0.0-119.0","60feb2be3bb57f04327c03f4","665500ab8938657b03fbdba8","665780b7c8835dc947089449","971","stimuli/1010001.jpg","1","","prediction_trial","1","","true","","1","true","true","false","true","false","true","[1]","010","001","1","","","","","","",""
"","","","","","image-keyboard-response","145","250486","0.0-120.0","60feb2be3bb57f04327c03f4","665500ab8938657b03fbdba8","665780b7c8835dc947089449","271","stimuli/10100011.jpg"," ","","feedback_trial","1","","","","","","","","","","","","","","","","","","","","",""
"","","","","","image-keyboard-response","146","251054","0.0-121.0","60feb2be3bb57f04327c03f4","665500ab8938657b03fbdba8","665780b7c8835dc947089449","567","stimuli/2000100.jpg","2","","prediction_trial","2","","true","","2","true","true","true","true","true","true","[2]","000","100","1","","","","","","",""
"","","","","","image-keyboard-response","147","251294","0.0-122.0","60feb2be3bb57f04327c03f4","665500ab8938657b03fbdba8","665780b7c8835dc947089449","239","stimuli/20001002.jpg"," ","","feedback_trial","2","","","","","","","","","","","","","","","","","","","","",""
"","","","","","image-keyboard-response","148","253832","0.0-123.0","60feb2be3bb57f04327c03f4","665500ab8938657b03fbdba8","665780b7c8835dc947089449","2536","stimuli/2100101.jpg","0","","prediction_trial","2","","false","","2","false","false","true","true","false","false","[2]","100","101","0","","","","","","",""
"","","","","","image-keyboard-response","149","254314","0.0-124.0","60feb2be3bb57f04327c03f4","665500ab8938657b03fbdba8","665780b7c8835dc947089449","479","stimuli/21001012.jpg"," ","","feedback_trial","2","","","","","","","","","","","","","","","","","","","","",""
"","","","","","image-keyboard-response","150","255598","0.0-125.0","60feb2be3bb57f04327c03f4","665500ab8938657b03fbdba8","665780b7c8835dc947089449","1282","stimuli/0101010.jpg","0","","prediction_trial","2","","false","","0","true","true","false","false","false","false","[0,2]","101","010","0","","","","","","",""
"","","","","","image-keyboard-response","151","255886","0.0-126.0","60feb2be3bb57f04327c03f4","665500ab8938657b03fbdba8","665780b7c8835dc947089449","287","stimuli/01010102.jpg"," ","","feedback_trial","0","","","","","","","","","","","","","","","","","","","","",""
"","","","","","image-keyboard-response","152","257489","0.0-127.0","60feb2be3bb57f04327c03f4","665500ab8938657b03fbdba8","665780b7c8835dc947089449","1601","stimuli/1101101.jpg","1","","prediction_trial","1","","true","","1","true","true","true","true","true","true","[1]","101","101","1","","","","","","",""
"","","","","","image-keyboard-response","153","257730","0.0-128.0","60feb2be3bb57f04327c03f4","665500ab8938657b03fbdba8","665780b7c8835dc947089449","237","stimuli/11011011.jpg"," ","","feedback_trial","1","","","","","","","","","","","","","","","","","","","","",""
"","","","","","image-keyboard-response","154","258542","0.0-129.0","60feb2be3bb57f04327c03f4","665500ab8938657b03fbdba8","665780b7c8835dc947089449","809","stimuli/1000111.jpg","1","","prediction_trial","1","","true","","1","false","false","true","true","false","false","[1]","000","111","1","","","","","","",""
"","","","","","image-keyboard-response","155","258791","0.0-130.0","60feb2be3bb57f04327c03f4","665500ab8938657b03fbdba8","665780b7c8835dc947089449","248","stimuli/10001111.jpg"," ","","feedback_trial","1","","","","","","","","","","","","","","","","","","","","",""
"","","","","","image-keyboard-response","156","259777","0.0-131.0","60feb2be3bb57f04327c03f4","665500ab8938657b03fbdba8","665780b7c8835dc947089449","985","stimuli/0110111.jpg","1","","prediction_trial","1","","true","","0","false","false","false","false","false","false","[0,1]","110","111","1","","","","","","",""
"","","","","","image-keyboard-response","157","260119","0.0-132.0","60feb2be3bb57f04327c03f4","665500ab8938657b03fbdba8","665780b7c8835dc947089449","338","stimuli/01101111.jpg"," ","","feedback_trial","0","","","","","","","","","","","","","","","","","","","","",""
"","","","","","image-keyboard-response","158","260737","0.0-133.0","60feb2be3bb57f04327c03f4","665500ab8938657b03fbdba8","665780b7c8835dc947089449","616","stimuli/2110010.jpg","2","","prediction_trial","2","","true","","2","true","true","true","true","true","true","[2]","110","010","1","","","","","","",""
"","","","","","image-keyboard-response","159","261022","0.0-134.0","60feb2be3bb57f04327c03f4","665500ab8938657b03fbdba8","665780b7c8835dc947089449","282","stimuli/21100102.jpg"," ","","feedback_trial","2","","","","","","","","","","","","","","","","","","","","",""
"","","","","","image-keyboard-response","160","262698","0.0-135.0","60feb2be3bb57f04327c03f4","665500ab8938657b03fbdba8","665780b7c8835dc947089449","1662","stimuli/2010010.jpg","2","","prediction_trial","2","","true","","2","true","true","true","true","true","true","[2]","010","010","1","","","","","","",""
"","","","","","image-keyboard-response","161","263065","0.0-136.0","60feb2be3bb57f04327c03f4","665500ab8938657b03fbdba8","665780b7c8835dc947089449","364","stimuli/20100102.jpg"," ","","feedback_trial","2","","","","","","","","","","","","","","","","","","","","",""
"","","","","","image-keyboard-response","162","263694","0.0-137.0","60feb2be3bb57f04327c03f4","665500ab8938657b03fbdba8","665780b7c8835dc947089449","625","stimuli/1000101.jpg","1","","prediction_trial","1","","true","","1","true","true","true","true","true","true","[1]","000","101","1","","","","","","",""
"","","","","","image-keyboard-response","163","263910","0.0-138.0","60feb2be3bb57f04327c03f4","665500ab8938657b03fbdba8","665780b7c8835dc947089449","215","stimuli/10001011.jpg"," ","","feedback_trial","1","","","","","","","","","","","","","","","","","","","","",""
"","","","","","image-keyboard-response","164","264507","0.0-139.0","60feb2be3bb57f04327c03f4","665500ab8938657b03fbdba8","665780b7c8835dc947089449","594","stimuli/0010001.jpg","0","","prediction_trial","0","","true","","0","true","true","true","true","true","true","[0]","010","001","1","","","","","","",""
"","","","","","image-keyboard-response","165","264679","0.0-140.0","60feb2be3bb57f04327c03f4","665500ab8938657b03fbdba8","665780b7c8835dc947089449","169","stimuli/00100010.jpg"," ","","feedback_trial","0","","","","","","","","","","","","","","","","","","","","",""
"","","","","","image-keyboard-response","166","266014","0.0-141.0","60feb2be3bb57f04327c03f4","665500ab8938657b03fbdba8","665780b7c8835dc947089449","1335","stimuli/1100111.jpg","1","","prediction_trial","1","","true","","1","false","false","true","true","false","false","[1]","100","111","1","","","","","","",""
"","","","","","image-keyboard-response","167","266398","0.0-142.0","60feb2be3bb57f04327c03f4","665500ab8938657b03fbdba8","665780b7c8835dc947089449","383","stimuli/11001111.jpg"," ","","feedback_trial","1","","","","","","","","","","","","","","","","","","","","",""
"","","","","","image-keyboard-response","168","267257","0.0-143.0","60feb2be3bb57f04327c03f4","665500ab8938657b03fbdba8","665780b7c8835dc947089449","846","stimuli/0111110.jpg","1","","prediction_trial","0","","false","","0","false","false","false","false","false","false","[0,1,2]","111","110","0","","","","","","",""
"","","","","","image-keyboard-response","169","267659","0.0-144.0","60feb2be3bb57f04327c03f4","665500ab8938657b03fbdba8","665780b7c8835dc947089449","398","stimuli/01111100.jpg"," ","","feedback_trial","0","","","","","","","","","","","","","","","","","","","","",""
"","","","","","image-keyboard-response","170","268886","0.0-145.0","60feb2be3bb57f04327c03f4","665500ab8938657b03fbdba8","665780b7c8835dc947089449","1224","stimuli/0110000.jpg","0","","prediction_trial","1","","false","","0","true","true","false","false","false","false","[1,0]","110","000","0","","","","","","",""
"","","","","","image-keyboard-response","171","269226","0.0-146.0","60feb2be3bb57f04327c03f4","665500ab8938657b03fbdba8","665780b7c8835dc947089449","338","stimuli/01100001.jpg"," ","","feedback_trial","1","","","","","","","","","","","","","","","","","","","","",""
"","","","","","image-keyboard-response","172","270009","0.0-147.0","60feb2be3bb57f04327c03f4","665500ab8938657b03fbdba8","665780b7c8835dc947089449","780","stimuli/1010000.jpg","1","","prediction_trial","1","","true","","1","true","true","false","true","false","true","[1]","010","000","1","","","","","","",""
"","","","","","image-keyboard-response","173","270314","0.0-148.0","60feb2be3bb57f04327c03f4","665500ab8938657b03fbdba8","665780b7c8835dc947089449","300","stimuli/10100001.jpg"," ","","feedback_trial","1","","","","","","","","","","","","","","","","","","","","",""
"","","","","","image-keyboard-response","174","270913","0.0-149.0","60feb2be3bb57f04327c03f4","665500ab8938657b03fbdba8","665780b7c8835dc947089449","596","stimuli/0011011.jpg","0","","prediction_trial","0","","true","","0","true","true","true","true","true","true","[0]","011","011","1","","","","","","",""
"","","","","","image-keyboard-response","175","271118","0.0-150.0","60feb2be3bb57f04327c03f4","665500ab8938657b03fbdba8","665780b7c8835dc947089449","202","stimuli/00110110.jpg"," ","","feedback_trial","0","","","","","","","","","","","","","","","","","","","","",""
"","","","","","image-keyboard-response","176","272234","0.0-151.0","60feb2be3bb57f04327c03f4","665500ab8938657b03fbdba8","665780b7c8835dc947089449","1102","stimuli/1111001.jpg","1","","prediction_trial","0","","false","","1","true","true","false","false","false","false","[2,0,1]","111","001","0","","","","","","",""
"","","","","","image-keyboard-response","177","272578","0.0-152.0","60feb2be3bb57f04327c03f4","665500ab8938657b03fbdba8","665780b7c8835dc947089449","340","stimuli/11110010.jpg"," ","","feedback_trial","2","","","","","","","","","","","","","","","","","","","","",""
"","","","","","image-keyboard-response","178","273410","0.0-153.0","60feb2be3bb57f04327c03f4","665500ab8938657b03fbdba8","665780b7c8835dc947089449","829","stimuli/0011110.jpg","1","","prediction_trial","0","","false","","0","false","false","true","true","false","false","[0]","011","110","0","","","","","","",""
"","","","","","image-keyboard-response","179","273742","0.0-154.0","60feb2be3bb57f04327c03f4","665500ab8938657b03fbdba8","665780b7c8835dc947089449","329","stimuli/00111100.jpg"," ","","feedback_trial","0","","","","","","","","","","","","","","","","","","","","",""
"","","","","","image-keyboard-response","180","274337","0.0-155.0","60feb2be3bb57f04327c03f4","665500ab8938657b03fbdba8","665780b7c8835dc947089449","593","stimuli/1100000.jpg","1","","prediction_trial","1","","true","","1","true","true","true","true","true","true","[1]","100","000","1","","","","","","",""
"","","","","","image-keyboard-response","181","274577","0.0-156.0","60feb2be3bb57f04327c03f4","665500ab8938657b03fbdba8","665780b7c8835dc947089449","237","stimuli/11000001.jpg"," ","","feedback_trial","1","","","","","","","","","","","","","","","","","","","","",""
"","","","","","image-keyboard-response","182","275326","0.0-157.0","60feb2be3bb57f04327c03f4","665500ab8938657b03fbdba8","665780b7c8835dc947089449","746","stimuli/2101101.jpg","0","","prediction_trial","0","","true","","2","false","false","false","false","false","false","[0,2]","101","101","1","","","","","","",""
"","","","","","image-keyboard-response","183","275682","0.0-158.0","60feb2be3bb57f04327c03f4","665500ab8938657b03fbdba8","665780b7c8835dc947089449","354","stimuli/21011010.jpg"," ","","feedback_trial","0","","","","","","","","","","","","","","","","","","","","",""
"","","","","","image-keyboard-response","184","276550","0.0-159.0","60feb2be3bb57f04327c03f4","665500ab8938657b03fbdba8","665780b7c8835dc947089449","845","stimuli/0000100.jpg","0","","prediction_trial","0","","true","","0","false","true","true","true","false","true","[0]","000","100","1","","","","","","",""
"","","","","","image-keyboard-response","185","276791","0.0-160.0","60feb2be3bb57f04327c03f4","665500ab8938657b03fbdba8","665780b7c8835dc947089449","239","stimuli/00001000.jpg"," ","","feedback_trial","0","","","","","","","","","","","","","","","","","","","","",""
"","","","","","image-keyboard-response","186","277489","0.0-161.0","60feb2be3bb57f04327c03f4","665500ab8938657b03fbdba8","665780b7c8835dc947089449","697","stimuli/2000001.jpg","2","","prediction_trial","2","","true","","2","false","true","true","true","false","true","[2]","000","001","1","","","","","","",""
"","","","","","image-keyboard-response","187","277778","0.0-162.0","60feb2be3bb57f04327c03f4","665500ab8938657b03fbdba8","665780b7c8835dc947089449","285","stimuli/20000012.jpg"," ","","feedback_trial","2","","","","","","","","","","","","","","","","","","","","",""
"","","","","","image-keyboard-response","188","278574","0.0-163.0","60feb2be3bb57f04327c03f4","665500ab8938657b03fbdba8","665780b7c8835dc947089449","793","stimuli/1000100.jpg","1","","prediction_trial","1","","true","","1","true","true","true","true","true","true","[1]","000","100","1","","","","","","",""
"","","","","","image-keyboard-response","189","278806","0.0-164.0","60feb2be3bb57f04327c03f4","665500ab8938657b03fbdba8","665780b7c8835dc947089449","231","stimuli/10001001.jpg"," ","","feedback_trial","1","","","","","","","","","","","","","","","","","","","","",""
"","","","","","image-keyboard-response","190","280104","0.0-165.0","60feb2be3bb57f04327c03f4","665500ab8938657b03fbdba8","665780b7c8835dc947089449","1297","stimuli/0100010.jpg","0","","prediction_trial","0","","true","","0","true","true","false","true","false","true","[0]","100","010","1","","","","","","",""
"","","","","","image-keyboard-response","191","280378","0.0-166.0","60feb2be3bb57f04327c03f4","665500ab8938657b03fbdba8","665780b7c8835dc947089449","272","stimuli/01000100.jpg"," ","","feedback_trial","0","","","","","","","","","","","","","","","","","","","","",""
"","","","","","image-keyboard-response","192","281017","0.0-167.0","60feb2be3bb57f04327c03f4","665500ab8938657b03fbdba8","665780b7c8835dc947089449","611","stimuli/2100010.jpg","2","","prediction_trial","2","","true","","2","true","true","true","true","true","true","[2]","100","010","1","","","","","","",""
"","","","","","image-keyboard-response","193","281242","0.0-168.0","60feb2be3bb57f04327c03f4","665500ab8938657b03fbdba8","665780b7c8835dc947089449","221","stimuli/21000102.jpg"," ","","feedback_trial","2","","","","","","","","","","","","","","","","","","","","",""
"","","","","","image-keyboard-response","194","282745","0.0-169.0","60feb2be3bb57f04327c03f4","665500ab8938657b03fbdba8","665780b7c8835dc947089449","1500","stimuli/0100101.jpg","2","","prediction_trial","0","","false","","0","false","false","false","true","false","false","[0]","100","101","0","","","","","","",""
"","","","","","image-keyboard-response","195","282978","0.0-170.0","60feb2be3bb57f04327c03f4","665500ab8938657b03fbdba8","665780b7c8835dc947089449","227","stimuli/01001010.jpg"," ","","feedback_trial","0","","","","","","","","","","","","","","","","","","","","",""
"","","","","","image-keyboard-response","196","283608","0.0-171.0","60feb2be3bb57f04327c03f4","665500ab8938657b03fbdba8","665780b7c8835dc947089449","626","stimuli/0010011.jpg","0","","prediction_trial","0","","true","","0","true","true","true","true","true","true","[0]","010","011","1","","","","","","",""
"","","","","","image-keyboard-response","197","283826","0.0-172.0","60feb2be3bb57f04327c03f4","665500ab8938657b03fbdba8","665780b7c8835dc947089449","216","stimuli/00100110.jpg"," ","","feedback_trial","0","","","","","","","","","","","","","","","","","","","","",""
"","","","","","image-keyboard-response","198","284793","0.0-173.0","60feb2be3bb57f04327c03f4","665500ab8938657b03fbdba8","665780b7c8835dc947089449","964","stimuli/1110111.jpg","1","","prediction_trial","1","","true","","1","false","false","false","false","false","false","[0,1]","110","111","1","","","","","","",""
"","","","","","image-keyboard-response","199","285171","0.0-174.0","60feb2be3bb57f04327c03f4","665500ab8938657b03fbdba8","665780b7c8835dc947089449","374","stimuli/11101111.jpg"," ","","feedback_trial","0","","","","","","","","","","","","","","","","","","","","",""
"","","","","","image-keyboard-response","200","286798","0.0-175.0","60feb2be3bb57f04327c03f4","665500ab8938657b03fbdba8","665780b7c8835dc947089449","1601","stimuli/1001111.jpg","0","","prediction_trial","1","","false","","1","false","false","true","true","false","false","[1]","001","111","0","","","","","","",""
"","","","","","image-keyboard-response","201","287259","0.0-176.0","60feb2be3bb57f04327c03f4","665500ab8938657b03fbdba8","665780b7c8835dc947089449","459","stimuli/10011111.jpg"," ","","feedback_trial","1","","","","","","","","","","","","","","","","","","","","",""
"","","","","","image-keyboard-response","202","287890","0.0-177.0","60feb2be3bb57f04327c03f4","665500ab8938657b03fbdba8","665780b7c8835dc947089449","627","stimuli/2110100.jpg","2","","prediction_trial","2","","true","","2","true","true","true","true","true","true","[2]","110","100","1","","","","","","",""
"","","","","","image-keyboard-response","203","288122","0.0-178.0","60feb2be3bb57f04327c03f4","665500ab8938657b03fbdba8","665780b7c8835dc947089449","228","stimuli/21101002.jpg"," ","","feedback_trial","2","","","","","","","","","","","","","","","","","","","","",""
"","","","","","image-keyboard-response","204","289094","0.0-179.0","60feb2be3bb57f04327c03f4","665500ab8938657b03fbdba8","665780b7c8835dc947089449","970","stimuli/1111110.jpg","1","","prediction_trial","0","","false","","1","false","false","false","false","false","false","[0,2,1]","111","110","0","","","","","","",""
"","","","","","image-keyboard-response","205","289518","0.0-180.0","60feb2be3bb57f04327c03f4","665500ab8938657b03fbdba8","665780b7c8835dc947089449","423","stimuli/11111100.jpg"," ","","feedback_trial","0","","","","","","","","","","","","","","","","","","","","",""
"","","","","","image-keyboard-response","206","290474","0.0-181.0","60feb2be3bb57f04327c03f4","665500ab8938657b03fbdba8","665780b7c8835dc947089449","954","stimuli/2110101.jpg","0","","prediction_trial","2","","false","","2","false","false","true","true","false","false","[2]","110","101","0","","","","","","",""
"","","","","","image-keyboard-response","207","290938","0.0-182.0","60feb2be3bb57f04327c03f4","665500ab8938657b03fbdba8","665780b7c8835dc947089449","461","stimuli/21101012.jpg"," ","","feedback_trial","2","","","","","","","","","","","","","","","","","","","","",""
"","","","","","image-keyboard-response","208","291718","0.0-183.0","60feb2be3bb57f04327c03f4","665500ab8938657b03fbdba8","665780b7c8835dc947089449","775","stimuli/0010101.jpg","0","","prediction_trial","0","","true","","0","false","false","true","true","false","false","[0]","010","101","1","","","","","","",""
"","","","","","image-keyboard-response","209","292134","0.0-184.0","60feb2be3bb57f04327c03f4","665500ab8938657b03fbdba8","665780b7c8835dc947089449","415","stimuli/00101010.jpg"," ","","feedback_trial","0","","","","","","","","","","","","","","","","","","","","",""
"","","","","","image-keyboard-response","210","292887","0.0-185.0","60feb2be3bb57f04327c03f4","665500ab8938657b03fbdba8","665780b7c8835dc947089449","751","stimuli/1010011.jpg","1","","prediction_trial","1","","true","","1","false","false","false","true","false","false","[1]","010","011","1","","","","","","",""
"","","","","","image-keyboard-response","211","293322","0.0-186.0","60feb2be3bb57f04327c03f4","665500ab8938657b03fbdba8","665780b7c8835dc947089449","433","stimuli/10100111.jpg"," ","","feedback_trial","1","","","","","","","","","","","","","","","","","","","","",""
"","","","","","image-keyboard-response","212","294382","0.0-187.0","60feb2be3bb57f04327c03f4","665500ab8938657b03fbdba8","665780b7c8835dc947089449","1058","stimuli/1010110.jpg","1","","prediction_trial","1","","true","","1","false","false","false","true","false","false","[1]","010","110","1","","","","","","",""
"","","","","","image-keyboard-response","213","294734","0.0-188.0","60feb2be3bb57f04327c03f4","665500ab8938657b03fbdba8","665780b7c8835dc947089449","351","stimuli/10101101.jpg"," ","","feedback_trial","1","","","","","","","","","","","","","","","","","","","","",""
"","","","","","image-keyboard-response","214","295313","0.0-189.0","60feb2be3bb57f04327c03f4","665500ab8938657b03fbdba8","665780b7c8835dc947089449","578","stimuli/2001000.jpg","2","","prediction_trial","2","","true","","2","true","true","false","true","false","true","[2]","001","000","1","","","","","","",""
"","","","","","image-keyboard-response","215","295658","0.0-190.0","60feb2be3bb57f04327c03f4","665500ab8938657b03fbdba8","665780b7c8835dc947089449","341","stimuli/20010002.jpg"," ","","feedback_trial","2","","","","","","","","","","","","","","","","","","","","",""
"","","","","","image-keyboard-response","216","297705","0.0-191.0","60feb2be3bb57f04327c03f4","665500ab8938657b03fbdba8","665780b7c8835dc947089449","2020","stimuli/0100111.jpg","2","","prediction_trial","0","","false","","0","false","false","false","true","false","false","[0]","100","111","0","","","","","","",""
"","","","","","image-keyboard-response","217","298202","0.0-192.0","60feb2be3bb57f04327c03f4","665500ab8938657b03fbdba8","665780b7c8835dc947089449","492","stimuli/01001110.jpg"," ","","feedback_trial","0","","","","","","","","","","","","","","","","","","","","",""
"","","","","","image-keyboard-response","218","298802","0.0-193.0","60feb2be3bb57f04327c03f4","665500ab8938657b03fbdba8","665780b7c8835dc947089449","595","stimuli/2101100.jpg","2","","prediction_trial","0","","false","","2","true","true","false","false","false","false","[2,0]","101","100","0","","","","","","",""
"","","","","","image-keyboard-response","219","299247","0.0-194.0","60feb2be3bb57f04327c03f4","665500ab8938657b03fbdba8","665780b7c8835dc947089449","443","stimuli/21011000.jpg"," ","","feedback_trial","2","","","","","","","","","","","","","","","","","","","","",""
"","","","","","image-keyboard-response","220","300001","0.0-195.0","60feb2be3bb57f04327c03f4","665500ab8938657b03fbdba8","665780b7c8835dc947089449","752","stimuli/1001011.jpg","2","","prediction_trial","1","","false","","1","false","false","true","true","false","false","[1]","001","011","0","","","","","","",""
"","","","","","image-keyboard-response","221","300576","0.0-196.0","60feb2be3bb57f04327c03f4","665500ab8938657b03fbdba8","665780b7c8835dc947089449","571","stimuli/10010111.jpg"," ","","feedback_trial","1","","","","","","","","","","","","","","","","","","","","",""
"","","","","","image-keyboard-response","222","301482","0.0-197.0","60feb2be3bb57f04327c03f4","665500ab8938657b03fbdba8","665780b7c8835dc947089449","902","stimuli/1111101.jpg","1","","prediction_trial","1","","true","","1","true","true","false","false","false","false","[0,1,2]","111","101","1","","","","","","",""
"","","","","","image-keyboard-response","223","301883","0.0-198.0","60feb2be3bb57f04327c03f4","665500ab8938657b03fbdba8","665780b7c8835dc947089449","397","stimuli/11111011.jpg"," ","","feedback_trial","0","","","","","","","","","","","","","","","","","","","","",""
"","","","","","image-keyboard-response","224","302480","0.0-199.0","60feb2be3bb57f04327c03f4","665500ab8938657b03fbdba8","665780b7c8835dc947089449","562","stimuli/2100000.jpg","2","","prediction_trial","2","","true","","2","true","true","true","true","true","true","[2]","100","000","1","","","","","","",""
"","","","","","image-keyboard-response","225","302858","0.0-200.0","60feb2be3bb57f04327c03f4","665500ab8938657b03fbdba8","665780b7c8835dc947089449","377","stimuli/21000002.jpg"," ","","feedback_trial","2","","","","","","","","","","","","","","","","","","","","",""
"","","","","","image-keyboard-response","226","304027","0.0-201.0","60feb2be3bb57f04327c03f4","665500ab8938657b03fbdba8","665780b7c8835dc947089449","1164","stimuli/1111000.jpg","0","","prediction_trial","0","","true","","1","true","true","false","false","false","false","[1,0,2]","111","000","1","","","","","","",""
"","","","","","image-keyboard-response","227","304408","0.0-202.0","60feb2be3bb57f04327c03f4","665500ab8938657b03fbdba8","665780b7c8835dc947089449","378","stimuli/11110000.jpg"," ","","feedback_trial","1","","","","","","","","","","","","","","","","","","","","",""
"","","","","","image-keyboard-response","228","305135","0.0-203.0","60feb2be3bb57f04327c03f4","665500ab8938657b03fbdba8","665780b7c8835dc947089449","725","stimuli/2100001.jpg","2","","prediction_trial","2","","true","","2","false","true","true","true","false","true","[2]","100","001","1","","","","","","",""
"","","","","","image-keyboard-response","229","305451","0.0-204.0","60feb2be3bb57f04327c03f4","665500ab8938657b03fbdba8","665780b7c8835dc947089449","314","stimuli/21000012.jpg"," ","","feedback_trial","2","","","","","","","","","","","","","","","","","","","","",""
"","","","","","image-keyboard-response","230","307535","0.0-205.0","60feb2be3bb57f04327c03f4","665500ab8938657b03fbdba8","665780b7c8835dc947089449","2082","stimuli/0001110.jpg","1","","prediction_trial","0","","false","","0","false","false","true","true","false","false","[0]","001","110","0","","","","","","",""
"","","","","","image-keyboard-response","231","307955","0.0-206.0","60feb2be3bb57f04327c03f4","665500ab8938657b03fbdba8","665780b7c8835dc947089449","419","stimuli/00011100.jpg"," ","","feedback_trial","0","","","","","","","","","","","","","","","","","","","","",""
"","","","","","image-keyboard-response","232","309615","0.0-207.0","60feb2be3bb57f04327c03f4","665500ab8938657b03fbdba8","665780b7c8835dc947089449","1632","stimuli/2011010.jpg","1","","prediction_trial","1","","true","","2","true","true","false","false","false","false","[1,2]","011","010","1","","","","","","",""
"","","","","","image-keyboard-response","233","309991","0.0-208.0","60feb2be3bb57f04327c03f4","665500ab8938657b03fbdba8","665780b7c8835dc947089449","375","stimuli/20110101.jpg"," ","","feedback_trial","1","","","","","","","","","","","","","","","","","","","","",""
"","","","","","image-keyboard-response","234","310723","0.0-209.0","60feb2be3bb57f04327c03f4","665500ab8938657b03fbdba8","665780b7c8835dc947089449","729","stimuli/0110011.jpg","0","","prediction_trial","1","","false","","0","true","true","false","false","false","false","[1,0]","110","011","0","","","","","","",""
"","","","","","image-keyboard-response","235","311035","0.0-210.0","60feb2be3bb57f04327c03f4","665500ab8938657b03fbdba8","665780b7c8835dc947089449","309","stimuli/01100111.jpg"," ","","feedback_trial","1","","","","","","","","","","","","","","","","","","","","",""
"","","","","","image-keyboard-response","236","312287","0.0-211.0","60feb2be3bb57f04327c03f4","665500ab8938657b03fbdba8","665780b7c8835dc947089449","1250","stimuli/2100011.jpg","2","","prediction_trial","2","","true","","2","false","false","true","true","false","false","[2]","100","011","1","","","","","","",""
"","","","","","image-keyboard-response","237","312647","0.0-212.0","60feb2be3bb57f04327c03f4","665500ab8938657b03fbdba8","665780b7c8835dc947089449","359","stimuli/21000112.jpg"," ","","feedback_trial","2","","","","","","","","","","","","","","","","","","","","",""
"","","","","","image-keyboard-response","238","314186","0.0-213.0","60feb2be3bb57f04327c03f4","665500ab8938657b03fbdba8","665780b7c8835dc947089449","1538","stimuli/1011000.jpg","1","","prediction_trial","2","","false","","1","true","true","false","false","false","false","[2,1]","011","000","0","","","","","","",""
"","","","","","image-keyboard-response","239","314500","0.0-214.0","60feb2be3bb57f04327c03f4","665500ab8938657b03fbdba8","665780b7c8835dc947089449","310","stimuli/10110002.jpg"," ","","feedback_trial","2","","","","","","","","","","","","","","","","","","","","",""
"","","","","","image-keyboard-response","240","315313","0.0-215.0","60feb2be3bb57f04327c03f4","665500ab8938657b03fbdba8","665780b7c8835dc947089449","808","stimuli/2001001.jpg","2","","prediction_trial","2","","true","","2","false","true","false","true","false","true","[2]","001","001","1","","","","","","",""
"","","","","","image-keyboard-response","241","315559","0.0-216.0","60feb2be3bb57f04327c03f4","665500ab8938657b03fbdba8","665780b7c8835dc947089449","245","stimuli/20010012.jpg"," ","","feedback_trial","2","","","","","","","","","","","","","","","","","","","","",""
"","","","","","image-keyboard-response","242","317186","0.0-217.0","60feb2be3bb57f04327c03f4","665500ab8938657b03fbdba8","665780b7c8835dc947089449","1625","stimuli/0100001.jpg","0","","prediction_trial","0","","true","","0","true","true","false","true","false","true","[0]","100","001","1","","","","","","",""
"","","","","","image-keyboard-response","243","317431","0.0-218.0","60feb2be3bb57f04327c03f4","665500ab8938657b03fbdba8","665780b7c8835dc947089449","245","stimuli/01000010.jpg"," ","","feedback_trial","0","","","","","","","","","","","","","","","","","","","","",""
"","","","","","image-keyboard-response","244","318702","0.0-219.0","60feb2be3bb57f04327c03f4","665500ab8938657b03fbdba8","665780b7c8835dc947089449","1269","stimuli/1111111.jpg","2","","prediction_trial","0","","false","","1","false","false","false","false","false","false","[0,1,2]","111","111","0","","","","","","",""
"","","","","","image-keyboard-response","245","319095","0.0-220.0","60feb2be3bb57f04327c03f4","665500ab8938657b03fbdba8","665780b7c8835dc947089449","392","stimuli/11111110.jpg"," ","","feedback_trial","0","","","","","","","","","","","","","","","","","","","","",""
"","","","","","image-keyboard-response","246","320255","0.0-221.0","60feb2be3bb57f04327c03f4","665500ab8938657b03fbdba8","665780b7c8835dc947089449","1159","stimuli/1011010.jpg","1","","prediction_trial","2","","false","","1","false","true","false","false","false","false","[2,1]","011","010","0","","","","","","",""
"","","","","","image-keyboard-response","247","320591","0.0-222.0","60feb2be3bb57f04327c03f4","665500ab8938657b03fbdba8","665780b7c8835dc947089449","335","stimuli/10110102.jpg"," ","","feedback_trial","2","","","","","","","","","","","","","","","","","","","","",""
"","","","","","image-keyboard-response","248","321431","0.0-223.0","60feb2be3bb57f04327c03f4","665500ab8938657b03fbdba8","665780b7c8835dc947089449","827","stimuli/2011111.jpg","1","","prediction_trial","2","","false","","2","false","false","false","false","false","false","[2,1]","011","111","0","","","","","","",""
"","","","","","image-keyboard-response","249","321799","0.0-224.0","60feb2be3bb57f04327c03f4","665500ab8938657b03fbdba8","665780b7c8835dc947089449","367","stimuli/20111112.jpg"," ","","feedback_trial","2","","","","","","","","","","","","","","","","","","","","",""
"","","","","","image-keyboard-response","250","322751","0.0-225.0","60feb2be3bb57f04327c03f4","665500ab8938657b03fbdba8","665780b7c8835dc947089449","951","stimuli/2011100.jpg","2","","prediction_trial","1","","false","","2","true","true","false","false","false","false","[2,1]","011","100","0","","","","","","",""
"","","","","","image-keyboard-response","251","323305","0.0-226.0","60feb2be3bb57f04327c03f4","665500ab8938657b03fbdba8","665780b7c8835dc947089449","553","stimuli/20111001.jpg"," ","","feedback_trial","2","","","","","","","","","","","","","","","","","","","","",""
"","","","","","image-keyboard-response","252","324103","0.0-227.0","60feb2be3bb57f04327c03f4","665500ab8938657b03fbdba8","665780b7c8835dc947089449","797","stimuli/0101111.jpg","0","","prediction_trial","2","","false","","0","false","false","false","false","false","false","[0,2]","101","111","0","","","","","","",""
"","","","","","image-keyboard-response","253","324536","0.0-228.0","60feb2be3bb57f04327c03f4","665500ab8938657b03fbdba8","665780b7c8835dc947089449","431","stimuli/01011112.jpg"," ","","feedback_trial","0","","","","","","","","","","","","","","","","","","","","",""
"","","","","","image-keyboard-response","254","325463","0.0-229.0","60feb2be3bb57f04327c03f4","665500ab8938657b03fbdba8","665780b7c8835dc947089449","926","stimuli/2101001.jpg","2","","prediction_trial","0","","false","","2","false","true","false","false","false","false","[0,2]","101","001","0","","","","","","",""
"","","","","","image-keyboard-response","255","325968","0.0-230.0","60feb2be3bb57f04327c03f4","665500ab8938657b03fbdba8","665780b7c8835dc947089449","504","stimuli/21010010.jpg"," ","","feedback_trial","0","","","","","","","","","","","","","","","","","","","","",""
"","","","","","image-keyboard-response","256","327303","0.0-231.0","60feb2be3bb57f04327c03f4","665500ab8938657b03fbdba8","665780b7c8835dc947089449","1334","stimuli/0110101.jpg","2","","prediction_trial","1","","false","","0","false","false","false","false","false","false","[1,0]","110","101","0","","","","","","",""
"","","","","","image-keyboard-response","257","327727","0.0-232.0","60feb2be3bb57f04327c03f4","665500ab8938657b03fbdba8","665780b7c8835dc947089449","423","stimuli/01101011.jpg"," ","","feedback_trial","1","","","","","","","","","","","","","","","","","","","","",""
"","","","","","image-keyboard-response","258","328951","0.0-233.0","60feb2be3bb57f04327c03f4","665500ab8938657b03fbdba8","665780b7c8835dc947089449","1223","stimuli/0111011.jpg","0","","prediction_trial","1","","false","","0","true","true","false","false","false","false","[1,0,2]","111","011","0","","","","","","",""
"","","","","","image-keyboard-response","259","329256","0.0-234.0","60feb2be3bb57f04327c03f4","665500ab8938657b03fbdba8","665780b7c8835dc947089449","303","stimuli/01110111.jpg"," ","","feedback_trial","1","","","","","","","","","","","","","","","","","","","","",""
"","","","","","image-keyboard-response","260","329911","0.0-235.0","60feb2be3bb57f04327c03f4","665500ab8938657b03fbdba8","665780b7c8835dc947089449","654","stimuli/0111100.jpg","0","","prediction_trial","2","","false","","0","false","true","false","false","false","false","[1,0,2]","111","100","0","","","","","","",""
"","","","","","image-keyboard-response","261","330250","0.0-236.0","60feb2be3bb57f04327c03f4","665500ab8938657b03fbdba8","665780b7c8835dc947089449","337","stimuli/01111002.jpg"," ","","feedback_trial","1","","","","","","","","","","","","","","","","","","","","",""
"","","","","","image-keyboard-response","262","331031","0.0-237.0","60feb2be3bb57f04327c03f4","665500ab8938657b03fbdba8","665780b7c8835dc947089449","780","stimuli/0111000.jpg","0","","prediction_trial","2","","false","","0","true","true","false","false","false","false","[0,1,2]","111","000","0","","","","","","",""
"","","","","","image-keyboard-response","263","331385","0.0-238.0","60feb2be3bb57f04327c03f4","665500ab8938657b03fbdba8","665780b7c8835dc947089449","352","stimuli/01110002.jpg"," ","","feedback_trial","0","","","","","","","","","","","","","","","","","","","","",""
"","","","","","image-keyboard-response","264","332337","0.0-239.0","60feb2be3bb57f04327c03f4","665500ab8938657b03fbdba8","665780b7c8835dc947089449","925","stimuli/0010110.jpg","1","","prediction_trial","0","","false","","0","false","false","true","true","false","false","[0]","010","110","0","","","","","","",""
"","","","","","image-keyboard-response","265","332849","0.0-240.0","60feb2be3bb57f04327c03f4","665500ab8938657b03fbdba8","665780b7c8835dc947089449","509","stimuli/00101100.jpg"," ","","feedback_trial","0","","","","","","","","","","","","","","","","","","","","",""
"","","","","","image-keyboard-response","266","333551","0.0-241.0","60feb2be3bb57f04327c03f4","665500ab8938657b03fbdba8","665780b7c8835dc947089449","699","stimuli/1111010.jpg","1","","prediction_trial","0","","false","","1","false","true","false","false","false","false","[1,0,2]","111","010","0","","","","","","",""
"","","","","","image-keyboard-response","267","334211","0.0-242.0","60feb2be3bb57f04327c03f4","665500ab8938657b03fbdba8","665780b7c8835dc947089449","658","stimuli/11110100.jpg"," ","","feedback_trial","1","","","","","","","","","","","","","","","","","","","","",""
"","","","","","image-keyboard-response","268","335019","0.0-243.0","60feb2be3bb57f04327c03f4","665500ab8938657b03fbdba8","665780b7c8835dc947089449","805","stimuli/2010011.jpg","1","","prediction_trial","2","","false","","2","false","false","true","true","false","false","[2]","010","011","0","","","","","","",""
"","","","","","image-keyboard-response","269","335927","0.0-244.0","60feb2be3bb57f04327c03f4","665500ab8938657b03fbdba8","665780b7c8835dc947089449","906","stimuli/20100112.jpg"," ","","feedback_trial","2","","","","","","","","","","","","","","","","","","","","",""
"","","","","","image-keyboard-response","270","336561","0.0-245.0","60feb2be3bb57f04327c03f4","665500ab8938657b03fbdba8","665780b7c8835dc947089449","632","stimuli/1100100.jpg","1","","prediction_trial","1","","true","","1","true","true","true","true","true","true","[1]","100","100","1","","","","","","",""
"","","","","","image-keyboard-response","271","336825","0.0-246.0","60feb2be3bb57f04327c03f4","665500ab8938657b03fbdba8","665780b7c8835dc947089449","262","stimuli/11001001.jpg"," ","","feedback_trial","1","","","","","","","","","","","","","","","","","","","","",""
"","","","","","image-keyboard-response","272","337569","0.0-247.0","60feb2be3bb57f04327c03f4","665500ab8938657b03fbdba8","665780b7c8835dc947089449","718","stimuli/2101010.jpg","2","","prediction_trial","2","","true","","2","true","true","false","false","false","false","[0,2]","101","010","1","","","","","","",""
"","","","","","image-keyboard-response","273","337945","0.0-248.0","60feb2be3bb57f04327c03f4","665500ab8938657b03fbdba8","665780b7c8835dc947089449","373","stimuli/21010102.jpg"," ","","feedback_trial","0","","","","","","","","","","","","","","","","","","","","",""
"","","","","","image-keyboard-response","274","338567","0.0-249.0","60feb2be3bb57f04327c03f4","665500ab8938657b03fbdba8","665780b7c8835dc947089449","620","stimuli/0000001.jpg","0","","prediction_trial","0","","true","","0","true","true","true","true","true","true","[0]","000","001","1","","","","","","",""
"","","","","","image-keyboard-response","275","338831","0.0-250.0","60feb2be3bb57f04327c03f4","665500ab8938657b03fbdba8","665780b7c8835dc947089449","263","stimuli/00000010.jpg"," ","","feedback_trial","0","","","","","","","","","","","","","","","","","","","","",""
"","","","","","image-keyboard-response","276","339922","0.0-251.0","60feb2be3bb57f04327c03f4","665500ab8938657b03fbdba8","665780b7c8835dc947089449","1089","stimuli/1001110.jpg","0","","prediction_trial","1","","false","","1","false","false","true","true","false","false","[1]","001","110","0","","","","","","",""
"","","","","","image-keyboard-response","277","340306","0.0-252.0","60feb2be3bb57f04327c03f4","665500ab8938657b03fbdba8","665780b7c8835dc947089449","381","stimuli/10011101.jpg"," ","","feedback_trial","1","","","","","","","","","","","","","","","","","","","","",""
"","","","","","image-keyboard-response","278","340963","0.0-253.0","60feb2be3bb57f04327c03f4","665500ab8938657b03fbdba8","665780b7c8835dc947089449","653","stimuli/2110000.jpg","2","","prediction_trial","2","","true","","2","true","true","true","true","true","true","[2]","110","000","1","","","","","","",""
"","","","","","image-keyboard-response","279","341279","0.0-254.0","60feb2be3bb57f04327c03f4","665500ab8938657b03fbdba8","665780b7c8835dc947089449","314","stimuli/21100002.jpg"," ","","feedback_trial","2","","","","","","","","","","","","","","","","","","","","",""
"","","","","","image-keyboard-response","280","342378","0.0-255.0","60feb2be3bb57f04327c03f4","665500ab8938657b03fbdba8","665780b7c8835dc947089449","1086","stimuli/0110100.jpg","0","","prediction_trial","1","","false","","0","false","true","false","false","false","false","[0,1]","110","100","0","","","","","","",""
"","","","","","image-keyboard-response","281","342723","0.0-256.0","60feb2be3bb57f04327c03f4","665500ab8938657b03fbdba8","665780b7c8835dc947089449","340","stimuli/01101001.jpg"," ","","feedback_trial","0","","","","","","","","","","","","","","","","","","","","",""
"","","","","","image-keyboard-response","282","343411","0.0-257.0","60feb2be3bb57f04327c03f4","665500ab8938657b03fbdba8","665780b7c8835dc947089449","685","stimuli/2111001.jpg","2","","prediction_trial","1","","false","","2","false","true","false","false","false","false","[1,0,2]","111","001","0","","","","","","",""
"","","","","","image-keyboard-response","283","343767","0.0-258.0","60feb2be3bb57f04327c03f4","665500ab8938657b03fbdba8","665780b7c8835dc947089449","353","stimuli/21110011.jpg"," ","","feedback_trial","1","","","","","","","","","","","","","","","","","","","","",""
"","","","","","image-keyboard-response","284","344675","0.0-259.0","60feb2be3bb57f04327c03f4","665500ab8938657b03fbdba8","665780b7c8835dc947089449","906","stimuli/0001101.jpg","2","","prediction_trial","0","","false","","0","false","false","true","true","false","false","[0]","001","101","0","","","","","","",""
"","","","","","image-keyboard-response","285","345123","0.0-260.0","60feb2be3bb57f04327c03f4","665500ab8938657b03fbdba8","665780b7c8835dc947089449","444","stimuli/00011010.jpg"," ","","feedback_trial","0","","","","","","","","","","","","","","","","","","","","",""
"","","","","","image-keyboard-response","286","345842","0.0-261.0","60feb2be3bb57f04327c03f4","665500ab8938657b03fbdba8","665780b7c8835dc947089449","715","stimuli/1011101.jpg","1","","prediction_trial","1","","true","","1","true","true","false","false","false","false","[1,2]","011","101","1","","","","","","",""
"","","","","","image-keyboard-response","287","346131","0.0-262.0","60feb2be3bb57f04327c03f4","665500ab8938657b03fbdba8","665780b7c8835dc947089449","286","stimuli/10111011.jpg"," ","","feedback_trial","1","","","","","","","","","","","","","","","","","","","","",""
"","","","","","image-keyboard-response","288","346795","0.0-263.0","60feb2be3bb57f04327c03f4","665500ab8938657b03fbdba8","665780b7c8835dc947089449","659","stimuli/2111110.jpg","2","","prediction_trial","1","","false","","2","true","true","false","false","false","false","[0,2,1]","111","110","0","","","","","","",""
"","","","","","image-keyboard-response","289","347091","0.0-264.0","60feb2be3bb57f04327c03f4","665500ab8938657b03fbdba8","665780b7c8835dc947089449","292","stimuli/21111101.jpg"," ","","feedback_trial","0","","","","","","","","","","","","","","","","","","","","",""
"","","","","","image-keyboard-response","290","347824","0.0-265.0","60feb2be3bb57f04327c03f4","665500ab8938657b03fbdba8","665780b7c8835dc947089449","729","stimuli/2000011.jpg","1","","prediction_trial","2","","false","","2","false","false","true","true","false","false","[2]","000","011","0","","","","","","",""
"","","","","","image-keyboard-response","291","348131","0.0-266.0","60feb2be3bb57f04327c03f4","665500ab8938657b03fbdba8","665780b7c8835dc947089449","306","stimuli/20000112.jpg"," ","","feedback_trial","2","","","","","","","","","","","","","","","","","","","","",""
"","","","","","image-keyboard-response","292","348666","0.0-267.0","60feb2be3bb57f04327c03f4","665500ab8938657b03fbdba8","665780b7c8835dc947089449","532","stimuli/0100011.jpg","0","","prediction_trial","0","","true","","0","true","true","false","true","false","true","[0]","100","011","1","","","","","","",""
"","","","","","image-keyboard-response","293","348992","0.0-268.0","60feb2be3bb57f04327c03f4","665500ab8938657b03fbdba8","665780b7c8835dc947089449","322","stimuli/01000110.jpg"," ","","feedback_trial","0","","","","","","","","","","","","","","","","","","","","",""
"","","","","","image-keyboard-response","294","349995","0.0-269.0","60feb2be3bb57f04327c03f4","665500ab8938657b03fbdba8","665780b7c8835dc947089449","1002","stimuli/1101111.jpg","1","","prediction_trial","1","","true","","1","false","false","true","true","false","false","[1]","101","111","1","","","","","","",""
"","","","","","image-keyboard-response","295","350371","0.0-270.0","60feb2be3bb57f04327c03f4","665500ab8938657b03fbdba8","665780b7c8835dc947089449","372","stimuli/11011111.jpg"," ","","feedback_trial","1","","","","","","","","","","","","","","","","","","","","",""
"","","","","","image-keyboard-response","296","351259","0.0-271.0","60feb2be3bb57f04327c03f4","665500ab8938657b03fbdba8","665780b7c8835dc947089449","859","stimuli/0011100.jpg","0","","prediction_trial","0","","true","","0","false","true","true","true","false","true","[0]","011","100","1","","","","","","",""
"","","","","","image-keyboard-response","297","351527","0.0-272.0","60feb2be3bb57f04327c03f4","665500ab8938657b03fbdba8","665780b7c8835dc947089449","264","stimuli/00111000.jpg"," ","","feedback_trial","0","","","","","","","","","","","","","","","","","","","","",""
"","","","","","image-keyboard-response","298","352179","0.0-273.0","60feb2be3bb57f04327c03f4","665500ab8938657b03fbdba8","665780b7c8835dc947089449","650","stimuli/2000000.jpg","2","","prediction_trial","2","","true","","2","true","true","true","true","true","true","[2]","000","000","1","","","","","","",""
"","","","","","image-keyboard-response","299","352443","0.0-274.0","60feb2be3bb57f04327c03f4","665500ab8938657b03fbdba8","665780b7c8835dc947089449","259","stimuli/20000002.jpg"," ","","feedback_trial","2","","","","","","","","","","","","","","","","","","","","",""
"","","","","","image-keyboard-response","300","358883","0.0-275.0","60feb2be3bb57f04327c03f4","665500ab8938657b03fbdba8","665780b7c8835dc947089449","6436","stimuli/1000011.jpg","1","","prediction_trial","1","","true","","1","false","false","true","true","false","false","[1]","000","011","1","","","","","","",""
"","","","","","image-keyboard-response","301","359247","0.0-276.0","60feb2be3bb57f04327c03f4","665500ab8938657b03fbdba8","665780b7c8835dc947089449","361","stimuli/10000111.jpg"," ","","feedback_trial","1","","","","","","","","","","","","","","","","","","","","",""
"","","","","","image-keyboard-response","302","360201","0.0-277.0","60feb2be3bb57f04327c03f4","665500ab8938657b03fbdba8","665780b7c8835dc947089449","952","stimuli/1101011.jpg","2","","prediction_trial","1","","false","","1","false","false","true","true","false","false","[1]","101","011","0","","","","","","",""
"","","","","","image-keyboard-response","303","360459","0.0-278.0","60feb2be3bb57f04327c03f4","665500ab8938657b03fbdba8","665780b7c8835dc947089449","256","stimuli/11010111.jpg"," ","","feedback_trial","1","","","","","","","","","","","","","","","","","","","","",""
"","","","","","image-keyboard-response","304","361197","0.0-279.0","60feb2be3bb57f04327c03f4","665500ab8938657b03fbdba8","665780b7c8835dc947089449","708","stimuli/1100010.jpg","1","","prediction_trial","1","","true","","1","false","true","true","true","false","true","[1]","100","010","1","","","","","","",""
"","","","","","image-keyboard-response","305","361447","0.0-280.0","60feb2be3bb57f04327c03f4","665500ab8938657b03fbdba8","665780b7c8835dc947089449","244","stimuli/11000101.jpg"," ","","feedback_trial","1","","","","","","","","","","","","","","","","","","","","",""
"","","","","","image-keyboard-response","306","362057","0.0-281.0","60feb2be3bb57f04327c03f4","665500ab8938657b03fbdba8","665780b7c8835dc947089449","608","stimuli/2110001.jpg","2","","prediction_trial","2","","true","","2","false","true","true","true","false","true","[2]","110","001","1","","","","","","",""
"","","","","","image-keyboard-response","307","362346","0.0-282.0","60feb2be3bb57f04327c03f4","665500ab8938657b03fbdba8","665780b7c8835dc947089449","287","stimuli/21100012.jpg"," ","","feedback_trial","2","","","","","","","","","","","","","","","","","","","","",""
"","","","","","image-keyboard-response","308","363172","0.0-283.0","60feb2be3bb57f04327c03f4","665500ab8938657b03fbdba8","665780b7c8835dc947089449","824","stimuli/0110110.jpg","0","","prediction_trial","1","","false","","0","false","false","false","false","false","false","[0,1]","110","110","0","","","","","","",""
"","","","","","image-keyboard-response","309","363541","0.0-284.0","60feb2be3bb57f04327c03f4","665500ab8938657b03fbdba8","665780b7c8835dc947089449","364","stimuli/01101101.jpg"," ","","feedback_trial","0","","","","","","","","","","","","","","","","","","","","",""
"","","","","","image-keyboard-response","310","364217","0.0-285.0","60feb2be3bb57f04327c03f4","665500ab8938657b03fbdba8","665780b7c8835dc947089449","672","stimuli/2111100.jpg","2","","prediction_trial","1","","false","","2","true","true","false","false","false","false","[2,0,1]","111","100","0","","","","","","",""
"","","","","","image-keyboard-response","311","364578","0.0-286.0","60feb2be3bb57f04327c03f4","665500ab8938657b03fbdba8","665780b7c8835dc947089449","359","stimuli/21111001.jpg"," ","","feedback_trial","2","","","","","","","","","","","","","","","","","","","","",""
"","","","","","image-keyboard-response","312","365249","0.0-287.0","60feb2be3bb57f04327c03f4","665500ab8938657b03fbdba8","665780b7c8835dc947089449","657","stimuli/1110000.jpg","1","","prediction_trial","1","","true","","1","true","true","false","false","false","false","[0,1]","110","000","1","","","","","","",""
"","","","","","image-keyboard-response","313","365561","0.0-288.0","60feb2be3bb57f04327c03f4","665500ab8938657b03fbdba8","665780b7c8835dc947089449","311","stimuli/11100001.jpg"," ","","feedback_trial","0","","","","","","","","","","","","","","","","","","","","",""
"","","","","","image-keyboard-response","314","366193","0.0-289.0","60feb2be3bb57f04327c03f4","665500ab8938657b03fbdba8","665780b7c8835dc947089449","630","stimuli/2001101.jpg","2","","prediction_trial","2","","true","","2","false","false","false","true","false","false","[2]","001","101","1","","","","","","",""
"","","","","","image-keyboard-response","315","366577","0.0-290.0","60feb2be3bb57f04327c03f4","665500ab8938657b03fbdba8","665780b7c8835dc947089449","383","stimuli/20011012.jpg"," ","","feedback_trial","2","","","","","","","","","","","","","","","","","","","","",""
"","","","","","image-keyboard-response","316","367401","0.0-291.0","60feb2be3bb57f04327c03f4","665500ab8938657b03fbdba8","665780b7c8835dc947089449","823","stimuli/1100101.jpg","1","","prediction_trial","1","","true","","1","true","true","true","true","true","true","[1]","100","101","1","","","","","","",""
"","","","","","image-keyboard-response","317","367657","0.0-292.0","60feb2be3bb57f04327c03f4","665500ab8938657b03fbdba8","665780b7c8835dc947089449","255","stimuli/11001011.jpg"," ","","feedback_trial","1","","","","","","","","","","","","","","","","","","","","",""
"","","","","","survey-html-form","318","404836","0.0-293.0","60feb2be3bb57f04327c03f4","665500ab8938657b03fbdba8","665780b7c8835dc947089449","37176","","{""feedback"":""When he could see it or it was the only one he didn't see it was easy.  Outside that I guessed."",""age"":""52"",""gender"":""Male"",""other_gender"":"""",""race"":""White"",""other_race"":"""",""ethnicity"":""Non-Hispanic""}","","exit_survey","","","","","","","","","","","","","","","","When he could see it or it was the only one he didn't see it was easy.  Outside that I guessed.","52","Non-Hispanic","Male","White","0.6041666666666666","0.6041666666666666"
