"success","timeout","failed_images","failed_audio","failed_video","trial_type","trial_index","time_elapsed","internal_node_id","prolific_id","prolific_study_id","prolific_session_id","rt","stimulus","response","view_history","trial","character_choice","stimulus_dict","accuracy","correct_response","ball_pos","ego_ball_visible","ego_can_infer","alter_ball_visible","alter_can_infer","collective_ball_visible","collective_can_infer","search_locations","alter_occluders","ego_occluders","accuracy_bool","feedback","age","ethnicity","gender","race","overall_accuracy","bonus"
"true","false","[]","[]","[]","preload","0","21938","0.0-0.0","651c2cc23704dc10500ae77c","665500ab8938657b03fbdba8","6657932943f15a792728428f","","","","","","","","","","","","","","","","","","","","","","","","","","",""
"true","","","","","fullscreen","1","28306","0.0-1.0","651c2cc23704dc10500ae77c","665500ab8938657b03fbdba8","6657932943f15a792728428f","","","","","","","","","","","","","","","","","","","","","","","","","","",""
"","","","","","html-button-response","2","59841","0.0-2.0","651c2cc23704dc10500ae77c","665500ab8938657b03fbdba8","6657932943f15a792728428f","31522","<p><b>Consent Form</b></p> <div style=""text-align:left;background-color:lightgrey; padding:20px; max-width:900px;""><p>Please consider this information carefully before deciding whether to participate in this research.</p> <p>The purpose of this research is to examine which factors influence social judgment and decision-making. You will be asked to make judgements about individuals and actions in social scenarios. We are simply interested in your judgement. The study will take less than 1 hour to complete, and you will receive less than $20 on Prolific. Your compensation and time commitment are specified in the study description. There are no anticipated risks associated with participating in this study. The effects of participating should be comparable to those you would ordinarily experience from viewing a computer monitor and using a mouse or keyboard for a similar amount of time. At the end of the study, we will provide an explanation of the questions that motivate this line of research and will describe the potential implications. </p><p> Your participation in this study is completely voluntary and you may refuse to participate or you may choose to withdraw at any time without penalty or loss of benefits to you which are otherwise entitled. Your participation in this study will remain confidential. No personally identifiable information will be associated with your data. Also, all analyses of the data will be averaged across all the participants, so your individual responses will never be specifically analyzed. </p><p> If you have questions or concerns about your participation or payment, or want to request a summary of research findings, please contact Dr. Jonathan Phillips at Jonathan.S.Phillips@dartmouth.edu. </p><p> Please save a copy of this form for your records. </p><p><b>Agreement: </b>The nature and purpose of this research have been sufficiently explained and I agree to participate in this study. I understand that I am free to withdraw at any time without incurring any penalty. Please consent by clicking the button below to continue. Otherwise, please exit the study at any time. </p>","0","","","","","","","","","","","","","","","","","","","","","","","",""
"","","","","","instructions","3","171487","0.0-3.0-0.0","651c2cc23704dc10500ae77c","665500ab8938657b03fbdba8","6657932943f15a792728428f","111639","","","[{""page_index"":0,""viewing_time"":3289},{""page_index"":1,""viewing_time"":4745},{""page_index"":2,""viewing_time"":2895},{""page_index"":3,""viewing_time"":11775},{""page_index"":4,""viewing_time"":7079},{""page_index"":5,""viewing_time"":4711},{""page_index"":6,""viewing_time"":4612},{""page_index"":7,""viewing_time"":5262},{""page_index"":8,""viewing_time"":5090},{""page_index"":9,""viewing_time"":4245},{""page_index"":10,""viewing_time"":26682},{""page_index"":11,""viewing_time"":14388},{""page_index"":12,""viewing_time"":11630},{""page_index"":13,""viewing_time"":5226}]","intro","","","","","","","","","","","","","","","","","","","","","",""
"","","","","","image-keyboard-response","4","173591","0.0-3.0-1.0","651c2cc23704dc10500ae77c","665500ab8938657b03fbdba8","6657932943f15a792728428f","1943","stimuli/1101100.jpg","1","","prediction_practice","1","{""filepath"":""stimuli/1101100.jpg"",""ball_pos"":1,""ego_ball_visible"":true,""ego_can_infer"":true,""alter_ball_visible"":true,""alter_can_infer"":true,""collective_ball_visible"":true,""collective_can_infer"":true,""search_locations"":[1],""alter_occluders"":""101"",""ego_occluders"":""100""}","true","","","","","","","","","","","","","","","","","","",""
"","","","","","image-keyboard-response","5","178954","0.0-3.0-2.0","651c2cc23704dc10500ae77c","665500ab8938657b03fbdba8","6657932943f15a792728428f","5353","stimuli/11011001.jpg"," ","","practrice_feedback","1","","","","","","","","","","","","","","","","","","","","",""
"","","","","","image-keyboard-response","6","182655","0.0-3.0-3.0","651c2cc23704dc10500ae77c","665500ab8938657b03fbdba8","6657932943f15a792728428f","3696","stimuli/0000100.jpg","0","","prediction_practice","0","{""filepath"":""stimuli/0000100.jpg"",""ball_pos"":0,""ego_ball_visible"":false,""ego_can_infer"":true,""alter_ball_visible"":true,""alter_can_infer"":true,""collective_ball_visible"":false,""collective_can_infer"":true,""search_locations"":[0],""alter_occluders"":""000"",""ego_occluders"":""100""}","true","","","","","","","","","","","","","","","","","","",""
"","","","","","image-keyboard-response","7","184646","0.0-3.0-4.0","651c2cc23704dc10500ae77c","665500ab8938657b03fbdba8","6657932943f15a792728428f","1982","stimuli/00001000.jpg"," ","","practrice_feedback","0","","","","","","","","","","","","","","","","","","","","",""
"","","","","","image-keyboard-response","8","188278","0.0-3.0-5.0","651c2cc23704dc10500ae77c","665500ab8938657b03fbdba8","6657932943f15a792728428f","3626","stimuli/0001011.jpg","0","","prediction_practice","0","{""filepath"":""stimuli/0001011.jpg"",""ball_pos"":0,""ego_ball_visible"":true,""ego_can_infer"":true,""alter_ball_visible"":true,""alter_can_infer"":true,""collective_ball_visible"":true,""collective_can_infer"":true,""search_locations"":[0],""alter_occluders"":""001"",""ego_occluders"":""011""}","true","","","","","","","","","","","","","","","","","","",""
"","","","","","image-keyboard-response","9","189387","0.0-3.0-6.0","651c2cc23704dc10500ae77c","665500ab8938657b03fbdba8","6657932943f15a792728428f","1102","stimuli/00010110.jpg"," ","","practrice_feedback","0","","","","","","","","","","","","","","","","","","","","",""
"","","","","","image-keyboard-response","10","191316","0.0-3.0-7.0","651c2cc23704dc10500ae77c","665500ab8938657b03fbdba8","6657932943f15a792728428f","1924","stimuli/1100000.jpg","1","","prediction_practice","1","{""filepath"":""stimuli/1100000.jpg"",""ball_pos"":1,""ego_ball_visible"":true,""ego_can_infer"":true,""alter_ball_visible"":true,""alter_can_infer"":true,""collective_ball_visible"":true,""collective_can_infer"":true,""search_locations"":[1],""alter_occluders"":""100"",""ego_occluders"":""000""}","true","","","","","","","","","","","","","","","","","","",""
"","","","","","image-keyboard-response","11","192554","0.0-3.0-8.0","651c2cc23704dc10500ae77c","665500ab8938657b03fbdba8","6657932943f15a792728428f","1246","stimuli/11000001.jpg"," ","","practrice_feedback","1","","","","","","","","","","","","","","","","","","","","",""
"","","","","","image-keyboard-response","12","194589","0.0-3.0-9.0","651c2cc23704dc10500ae77c","665500ab8938657b03fbdba8","6657932943f15a792728428f","2030","stimuli/2010110.jpg","2","","prediction_practice","2","{""filepath"":""stimuli/2010110.jpg"",""ball_pos"":2,""ego_ball_visible"":true,""ego_can_infer"":true,""alter_ball_visible"":true,""alter_can_infer"":true,""collective_ball_visible"":true,""collective_can_infer"":true,""search_locations"":[2],""alter_occluders"":""010"",""ego_occluders"":""110""}","true","","","","","","","","","","","","","","","","","","",""
"","","","","","image-keyboard-response","13","195251","0.0-3.0-10.0","651c2cc23704dc10500ae77c","665500ab8938657b03fbdba8","6657932943f15a792728428f","656","stimuli/20101102.jpg"," ","","practrice_feedback","2","","","","","","","","","","","","","","","","","","","","",""
"","","","","","image-keyboard-response","14","198258","0.0-3.0-11.0","651c2cc23704dc10500ae77c","665500ab8938657b03fbdba8","6657932943f15a792728428f","3002","stimuli/2011011.jpg","1","","prediction_practice","1","{""filepath"":""stimuli/2011011.jpg"",""ball_pos"":2,""ego_ball_visible"":false,""ego_can_infer"":false,""alter_ball_visible"":false,""alter_can_infer"":false,""collective_ball_visible"":false,""collective_can_infer"":false,""search_locations"":[2,1],""alter_occluders"":""011"",""ego_occluders"":""011""}","true","","","","","","","","","","","","","","","","","","",""
"","","","","","image-keyboard-response","15","199571","0.0-3.0-12.0","651c2cc23704dc10500ae77c","665500ab8938657b03fbdba8","6657932943f15a792728428f","1308","stimuli/20110111.jpg"," ","","practrice_feedback","2","","","","","","","","","","","","","","","","","","","","",""
"","","","","","image-keyboard-response","16","201225","0.0-3.0-13.0","651c2cc23704dc10500ae77c","665500ab8938657b03fbdba8","6657932943f15a792728428f","1649","stimuli/2011110.jpg","2","","prediction_practice","1","{""filepath"":""stimuli/2011110.jpg"",""ball_pos"":2,""ego_ball_visible"":true,""ego_can_infer"":true,""alter_ball_visible"":false,""alter_can_infer"":false,""collective_ball_visible"":false,""collective_can_infer"":false,""search_locations"":[2,1],""alter_occluders"":""011"",""ego_occluders"":""110""}","false","","","","","","","","","","","","","","","","","","",""
"","","","","","image-keyboard-response","17","205914","0.0-3.0-14.0","651c2cc23704dc10500ae77c","665500ab8938657b03fbdba8","6657932943f15a792728428f","4684","stimuli/20111101.jpg"," ","","practrice_feedback","2","","","","","","","","","","","","","","","","","","","","",""
"","","","","","image-keyboard-response","18","210846","0.0-3.0-15.0","651c2cc23704dc10500ae77c","665500ab8938657b03fbdba8","6657932943f15a792728428f","4927","stimuli/1001110.jpg","0","","prediction_practice","1","{""filepath"":""stimuli/1001110.jpg"",""ball_pos"":1,""ego_ball_visible"":false,""ego_can_infer"":false,""alter_ball_visible"":true,""alter_can_infer"":true,""collective_ball_visible"":false,""collective_can_infer"":false,""search_locations"":[1],""alter_occluders"":""001"",""ego_occluders"":""110""}","false","","","","","","","","","","","","","","","","","","",""
"","","","","","image-keyboard-response","19","212306","0.0-3.0-16.0","651c2cc23704dc10500ae77c","665500ab8938657b03fbdba8","6657932943f15a792728428f","1455","stimuli/10011101.jpg"," ","","practrice_feedback","1","","","","","","","","","","","","","","","","","","","","",""
"","","","","","image-keyboard-response","20","215811","0.0-3.0-17.0","651c2cc23704dc10500ae77c","665500ab8938657b03fbdba8","6657932943f15a792728428f","3500","stimuli/1010001.jpg","1","","prediction_practice","1","{""filepath"":""stimuli/1010001.jpg"",""ball_pos"":1,""ego_ball_visible"":true,""ego_can_infer"":true,""alter_ball_visible"":false,""alter_can_infer"":true,""collective_ball_visible"":false,""collective_can_infer"":true,""search_locations"":[1],""alter_occluders"":""010"",""ego_occluders"":""001""}","true","","","","","","","","","","","","","","","","","","",""
"","","","","","image-keyboard-response","21","217139","0.0-3.0-18.0","651c2cc23704dc10500ae77c","665500ab8938657b03fbdba8","6657932943f15a792728428f","1323","stimuli/10100011.jpg"," ","","practrice_feedback","1","","","","","","","","","","","","","","","","","","","","",""
"","","","","","image-keyboard-response","22","220538","0.0-3.0-19.0","651c2cc23704dc10500ae77c","665500ab8938657b03fbdba8","6657932943f15a792728428f","3394","stimuli/1110100.jpg","1","","prediction_practice","1","{""filepath"":""stimuli/1110100.jpg"",""ball_pos"":1,""ego_ball_visible"":true,""ego_can_infer"":true,""alter_ball_visible"":false,""alter_can_infer"":false,""collective_ball_visible"":false,""collective_can_infer"":false,""search_locations"":[1,0],""alter_occluders"":""110"",""ego_occluders"":""100""}","true","","","","","","","","","","","","","","","","","","",""
"","","","","","image-keyboard-response","23","221673","0.0-3.0-20.0","651c2cc23704dc10500ae77c","665500ab8938657b03fbdba8","6657932943f15a792728428f","1130","stimuli/11101001.jpg"," ","","practrice_feedback","1","","","","","","","","","","","","","","","","","","","","",""
"","","","","","html-button-response","24","235649","0.0-3.0-21.0","651c2cc23704dc10500ae77c","665500ab8938657b03fbdba8","6657932943f15a792728428f","13971","Now that you've had some practice, you'll be tested with a couple of easy trials. If you correctly predict Sam's choice, you'll move on to complete the experiment!","0","","","","","","","","","","","","","","","","","","","","","","","",""
"","","","","","image-keyboard-response","25","237554","0.0-3.0-22.0-0.0","651c2cc23704dc10500ae77c","665500ab8938657b03fbdba8","6657932943f15a792728428f","1839","stimuli/0000011.jpg","arrowleft","","comprehension_quiz","","","true","arrowleft","","","","","","","","","","","","","","","","","",""
"","","","","","image-keyboard-response","26","238508","0.0-3.0-22.0-1.0","651c2cc23704dc10500ae77c","665500ab8938657b03fbdba8","6657932943f15a792728428f","946","stimuli/00000110.jpg"," ","","comprehension_quiz","","","true"," ","","","","","","","","","","","","","","","","","",""
"","","","","","image-keyboard-response","27","240832","0.0-3.0-22.0-2.0","651c2cc23704dc10500ae77c","665500ab8938657b03fbdba8","6657932943f15a792728428f","2320","stimuli/1010010.jpg","arrowdown","","comprehension_quiz","","","true","arrowdown","","","","","","","","","","","","","","","","","",""
"","","","","","image-keyboard-response","28","247556","0.0-3.0-22.0-3.0","651c2cc23704dc10500ae77c","665500ab8938657b03fbdba8","6657932943f15a792728428f","6717","stimuli/10100101.jpg"," ","","comprehension_quiz","","","true"," ","","","","","","","","","","","","","","","","","",""
"","","","","","html-button-response","29","252530","0.0-4.0","651c2cc23704dc10500ae77c","665500ab8938657b03fbdba8","6657932943f15a792728428f","4963","The experiment will now begin.","0","","","","","","","","","","","","","","","","","","","","","","","",""
"","","","","","image-keyboard-response","30","256995","0.0-5.0","651c2cc23704dc10500ae77c","665500ab8938657b03fbdba8","6657932943f15a792728428f","4444","stimuli/0011101.jpg","1","","prediction_trial","0","","false","","0","false","false","true","true","false","false","[0]","011","101","0","","","","","","",""
"","","","","","image-keyboard-response","31","258763","0.0-6.0","651c2cc23704dc10500ae77c","665500ab8938657b03fbdba8","6657932943f15a792728428f","1760","stimuli/00111010.jpg"," ","","feedback_trial","0","","","","","","","","","","","","","","","","","","","","",""
"","","","","","image-keyboard-response","32","261892","0.0-7.0","651c2cc23704dc10500ae77c","665500ab8938657b03fbdba8","6657932943f15a792728428f","3124","stimuli/0000101.jpg","2","","prediction_trial","0","","false","","0","false","false","true","true","false","false","[0]","000","101","0","","","","","","",""
"","","","","","image-keyboard-response","33","262783","0.0-8.0","651c2cc23704dc10500ae77c","665500ab8938657b03fbdba8","6657932943f15a792728428f","886","stimuli/00001010.jpg"," ","","feedback_trial","0","","","","","","","","","","","","","","","","","","","","",""
"","","","","","image-keyboard-response","34","266248","0.0-9.0","651c2cc23704dc10500ae77c","665500ab8938657b03fbdba8","6657932943f15a792728428f","3460","stimuli/2010101.jpg","0","","prediction_trial","2","","false","","2","false","false","true","true","false","false","[2]","010","101","0","","","","","","",""
"","","","","","image-keyboard-response","35","267184","0.0-10.0","651c2cc23704dc10500ae77c","665500ab8938657b03fbdba8","6657932943f15a792728428f","931","stimuli/20101012.jpg"," ","","feedback_trial","2","","","","","","","","","","","","","","","","","","","","",""
"","","","","","image-keyboard-response","36","271048","0.0-11.0","651c2cc23704dc10500ae77c","665500ab8938657b03fbdba8","6657932943f15a792728428f","3859","stimuli/0100010.jpg","0","","prediction_trial","0","","true","","0","true","true","false","true","false","true","[0]","100","010","1","","","","","","",""
"","","","","","image-keyboard-response","37","272395","0.0-12.0","651c2cc23704dc10500ae77c","665500ab8938657b03fbdba8","6657932943f15a792728428f","1341","stimuli/01000100.jpg"," ","","feedback_trial","0","","","","","","","","","","","","","","","","","","","","",""
"","","","","","image-keyboard-response","38","275803","0.0-13.0","651c2cc23704dc10500ae77c","665500ab8938657b03fbdba8","6657932943f15a792728428f","3404","stimuli/1010011.jpg","1","","prediction_trial","1","","true","","1","false","false","false","true","false","false","[1]","010","011","1","","","","","","",""
"","","","","","image-keyboard-response","39","276454","0.0-14.0","651c2cc23704dc10500ae77c","665500ab8938657b03fbdba8","6657932943f15a792728428f","646","stimuli/10100111.jpg"," ","","feedback_trial","1","","","","","","","","","","","","","","","","","","","","",""
"","","","","","image-keyboard-response","40","278380","0.0-15.0","651c2cc23704dc10500ae77c","665500ab8938657b03fbdba8","6657932943f15a792728428f","1921","stimuli/0101000.jpg","0","","prediction_trial","0","","true","","0","true","true","false","false","false","false","[0,2]","101","000","1","","","","","","",""
"","","","","","image-keyboard-response","41","278979","0.0-16.0","651c2cc23704dc10500ae77c","665500ab8938657b03fbdba8","6657932943f15a792728428f","594","stimuli/01010000.jpg"," ","","feedback_trial","0","","","","","","","","","","","","","","","","","","","","",""
"","","","","","image-keyboard-response","42","282023","0.0-17.0","651c2cc23704dc10500ae77c","665500ab8938657b03fbdba8","6657932943f15a792728428f","3039","stimuli/0111110.jpg","0","","prediction_trial","2","","false","","0","false","false","false","false","false","false","[2,1,0]","111","110","0","","","","","","",""
"","","","","","image-keyboard-response","43","285248","0.0-18.0","651c2cc23704dc10500ae77c","665500ab8938657b03fbdba8","6657932943f15a792728428f","3219","stimuli/01111102.jpg"," ","","feedback_trial","2","","","","","","","","","","","","","","","","","","","","",""
"","","","","","image-keyboard-response","44","288376","0.0-19.0","651c2cc23704dc10500ae77c","665500ab8938657b03fbdba8","6657932943f15a792728428f","3122","stimuli/2111010.jpg","2","","prediction_trial","0","","false","","2","true","true","false","false","false","false","[1,0,2]","111","010","0","","","","","","",""
"","","","","","image-keyboard-response","45","289133","0.0-20.0","651c2cc23704dc10500ae77c","665500ab8938657b03fbdba8","6657932943f15a792728428f","752","stimuli/21110100.jpg"," ","","feedback_trial","1","","","","","","","","","","","","","","","","","","","","",""
"","","","","","image-keyboard-response","46","293217","0.0-21.0","651c2cc23704dc10500ae77c","665500ab8938657b03fbdba8","6657932943f15a792728428f","4079","stimuli/2100001.jpg","2","","prediction_trial","2","","true","","2","false","true","true","true","false","true","[2]","100","001","1","","","","","","",""
"","","","","","image-keyboard-response","47","293722","0.0-22.0","651c2cc23704dc10500ae77c","665500ab8938657b03fbdba8","6657932943f15a792728428f","500","stimuli/21000012.jpg"," ","","feedback_trial","2","","","","","","","","","","","","","","","","","","","","",""
"","","","","","image-keyboard-response","48","296583","0.0-23.0","651c2cc23704dc10500ae77c","665500ab8938657b03fbdba8","6657932943f15a792728428f","2855","stimuli/0001100.jpg","1","","prediction_trial","0","","false","","0","false","true","true","true","false","true","[0]","001","100","0","","","","","","",""
"","","","","","image-keyboard-response","49","297291","0.0-24.0","651c2cc23704dc10500ae77c","665500ab8938657b03fbdba8","6657932943f15a792728428f","704","stimuli/00011000.jpg"," ","","feedback_trial","0","","","","","","","","","","","","","","","","","","","","",""
"","","","","","image-keyboard-response","50","300467","0.0-25.0","651c2cc23704dc10500ae77c","665500ab8938657b03fbdba8","6657932943f15a792728428f","3171","stimuli/2011010.jpg","2","","prediction_trial","1","","false","","2","true","true","false","false","false","false","[1,2]","011","010","0","","","","","","",""
"","","","","","image-keyboard-response","51","301247","0.0-26.0","651c2cc23704dc10500ae77c","665500ab8938657b03fbdba8","6657932943f15a792728428f","775","stimuli/20110101.jpg"," ","","feedback_trial","1","","","","","","","","","","","","","","","","","","","","",""
"","","","","","image-keyboard-response","52","304568","0.0-27.0","651c2cc23704dc10500ae77c","665500ab8938657b03fbdba8","6657932943f15a792728428f","3317","stimuli/1001011.jpg","2","","prediction_trial","1","","false","","1","false","false","true","true","false","false","[1]","001","011","0","","","","","","",""
"","","","","","image-keyboard-response","53","305423","0.0-28.0","651c2cc23704dc10500ae77c","665500ab8938657b03fbdba8","6657932943f15a792728428f","851","stimuli/10010111.jpg"," ","","feedback_trial","1","","","","","","","","","","","","","","","","","","","","",""
"","","","","","image-keyboard-response","54","312562","0.0-29.0","651c2cc23704dc10500ae77c","665500ab8938657b03fbdba8","6657932943f15a792728428f","7134","stimuli/1011010.jpg","1","","prediction_trial","2","","false","","1","false","true","false","false","false","false","[1,2]","011","010","0","","","","","","",""
"","","","","","image-keyboard-response","55","313603","0.0-30.0","651c2cc23704dc10500ae77c","665500ab8938657b03fbdba8","6657932943f15a792728428f","1034","stimuli/10110102.jpg"," ","","feedback_trial","1","","","","","","","","","","","","","","","","","","","","",""
"","","","","","image-keyboard-response","56","315644","0.0-31.0","651c2cc23704dc10500ae77c","665500ab8938657b03fbdba8","6657932943f15a792728428f","2036","stimuli/2111110.jpg","2","","prediction_trial","0","","false","","2","true","true","false","false","false","false","[0,1,2]","111","110","0","","","","","","",""
"","","","","","image-keyboard-response","57","316173","0.0-32.0","651c2cc23704dc10500ae77c","665500ab8938657b03fbdba8","6657932943f15a792728428f","525","stimuli/21111100.jpg"," ","","feedback_trial","0","","","","","","","","","","","","","","","","","","","","",""
"","","","","","image-keyboard-response","58","317732","0.0-33.0","651c2cc23704dc10500ae77c","665500ab8938657b03fbdba8","6657932943f15a792728428f","1550","stimuli/2010001.jpg","2","","prediction_trial","2","","true","","2","false","true","true","true","false","true","[2]","010","001","1","","","","","","",""
"","","","","","image-keyboard-response","59","318532","0.0-34.0","651c2cc23704dc10500ae77c","665500ab8938657b03fbdba8","6657932943f15a792728428f","796","stimuli/20100012.jpg"," ","","feedback_trial","2","","","","","","","","","","","","","","","","","","","","",""
"","","","","","image-keyboard-response","60","320856","0.0-35.0","651c2cc23704dc10500ae77c","665500ab8938657b03fbdba8","6657932943f15a792728428f","2317","stimuli/0101101.jpg","2","","prediction_trial","2","","true","","0","false","false","false","false","false","false","[2,0]","101","101","1","","","","","","",""
"","","","","","image-keyboard-response","61","321417","0.0-36.0","651c2cc23704dc10500ae77c","665500ab8938657b03fbdba8","6657932943f15a792728428f","555","stimuli/01011012.jpg"," ","","feedback_trial","2","","","","","","","","","","","","","","","","","","","","",""
"","","","","","image-keyboard-response","62","323031","0.0-37.0","651c2cc23704dc10500ae77c","665500ab8938657b03fbdba8","6657932943f15a792728428f","1609","stimuli/0010000.jpg","0","","prediction_trial","0","","true","","0","true","true","true","true","true","true","[0]","010","000","1","","","","","","",""
"","","","","","image-keyboard-response","63","323632","0.0-38.0","651c2cc23704dc10500ae77c","665500ab8938657b03fbdba8","6657932943f15a792728428f","596","stimuli/00100000.jpg"," ","","feedback_trial","0","","","","","","","","","","","","","","","","","","","","",""
"","","","","","image-keyboard-response","64","325821","0.0-39.0","651c2cc23704dc10500ae77c","665500ab8938657b03fbdba8","6657932943f15a792728428f","2185","stimuli/2101011.jpg","2","","prediction_trial","0","","false","","2","false","false","false","false","false","false","[0,2]","101","011","0","","","","","","",""
"","","","","","image-keyboard-response","65","326442","0.0-40.0","651c2cc23704dc10500ae77c","665500ab8938657b03fbdba8","6657932943f15a792728428f","616","stimuli/21010110.jpg"," ","","feedback_trial","0","","","","","","","","","","","","","","","","","","","","",""
"","","","","","image-keyboard-response","66","328027","0.0-41.0","651c2cc23704dc10500ae77c","665500ab8938657b03fbdba8","6657932943f15a792728428f","1580","stimuli/1011101.jpg","1","","prediction_trial","1","","true","","1","true","true","false","false","false","false","[1,2]","011","101","1","","","","","","",""
"","","","","","image-keyboard-response","67","328517","0.0-42.0","651c2cc23704dc10500ae77c","665500ab8938657b03fbdba8","6657932943f15a792728428f","484","stimuli/10111011.jpg"," ","","feedback_trial","1","","","","","","","","","","","","","","","","","","","","",""
"","","","","","image-keyboard-response","68","330317","0.0-43.0","651c2cc23704dc10500ae77c","665500ab8938657b03fbdba8","6657932943f15a792728428f","1796","stimuli/0011010.jpg","0","","prediction_trial","0","","true","","0","true","true","true","true","true","true","[0]","011","010","1","","","","","","",""
"","","","","","image-keyboard-response","69","330774","0.0-44.0","651c2cc23704dc10500ae77c","665500ab8938657b03fbdba8","6657932943f15a792728428f","452","stimuli/00110100.jpg"," ","","feedback_trial","0","","","","","","","","","","","","","","","","","","","","",""
"","","","","","image-keyboard-response","70","332548","0.0-45.0","651c2cc23704dc10500ae77c","665500ab8938657b03fbdba8","6657932943f15a792728428f","1768","stimuli/0110011.jpg","0","","prediction_trial","1","","false","","0","true","true","false","false","false","false","[0,1]","110","011","0","","","","","","",""
"","","","","","image-keyboard-response","71","332931","0.0-46.0","651c2cc23704dc10500ae77c","665500ab8938657b03fbdba8","6657932943f15a792728428f","378","stimuli/01100111.jpg"," ","","feedback_trial","0","","","","","","","","","","","","","","","","","","","","",""
"","","","","","image-keyboard-response","72","335660","0.0-47.0","651c2cc23704dc10500ae77c","665500ab8938657b03fbdba8","6657932943f15a792728428f","2724","stimuli/0001101.jpg","2","","prediction_trial","0","","false","","0","false","false","true","true","false","false","[0]","001","101","0","","","","","","",""
"","","","","","image-keyboard-response","73","336147","0.0-48.0","651c2cc23704dc10500ae77c","665500ab8938657b03fbdba8","6657932943f15a792728428f","482","stimuli/00011010.jpg"," ","","feedback_trial","0","","","","","","","","","","","","","","","","","","","","",""
"","","","","","image-keyboard-response","74","337647","0.0-49.0","651c2cc23704dc10500ae77c","665500ab8938657b03fbdba8","6657932943f15a792728428f","1496","stimuli/2010100.jpg","2","","prediction_trial","2","","true","","2","true","true","true","true","true","true","[2]","010","100","1","","","","","","",""
"","","","","","image-keyboard-response","75","338073","0.0-50.0","651c2cc23704dc10500ae77c","665500ab8938657b03fbdba8","6657932943f15a792728428f","420","stimuli/20101002.jpg"," ","","feedback_trial","2","","","","","","","","","","","","","","","","","","","","",""
"","","","","","image-keyboard-response","76","339617","0.0-51.0","651c2cc23704dc10500ae77c","665500ab8938657b03fbdba8","6657932943f15a792728428f","1539","stimuli/0110110.jpg","2","","prediction_trial","1","","false","","0","false","false","false","false","false","false","[1,0]","110","110","0","","","","","","",""
"","","","","","image-keyboard-response","77","340053","0.0-52.0","651c2cc23704dc10500ae77c","665500ab8938657b03fbdba8","6657932943f15a792728428f","429","stimuli/01101101.jpg"," ","","feedback_trial","1","","","","","","","","","","","","","","","","","","","","",""
"","","","","","image-keyboard-response","78","343836","0.0-53.0","651c2cc23704dc10500ae77c","665500ab8938657b03fbdba8","6657932943f15a792728428f","3778","stimuli/0101111.jpg","0","","prediction_trial","2","","false","","0","false","false","false","false","false","false","[2,0]","101","111","0","","","","","","",""
"","","","","","image-keyboard-response","79","344201","0.0-54.0","651c2cc23704dc10500ae77c","665500ab8938657b03fbdba8","6657932943f15a792728428f","360","stimuli/01011112.jpg"," ","","feedback_trial","2","","","","","","","","","","","","","","","","","","","","",""
"","","","","","image-keyboard-response","80","346638","0.0-55.0","651c2cc23704dc10500ae77c","665500ab8938657b03fbdba8","6657932943f15a792728428f","2432","stimuli/1101101.jpg","1","","prediction_trial","1","","true","","1","true","true","true","true","true","true","[1]","101","101","1","","","","","","",""
"","","","","","image-keyboard-response","81","347036","0.0-56.0","651c2cc23704dc10500ae77c","665500ab8938657b03fbdba8","6657932943f15a792728428f","393","stimuli/11011011.jpg"," ","","feedback_trial","1","","","","","","","","","","","","","","","","","","","","",""
"","","","","","image-keyboard-response","82","349257","0.0-57.0","651c2cc23704dc10500ae77c","665500ab8938657b03fbdba8","6657932943f15a792728428f","2216","stimuli/1110010.jpg","1","","prediction_trial","1","","true","","1","false","true","false","false","false","false","[0,1]","110","010","1","","","","","","",""
"","","","","","image-keyboard-response","83","349589","0.0-58.0","651c2cc23704dc10500ae77c","665500ab8938657b03fbdba8","6657932943f15a792728428f","328","stimuli/11100101.jpg"," ","","feedback_trial","0","","","","","","","","","","","","","","","","","","","","",""
"","","","","","image-keyboard-response","84","351613","0.0-59.0","651c2cc23704dc10500ae77c","665500ab8938657b03fbdba8","6657932943f15a792728428f","2019","stimuli/0000100.jpg","0","","prediction_trial","0","","true","","0","false","true","true","true","false","true","[0]","000","100","1","","","","","","",""
"","","","","","image-keyboard-response","85","352075","0.0-60.0","651c2cc23704dc10500ae77c","665500ab8938657b03fbdba8","6657932943f15a792728428f","457","stimuli/00001000.jpg"," ","","feedback_trial","0","","","","","","","","","","","","","","","","","","","","",""
"","","","","","image-keyboard-response","86","353202","0.0-61.0","651c2cc23704dc10500ae77c","665500ab8938657b03fbdba8","6657932943f15a792728428f","1123","stimuli/1000000.jpg","1","","prediction_trial","1","","true","","1","true","true","true","true","true","true","[1]","000","000","1","","","","","","",""
"","","","","","image-keyboard-response","87","353736","0.0-62.0","651c2cc23704dc10500ae77c","665500ab8938657b03fbdba8","6657932943f15a792728428f","529","stimuli/10000001.jpg"," ","","feedback_trial","1","","","","","","","","","","","","","","","","","","","","",""
"","","","","","image-keyboard-response","88","355334","0.0-63.0","651c2cc23704dc10500ae77c","665500ab8938657b03fbdba8","6657932943f15a792728428f","1593","stimuli/1011100.jpg","1","","prediction_trial","1","","true","","1","true","true","false","false","false","false","[2,1]","011","100","1","","","","","","",""
"","","","","","image-keyboard-response","89","355742","0.0-64.0","651c2cc23704dc10500ae77c","665500ab8938657b03fbdba8","6657932943f15a792728428f","403","stimuli/10111001.jpg"," ","","feedback_trial","2","","","","","","","","","","","","","","","","","","","","",""
"","","","","","image-keyboard-response","90","357058","0.0-65.0","651c2cc23704dc10500ae77c","665500ab8938657b03fbdba8","6657932943f15a792728428f","1311","stimuli/0100001.jpg","0","","prediction_trial","0","","true","","0","true","true","false","true","false","true","[0]","100","001","1","","","","","","",""
"","","","","","image-keyboard-response","91","357511","0.0-66.0","651c2cc23704dc10500ae77c","665500ab8938657b03fbdba8","6657932943f15a792728428f","448","stimuli/01000010.jpg"," ","","feedback_trial","0","","","","","","","","","","","","","","","","","","","","",""
"","","","","","image-keyboard-response","92","359397","0.0-67.0","651c2cc23704dc10500ae77c","665500ab8938657b03fbdba8","6657932943f15a792728428f","1881","stimuli/2000010.jpg","2","","prediction_trial","2","","true","","2","true","true","true","true","true","true","[2]","000","010","1","","","","","","",""
"","","","","","image-keyboard-response","93","359780","0.0-68.0","651c2cc23704dc10500ae77c","665500ab8938657b03fbdba8","6657932943f15a792728428f","377","stimuli/20000102.jpg"," ","","feedback_trial","2","","","","","","","","","","","","","","","","","","","","",""
"","","","","","image-keyboard-response","94","361297","0.0-69.0","651c2cc23704dc10500ae77c","665500ab8938657b03fbdba8","6657932943f15a792728428f","1512","stimuli/0110100.jpg","0","","prediction_trial","1","","false","","0","false","true","false","false","false","false","[1,0]","110","100","0","","","","","","",""
"","","","","","image-keyboard-response","95","361732","0.0-70.0","651c2cc23704dc10500ae77c","665500ab8938657b03fbdba8","6657932943f15a792728428f","429","stimuli/01101001.jpg"," ","","feedback_trial","1","","","","","","","","","","","","","","","","","","","","",""
"","","","","","image-keyboard-response","96","362951","0.0-71.0","651c2cc23704dc10500ae77c","665500ab8938657b03fbdba8","6657932943f15a792728428f","1214","stimuli/1001000.jpg","1","","prediction_trial","1","","true","","1","true","true","true","true","true","true","[1]","001","000","1","","","","","","",""
"","","","","","image-keyboard-response","97","363465","0.0-72.0","651c2cc23704dc10500ae77c","665500ab8938657b03fbdba8","6657932943f15a792728428f","509","stimuli/10010001.jpg"," ","","feedback_trial","1","","","","","","","","","","","","","","","","","","","","",""
"","","","","","image-keyboard-response","98","364726","0.0-73.0","651c2cc23704dc10500ae77c","665500ab8938657b03fbdba8","6657932943f15a792728428f","1256","stimuli/0001001.jpg","0","","prediction_trial","0","","true","","0","true","true","true","true","true","true","[0]","001","001","1","","","","","","",""
"","","","","","image-keyboard-response","99","365086","0.0-74.0","651c2cc23704dc10500ae77c","665500ab8938657b03fbdba8","6657932943f15a792728428f","354","stimuli/00010010.jpg"," ","","feedback_trial","0","","","","","","","","","","","","","","","","","","","","",""
"","","","","","image-keyboard-response","100","367150","0.0-75.0","651c2cc23704dc10500ae77c","665500ab8938657b03fbdba8","6657932943f15a792728428f","2059","stimuli/1100010.jpg","1","","prediction_trial","1","","true","","1","false","true","true","true","false","true","[1]","100","010","1","","","","","","",""
"","","","","","image-keyboard-response","101","367521","0.0-76.0","651c2cc23704dc10500ae77c","665500ab8938657b03fbdba8","6657932943f15a792728428f","366","stimuli/11000101.jpg"," ","","feedback_trial","1","","","","","","","","","","","","","","","","","","","","",""
"","","","","","image-keyboard-response","102","370936","0.0-77.0","651c2cc23704dc10500ae77c","665500ab8938657b03fbdba8","6657932943f15a792728428f","3410","stimuli/1110001.jpg","1","","prediction_trial","0","","false","","1","true","true","false","false","false","false","[0,1]","110","001","0","","","","","","",""
"","","","","","image-keyboard-response","103","371271","0.0-78.0","651c2cc23704dc10500ae77c","665500ab8938657b03fbdba8","6657932943f15a792728428f","330","stimuli/11100010.jpg"," ","","feedback_trial","0","","","","","","","","","","","","","","","","","","","","",""
"","","","","","image-keyboard-response","104","390192","0.0-79.0","651c2cc23704dc10500ae77c","665500ab8938657b03fbdba8","6657932943f15a792728428f","18917","stimuli/0101100.jpg","0","","prediction_trial","0","","true","","0","false","true","false","false","false","false","[2,0]","101","100","1","","","","","","",""
"","","","","","image-keyboard-response","105","390660","0.0-80.0","651c2cc23704dc10500ae77c","665500ab8938657b03fbdba8","6657932943f15a792728428f","462","stimuli/01011000.jpg"," ","","feedback_trial","2","","","","","","","","","","","","","","","","","","","","",""
"","","","","","image-keyboard-response","106","392558","0.0-81.0","651c2cc23704dc10500ae77c","665500ab8938657b03fbdba8","6657932943f15a792728428f","1894","stimuli/2001001.jpg","2","","prediction_trial","2","","true","","2","false","true","false","true","false","true","[2]","001","001","1","","","","","","",""
"","","","","","image-keyboard-response","107","392953","0.0-82.0","651c2cc23704dc10500ae77c","665500ab8938657b03fbdba8","6657932943f15a792728428f","390","stimuli/20010012.jpg"," ","","feedback_trial","2","","","","","","","","","","","","","","","","","","","","",""
"","","","","","image-keyboard-response","108","394282","0.0-83.0","651c2cc23704dc10500ae77c","665500ab8938657b03fbdba8","6657932943f15a792728428f","1323","stimuli/2011000.jpg","2","","prediction_trial","1","","false","","2","true","true","false","false","false","false","[2,1]","011","000","0","","","","","","",""
"","","","","","image-keyboard-response","109","394718","0.0-84.0","651c2cc23704dc10500ae77c","665500ab8938657b03fbdba8","6657932943f15a792728428f","430","stimuli/20110001.jpg"," ","","feedback_trial","2","","","","","","","","","","","","","","","","","","","","",""
"","","","","","image-keyboard-response","110","396364","0.0-85.0","651c2cc23704dc10500ae77c","665500ab8938657b03fbdba8","6657932943f15a792728428f","1642","stimuli/1110100.jpg","2","","prediction_trial","0","","false","","1","true","true","false","false","false","false","[1,0]","110","100","0","","","","","","",""
"","","","","","image-keyboard-response","111","396771","0.0-86.0","651c2cc23704dc10500ae77c","665500ab8938657b03fbdba8","6657932943f15a792728428f","400","stimuli/11101000.jpg"," ","","feedback_trial","1","","","","","","","","","","","","","","","","","","","","",""
"","","","","","image-keyboard-response","112","397898","0.0-87.0","651c2cc23704dc10500ae77c","665500ab8938657b03fbdba8","6657932943f15a792728428f","1121","stimuli/2111100.jpg","2","","prediction_trial","0","","false","","2","true","true","false","false","false","false","[2,1,0]","111","100","0","","","","","","",""
"","","","","","image-keyboard-response","113","398355","0.0-88.0","651c2cc23704dc10500ae77c","665500ab8938657b03fbdba8","6657932943f15a792728428f","452","stimuli/21111000.jpg"," ","","feedback_trial","2","","","","","","","","","","","","","","","","","","","","",""
"","","","","","image-keyboard-response","114","401732","0.0-89.0","651c2cc23704dc10500ae77c","665500ab8938657b03fbdba8","6657932943f15a792728428f","3372","stimuli/1000101.jpg","1","","prediction_trial","1","","true","","1","true","true","true","true","true","true","[1]","000","101","1","","","","","","",""
"","","","","","image-keyboard-response","115","402245","0.0-90.0","651c2cc23704dc10500ae77c","665500ab8938657b03fbdba8","6657932943f15a792728428f","508","stimuli/10001011.jpg"," ","","feedback_trial","1","","","","","","","","","","","","","","","","","","","","",""
"","","","","","image-keyboard-response","116","403352","0.0-91.0","651c2cc23704dc10500ae77c","665500ab8938657b03fbdba8","6657932943f15a792728428f","1102","stimuli/2000110.jpg","2","","prediction_trial","2","","true","","2","true","true","true","true","true","true","[2]","000","110","1","","","","","","",""
"","","","","","image-keyboard-response","117","403746","0.0-92.0","651c2cc23704dc10500ae77c","665500ab8938657b03fbdba8","6657932943f15a792728428f","389","stimuli/20001102.jpg"," ","","feedback_trial","2","","","","","","","","","","","","","","","","","","","","",""
"","","","","","image-keyboard-response","118","405049","0.0-93.0","651c2cc23704dc10500ae77c","665500ab8938657b03fbdba8","6657932943f15a792728428f","1298","stimuli/1111111.jpg","2","","prediction_trial","1","","false","","1","false","false","false","false","false","false","[1,0,2]","111","111","0","","","","","","",""
"","","","","","image-keyboard-response","119","405484","0.0-94.0","651c2cc23704dc10500ae77c","665500ab8938657b03fbdba8","6657932943f15a792728428f","430","stimuli/11111111.jpg"," ","","feedback_trial","1","","","","","","","","","","","","","","","","","","","","",""
"","","","","","image-keyboard-response","120","410799","0.0-95.0","651c2cc23704dc10500ae77c","665500ab8938657b03fbdba8","6657932943f15a792728428f","5310","stimuli/2110010.jpg","2","","prediction_trial","2","","true","","2","true","true","true","true","true","true","[2]","110","010","1","","","","","","",""
"","","","","","image-keyboard-response","121","411376","0.0-96.0","651c2cc23704dc10500ae77c","665500ab8938657b03fbdba8","6657932943f15a792728428f","572","stimuli/21100102.jpg"," ","","feedback_trial","2","","","","","","","","","","","","","","","","","","","","",""
"","","","","","image-keyboard-response","122","412948","0.0-97.0","651c2cc23704dc10500ae77c","665500ab8938657b03fbdba8","6657932943f15a792728428f","1568","stimuli/2000011.jpg","2","","prediction_trial","2","","true","","2","false","false","true","true","false","false","[2]","000","011","1","","","","","","",""
"","","","","","image-keyboard-response","123","415464","0.0-98.0","651c2cc23704dc10500ae77c","665500ab8938657b03fbdba8","6657932943f15a792728428f","2511","stimuli/20000112.jpg"," ","","feedback_trial","2","","","","","","","","","","","","","","","","","","","","",""
"","","","","","image-keyboard-response","124","418371","0.0-99.0","651c2cc23704dc10500ae77c","665500ab8938657b03fbdba8","6657932943f15a792728428f","2903","stimuli/1001110.jpg","1","","prediction_trial","1","","true","","1","false","false","true","true","false","false","[1]","001","110","1","","","","","","",""
"","","","","","image-keyboard-response","125","418821","0.0-100.0","651c2cc23704dc10500ae77c","665500ab8938657b03fbdba8","6657932943f15a792728428f","446","stimuli/10011101.jpg"," ","","feedback_trial","1","","","","","","","","","","","","","","","","","","","","",""
"","","","","","image-keyboard-response","126","420942","0.0-101.0","651c2cc23704dc10500ae77c","665500ab8938657b03fbdba8","6657932943f15a792728428f","2116","stimuli/0101110.jpg","1","","prediction_trial","2","","false","","0","false","false","false","false","false","false","[0,2]","101","110","0","","","","","","",""
"","","","","","image-keyboard-response","127","421500","0.0-102.0","651c2cc23704dc10500ae77c","665500ab8938657b03fbdba8","6657932943f15a792728428f","554","stimuli/01011102.jpg"," ","","feedback_trial","0","","","","","","","","","","","","","","","","","","","","",""
"","","","","","image-keyboard-response","128","422611","0.0-103.0","651c2cc23704dc10500ae77c","665500ab8938657b03fbdba8","6657932943f15a792728428f","1105","stimuli/1100000.jpg","1","","prediction_trial","1","","true","","1","true","true","true","true","true","true","[1]","100","000","1","","","","","","",""
"","","","","","image-keyboard-response","129","423099","0.0-104.0","651c2cc23704dc10500ae77c","665500ab8938657b03fbdba8","6657932943f15a792728428f","483","stimuli/11000001.jpg"," ","","feedback_trial","1","","","","","","","","","","","","","","","","","","","","",""
"","","","","","image-keyboard-response","130","424897","0.0-105.0","651c2cc23704dc10500ae77c","665500ab8938657b03fbdba8","6657932943f15a792728428f","1793","stimuli/2001011.jpg","2","","prediction_trial","2","","true","","2","false","false","false","true","false","false","[2]","001","011","1","","","","","","",""
"","","","","","image-keyboard-response","131","425330","0.0-106.0","651c2cc23704dc10500ae77c","665500ab8938657b03fbdba8","6657932943f15a792728428f","428","stimuli/20010112.jpg"," ","","feedback_trial","2","","","","","","","","","","","","","","","","","","","","",""
"","","","","","image-keyboard-response","132","426934","0.0-107.0","651c2cc23704dc10500ae77c","665500ab8938657b03fbdba8","6657932943f15a792728428f","1599","stimuli/0000010.jpg","0","","prediction_trial","0","","true","","0","true","true","true","true","true","true","[0]","000","010","1","","","","","","",""
"","","","","","image-keyboard-response","133","427370","0.0-108.0","651c2cc23704dc10500ae77c","665500ab8938657b03fbdba8","6657932943f15a792728428f","432","stimuli/00000100.jpg"," ","","feedback_trial","0","","","","","","","","","","","","","","","","","","","","",""
"","","","","","image-keyboard-response","134","428757","0.0-109.0","651c2cc23704dc10500ae77c","665500ab8938657b03fbdba8","6657932943f15a792728428f","1382","stimuli/0111001.jpg","0","","prediction_trial","1","","false","","0","true","true","false","false","false","false","[2,0,1]","111","001","0","","","","","","",""
"","","","","","image-keyboard-response","135","429236","0.0-110.0","651c2cc23704dc10500ae77c","665500ab8938657b03fbdba8","6657932943f15a792728428f","474","stimuli/01110011.jpg"," ","","feedback_trial","2","","","","","","","","","","","","","","","","","","","","",""
"","","","","","image-keyboard-response","136","432723","0.0-111.0","651c2cc23704dc10500ae77c","665500ab8938657b03fbdba8","6657932943f15a792728428f","3483","stimuli/1000111.jpg","1","","prediction_trial","1","","true","","1","false","false","true","true","false","false","[1]","000","111","1","","","","","","",""
"","","","","","image-keyboard-response","137","433205","0.0-112.0","651c2cc23704dc10500ae77c","665500ab8938657b03fbdba8","6657932943f15a792728428f","489","stimuli/10001111.jpg"," ","","feedback_trial","1","","","","","","","","","","","","","","","","","","","","",""
"","","","","","image-keyboard-response","138","434600","0.0-113.0","651c2cc23704dc10500ae77c","665500ab8938657b03fbdba8","6657932943f15a792728428f","1391","stimuli/2001000.jpg","2","","prediction_trial","2","","true","","2","true","true","false","true","false","true","[2]","001","000","1","","","","","","",""
"","","","","","image-keyboard-response","139","435003","0.0-114.0","651c2cc23704dc10500ae77c","665500ab8938657b03fbdba8","6657932943f15a792728428f","398","stimuli/20010002.jpg"," ","","feedback_trial","2","","","","","","","","","","","","","","","","","","","","",""
"","","","","","image-keyboard-response","140","436185","0.0-115.0","651c2cc23704dc10500ae77c","665500ab8938657b03fbdba8","6657932943f15a792728428f","1177","stimuli/1101001.jpg","1","","prediction_trial","1","","true","","1","true","true","true","true","true","true","[1]","101","001","1","","","","","","",""
"","","","","","image-keyboard-response","141","436613","0.0-116.0","651c2cc23704dc10500ae77c","665500ab8938657b03fbdba8","6657932943f15a792728428f","423","stimuli/11010011.jpg"," ","","feedback_trial","1","","","","","","","","","","","","","","","","","","","","",""
"","","","","","image-keyboard-response","142","438395","0.0-117.0","651c2cc23704dc10500ae77c","665500ab8938657b03fbdba8","6657932943f15a792728428f","1778","stimuli/0111101.jpg","0","","prediction_trial","0","","true","","0","false","false","false","false","false","false","[0,1,2]","111","101","1","","","","","","",""
"","","","","","image-keyboard-response","143","438861","0.0-118.0","651c2cc23704dc10500ae77c","665500ab8938657b03fbdba8","6657932943f15a792728428f","462","stimuli/01111010.jpg"," ","","feedback_trial","0","","","","","","","","","","","","","","","","","","","","",""
"","","","","","image-keyboard-response","144","439978","0.0-119.0","651c2cc23704dc10500ae77c","665500ab8938657b03fbdba8","6657932943f15a792728428f","1113","stimuli/1010000.jpg","1","","prediction_trial","1","","true","","1","true","true","false","true","false","true","[1]","010","000","1","","","","","","",""
"","","","","","image-keyboard-response","145","440401","0.0-120.0","651c2cc23704dc10500ae77c","665500ab8938657b03fbdba8","6657932943f15a792728428f","416","stimuli/10100001.jpg"," ","","feedback_trial","1","","","","","","","","","","","","","","","","","","","","",""
"","","","","","image-keyboard-response","146","441993","0.0-121.0","651c2cc23704dc10500ae77c","665500ab8938657b03fbdba8","6657932943f15a792728428f","1585","stimuli/1111011.jpg","2","","prediction_trial","2","","true","","1","false","false","false","false","false","false","[0,2,1]","111","011","1","","","","","","",""
"","","","","","image-keyboard-response","147","442410","0.0-122.0","651c2cc23704dc10500ae77c","665500ab8938657b03fbdba8","6657932943f15a792728428f","413","stimuli/11110112.jpg"," ","","feedback_trial","0","","","","","","","","","","","","","","","","","","","","",""
"","","","","","image-keyboard-response","148","443743","0.0-123.0","651c2cc23704dc10500ae77c","665500ab8938657b03fbdba8","6657932943f15a792728428f","1328","stimuli/1111010.jpg","1","","prediction_trial","0","","false","","1","false","true","false","false","false","false","[2,0,1]","111","010","0","","","","","","",""
"","","","","","image-keyboard-response","149","444319","0.0-124.0","651c2cc23704dc10500ae77c","665500ab8938657b03fbdba8","6657932943f15a792728428f","571","stimuli/11110100.jpg"," ","","feedback_trial","2","","","","","","","","","","","","","","","","","","","","",""
"","","","","","image-keyboard-response","150","445723","0.0-125.0","651c2cc23704dc10500ae77c","665500ab8938657b03fbdba8","6657932943f15a792728428f","1399","stimuli/1000011.jpg","2","","prediction_trial","1","","false","","1","false","false","true","true","false","false","[1]","000","011","0","","","","","","",""
"","","","","","image-keyboard-response","151","446250","0.0-126.0","651c2cc23704dc10500ae77c","665500ab8938657b03fbdba8","6657932943f15a792728428f","523","stimuli/10000111.jpg"," ","","feedback_trial","1","","","","","","","","","","","","","","","","","","","","",""
"","","","","","image-keyboard-response","152","447690","0.0-127.0","651c2cc23704dc10500ae77c","665500ab8938657b03fbdba8","6657932943f15a792728428f","1436","stimuli/0001010.jpg","0","","prediction_trial","0","","true","","0","true","true","true","true","true","true","[0]","001","010","1","","","","","","",""
"","","","","","image-keyboard-response","153","448103","0.0-128.0","651c2cc23704dc10500ae77c","665500ab8938657b03fbdba8","6657932943f15a792728428f","408","stimuli/00010100.jpg"," ","","feedback_trial","0","","","","","","","","","","","","","","","","","","","","",""
"","","","","","image-keyboard-response","154","449460","0.0-129.0","651c2cc23704dc10500ae77c","665500ab8938657b03fbdba8","6657932943f15a792728428f","1353","stimuli/1011011.jpg","1","","prediction_trial","2","","false","","1","false","false","false","false","false","false","[1,2]","011","011","0","","","","","","",""
"","","","","","image-keyboard-response","155","449946","0.0-130.0","651c2cc23704dc10500ae77c","665500ab8938657b03fbdba8","6657932943f15a792728428f","481","stimuli/10110112.jpg"," ","","feedback_trial","1","","","","","","","","","","","","","","","","","","","","",""
"","","","","","image-keyboard-response","156","455499","0.0-131.0","651c2cc23704dc10500ae77c","665500ab8938657b03fbdba8","6657932943f15a792728428f","5549","stimuli/2011101.jpg","2","","prediction_trial","1","","false","","2","false","false","false","false","false","false","[1,2]","011","101","0","","","","","","",""
"","","","","","image-keyboard-response","157","455932","0.0-132.0","651c2cc23704dc10500ae77c","665500ab8938657b03fbdba8","6657932943f15a792728428f","428","stimuli/20111011.jpg"," ","","feedback_trial","1","","","","","","","","","","","","","","","","","","","","",""
"","","","","","image-keyboard-response","158","460445","0.0-133.0","651c2cc23704dc10500ae77c","665500ab8938657b03fbdba8","6657932943f15a792728428f","4509","stimuli/1100111.jpg","0","","prediction_trial","1","","false","","1","false","false","true","true","false","false","[1]","100","111","0","","","","","","",""
"","","","","","image-keyboard-response","159","460825","0.0-134.0","651c2cc23704dc10500ae77c","665500ab8938657b03fbdba8","6657932943f15a792728428f","375","stimuli/11001111.jpg"," ","","feedback_trial","1","","","","","","","","","","","","","","","","","","","","",""
"","","","","","image-keyboard-response","160","462409","0.0-135.0","651c2cc23704dc10500ae77c","665500ab8938657b03fbdba8","6657932943f15a792728428f","1579","stimuli/2110100.jpg","1","","prediction_trial","2","","false","","2","true","true","true","true","true","true","[2]","110","100","0","","","","","","",""
"","","","","","image-keyboard-response","161","462820","0.0-136.0","651c2cc23704dc10500ae77c","665500ab8938657b03fbdba8","6657932943f15a792728428f","406","stimuli/21101002.jpg"," ","","feedback_trial","2","","","","","","","","","","","","","","","","","","","","",""
"","","","","","image-keyboard-response","162","465005","0.0-137.0","651c2cc23704dc10500ae77c","665500ab8938657b03fbdba8","6657932943f15a792728428f","2179","stimuli/1000100.jpg","0","","prediction_trial","1","","false","","1","true","true","true","true","true","true","[1]","000","100","0","","","","","","",""
"","","","","","image-keyboard-response","163","465299","0.0-138.0","651c2cc23704dc10500ae77c","665500ab8938657b03fbdba8","6657932943f15a792728428f","289","stimuli/10001001.jpg"," ","","feedback_trial","1","","","","","","","","","","","","","","","","","","","","",""
"","","","","","image-keyboard-response","164","466843","0.0-139.0","651c2cc23704dc10500ae77c","665500ab8938657b03fbdba8","6657932943f15a792728428f","1539","stimuli/0010101.jpg","1","","prediction_trial","0","","false","","0","false","false","true","true","false","false","[0]","010","101","0","","","","","","",""
"","","","","","image-keyboard-response","165","467235","0.0-140.0","651c2cc23704dc10500ae77c","665500ab8938657b03fbdba8","6657932943f15a792728428f","387","stimuli/00101010.jpg"," ","","feedback_trial","0","","","","","","","","","","","","","","","","","","","","",""
"","","","","","image-keyboard-response","166","469102","0.0-141.0","651c2cc23704dc10500ae77c","665500ab8938657b03fbdba8","6657932943f15a792728428f","1863","stimuli/1101011.jpg","1","","prediction_trial","1","","true","","1","false","false","true","true","false","false","[1]","101","011","1","","","","","","",""
"","","","","","image-keyboard-response","167","469822","0.0-142.0","651c2cc23704dc10500ae77c","665500ab8938657b03fbdba8","6657932943f15a792728428f","715","stimuli/11010111.jpg"," ","","feedback_trial","1","","","","","","","","","","","","","","","","","","","","",""
"","","","","","image-keyboard-response","168","474621","0.0-143.0","651c2cc23704dc10500ae77c","665500ab8938657b03fbdba8","6657932943f15a792728428f","4794","stimuli/0010011.jpg","0","","prediction_trial","0","","true","","0","true","true","true","true","true","true","[0]","010","011","1","","","","","","",""
"","","","","","image-keyboard-response","169","474997","0.0-144.0","651c2cc23704dc10500ae77c","665500ab8938657b03fbdba8","6657932943f15a792728428f","372","stimuli/00100110.jpg"," ","","feedback_trial","0","","","","","","","","","","","","","","","","","","","","",""
"","","","","","image-keyboard-response","170","476944","0.0-145.0","651c2cc23704dc10500ae77c","665500ab8938657b03fbdba8","6657932943f15a792728428f","1942","stimuli/1000001.jpg","1","","prediction_trial","1","","true","","1","true","true","true","true","true","true","[1]","000","001","1","","","","","","",""
"","","","","","image-keyboard-response","171","477313","0.0-146.0","651c2cc23704dc10500ae77c","665500ab8938657b03fbdba8","6657932943f15a792728428f","365","stimuli/10000011.jpg"," ","","feedback_trial","1","","","","","","","","","","","","","","","","","","","","",""
"","","","","","image-keyboard-response","172","479934","0.0-147.0","651c2cc23704dc10500ae77c","665500ab8938657b03fbdba8","6657932943f15a792728428f","2616","stimuli/1010110.jpg","1","","prediction_trial","1","","true","","1","false","false","false","true","false","false","[1]","010","110","1","","","","","","",""
"","","","","","image-keyboard-response","173","480282","0.0-148.0","651c2cc23704dc10500ae77c","665500ab8938657b03fbdba8","6657932943f15a792728428f","343","stimuli/10101101.jpg"," ","","feedback_trial","1","","","","","","","","","","","","","","","","","","","","",""
"","","","","","image-keyboard-response","174","481685","0.0-149.0","651c2cc23704dc10500ae77c","665500ab8938657b03fbdba8","6657932943f15a792728428f","1398","stimuli/2011100.jpg","2","","prediction_trial","1","","false","","2","true","true","false","false","false","false","[2,1]","011","100","0","","","","","","",""
"","","","","","image-keyboard-response","175","482124","0.0-150.0","651c2cc23704dc10500ae77c","665500ab8938657b03fbdba8","6657932943f15a792728428f","434","stimuli/20111001.jpg"," ","","feedback_trial","2","","","","","","","","","","","","","","","","","","","","",""
"","","","","","image-keyboard-response","176","483654","0.0-151.0","651c2cc23704dc10500ae77c","665500ab8938657b03fbdba8","6657932943f15a792728428f","1525","stimuli/0110000.jpg","0","","prediction_trial","0","","true","","0","true","true","false","false","false","false","[0,1]","110","000","1","","","","","","",""
"","","","","","image-keyboard-response","177","484108","0.0-152.0","651c2cc23704dc10500ae77c","665500ab8938657b03fbdba8","6657932943f15a792728428f","449","stimuli/01100000.jpg"," ","","feedback_trial","0","","","","","","","","","","","","","","","","","","","","",""
"","","","","","image-keyboard-response","178","485109","0.0-153.0","651c2cc23704dc10500ae77c","665500ab8938657b03fbdba8","6657932943f15a792728428f","997","stimuli/1001101.jpg","1","","prediction_trial","1","","true","","1","true","true","true","true","true","true","[1]","001","101","1","","","","","","",""
"","","","","","image-keyboard-response","179","485594","0.0-154.0","651c2cc23704dc10500ae77c","665500ab8938657b03fbdba8","6657932943f15a792728428f","478","stimuli/10011011.jpg"," ","","feedback_trial","1","","","","","","","","","","","","","","","","","","","","",""
"","","","","","image-keyboard-response","180","487989","0.0-155.0","651c2cc23704dc10500ae77c","665500ab8938657b03fbdba8","6657932943f15a792728428f","2390","stimuli/2011111.jpg","2","","prediction_trial","1","","false","","2","false","false","false","false","false","false","[1,2]","011","111","0","","","","","","",""
"","","","","","image-keyboard-response","181","488367","0.0-156.0","651c2cc23704dc10500ae77c","665500ab8938657b03fbdba8","6657932943f15a792728428f","373","stimuli/20111111.jpg"," ","","feedback_trial","1","","","","","","","","","","","","","","","","","","","","",""
"","","","","","image-keyboard-response","182","489724","0.0-157.0","651c2cc23704dc10500ae77c","665500ab8938657b03fbdba8","6657932943f15a792728428f","1353","stimuli/1100001.jpg","1","","prediction_trial","1","","true","","1","true","true","true","true","true","true","[1]","100","001","1","","","","","","",""
"","","","","","image-keyboard-response","183","490106","0.0-158.0","651c2cc23704dc10500ae77c","665500ab8938657b03fbdba8","6657932943f15a792728428f","377","stimuli/11000011.jpg"," ","","feedback_trial","1","","","","","","","","","","","","","","","","","","","","",""
"","","","","","image-keyboard-response","184","491633","0.0-159.0","651c2cc23704dc10500ae77c","665500ab8938657b03fbdba8","6657932943f15a792728428f","1522","stimuli/0111011.jpg","0","","prediction_trial","1","","false","","0","true","true","false","false","false","false","[1,0,2]","111","011","0","","","","","","",""
"","","","","","image-keyboard-response","185","492078","0.0-160.0","651c2cc23704dc10500ae77c","665500ab8938657b03fbdba8","6657932943f15a792728428f","440","stimuli/01110111.jpg"," ","","feedback_trial","1","","","","","","","","","","","","","","","","","","","","",""
"","","","","","image-keyboard-response","186","494454","0.0-161.0","651c2cc23704dc10500ae77c","665500ab8938657b03fbdba8","6657932943f15a792728428f","2359","stimuli/1101111.jpg","2","","prediction_trial","1","","false","","1","false","false","true","true","false","false","[1]","101","111","0","","","","","","",""
"","","","","","image-keyboard-response","187","494825","0.0-162.0","651c2cc23704dc10500ae77c","665500ab8938657b03fbdba8","6657932943f15a792728428f","367","stimuli/11011111.jpg"," ","","feedback_trial","1","","","","","","","","","","","","","","","","","","","","",""
"","","","","","image-keyboard-response","188","496406","0.0-163.0","651c2cc23704dc10500ae77c","665500ab8938657b03fbdba8","6657932943f15a792728428f","1576","stimuli/0011110.jpg","1","","prediction_trial","0","","false","","0","false","false","true","true","false","false","[0]","011","110","0","","","","","","",""
"","","","","","image-keyboard-response","189","497223","0.0-164.0","651c2cc23704dc10500ae77c","665500ab8938657b03fbdba8","6657932943f15a792728428f","812","stimuli/00111100.jpg"," ","","feedback_trial","0","","","","","","","","","","","","","","","","","","","","",""
"","","","","","image-keyboard-response","190","501300","0.0-165.0","651c2cc23704dc10500ae77c","665500ab8938657b03fbdba8","6657932943f15a792728428f","4072","stimuli/0010100.jpg","0","","prediction_trial","0","","true","","0","false","true","true","true","false","true","[0]","010","100","1","","","","","","",""
"","","","","","image-keyboard-response","191","501549","0.0-166.0","651c2cc23704dc10500ae77c","665500ab8938657b03fbdba8","6657932943f15a792728428f","245","stimuli/00101000.jpg"," ","","feedback_trial","0","","","","","","","","","","","","","","","","","","","","",""
"","","","","","image-keyboard-response","192","505815","0.0-167.0","651c2cc23704dc10500ae77c","665500ab8938657b03fbdba8","6657932943f15a792728428f","4262","stimuli/2101101.jpg","2","","prediction_trial","2","","true","","2","false","false","false","false","false","false","[0,2]","101","101","1","","","","","","",""
"","","","","","image-keyboard-response","193","506145","0.0-168.0","651c2cc23704dc10500ae77c","665500ab8938657b03fbdba8","6657932943f15a792728428f","325","stimuli/21011012.jpg"," ","","feedback_trial","0","","","","","","","","","","","","","","","","","","","","",""
"","","","","","image-keyboard-response","194","507281","0.0-169.0","651c2cc23704dc10500ae77c","665500ab8938657b03fbdba8","6657932943f15a792728428f","1131","stimuli/2110000.jpg","2","","prediction_trial","2","","true","","2","true","true","true","true","true","true","[2]","110","000","1","","","","","","",""
"","","","","","image-keyboard-response","195","507753","0.0-170.0","651c2cc23704dc10500ae77c","665500ab8938657b03fbdba8","6657932943f15a792728428f","466","stimuli/21100002.jpg"," ","","feedback_trial","2","","","","","","","","","","","","","","","","","","","","",""
"","","","","","image-keyboard-response","196","509413","0.0-171.0","651c2cc23704dc10500ae77c","665500ab8938657b03fbdba8","6657932943f15a792728428f","1654","stimuli/0000110.jpg","1","","prediction_trial","0","","false","","0","false","false","true","true","false","false","[0]","000","110","0","","","","","","",""
"","","","","","image-keyboard-response","197","509805","0.0-172.0","651c2cc23704dc10500ae77c","665500ab8938657b03fbdba8","6657932943f15a792728428f","387","stimuli/00001100.jpg"," ","","feedback_trial","0","","","","","","","","","","","","","","","","","","","","",""
"","","","","","image-keyboard-response","198","510778","0.0-173.0","651c2cc23704dc10500ae77c","665500ab8938657b03fbdba8","6657932943f15a792728428f","968","stimuli/1110101.jpg","1","","prediction_trial","0","","false","","1","true","true","false","false","false","false","[1,0]","110","101","0","","","","","","",""
"","","","","","image-keyboard-response","199","511266","0.0-174.0","651c2cc23704dc10500ae77c","665500ab8938657b03fbdba8","6657932943f15a792728428f","482","stimuli/11101010.jpg"," ","","feedback_trial","1","","","","","","","","","","","","","","","","","","","","",""
"","","","","","image-keyboard-response","200","513952","0.0-175.0","651c2cc23704dc10500ae77c","665500ab8938657b03fbdba8","6657932943f15a792728428f","2682","stimuli/1111000.jpg","1","","prediction_trial","1","","true","","1","true","true","false","false","false","false","[2,0,1]","111","000","1","","","","","","",""
"","","","","","image-keyboard-response","201","514982","0.0-176.0","651c2cc23704dc10500ae77c","665500ab8938657b03fbdba8","6657932943f15a792728428f","1025","stimuli/11110001.jpg"," ","","feedback_trial","2","","","","","","","","","","","","","","","","","","","","",""
"","","","","","image-keyboard-response","202","516322","0.0-177.0","651c2cc23704dc10500ae77c","665500ab8938657b03fbdba8","6657932943f15a792728428f","1335","stimuli/0111000.jpg","0","","prediction_trial","1","","false","","0","true","true","false","false","false","false","[1,2,0]","111","000","0","","","","","","",""
"","","","","","image-keyboard-response","203","516643","0.0-178.0","651c2cc23704dc10500ae77c","665500ab8938657b03fbdba8","6657932943f15a792728428f","316","stimuli/01110001.jpg"," ","","feedback_trial","1","","","","","","","","","","","","","","","","","","","","",""
"","","","","","image-keyboard-response","204","518040","0.0-179.0","651c2cc23704dc10500ae77c","665500ab8938657b03fbdba8","6657932943f15a792728428f","1392","stimuli/2011011.jpg","1","","prediction_trial","1","","true","","2","false","false","false","false","false","false","[2,1]","011","011","1","","","","","","",""
"","","","","","image-keyboard-response","205","518435","0.0-180.0","651c2cc23704dc10500ae77c","665500ab8938657b03fbdba8","6657932943f15a792728428f","391","stimuli/20110111.jpg"," ","","feedback_trial","2","","","","","","","","","","","","","","","","","","","","",""
"","","","","","image-keyboard-response","206","519637","0.0-181.0","651c2cc23704dc10500ae77c","665500ab8938657b03fbdba8","6657932943f15a792728428f","1197","stimuli/0001000.jpg","0","","prediction_trial","0","","true","","0","true","true","true","true","true","true","[0]","001","000","1","","","","","","",""
"","","","","","image-keyboard-response","207","520074","0.0-182.0","651c2cc23704dc10500ae77c","665500ab8938657b03fbdba8","6657932943f15a792728428f","433","stimuli/00010000.jpg"," ","","feedback_trial","0","","","","","","","","","","","","","","","","","","","","",""
"","","","","","image-keyboard-response","208","521614","0.0-183.0","651c2cc23704dc10500ae77c","665500ab8938657b03fbdba8","6657932943f15a792728428f","1535","stimuli/0010110.jpg","1","","prediction_trial","0","","false","","0","false","false","true","true","false","false","[0]","010","110","0","","","","","","",""
"","","","","","image-keyboard-response","209","522073","0.0-184.0","651c2cc23704dc10500ae77c","665500ab8938657b03fbdba8","6657932943f15a792728428f","454","stimuli/00101100.jpg"," ","","feedback_trial","0","","","","","","","","","","","","","","","","","","","","",""
"","","","","","image-keyboard-response","210","524991","0.0-185.0","651c2cc23704dc10500ae77c","665500ab8938657b03fbdba8","6657932943f15a792728428f","2913","stimuli/2100101.jpg","0","","prediction_trial","2","","false","","2","false","false","true","true","false","false","[2]","100","101","0","","","","","","",""
"","","","","","image-keyboard-response","211","525399","0.0-186.0","651c2cc23704dc10500ae77c","665500ab8938657b03fbdba8","6657932943f15a792728428f","403","stimuli/21001012.jpg"," ","","feedback_trial","2","","","","","","","","","","","","","","","","","","","","",""
"","","","","","image-keyboard-response","212","527598","0.0-187.0","651c2cc23704dc10500ae77c","665500ab8938657b03fbdba8","6657932943f15a792728428f","2195","stimuli/1101110.jpg","1","","prediction_trial","1","","true","","1","false","false","true","true","false","false","[1]","101","110","1","","","","","","",""
"","","","","","image-keyboard-response","213","528535","0.0-188.0","651c2cc23704dc10500ae77c","665500ab8938657b03fbdba8","6657932943f15a792728428f","931","stimuli/11011101.jpg"," ","","feedback_trial","1","","","","","","","","","","","","","","","","","","","","",""
"","","","","","image-keyboard-response","214","529614","0.0-189.0","651c2cc23704dc10500ae77c","665500ab8938657b03fbdba8","6657932943f15a792728428f","1074","stimuli/0011001.jpg","0","","prediction_trial","0","","true","","0","true","true","true","true","true","true","[0]","011","001","1","","","","","","",""
"","","","","","image-keyboard-response","215","530059","0.0-190.0","651c2cc23704dc10500ae77c","665500ab8938657b03fbdba8","6657932943f15a792728428f","440","stimuli/00110010.jpg"," ","","feedback_trial","0","","","","","","","","","","","","","","","","","","","","",""
"","","","","","image-keyboard-response","216","531688","0.0-191.0","651c2cc23704dc10500ae77c","665500ab8938657b03fbdba8","6657932943f15a792728428f","1624","stimuli/1111100.jpg","1","","prediction_trial","1","","true","","1","true","true","false","false","false","false","[0,2,1]","111","100","1","","","","","","",""
"","","","","","image-keyboard-response","217","532049","0.0-192.0","651c2cc23704dc10500ae77c","665500ab8938657b03fbdba8","6657932943f15a792728428f","356","stimuli/11111001.jpg"," ","","feedback_trial","0","","","","","","","","","","","","","","","","","","","","",""
"","","","","","image-keyboard-response","218","533296","0.0-193.0","651c2cc23704dc10500ae77c","665500ab8938657b03fbdba8","6657932943f15a792728428f","1241","stimuli/0101011.jpg","0","","prediction_trial","0","","true","","0","true","true","false","false","false","false","[2,0]","101","011","1","","","","","","",""
"","","","","","image-keyboard-response","219","533614","0.0-194.0","651c2cc23704dc10500ae77c","665500ab8938657b03fbdba8","6657932943f15a792728428f","312","stimuli/01010110.jpg"," ","","feedback_trial","2","","","","","","","","","","","","","","","","","","","","",""
"","","","","","image-keyboard-response","220","535229","0.0-195.0","651c2cc23704dc10500ae77c","665500ab8938657b03fbdba8","6657932943f15a792728428f","1610","stimuli/2010010.jpg","2","","prediction_trial","2","","true","","2","true","true","true","true","true","true","[2]","010","010","1","","","","","","",""
"","","","","","image-keyboard-response","221","535619","0.0-196.0","651c2cc23704dc10500ae77c","665500ab8938657b03fbdba8","6657932943f15a792728428f","385","stimuli/20100102.jpg"," ","","feedback_trial","2","","","","","","","","","","","","","","","","","","","","",""
"","","","","","image-keyboard-response","222","536935","0.0-197.0","651c2cc23704dc10500ae77c","665500ab8938657b03fbdba8","6657932943f15a792728428f","1312","stimuli/1001100.jpg","1","","prediction_trial","1","","true","","1","true","true","true","true","true","true","[1]","001","100","1","","","","","","",""
"","","","","","image-keyboard-response","223","537320","0.0-198.0","651c2cc23704dc10500ae77c","665500ab8938657b03fbdba8","6657932943f15a792728428f","381","stimuli/10011001.jpg"," ","","feedback_trial","1","","","","","","","","","","","","","","","","","","","","",""
"","","","","","image-keyboard-response","224","538459","0.0-199.0","651c2cc23704dc10500ae77c","665500ab8938657b03fbdba8","6657932943f15a792728428f","1134","stimuli/2101110.jpg","2","","prediction_trial","2","","true","","2","true","true","false","false","false","false","[2,0]","101","110","1","","","","","","",""
"","","","","","image-keyboard-response","225","538760","0.0-200.0","651c2cc23704dc10500ae77c","665500ab8938657b03fbdba8","6657932943f15a792728428f","297","stimuli/21011102.jpg"," ","","feedback_trial","2","","","","","","","","","","","","","","","","","","","","",""
"","","","","","image-keyboard-response","226","540721","0.0-201.0","651c2cc23704dc10500ae77c","665500ab8938657b03fbdba8","6657932943f15a792728428f","1956","stimuli/2100110.jpg","2","","prediction_trial","2","","true","","2","true","true","true","true","true","true","[2]","100","110","1","","","","","","",""
"","","","","","image-keyboard-response","227","541082","0.0-202.0","651c2cc23704dc10500ae77c","665500ab8938657b03fbdba8","6657932943f15a792728428f","357","stimuli/21001102.jpg"," ","","feedback_trial","2","","","","","","","","","","","","","","","","","","","","",""
"","","","","","image-keyboard-response","228","542924","0.0-203.0","651c2cc23704dc10500ae77c","665500ab8938657b03fbdba8","6657932943f15a792728428f","1837","stimuli/0010111.jpg","1","","prediction_trial","0","","false","","0","false","false","true","true","false","false","[0]","010","111","0","","","","","","",""
"","","","","","image-keyboard-response","229","543522","0.0-204.0","651c2cc23704dc10500ae77c","665500ab8938657b03fbdba8","6657932943f15a792728428f","594","stimuli/00101110.jpg"," ","","feedback_trial","0","","","","","","","","","","","","","","","","","","","","",""
"","","","","","image-keyboard-response","230","546000","0.0-205.0","651c2cc23704dc10500ae77c","665500ab8938657b03fbdba8","6657932943f15a792728428f","2471","stimuli/2010111.jpg","2","","prediction_trial","2","","true","","2","false","false","true","true","false","false","[2]","010","111","1","","","","","","",""
"","","","","","image-keyboard-response","231","546568","0.0-206.0","651c2cc23704dc10500ae77c","665500ab8938657b03fbdba8","6657932943f15a792728428f","563","stimuli/20101112.jpg"," ","","feedback_trial","2","","","","","","","","","","","","","","","","","","","","",""
"","","","","","image-keyboard-response","232","548099","0.0-207.0","651c2cc23704dc10500ae77c","665500ab8938657b03fbdba8","6657932943f15a792728428f","1526","stimuli/1000110.jpg","1","","prediction_trial","1","","true","","1","false","false","true","true","false","false","[1]","000","110","1","","","","","","",""
"","","","","","image-keyboard-response","233","548692","0.0-208.0","651c2cc23704dc10500ae77c","665500ab8938657b03fbdba8","6657932943f15a792728428f","587","stimuli/10001101.jpg"," ","","feedback_trial","1","","","","","","","","","","","","","","","","","","","","",""
"","","","","","image-keyboard-response","234","549771","0.0-209.0","651c2cc23704dc10500ae77c","665500ab8938657b03fbdba8","6657932943f15a792728428f","1074","stimuli/2100100.jpg","2","","prediction_trial","2","","true","","2","true","true","true","true","true","true","[2]","100","100","1","","","","","","",""
"","","","","","image-keyboard-response","235","550216","0.0-210.0","651c2cc23704dc10500ae77c","665500ab8938657b03fbdba8","6657932943f15a792728428f","441","stimuli/21001002.jpg"," ","","feedback_trial","2","","","","","","","","","","","","","","","","","","","","",""
"","","","","","image-keyboard-response","236","551028","0.0-211.0","651c2cc23704dc10500ae77c","665500ab8938657b03fbdba8","6657932943f15a792728428f","807","stimuli/2101000.jpg","2","","prediction_trial","2","","true","","2","true","true","false","false","false","false","[2,0]","101","000","1","","","","","","",""
"","","","","","image-keyboard-response","237","551489","0.0-212.0","651c2cc23704dc10500ae77c","665500ab8938657b03fbdba8","6657932943f15a792728428f","456","stimuli/21010002.jpg"," ","","feedback_trial","2","","","","","","","","","","","","","","","","","","","","",""
"","","","","","image-keyboard-response","238","554001","0.0-213.0","651c2cc23704dc10500ae77c","665500ab8938657b03fbdba8","6657932943f15a792728428f","2511","stimuli/2100111.jpg","2","","prediction_trial","2","","true","","2","false","false","true","true","false","false","[2]","100","111","1","","","","","","",""
"","","","","","image-keyboard-response","239","555810","0.0-214.0","651c2cc23704dc10500ae77c","665500ab8938657b03fbdba8","6657932943f15a792728428f","1805","stimuli/21001112.jpg"," ","","feedback_trial","2","","","","","","","","","","","","","","","","","","","","",""
"","","","","","image-keyboard-response","240","558064","0.0-215.0","651c2cc23704dc10500ae77c","665500ab8938657b03fbdba8","6657932943f15a792728428f","2250","stimuli/2000000.jpg","2","","prediction_trial","2","","true","","2","true","true","true","true","true","true","[2]","000","000","1","","","","","","",""
"","","","","","image-keyboard-response","241","558434","0.0-216.0","651c2cc23704dc10500ae77c","665500ab8938657b03fbdba8","6657932943f15a792728428f","365","stimuli/20000002.jpg"," ","","feedback_trial","2","","","","","","","","","","","","","","","","","","","","",""
"","","","","","image-keyboard-response","242","559793","0.0-217.0","651c2cc23704dc10500ae77c","665500ab8938657b03fbdba8","6657932943f15a792728428f","1354","stimuli/1100100.jpg","1","","prediction_trial","1","","true","","1","true","true","true","true","true","true","[1]","100","100","1","","","","","","",""
"","","","","","image-keyboard-response","243","560077","0.0-218.0","651c2cc23704dc10500ae77c","665500ab8938657b03fbdba8","6657932943f15a792728428f","278","stimuli/11001001.jpg"," ","","feedback_trial","1","","","","","","","","","","","","","","","","","","","","",""
"","","","","","image-keyboard-response","244","562043","0.0-219.0","651c2cc23704dc10500ae77c","665500ab8938657b03fbdba8","6657932943f15a792728428f","1962","stimuli/1101100.jpg","1","","prediction_trial","1","","true","","1","true","true","true","true","true","true","[1]","101","100","1","","","","","","",""
"","","","","","image-keyboard-response","245","562543","0.0-220.0","651c2cc23704dc10500ae77c","665500ab8938657b03fbdba8","6657932943f15a792728428f","494","stimuli/11011001.jpg"," ","","feedback_trial","1","","","","","","","","","","","","","","","","","","","","",""
"","","","","","image-keyboard-response","246","563951","0.0-221.0","651c2cc23704dc10500ae77c","665500ab8938657b03fbdba8","6657932943f15a792728428f","1403","stimuli/0010010.jpg","0","","prediction_trial","0","","true","","0","true","true","true","true","true","true","[0]","010","010","1","","","","","","",""
"","","","","","image-keyboard-response","247","564276","0.0-222.0","651c2cc23704dc10500ae77c","665500ab8938657b03fbdba8","6657932943f15a792728428f","319","stimuli/00100100.jpg"," ","","feedback_trial","0","","","","","","","","","","","","","","","","","","","","",""
"","","","","","image-keyboard-response","248","565713","0.0-223.0","651c2cc23704dc10500ae77c","665500ab8938657b03fbdba8","6657932943f15a792728428f","1431","stimuli/1000010.jpg","1","","prediction_trial","1","","true","","1","false","true","true","true","false","true","[1]","000","010","1","","","","","","",""
"","","","","","image-keyboard-response","249","566105","0.0-224.0","651c2cc23704dc10500ae77c","665500ab8938657b03fbdba8","6657932943f15a792728428f","387","stimuli/10000101.jpg"," ","","feedback_trial","1","","","","","","","","","","","","","","","","","","","","",""
"","","","","","image-keyboard-response","250","567162","0.0-225.0","651c2cc23704dc10500ae77c","665500ab8938657b03fbdba8","6657932943f15a792728428f","1052","stimuli/2111000.jpg","2","","prediction_trial","0","","false","","2","true","true","false","false","false","false","[2,0,1]","111","000","0","","","","","","",""
"","","","","","image-keyboard-response","251","567616","0.0-226.0","651c2cc23704dc10500ae77c","665500ab8938657b03fbdba8","6657932943f15a792728428f","449","stimuli/21110000.jpg"," ","","feedback_trial","2","","","","","","","","","","","","","","","","","","","","",""
"","","","","","image-keyboard-response","252","569195","0.0-227.0","651c2cc23704dc10500ae77c","665500ab8938657b03fbdba8","6657932943f15a792728428f","1575","stimuli/0111100.jpg","1","","prediction_trial","0","","false","","0","false","true","false","false","false","false","[0,2,1]","111","100","0","","","","","","",""
"","","","","","image-keyboard-response","253","569644","0.0-228.0","651c2cc23704dc10500ae77c","665500ab8938657b03fbdba8","6657932943f15a792728428f","445","stimuli/01111000.jpg"," ","","feedback_trial","0","","","","","","","","","","","","","","","","","","","","",""
"","","","","","image-keyboard-response","254","572283","0.0-229.0","651c2cc23704dc10500ae77c","665500ab8938657b03fbdba8","6657932943f15a792728428f","2634","stimuli/1101010.jpg","1","","prediction_trial","1","","true","","1","false","true","true","true","false","true","[1]","101","010","1","","","","","","",""
"","","","","","image-keyboard-response","255","572723","0.0-230.0","651c2cc23704dc10500ae77c","665500ab8938657b03fbdba8","6657932943f15a792728428f","435","stimuli/11010101.jpg"," ","","feedback_trial","1","","","","","","","","","","","","","","","","","","","","",""
"","","","","","image-keyboard-response","256","573941","0.0-231.0","651c2cc23704dc10500ae77c","665500ab8938657b03fbdba8","6657932943f15a792728428f","1213","stimuli/1011000.jpg","1","","prediction_trial","2","","false","","1","true","true","false","false","false","false","[2,1]","011","000","0","","","","","","",""
"","","","","","image-keyboard-response","257","574395","0.0-232.0","651c2cc23704dc10500ae77c","665500ab8938657b03fbdba8","6657932943f15a792728428f","449","stimuli/10110002.jpg"," ","","feedback_trial","2","","","","","","","","","","","","","","","","","","","","",""
"","","","","","image-keyboard-response","258","575953","0.0-233.0","651c2cc23704dc10500ae77c","665500ab8938657b03fbdba8","6657932943f15a792728428f","1554","stimuli/2000001.jpg","1","","prediction_trial","2","","false","","2","false","true","true","true","false","true","[2]","000","001","0","","","","","","",""
"","","","","","image-keyboard-response","259","577630","0.0-234.0","651c2cc23704dc10500ae77c","665500ab8938657b03fbdba8","6657932943f15a792728428f","1672","stimuli/20000012.jpg"," ","","feedback_trial","2","","","","","","","","","","","","","","","","","","","","",""
"","","","","","image-keyboard-response","260","581072","0.0-235.0","651c2cc23704dc10500ae77c","665500ab8938657b03fbdba8","6657932943f15a792728428f","3437","stimuli/1110110.jpg","0","","prediction_trial","0","","true","","1","false","false","false","false","false","false","[0,1]","110","110","1","","","","","","",""
"","","","","","image-keyboard-response","261","581448","0.0-236.0","651c2cc23704dc10500ae77c","665500ab8938657b03fbdba8","6657932943f15a792728428f","371","stimuli/11101100.jpg"," ","","feedback_trial","0","","","","","","","","","","","","","","","","","","","","",""
"","","","","","image-keyboard-response","262","583445","0.0-237.0","651c2cc23704dc10500ae77c","665500ab8938657b03fbdba8","6657932943f15a792728428f","1993","stimuli/2110001.jpg","2","","prediction_trial","2","","true","","2","false","true","true","true","false","true","[2]","110","001","1","","","","","","",""
"","","","","","image-keyboard-response","263","583954","0.0-238.0","651c2cc23704dc10500ae77c","665500ab8938657b03fbdba8","6657932943f15a792728428f","504","stimuli/21100012.jpg"," ","","feedback_trial","2","","","","","","","","","","","","","","","","","","","","",""
"","","","","","image-keyboard-response","264","586301","0.0-239.0","651c2cc23704dc10500ae77c","665500ab8938657b03fbdba8","6657932943f15a792728428f","2341","stimuli/2000111.jpg","1","","prediction_trial","2","","false","","2","false","false","true","true","false","false","[2]","000","111","0","","","","","","",""
"","","","","","image-keyboard-response","265","586821","0.0-240.0","651c2cc23704dc10500ae77c","665500ab8938657b03fbdba8","6657932943f15a792728428f","515","stimuli/20001112.jpg"," ","","feedback_trial","2","","","","","","","","","","","","","","","","","","","","",""
"","","","","","image-keyboard-response","266","588629","0.0-241.0","651c2cc23704dc10500ae77c","665500ab8938657b03fbdba8","6657932943f15a792728428f","1802","stimuli/2001111.jpg","2","","prediction_trial","2","","true","","2","false","false","false","true","false","false","[2]","001","111","1","","","","","","",""
"","","","","","image-keyboard-response","267","589057","0.0-242.0","651c2cc23704dc10500ae77c","665500ab8938657b03fbdba8","6657932943f15a792728428f","423","stimuli/20011112.jpg"," ","","feedback_trial","2","","","","","","","","","","","","","","","","","","","","",""
"","","","","","image-keyboard-response","268","589780","0.0-243.0","651c2cc23704dc10500ae77c","665500ab8938657b03fbdba8","6657932943f15a792728428f","718","stimuli/2101100.jpg","2","","prediction_trial","0","","false","","2","true","true","false","false","false","false","[0,2]","101","100","0","","","","","","",""
"","","","","","image-keyboard-response","269","590245","0.0-244.0","651c2cc23704dc10500ae77c","665500ab8938657b03fbdba8","6657932943f15a792728428f","461","stimuli/21011000.jpg"," ","","feedback_trial","0","","","","","","","","","","","","","","","","","","","","",""
"","","","","","image-keyboard-response","270","591360","0.0-245.0","651c2cc23704dc10500ae77c","665500ab8938657b03fbdba8","6657932943f15a792728428f","1110","stimuli/1110111.jpg","2","","prediction_trial","1","","false","","1","false","false","false","false","false","false","[1,0]","110","111","0","","","","","","",""
"","","","","","image-keyboard-response","271","591918","0.0-246.0","651c2cc23704dc10500ae77c","665500ab8938657b03fbdba8","6657932943f15a792728428f","553","stimuli/11101111.jpg"," ","","feedback_trial","1","","","","","","","","","","","","","","","","","","","","",""
"","","","","","image-keyboard-response","272","593278","0.0-247.0","651c2cc23704dc10500ae77c","665500ab8938657b03fbdba8","6657932943f15a792728428f","1356","stimuli/2010000.jpg","2","","prediction_trial","2","","true","","2","true","true","true","true","true","true","[2]","010","000","1","","","","","","",""
"","","","","","image-keyboard-response","273","593663","0.0-248.0","651c2cc23704dc10500ae77c","665500ab8938657b03fbdba8","6657932943f15a792728428f","380","stimuli/20100002.jpg"," ","","feedback_trial","2","","","","","","","","","","","","","","","","","","","","",""
"","","","","","image-keyboard-response","274","595219","0.0-249.0","651c2cc23704dc10500ae77c","665500ab8938657b03fbdba8","6657932943f15a792728428f","1552","stimuli/0011011.jpg","0","","prediction_trial","0","","true","","0","true","true","true","true","true","true","[0]","011","011","1","","","","","","",""
"","","","","","image-keyboard-response","275","595814","0.0-250.0","651c2cc23704dc10500ae77c","665500ab8938657b03fbdba8","6657932943f15a792728428f","590","stimuli/00110110.jpg"," ","","feedback_trial","0","","","","","","","","","","","","","","","","","","","","",""
"","","","","","image-keyboard-response","276","597123","0.0-251.0","651c2cc23704dc10500ae77c","665500ab8938657b03fbdba8","6657932943f15a792728428f","1305","stimuli/2110110.jpg","2","","prediction_trial","2","","true","","2","true","true","true","true","true","true","[2]","110","110","1","","","","","","",""
"","","","","","image-keyboard-response","277","597488","0.0-252.0","651c2cc23704dc10500ae77c","665500ab8938657b03fbdba8","6657932943f15a792728428f","360","stimuli/21101102.jpg"," ","","feedback_trial","2","","","","","","","","","","","","","","","","","","","","",""
"","","","","","image-keyboard-response","278","599009","0.0-253.0","651c2cc23704dc10500ae77c","665500ab8938657b03fbdba8","6657932943f15a792728428f","1516","stimuli/2001100.jpg","2","","prediction_trial","2","","true","","2","true","true","false","true","false","true","[2]","001","100","1","","","","","","",""
"","","","","","image-keyboard-response","279","599371","0.0-254.0","651c2cc23704dc10500ae77c","665500ab8938657b03fbdba8","6657932943f15a792728428f","357","stimuli/20011002.jpg"," ","","feedback_trial","2","","","","","","","","","","","","","","","","","","","","",""
"","","","","","image-keyboard-response","280","601162","0.0-255.0","651c2cc23704dc10500ae77c","665500ab8938657b03fbdba8","6657932943f15a792728428f","1786","stimuli/1011111.jpg","2","","prediction_trial","2","","true","","1","false","false","false","false","false","false","[1,2]","011","111","1","","","","","","",""
"","","","","","image-keyboard-response","281","602196","0.0-256.0","651c2cc23704dc10500ae77c","665500ab8938657b03fbdba8","6657932943f15a792728428f","1028","stimuli/10111112.jpg"," ","","feedback_trial","1","","","","","","","","","","","","","","","","","","","","",""
"","","","","","image-keyboard-response","282","604652","0.0-257.0","651c2cc23704dc10500ae77c","665500ab8938657b03fbdba8","6657932943f15a792728428f","2451","stimuli/0110111.jpg","1","","prediction_trial","1","","true","","0","false","false","false","false","false","false","[1,0]","110","111","1","","","","","","",""
"","","","","","image-keyboard-response","283","605189","0.0-258.0","651c2cc23704dc10500ae77c","665500ab8938657b03fbdba8","6657932943f15a792728428f","532","stimuli/01101111.jpg"," ","","feedback_trial","1","","","","","","","","","","","","","","","","","","","","",""
"","","","","","image-keyboard-response","284","606341","0.0-259.0","651c2cc23704dc10500ae77c","665500ab8938657b03fbdba8","6657932943f15a792728428f","1148","stimuli/0101010.jpg","0","","prediction_trial","2","","false","","0","true","true","false","false","false","false","[2,0]","101","010","0","","","","","","",""
"","","","","","image-keyboard-response","285","606617","0.0-260.0","651c2cc23704dc10500ae77c","665500ab8938657b03fbdba8","6657932943f15a792728428f","271","stimuli/01010102.jpg"," ","","feedback_trial","2","","","","","","","","","","","","","","","","","","","","",""
"","","","","","image-keyboard-response","286","607373","0.0-261.0","651c2cc23704dc10500ae77c","665500ab8938657b03fbdba8","6657932943f15a792728428f","752","stimuli/2001110.jpg","1","","prediction_trial","2","","false","","2","true","true","false","true","false","true","[2]","001","110","0","","","","","","",""
"","","","","","image-keyboard-response","287","608009","0.0-262.0","651c2cc23704dc10500ae77c","665500ab8938657b03fbdba8","6657932943f15a792728428f","631","stimuli/20011102.jpg"," ","","feedback_trial","2","","","","","","","","","","","","","","","","","","","","",""
"","","","","","image-keyboard-response","288","609477","0.0-263.0","651c2cc23704dc10500ae77c","665500ab8938657b03fbdba8","6657932943f15a792728428f","1463","stimuli/2001010.jpg","1","","prediction_trial","2","","false","","2","true","true","false","true","false","true","[2]","001","010","0","","","","","","",""
"","","","","","image-keyboard-response","289","610223","0.0-264.0","651c2cc23704dc10500ae77c","665500ab8938657b03fbdba8","6657932943f15a792728428f","742","stimuli/20010102.jpg"," ","","feedback_trial","2","","","","","","","","","","","","","","","","","","","","",""
"","","","","","image-keyboard-response","290","612389","0.0-265.0","651c2cc23704dc10500ae77c","665500ab8938657b03fbdba8","6657932943f15a792728428f","2161","stimuli/2100010.jpg","2","","prediction_trial","2","","true","","2","true","true","true","true","true","true","[2]","100","010","1","","","","","","",""
"","","","","","image-keyboard-response","291","612700","0.0-266.0","651c2cc23704dc10500ae77c","665500ab8938657b03fbdba8","6657932943f15a792728428f","307","stimuli/21000102.jpg"," ","","feedback_trial","2","","","","","","","","","","","","","","","","","","","","",""
"","","","","","image-keyboard-response","292","614234","0.0-267.0","651c2cc23704dc10500ae77c","665500ab8938657b03fbdba8","6657932943f15a792728428f","1538","stimuli/0100011.jpg","0","","prediction_trial","0","","true","","0","true","true","false","true","false","true","[0]","100","011","1","","","","","","",""
"","","","","","image-keyboard-response","293","614615","0.0-268.0","651c2cc23704dc10500ae77c","665500ab8938657b03fbdba8","6657932943f15a792728428f","375","stimuli/01000110.jpg"," ","","feedback_trial","0","","","","","","","","","","","","","","","","","","","","",""
"","","","","","image-keyboard-response","294","615803","0.0-269.0","651c2cc23704dc10500ae77c","665500ab8938657b03fbdba8","6657932943f15a792728428f","1184","stimuli/2100000.jpg","2","","prediction_trial","2","","true","","2","true","true","true","true","true","true","[2]","100","000","1","","","","","","",""
"","","","","","image-keyboard-response","295","616227","0.0-270.0","651c2cc23704dc10500ae77c","665500ab8938657b03fbdba8","6657932943f15a792728428f","419","stimuli/21000002.jpg"," ","","feedback_trial","2","","","","","","","","","","","","","","","","","","","","",""
"","","","","","image-keyboard-response","296","617469","0.0-271.0","651c2cc23704dc10500ae77c","665500ab8938657b03fbdba8","6657932943f15a792728428f","1238","stimuli/1010101.jpg","1","","prediction_trial","1","","true","","1","true","true","false","true","false","true","[1]","010","101","1","","","","","","",""
"","","","","","image-keyboard-response","297","617978","0.0-272.0","651c2cc23704dc10500ae77c","665500ab8938657b03fbdba8","6657932943f15a792728428f","503","stimuli/10101011.jpg"," ","","feedback_trial","1","","","","","","","","","","","","","","","","","","","","",""
"","","","","","image-keyboard-response","298","619602","0.0-273.0","651c2cc23704dc10500ae77c","665500ab8938657b03fbdba8","6657932943f15a792728428f","1617","stimuli/2101111.jpg","2","","prediction_trial","2","","true","","2","false","false","false","false","false","false","[2,0]","101","111","1","","","","","","",""
"","","","","","image-keyboard-response","299","619998","0.0-274.0","651c2cc23704dc10500ae77c","665500ab8938657b03fbdba8","6657932943f15a792728428f","390","stimuli/21011112.jpg"," ","","feedback_trial","2","","","","","","","","","","","","","","","","","","","","",""
"","","","","","image-keyboard-response","300","621785","0.0-275.0","651c2cc23704dc10500ae77c","665500ab8938657b03fbdba8","6657932943f15a792728428f","1782","stimuli/0100000.jpg","0","","prediction_trial","0","","true","","0","true","true","false","true","false","true","[0]","100","000","1","","","","","","",""
"","","","","","image-keyboard-response","301","622240","0.0-276.0","651c2cc23704dc10500ae77c","665500ab8938657b03fbdba8","6657932943f15a792728428f","450","stimuli/01000000.jpg"," ","","feedback_trial","0","","","","","","","","","","","","","","","","","","","","",""
"","","","","","image-keyboard-response","302","623738","0.0-277.0","651c2cc23704dc10500ae77c","665500ab8938657b03fbdba8","6657932943f15a792728428f","1492","stimuli/1110000.jpg","1","","prediction_trial","1","","true","","1","true","true","false","false","false","false","[1,0]","110","000","1","","","","","","",""
"","","","","","image-keyboard-response","303","624220","0.0-278.0","651c2cc23704dc10500ae77c","665500ab8938657b03fbdba8","6657932943f15a792728428f","478","stimuli/11100001.jpg"," ","","feedback_trial","1","","","","","","","","","","","","","","","","","","","","",""
"","","","","","image-keyboard-response","304","626310","0.0-279.0","651c2cc23704dc10500ae77c","665500ab8938657b03fbdba8","6657932943f15a792728428f","2085","stimuli/0111010.jpg","0","","prediction_trial","2","","false","","0","true","true","false","false","false","false","[1,0,2]","111","010","0","","","","","","",""
"","","","","","image-keyboard-response","305","626657","0.0-280.0","651c2cc23704dc10500ae77c","665500ab8938657b03fbdba8","6657932943f15a792728428f","342","stimuli/01110102.jpg"," ","","feedback_trial","1","","","","","","","","","","","","","","","","","","","","",""
"","","","","","image-keyboard-response","306","627928","0.0-281.0","651c2cc23704dc10500ae77c","665500ab8938657b03fbdba8","6657932943f15a792728428f","1266","stimuli/2111111.jpg","1","","prediction_trial","1","","true","","2","false","false","false","false","false","false","[0,2,1]","111","111","1","","","","","","",""
"","","","","","image-keyboard-response","307","628666","0.0-282.0","651c2cc23704dc10500ae77c","665500ab8938657b03fbdba8","6657932943f15a792728428f","733","stimuli/21111111.jpg"," ","","feedback_trial","0","","","","","","","","","","","","","","","","","","","","",""
"","","","","","image-keyboard-response","308","629923","0.0-283.0","651c2cc23704dc10500ae77c","665500ab8938657b03fbdba8","6657932943f15a792728428f","1252","stimuli/0110001.jpg","0","","prediction_trial","0","","true","","0","true","true","false","false","false","false","[1,0]","110","001","1","","","","","","",""
"","","","","","image-keyboard-response","309","630275","0.0-284.0","651c2cc23704dc10500ae77c","665500ab8938657b03fbdba8","6657932943f15a792728428f","347","stimuli/01100010.jpg"," ","","feedback_trial","1","","","","","","","","","","","","","","","","","","","","",""
"","","","","","image-keyboard-response","310","633105","0.0-285.0","651c2cc23704dc10500ae77c","665500ab8938657b03fbdba8","6657932943f15a792728428f","2825","stimuli/0011100.jpg","0","","prediction_trial","0","","true","","0","false","true","true","true","false","true","[0]","011","100","1","","","","","","",""
"","","","","","image-keyboard-response","311","633454","0.0-286.0","651c2cc23704dc10500ae77c","665500ab8938657b03fbdba8","6657932943f15a792728428f","345","stimuli/00111000.jpg"," ","","feedback_trial","0","","","","","","","","","","","","","","","","","","","","",""
"","","","","","image-keyboard-response","312","634878","0.0-287.0","651c2cc23704dc10500ae77c","665500ab8938657b03fbdba8","6657932943f15a792728428f","1420","stimuli/1111101.jpg","0","","prediction_trial","2","","false","","1","true","true","false","false","false","false","[2,1,0]","111","101","0","","","","","","",""
"","","","","","image-keyboard-response","313","635304","0.0-288.0","651c2cc23704dc10500ae77c","665500ab8938657b03fbdba8","6657932943f15a792728428f","421","stimuli/11111012.jpg"," ","","feedback_trial","2","","","","","","","","","","","","","","","","","","","","",""
"","","","","","image-keyboard-response","314","637896","0.0-289.0","651c2cc23704dc10500ae77c","665500ab8938657b03fbdba8","6657932943f15a792728428f","2587","stimuli/2000100.jpg","2","","prediction_trial","2","","true","","2","true","true","true","true","true","true","[2]","000","100","1","","","","","","",""
"","","","","","image-keyboard-response","315","638331","0.0-290.0","651c2cc23704dc10500ae77c","665500ab8938657b03fbdba8","6657932943f15a792728428f","429","stimuli/20001002.jpg"," ","","feedback_trial","2","","","","","","","","","","","","","","","","","","","","",""
"","","","","","image-keyboard-response","316","639926","0.0-291.0","651c2cc23704dc10500ae77c","665500ab8938657b03fbdba8","6657932943f15a792728428f","1589","stimuli/2101010.jpg","2","","prediction_trial","0","","false","","2","true","true","false","false","false","false","[0,2]","101","010","0","","","","","","",""
"","","","","","image-keyboard-response","317","640159","0.0-292.0","651c2cc23704dc10500ae77c","665500ab8938657b03fbdba8","6657932943f15a792728428f","228","stimuli/21010100.jpg"," ","","feedback_trial","0","","","","","","","","","","","","","","","","","","","","",""
"","","","","","survey-html-form","318","676036","0.0-293.0","651c2cc23704dc10500ae77c","665500ab8938657b03fbdba8","6657932943f15a792728428f","35781","","{""feedback"":"""",""age"":""70"",""gender"":""Female"",""other_gender"":"""",""race"":""White"",""other_race"":"""",""ethnicity"":""Non-Hispanic""}","","exit_survey","","","","","","","","","","","","","","","","","70","Non-Hispanic","Female","White","0.6180555555555556","0.6180555555555556"
