"success","timeout","failed_images","failed_audio","failed_video","trial_type","trial_index","time_elapsed","internal_node_id","prolific_id","prolific_study_id","prolific_session_id","rt","stimulus","response","view_history","trial","character_choice","stimulus_dict","accuracy","correct_response","ball_pos","ego_ball_visible","ego_can_infer","alter_ball_visible","alter_can_infer","collective_ball_visible","collective_can_infer","search_locations","alter_occluders","ego_occluders","accuracy_bool","feedback","age","ethnicity","gender","race","overall_accuracy","bonus"
"true","false","[]","[]","[]","preload","0","8701","0.0-0.0","63daca8ae542ff8f19d3099a","665500ab8938657b03fbdba8","6657935af0ec5f5cada7f2c1","","","","","","","","","","","","","","","","","","","","","","","","","","",""
"true","","","","","fullscreen","1","19750","0.0-1.0","63daca8ae542ff8f19d3099a","665500ab8938657b03fbdba8","6657935af0ec5f5cada7f2c1","","","","","","","","","","","","","","","","","","","","","","","","","","",""
"","","","","","html-button-response","2","27907","0.0-2.0","63daca8ae542ff8f19d3099a","665500ab8938657b03fbdba8","6657935af0ec5f5cada7f2c1","8156","<p><b>Consent Form</b></p> <div style=""text-align:left;background-color:lightgrey; padding:20px; max-width:900px;""><p>Please consider this information carefully before deciding whether to participate in this research.</p> <p>The purpose of this research is to examine which factors influence social judgment and decision-making. You will be asked to make judgements about individuals and actions in social scenarios. We are simply interested in your judgement. The study will take less than 1 hour to complete, and you will receive less than $20 on Prolific. Your compensation and time commitment are specified in the study description. There are no anticipated risks associated with participating in this study. The effects of participating should be comparable to those you would ordinarily experience from viewing a computer monitor and using a mouse or keyboard for a similar amount of time. At the end of the study, we will provide an explanation of the questions that motivate this line of research and will describe the potential implications. </p><p> Your participation in this study is completely voluntary and you may refuse to participate or you may choose to withdraw at any time without penalty or loss of benefits to you which are otherwise entitled. Your participation in this study will remain confidential. No personally identifiable information will be associated with your data. Also, all analyses of the data will be averaged across all the participants, so your individual responses will never be specifically analyzed. </p><p> If you have questions or concerns about your participation or payment, or want to request a summary of research findings, please contact Dr. Jonathan Phillips at Jonathan.S.Phillips@dartmouth.edu. </p><p> Please save a copy of this form for your records. </p><p><b>Agreement: </b>The nature and purpose of this research have been sufficiently explained and I agree to participate in this study. I understand that I am free to withdraw at any time without incurring any penalty. Please consent by clicking the button below to continue. Otherwise, please exit the study at any time. </p>","0","","","","","","","","","","","","","","","","","","","","","","","",""
"","","","","","instructions","3","243310","0.0-3.0-0.0","63daca8ae542ff8f19d3099a","665500ab8938657b03fbdba8","6657935af0ec5f5cada7f2c1","215401","","","[{""page_index"":0,""viewing_time"":2517},{""page_index"":1,""viewing_time"":8254},{""page_index"":2,""viewing_time"":2775},{""page_index"":3,""viewing_time"":111013},{""page_index"":4,""viewing_time"":5076},{""page_index"":5,""viewing_time"":2469},{""page_index"":6,""viewing_time"":4078},{""page_index"":7,""viewing_time"":6441},{""page_index"":8,""viewing_time"":7119},{""page_index"":9,""viewing_time"":5867},{""page_index"":10,""viewing_time"":32943},{""page_index"":11,""viewing_time"":13657},{""page_index"":12,""viewing_time"":11449},{""page_index"":13,""viewing_time"":1743}]","intro","","","","","","","","","","","","","","","","","","","","","",""
"","","","","","image-keyboard-response","4","249397","0.0-3.0-1.0","63daca8ae542ff8f19d3099a","665500ab8938657b03fbdba8","6657935af0ec5f5cada7f2c1","6083","stimuli/0101010.jpg","1","","prediction_practice","2","{""filepath"":""stimuli/0101010.jpg"",""ball_pos"":0,""ego_ball_visible"":true,""ego_can_infer"":true,""alter_ball_visible"":false,""alter_can_infer"":false,""collective_ball_visible"":false,""collective_can_infer"":false,""search_locations"":[2,0],""alter_occluders"":""101"",""ego_occluders"":""010""}","false","","","","","","","","","","","","","","","","","","",""
"","","","","","image-keyboard-response","5","253834","0.0-3.0-2.0","63daca8ae542ff8f19d3099a","665500ab8938657b03fbdba8","6657935af0ec5f5cada7f2c1","4436","stimuli/01010102.jpg"," ","","practrice_feedback","2","","","","","","","","","","","","","","","","","","","","",""
"","","","","","image-keyboard-response","6","259111","0.0-3.0-3.0","63daca8ae542ff8f19d3099a","665500ab8938657b03fbdba8","6657935af0ec5f5cada7f2c1","5276","stimuli/0011001.jpg","2","","prediction_practice","0","{""filepath"":""stimuli/0011001.jpg"",""ball_pos"":0,""ego_ball_visible"":true,""ego_can_infer"":true,""alter_ball_visible"":true,""alter_can_infer"":true,""collective_ball_visible"":true,""collective_can_infer"":true,""search_locations"":[0],""alter_occluders"":""011"",""ego_occluders"":""001""}","false","","","","","","","","","","","","","","","","","","",""
"","","","","","image-keyboard-response","7","260878","0.0-3.0-4.0","63daca8ae542ff8f19d3099a","665500ab8938657b03fbdba8","6657935af0ec5f5cada7f2c1","1765","stimuli/00110010.jpg"," ","","practrice_feedback","0","","","","","","","","","","","","","","","","","","","","",""
"","","","","","image-keyboard-response","8","264873","0.0-3.0-5.0","63daca8ae542ff8f19d3099a","665500ab8938657b03fbdba8","6657935af0ec5f5cada7f2c1","3987","stimuli/2101000.jpg","1","","prediction_practice","2","{""filepath"":""stimuli/2101000.jpg"",""ball_pos"":2,""ego_ball_visible"":true,""ego_can_infer"":true,""alter_ball_visible"":false,""alter_can_infer"":false,""collective_ball_visible"":false,""collective_can_infer"":false,""search_locations"":[0,2],""alter_occluders"":""101"",""ego_occluders"":""000""}","false","","","","","","","","","","","","","","","","","","",""
"","","","","","image-keyboard-response","9","267905","0.0-3.0-6.0","63daca8ae542ff8f19d3099a","665500ab8938657b03fbdba8","6657935af0ec5f5cada7f2c1","3031","stimuli/21010002.jpg"," ","","practrice_feedback","0","","","","","","","","","","","","","","","","","","","","",""
"","","","","","image-keyboard-response","10","269726","0.0-3.0-7.0","63daca8ae542ff8f19d3099a","665500ab8938657b03fbdba8","6657935af0ec5f5cada7f2c1","1820","stimuli/1111000.jpg","1","","prediction_practice","0","{""filepath"":""stimuli/1111000.jpg"",""ball_pos"":1,""ego_ball_visible"":true,""ego_can_infer"":true,""alter_ball_visible"":false,""alter_can_infer"":false,""collective_ball_visible"":false,""collective_can_infer"":false,""search_locations"":[2,0,1],""alter_occluders"":""111"",""ego_occluders"":""000""}","false","","","","","","","","","","","","","","","","","","",""
"","","","","","image-keyboard-response","11","271834","0.0-3.0-8.0","63daca8ae542ff8f19d3099a","665500ab8938657b03fbdba8","6657935af0ec5f5cada7f2c1","2107","stimuli/11110000.jpg"," ","","practrice_feedback","2","","","","","","","","","","","","","","","","","","","","",""
"","","","","","image-keyboard-response","12","273831","0.0-3.0-9.0","63daca8ae542ff8f19d3099a","665500ab8938657b03fbdba8","6657935af0ec5f5cada7f2c1","1997","stimuli/2110000.jpg","0","","prediction_practice","2","{""filepath"":""stimuli/2110000.jpg"",""ball_pos"":2,""ego_ball_visible"":true,""ego_can_infer"":true,""alter_ball_visible"":true,""alter_can_infer"":true,""collective_ball_visible"":true,""collective_can_infer"":true,""search_locations"":[2],""alter_occluders"":""110"",""ego_occluders"":""000""}","false","","","","","","","","","","","","","","","","","","",""
"","","","","","image-keyboard-response","13","274888","0.0-3.0-10.0","63daca8ae542ff8f19d3099a","665500ab8938657b03fbdba8","6657935af0ec5f5cada7f2c1","1056","stimuli/21100002.jpg"," ","","practrice_feedback","2","","","","","","","","","","","","","","","","","","","","",""
"","","","","","image-keyboard-response","14","277403","0.0-3.0-11.0","63daca8ae542ff8f19d3099a","665500ab8938657b03fbdba8","6657935af0ec5f5cada7f2c1","2526","stimuli/2110101.jpg","1","","prediction_practice","2","{""filepath"":""stimuli/2110101.jpg"",""ball_pos"":2,""ego_ball_visible"":false,""ego_can_infer"":false,""alter_ball_visible"":true,""alter_can_infer"":true,""collective_ball_visible"":false,""collective_can_infer"":false,""search_locations"":[2],""alter_occluders"":""110"",""ego_occluders"":""101""}","false","","","","","","","","","","","","","","","","","","",""
"","","","","","image-keyboard-response","15","278388","0.0-3.0-12.0","63daca8ae542ff8f19d3099a","665500ab8938657b03fbdba8","6657935af0ec5f5cada7f2c1","983","stimuli/21101012.jpg"," ","","practrice_feedback","2","","","","","","","","","","","","","","","","","","","","",""
"","","","","","image-keyboard-response","16","280007","0.0-3.0-13.0","63daca8ae542ff8f19d3099a","665500ab8938657b03fbdba8","6657935af0ec5f5cada7f2c1","1618","stimuli/0001111.jpg","2","","prediction_practice","0","{""filepath"":""stimuli/0001111.jpg"",""ball_pos"":0,""ego_ball_visible"":false,""ego_can_infer"":false,""alter_ball_visible"":true,""alter_can_infer"":true,""collective_ball_visible"":false,""collective_can_infer"":false,""search_locations"":[0],""alter_occluders"":""001"",""ego_occluders"":""111""}","false","","","","","","","","","","","","","","","","","","",""
"","","","","","image-keyboard-response","17","280783","0.0-3.0-14.0","63daca8ae542ff8f19d3099a","665500ab8938657b03fbdba8","6657935af0ec5f5cada7f2c1","775","stimuli/00011110.jpg"," ","","practrice_feedback","0","","","","","","","","","","","","","","","","","","","","",""
"","","","","","image-keyboard-response","18","286549","0.0-3.0-15.0","63daca8ae542ff8f19d3099a","665500ab8938657b03fbdba8","6657935af0ec5f5cada7f2c1","5764","stimuli/0110001.jpg","2","","prediction_practice","0","{""filepath"":""stimuli/0110001.jpg"",""ball_pos"":0,""ego_ball_visible"":true,""ego_can_infer"":true,""alter_ball_visible"":false,""alter_can_infer"":false,""collective_ball_visible"":false,""collective_can_infer"":false,""search_locations"":[1,0],""alter_occluders"":""110"",""ego_occluders"":""001""}","false","","","","","","","","","","","","","","","","","","",""
"","","","","","image-keyboard-response","19","287360","0.0-3.0-16.0","63daca8ae542ff8f19d3099a","665500ab8938657b03fbdba8","6657935af0ec5f5cada7f2c1","810","stimuli/01100010.jpg"," ","","practrice_feedback","1","","","","","","","","","","","","","","","","","","","","",""
"","","","","","image-keyboard-response","20","288313","0.0-3.0-17.0","63daca8ae542ff8f19d3099a","665500ab8938657b03fbdba8","6657935af0ec5f5cada7f2c1","952","stimuli/0011110.jpg","2","","prediction_practice","0","{""filepath"":""stimuli/0011110.jpg"",""ball_pos"":0,""ego_ball_visible"":false,""ego_can_infer"":false,""alter_ball_visible"":true,""alter_can_infer"":true,""collective_ball_visible"":false,""collective_can_infer"":false,""search_locations"":[0],""alter_occluders"":""011"",""ego_occluders"":""110""}","false","","","","","","","","","","","","","","","","","","",""
"","","","","","image-keyboard-response","21","288961","0.0-3.0-18.0","63daca8ae542ff8f19d3099a","665500ab8938657b03fbdba8","6657935af0ec5f5cada7f2c1","647","stimuli/00111100.jpg"," ","","practrice_feedback","0","","","","","","","","","","","","","","","","","","","","",""
"","","","","","image-keyboard-response","22","289664","0.0-3.0-19.0","63daca8ae542ff8f19d3099a","665500ab8938657b03fbdba8","6657935af0ec5f5cada7f2c1","702","stimuli/2001010.jpg","2","","prediction_practice","2","{""filepath"":""stimuli/2001010.jpg"",""ball_pos"":2,""ego_ball_visible"":true,""ego_can_infer"":true,""alter_ball_visible"":false,""alter_can_infer"":true,""collective_ball_visible"":false,""collective_can_infer"":true,""search_locations"":[2],""alter_occluders"":""001"",""ego_occluders"":""010""}","true","","","","","","","","","","","","","","","","","","",""
"","","","","","image-keyboard-response","23","292356","0.0-3.0-20.0","63daca8ae542ff8f19d3099a","665500ab8938657b03fbdba8","6657935af0ec5f5cada7f2c1","2690","stimuli/20010102.jpg"," ","","practrice_feedback","2","","","","","","","","","","","","","","","","","","","","",""
"","","","","","html-button-response","24","304298","0.0-3.0-21.0","63daca8ae542ff8f19d3099a","665500ab8938657b03fbdba8","6657935af0ec5f5cada7f2c1","11940","Now that you've had some practice, you'll be tested with a couple of easy trials. If you correctly predict Sam's choice, you'll move on to complete the experiment!","0","","","","","","","","","","","","","","","","","","","","","","","",""
"","","","","","image-keyboard-response","25","309769","0.0-3.0-22.0-0.0","63daca8ae542ff8f19d3099a","665500ab8938657b03fbdba8","6657935af0ec5f5cada7f2c1","5470","stimuli/0000011.jpg","arrowdown","","comprehension_quiz","","","false","arrowleft","","","","","","","","","","","","","","","","","",""
"","","","","","image-keyboard-response","26","311007","0.0-3.0-22.0-1.0","63daca8ae542ff8f19d3099a","665500ab8938657b03fbdba8","6657935af0ec5f5cada7f2c1","1236","stimuli/00000110.jpg"," ","","comprehension_quiz","","","true"," ","","","","","","","","","","","","","","","","","",""
"","","","","","image-keyboard-response","27","314331","0.0-3.0-22.0-2.0","63daca8ae542ff8f19d3099a","665500ab8938657b03fbdba8","6657935af0ec5f5cada7f2c1","3314","stimuli/1010010.jpg","arrowdown","","comprehension_quiz","","","true","arrowdown","","","","","","","","","","","","","","","","","",""
"","","","","","image-keyboard-response","28","316071","0.0-3.0-22.0-3.0","63daca8ae542ff8f19d3099a","665500ab8938657b03fbdba8","6657935af0ec5f5cada7f2c1","1738","stimuli/10100101.jpg"," ","","comprehension_quiz","","","true"," ","","","","","","","","","","","","","","","","","",""
"","","","","","html-button-response","29","322698","0.0-3.0-23.0-0.0","63daca8ae542ff8f19d3099a","665500ab8938657b03fbdba8","6657935af0ec5f5cada7f2c1","6625","<p> Oops! You have answered one or more questions incorrectly.</p><p> Please Review the instructions again before continuing with the experiment </p>","0","","fail_message","","","false","","","","","","","","","","","","","","","","","","",""
"","","","","","instructions","30","405892","0.0-3.1-0.1","63daca8ae542ff8f19d3099a","665500ab8938657b03fbdba8","6657935af0ec5f5cada7f2c1","83180","","","[{""page_index"":0,""viewing_time"":2449},{""page_index"":1,""viewing_time"":3042},{""page_index"":2,""viewing_time"":1762},{""page_index"":3,""viewing_time"":3861},{""page_index"":4,""viewing_time"":27208},{""page_index"":5,""viewing_time"":4628},{""page_index"":6,""viewing_time"":6717},{""page_index"":7,""viewing_time"":6200},{""page_index"":8,""viewing_time"":3863},{""page_index"":9,""viewing_time"":4006},{""page_index"":10,""viewing_time"":8097},{""page_index"":11,""viewing_time"":6550},{""page_index"":12,""viewing_time"":2974},{""page_index"":13,""viewing_time"":1823}]","intro","","","","","","","","","","","","","","","","","","","","","",""
"","","","","","image-keyboard-response","31","412465","0.0-3.1-1.1","63daca8ae542ff8f19d3099a","665500ab8938657b03fbdba8","6657935af0ec5f5cada7f2c1","6572","stimuli/0101010.jpg","0","","prediction_practice","2","{""filepath"":""stimuli/0101010.jpg"",""ball_pos"":0,""ego_ball_visible"":true,""ego_can_infer"":true,""alter_ball_visible"":false,""alter_can_infer"":false,""collective_ball_visible"":false,""collective_can_infer"":false,""search_locations"":[2,0],""alter_occluders"":""101"",""ego_occluders"":""010""}","false","","","","","","","","","","","","","","","","","","",""
"","","","","","image-keyboard-response","32","414760","0.0-3.1-2.1","63daca8ae542ff8f19d3099a","665500ab8938657b03fbdba8","6657935af0ec5f5cada7f2c1","2293","stimuli/01010102.jpg"," ","","practrice_feedback","2","","","","","","","","","","","","","","","","","","","","",""
"","","","","","image-keyboard-response","33","418217","0.0-3.1-3.1","63daca8ae542ff8f19d3099a","665500ab8938657b03fbdba8","6657935af0ec5f5cada7f2c1","3455","stimuli/0011001.jpg","0","","prediction_practice","0","{""filepath"":""stimuli/0011001.jpg"",""ball_pos"":0,""ego_ball_visible"":true,""ego_can_infer"":true,""alter_ball_visible"":true,""alter_can_infer"":true,""collective_ball_visible"":true,""collective_can_infer"":true,""search_locations"":[0],""alter_occluders"":""011"",""ego_occluders"":""001""}","true","","","","","","","","","","","","","","","","","","",""
"","","","","","image-keyboard-response","34","419151","0.0-3.1-4.1","63daca8ae542ff8f19d3099a","665500ab8938657b03fbdba8","6657935af0ec5f5cada7f2c1","934","stimuli/00110010.jpg"," ","","practrice_feedback","0","","","","","","","","","","","","","","","","","","","","",""
"","","","","","image-keyboard-response","35","424128","0.0-3.1-5.1","63daca8ae542ff8f19d3099a","665500ab8938657b03fbdba8","6657935af0ec5f5cada7f2c1","4976","stimuli/2101000.jpg","1","","prediction_practice","2","{""filepath"":""stimuli/2101000.jpg"",""ball_pos"":2,""ego_ball_visible"":true,""ego_can_infer"":true,""alter_ball_visible"":false,""alter_can_infer"":false,""collective_ball_visible"":false,""collective_can_infer"":false,""search_locations"":[0,2],""alter_occluders"":""101"",""ego_occluders"":""000""}","false","","","","","","","","","","","","","","","","","","",""
"","","","","","image-keyboard-response","36","425053","0.0-3.1-6.1","63daca8ae542ff8f19d3099a","665500ab8938657b03fbdba8","6657935af0ec5f5cada7f2c1","914","stimuli/21010002.jpg"," ","","practrice_feedback","0","","","","","","","","","","","","","","","","","","","","",""
"","","","","","image-keyboard-response","37","426823","0.0-3.1-7.1","63daca8ae542ff8f19d3099a","665500ab8938657b03fbdba8","6657935af0ec5f5cada7f2c1","1768","stimuli/1111000.jpg","1","","prediction_practice","0","{""filepath"":""stimuli/1111000.jpg"",""ball_pos"":1,""ego_ball_visible"":true,""ego_can_infer"":true,""alter_ball_visible"":false,""alter_can_infer"":false,""collective_ball_visible"":false,""collective_can_infer"":false,""search_locations"":[2,0,1],""alter_occluders"":""111"",""ego_occluders"":""000""}","false","","","","","","","","","","","","","","","","","","",""
"","","","","","image-keyboard-response","38","427739","0.0-3.1-8.1","63daca8ae542ff8f19d3099a","665500ab8938657b03fbdba8","6657935af0ec5f5cada7f2c1","915","stimuli/11110000.jpg"," ","","practrice_feedback","2","","","","","","","","","","","","","","","","","","","","",""
"","","","","","image-keyboard-response","39","430374","0.0-3.1-9.1","63daca8ae542ff8f19d3099a","665500ab8938657b03fbdba8","6657935af0ec5f5cada7f2c1","2634","stimuli/2110000.jpg","2","","prediction_practice","2","{""filepath"":""stimuli/2110000.jpg"",""ball_pos"":2,""ego_ball_visible"":true,""ego_can_infer"":true,""alter_ball_visible"":true,""alter_can_infer"":true,""collective_ball_visible"":true,""collective_can_infer"":true,""search_locations"":[2],""alter_occluders"":""110"",""ego_occluders"":""000""}","true","","","","","","","","","","","","","","","","","","",""
"","","","","","image-keyboard-response","40","431522","0.0-3.1-10.1","63daca8ae542ff8f19d3099a","665500ab8938657b03fbdba8","6657935af0ec5f5cada7f2c1","1147","stimuli/21100002.jpg"," ","","practrice_feedback","2","","","","","","","","","","","","","","","","","","","","",""
"","","","","","image-keyboard-response","41","435176","0.0-3.1-11.1","63daca8ae542ff8f19d3099a","665500ab8938657b03fbdba8","6657935af0ec5f5cada7f2c1","3652","stimuli/2110101.jpg","1","","prediction_practice","2","{""filepath"":""stimuli/2110101.jpg"",""ball_pos"":2,""ego_ball_visible"":false,""ego_can_infer"":false,""alter_ball_visible"":true,""alter_can_infer"":true,""collective_ball_visible"":false,""collective_can_infer"":false,""search_locations"":[2],""alter_occluders"":""110"",""ego_occluders"":""101""}","false","","","","","","","","","","","","","","","","","","",""
"","","","","","image-keyboard-response","42","436414","0.0-3.1-12.1","63daca8ae542ff8f19d3099a","665500ab8938657b03fbdba8","6657935af0ec5f5cada7f2c1","1237","stimuli/21101012.jpg"," ","","practrice_feedback","2","","","","","","","","","","","","","","","","","","","","",""
"","","","","","image-keyboard-response","43","439207","0.0-3.1-13.1","63daca8ae542ff8f19d3099a","665500ab8938657b03fbdba8","6657935af0ec5f5cada7f2c1","2791","stimuli/0001111.jpg","1","","prediction_practice","0","{""filepath"":""stimuli/0001111.jpg"",""ball_pos"":0,""ego_ball_visible"":false,""ego_can_infer"":false,""alter_ball_visible"":true,""alter_can_infer"":true,""collective_ball_visible"":false,""collective_can_infer"":false,""search_locations"":[0],""alter_occluders"":""001"",""ego_occluders"":""111""}","false","","","","","","","","","","","","","","","","","","",""
"","","","","","image-keyboard-response","44","440572","0.0-3.1-14.1","63daca8ae542ff8f19d3099a","665500ab8938657b03fbdba8","6657935af0ec5f5cada7f2c1","1364","stimuli/00011110.jpg"," ","","practrice_feedback","0","","","","","","","","","","","","","","","","","","","","",""
"","","","","","image-keyboard-response","45","442165","0.0-3.1-15.1","63daca8ae542ff8f19d3099a","665500ab8938657b03fbdba8","6657935af0ec5f5cada7f2c1","1591","stimuli/0110001.jpg","1","","prediction_practice","0","{""filepath"":""stimuli/0110001.jpg"",""ball_pos"":0,""ego_ball_visible"":true,""ego_can_infer"":true,""alter_ball_visible"":false,""alter_can_infer"":false,""collective_ball_visible"":false,""collective_can_infer"":false,""search_locations"":[1,0],""alter_occluders"":""110"",""ego_occluders"":""001""}","false","","","","","","","","","","","","","","","","","","",""
"","","","","","image-keyboard-response","46","442874","0.0-3.1-16.1","63daca8ae542ff8f19d3099a","665500ab8938657b03fbdba8","6657935af0ec5f5cada7f2c1","708","stimuli/01100010.jpg"," ","","practrice_feedback","1","","","","","","","","","","","","","","","","","","","","",""
"","","","","","image-keyboard-response","47","446243","0.0-3.1-17.1","63daca8ae542ff8f19d3099a","665500ab8938657b03fbdba8","6657935af0ec5f5cada7f2c1","3367","stimuli/0011110.jpg","1","","prediction_practice","0","{""filepath"":""stimuli/0011110.jpg"",""ball_pos"":0,""ego_ball_visible"":false,""ego_can_infer"":false,""alter_ball_visible"":true,""alter_can_infer"":true,""collective_ball_visible"":false,""collective_can_infer"":false,""search_locations"":[0],""alter_occluders"":""011"",""ego_occluders"":""110""}","false","","","","","","","","","","","","","","","","","","",""
"","","","","","image-keyboard-response","48","447178","0.0-3.1-18.1","63daca8ae542ff8f19d3099a","665500ab8938657b03fbdba8","6657935af0ec5f5cada7f2c1","934","stimuli/00111100.jpg"," ","","practrice_feedback","0","","","","","","","","","","","","","","","","","","","","",""
"","","","","","image-keyboard-response","49","449623","0.0-3.1-19.1","63daca8ae542ff8f19d3099a","665500ab8938657b03fbdba8","6657935af0ec5f5cada7f2c1","2444","stimuli/2001010.jpg","2","","prediction_practice","2","{""filepath"":""stimuli/2001010.jpg"",""ball_pos"":2,""ego_ball_visible"":true,""ego_can_infer"":true,""alter_ball_visible"":false,""alter_can_infer"":true,""collective_ball_visible"":false,""collective_can_infer"":true,""search_locations"":[2],""alter_occluders"":""001"",""ego_occluders"":""010""}","true","","","","","","","","","","","","","","","","","","",""
"","","","","","image-keyboard-response","50","451898","0.0-3.1-20.1","63daca8ae542ff8f19d3099a","665500ab8938657b03fbdba8","6657935af0ec5f5cada7f2c1","2273","stimuli/20010102.jpg"," ","","practrice_feedback","2","","","","","","","","","","","","","","","","","","","","",""
"","","","","","html-button-response","51","454577","0.0-3.1-21.1","63daca8ae542ff8f19d3099a","665500ab8938657b03fbdba8","6657935af0ec5f5cada7f2c1","2678","Now that you've had some practice, you'll be tested with a couple of easy trials. If you correctly predict Sam's choice, you'll move on to complete the experiment!","0","","","","","","","","","","","","","","","","","","","","","","","",""
"","","","","","image-keyboard-response","52","456698","0.0-3.1-22.1-0.1","63daca8ae542ff8f19d3099a","665500ab8938657b03fbdba8","6657935af0ec5f5cada7f2c1","2120","stimuli/0000011.jpg","arrowleft","","comprehension_quiz","","","true","arrowleft","","","","","","","","","","","","","","","","","",""
"","","","","","image-keyboard-response","53","457596","0.0-3.1-22.1-1.1","63daca8ae542ff8f19d3099a","665500ab8938657b03fbdba8","6657935af0ec5f5cada7f2c1","896","stimuli/00000110.jpg"," ","","comprehension_quiz","","","true"," ","","","","","","","","","","","","","","","","","",""
"","","","","","image-keyboard-response","54","465120","0.0-3.1-22.1-2.1","63daca8ae542ff8f19d3099a","665500ab8938657b03fbdba8","6657935af0ec5f5cada7f2c1","7523","stimuli/1010010.jpg","arrowdown","","comprehension_quiz","","","true","arrowdown","","","","","","","","","","","","","","","","","",""
"","","","","","image-keyboard-response","55","466396","0.0-3.1-22.1-3.1","63daca8ae542ff8f19d3099a","665500ab8938657b03fbdba8","6657935af0ec5f5cada7f2c1","1274","stimuli/10100101.jpg"," ","","comprehension_quiz","","","true"," ","","","","","","","","","","","","","","","","","",""
"","","","","","html-button-response","56","468200","0.0-4.0","63daca8ae542ff8f19d3099a","665500ab8938657b03fbdba8","6657935af0ec5f5cada7f2c1","1803","The experiment will now begin.","0","","","","","","","","","","","","","","","","","","","","","","","",""
"","","","","","image-keyboard-response","57","469789","0.0-5.0","63daca8ae542ff8f19d3099a","665500ab8938657b03fbdba8","6657935af0ec5f5cada7f2c1","1587","stimuli/2111101.jpg","1","","prediction_trial","1","","true","","2","false","false","false","false","false","false","[1,0,2]","111","101","1","","","","","","",""
"","","","","","image-keyboard-response","58","471018","0.0-6.0","63daca8ae542ff8f19d3099a","665500ab8938657b03fbdba8","6657935af0ec5f5cada7f2c1","1227","stimuli/21111011.jpg"," ","","feedback_trial","1","","","","","","","","","","","","","","","","","","","","",""
"","","","","","image-keyboard-response","59","474983","0.0-7.0","63daca8ae542ff8f19d3099a","665500ab8938657b03fbdba8","6657935af0ec5f5cada7f2c1","3963","stimuli/2000111.jpg","1","","prediction_trial","2","","false","","2","false","false","true","true","false","false","[2]","000","111","0","","","","","","",""
"","","","","","image-keyboard-response","60","476049","0.0-8.0","63daca8ae542ff8f19d3099a","665500ab8938657b03fbdba8","6657935af0ec5f5cada7f2c1","1065","stimuli/20001112.jpg"," ","","feedback_trial","2","","","","","","","","","","","","","","","","","","","","",""
"","","","","","image-keyboard-response","61","481455","0.0-9.0","63daca8ae542ff8f19d3099a","665500ab8938657b03fbdba8","6657935af0ec5f5cada7f2c1","5405","stimuli/2010101.jpg","0","","prediction_trial","2","","false","","2","false","false","true","true","false","false","[2]","010","101","0","","","","","","",""
"","","","","","image-keyboard-response","62","482434","0.0-10.0","63daca8ae542ff8f19d3099a","665500ab8938657b03fbdba8","6657935af0ec5f5cada7f2c1","978","stimuli/20101012.jpg"," ","","feedback_trial","2","","","","","","","","","","","","","","","","","","","","",""
"","","","","","image-keyboard-response","63","484452","0.0-11.0","63daca8ae542ff8f19d3099a","665500ab8938657b03fbdba8","6657935af0ec5f5cada7f2c1","2017","stimuli/2110110.jpg","2","","prediction_trial","2","","true","","2","true","true","true","true","true","true","[2]","110","110","1","","","","","","",""
"","","","","","image-keyboard-response","64","485424","0.0-12.0","63daca8ae542ff8f19d3099a","665500ab8938657b03fbdba8","6657935af0ec5f5cada7f2c1","971","stimuli/21101102.jpg"," ","","feedback_trial","2","","","","","","","","","","","","","","","","","","","","",""
"","","","","","image-keyboard-response","65","488688","0.0-13.0","63daca8ae542ff8f19d3099a","665500ab8938657b03fbdba8","6657935af0ec5f5cada7f2c1","3257","stimuli/1011001.jpg","1","","prediction_trial","2","","false","","1","true","true","false","false","false","false","[1,2]","011","001","0","","","","","","",""
"","","","","","image-keyboard-response","66","489497","0.0-14.0","63daca8ae542ff8f19d3099a","665500ab8938657b03fbdba8","6657935af0ec5f5cada7f2c1","808","stimuli/10110012.jpg"," ","","feedback_trial","1","","","","","","","","","","","","","","","","","","","","",""
"","","","","","image-keyboard-response","67","491009","0.0-15.0","63daca8ae542ff8f19d3099a","665500ab8938657b03fbdba8","6657935af0ec5f5cada7f2c1","1510","stimuli/0111110.jpg","1","","prediction_trial","1","","true","","0","false","false","false","false","false","false","[0,1,2]","111","110","1","","","","","","",""
"","","","","","image-keyboard-response","68","491928","0.0-16.0","63daca8ae542ff8f19d3099a","665500ab8938657b03fbdba8","6657935af0ec5f5cada7f2c1","918","stimuli/01111101.jpg"," ","","feedback_trial","0","","","","","","","","","","","","","","","","","","","","",""
"","","","","","image-keyboard-response","69","493540","0.0-17.0","63daca8ae542ff8f19d3099a","665500ab8938657b03fbdba8","6657935af0ec5f5cada7f2c1","1611","stimuli/0000010.jpg","0","","prediction_trial","0","","true","","0","true","true","true","true","true","true","[0]","000","010","1","","","","","","",""
"","","","","","image-keyboard-response","70","494111","0.0-18.0","63daca8ae542ff8f19d3099a","665500ab8938657b03fbdba8","6657935af0ec5f5cada7f2c1","570","stimuli/00000100.jpg"," ","","feedback_trial","0","","","","","","","","","","","","","","","","","","","","",""
"","","","","","image-keyboard-response","71","495851","0.0-19.0","63daca8ae542ff8f19d3099a","665500ab8938657b03fbdba8","6657935af0ec5f5cada7f2c1","1739","stimuli/2011010.jpg","1","","prediction_trial","2","","false","","2","true","true","false","false","false","false","[1,2]","011","010","0","","","","","","",""
"","","","","","image-keyboard-response","72","496366","0.0-20.0","63daca8ae542ff8f19d3099a","665500ab8938657b03fbdba8","6657935af0ec5f5cada7f2c1","514","stimuli/20110102.jpg"," ","","feedback_trial","1","","","","","","","","","","","","","","","","","","","","",""
"","","","","","image-keyboard-response","73","501484","0.0-21.0","63daca8ae542ff8f19d3099a","665500ab8938657b03fbdba8","6657935af0ec5f5cada7f2c1","5117","stimuli/0001110.jpg","2","","prediction_trial","0","","false","","0","false","false","true","true","false","false","[0]","001","110","0","","","","","","",""
"","","","","","image-keyboard-response","74","502458","0.0-22.0","63daca8ae542ff8f19d3099a","665500ab8938657b03fbdba8","6657935af0ec5f5cada7f2c1","972","stimuli/00011100.jpg"," ","","feedback_trial","0","","","","","","","","","","","","","","","","","","","","",""
"","","","","","image-keyboard-response","75","504353","0.0-23.0","63daca8ae542ff8f19d3099a","665500ab8938657b03fbdba8","6657935af0ec5f5cada7f2c1","1894","stimuli/0011111.jpg","2","","prediction_trial","0","","false","","0","false","false","true","true","false","false","[0]","011","111","0","","","","","","",""
"","","","","","image-keyboard-response","76","505158","0.0-24.0","63daca8ae542ff8f19d3099a","665500ab8938657b03fbdba8","6657935af0ec5f5cada7f2c1","803","stimuli/00111110.jpg"," ","","feedback_trial","0","","","","","","","","","","","","","","","","","","","","",""
"","","","","","image-keyboard-response","77","506584","0.0-25.0","63daca8ae542ff8f19d3099a","665500ab8938657b03fbdba8","6657935af0ec5f5cada7f2c1","1425","stimuli/2110011.jpg","2","","prediction_trial","2","","true","","2","false","false","true","true","false","false","[2]","110","011","1","","","","","","",""
"","","","","","image-keyboard-response","78","507187","0.0-26.0","63daca8ae542ff8f19d3099a","665500ab8938657b03fbdba8","6657935af0ec5f5cada7f2c1","602","stimuli/21100112.jpg"," ","","feedback_trial","2","","","","","","","","","","","","","","","","","","","","",""
"","","","","","image-keyboard-response","79","513368","0.0-27.0","63daca8ae542ff8f19d3099a","665500ab8938657b03fbdba8","6657935af0ec5f5cada7f2c1","6180","stimuli/0100010.jpg","0","","prediction_trial","0","","true","","0","true","true","false","true","false","true","[0]","100","010","1","","","","","","",""
"","","","","","image-keyboard-response","80","513913","0.0-28.0","63daca8ae542ff8f19d3099a","665500ab8938657b03fbdba8","6657935af0ec5f5cada7f2c1","544","stimuli/01000100.jpg"," ","","feedback_trial","0","","","","","","","","","","","","","","","","","","","","",""
"","","","","","image-keyboard-response","81","517784","0.0-29.0","63daca8ae542ff8f19d3099a","665500ab8938657b03fbdba8","6657935af0ec5f5cada7f2c1","3870","stimuli/0101011.jpg","0","","prediction_trial","2","","false","","0","true","true","false","false","false","false","[2,0]","101","011","0","","","","","","",""
"","","","","","image-keyboard-response","82","518388","0.0-30.0","63daca8ae542ff8f19d3099a","665500ab8938657b03fbdba8","6657935af0ec5f5cada7f2c1","602","stimuli/01010112.jpg"," ","","feedback_trial","2","","","","","","","","","","","","","","","","","","","","",""
"","","","","","image-keyboard-response","83","519625","0.0-31.0","63daca8ae542ff8f19d3099a","665500ab8938657b03fbdba8","6657935af0ec5f5cada7f2c1","1235","stimuli/1111110.jpg","0","","prediction_trial","2","","false","","1","false","false","false","false","false","false","[2,1,0]","111","110","0","","","","","","",""
"","","","","","image-keyboard-response","84","520120","0.0-32.0","63daca8ae542ff8f19d3099a","665500ab8938657b03fbdba8","6657935af0ec5f5cada7f2c1","494","stimuli/11111102.jpg"," ","","feedback_trial","2","","","","","","","","","","","","","","","","","","","","",""
"","","","","","image-keyboard-response","85","521563","0.0-33.0","63daca8ae542ff8f19d3099a","665500ab8938657b03fbdba8","6657935af0ec5f5cada7f2c1","1441","stimuli/2111100.jpg","0","","prediction_trial","2","","false","","2","true","true","false","false","false","false","[2,0,1]","111","100","0","","","","","","",""
"","","","","","image-keyboard-response","86","522015","0.0-34.0","63daca8ae542ff8f19d3099a","665500ab8938657b03fbdba8","6657935af0ec5f5cada7f2c1","451","stimuli/21111002.jpg"," ","","feedback_trial","2","","","","","","","","","","","","","","","","","","","","",""
"","","","","","image-keyboard-response","87","524072","0.0-35.0","63daca8ae542ff8f19d3099a","665500ab8938657b03fbdba8","6657935af0ec5f5cada7f2c1","2056","stimuli/2011111.jpg","1","","prediction_trial","2","","false","","2","false","false","false","false","false","false","[1,2]","011","111","0","","","","","","",""
"","","","","","image-keyboard-response","88","524576","0.0-36.0","63daca8ae542ff8f19d3099a","665500ab8938657b03fbdba8","6657935af0ec5f5cada7f2c1","503","stimuli/20111112.jpg"," ","","feedback_trial","1","","","","","","","","","","","","","","","","","","","","",""
"","","","","","image-keyboard-response","89","526190","0.0-37.0","63daca8ae542ff8f19d3099a","665500ab8938657b03fbdba8","6657935af0ec5f5cada7f2c1","1612","stimuli/1101000.jpg","1","","prediction_trial","1","","true","","1","true","true","true","true","true","true","[1]","101","000","1","","","","","","",""
"","","","","","image-keyboard-response","90","526702","0.0-38.0","63daca8ae542ff8f19d3099a","665500ab8938657b03fbdba8","6657935af0ec5f5cada7f2c1","511","stimuli/11010001.jpg"," ","","feedback_trial","1","","","","","","","","","","","","","","","","","","","","",""
"","","","","","image-keyboard-response","91","527806","0.0-39.0","63daca8ae542ff8f19d3099a","665500ab8938657b03fbdba8","6657935af0ec5f5cada7f2c1","1103","stimuli/0011010.jpg","0","","prediction_trial","0","","true","","0","true","true","true","true","true","true","[0]","011","010","1","","","","","","",""
"","","","","","image-keyboard-response","92","528302","0.0-40.0","63daca8ae542ff8f19d3099a","665500ab8938657b03fbdba8","6657935af0ec5f5cada7f2c1","494","stimuli/00110100.jpg"," ","","feedback_trial","0","","","","","","","","","","","","","","","","","","","","",""
"","","","","","image-keyboard-response","93","530508","0.0-41.0","63daca8ae542ff8f19d3099a","665500ab8938657b03fbdba8","6657935af0ec5f5cada7f2c1","2205","stimuli/0011100.jpg","0","","prediction_trial","0","","true","","0","false","true","true","true","false","true","[0]","011","100","1","","","","","","",""
"","","","","","image-keyboard-response","94","531093","0.0-42.0","63daca8ae542ff8f19d3099a","665500ab8938657b03fbdba8","6657935af0ec5f5cada7f2c1","584","stimuli/00111000.jpg"," ","","feedback_trial","0","","","","","","","","","","","","","","","","","","","","",""
"","","","","","image-keyboard-response","95","532146","0.0-43.0","63daca8ae542ff8f19d3099a","665500ab8938657b03fbdba8","6657935af0ec5f5cada7f2c1","1051","stimuli/2111001.jpg","1","","prediction_trial","0","","false","","2","false","true","false","false","false","false","[2,0,1]","111","001","0","","","","","","",""
"","","","","","image-keyboard-response","96","532632","0.0-44.0","63daca8ae542ff8f19d3099a","665500ab8938657b03fbdba8","6657935af0ec5f5cada7f2c1","485","stimuli/21110010.jpg"," ","","feedback_trial","2","","","","","","","","","","","","","","","","","","","","",""
"","","","","","image-keyboard-response","97","534890","0.0-45.0","63daca8ae542ff8f19d3099a","665500ab8938657b03fbdba8","6657935af0ec5f5cada7f2c1","2257","stimuli/1011010.jpg","2","","prediction_trial","1","","false","","1","false","true","false","false","false","false","[1,2]","011","010","0","","","","","","",""
"","","","","","image-keyboard-response","98","535473","0.0-46.0","63daca8ae542ff8f19d3099a","665500ab8938657b03fbdba8","6657935af0ec5f5cada7f2c1","581","stimuli/10110101.jpg"," ","","feedback_trial","1","","","","","","","","","","","","","","","","","","","","",""
"","","","","","image-keyboard-response","99","538698","0.0-47.0","63daca8ae542ff8f19d3099a","665500ab8938657b03fbdba8","6657935af0ec5f5cada7f2c1","3224","stimuli/0100100.jpg","0","","prediction_trial","0","","true","","0","false","true","false","true","false","true","[0]","100","100","1","","","","","","",""
"","","","","","image-keyboard-response","100","539502","0.0-48.0","63daca8ae542ff8f19d3099a","665500ab8938657b03fbdba8","6657935af0ec5f5cada7f2c1","803","stimuli/01001000.jpg"," ","","feedback_trial","0","","","","","","","","","","","","","","","","","","","","",""
"","","","","","image-keyboard-response","101","542285","0.0-49.0","63daca8ae542ff8f19d3099a","665500ab8938657b03fbdba8","6657935af0ec5f5cada7f2c1","2781","stimuli/1000110.jpg","0","","prediction_trial","1","","false","","1","false","false","true","true","false","false","[1]","000","110","0","","","","","","",""
"","","","","","image-keyboard-response","102","542910","0.0-50.0","63daca8ae542ff8f19d3099a","665500ab8938657b03fbdba8","6657935af0ec5f5cada7f2c1","623","stimuli/10001101.jpg"," ","","feedback_trial","1","","","","","","","","","","","","","","","","","","","","",""
"","","","","","image-keyboard-response","103","546893","0.0-51.0","63daca8ae542ff8f19d3099a","665500ab8938657b03fbdba8","6657935af0ec5f5cada7f2c1","3991","stimuli/2010011.jpg","1","","prediction_trial","2","","false","","2","false","false","true","true","false","false","[2]","010","011","0","","","","","","",""
"","","","","","image-keyboard-response","104","547521","0.0-52.0","63daca8ae542ff8f19d3099a","665500ab8938657b03fbdba8","6657935af0ec5f5cada7f2c1","627","stimuli/20100112.jpg"," ","","feedback_trial","2","","","","","","","","","","","","","","","","","","","","",""
"","","","","","image-keyboard-response","105","548705","0.0-53.0","63daca8ae542ff8f19d3099a","665500ab8938657b03fbdba8","6657935af0ec5f5cada7f2c1","1183","stimuli/1101001.jpg","1","","prediction_trial","1","","true","","1","true","true","true","true","true","true","[1]","101","001","1","","","","","","",""
"","","","","","image-keyboard-response","106","549430","0.0-54.0","63daca8ae542ff8f19d3099a","665500ab8938657b03fbdba8","6657935af0ec5f5cada7f2c1","724","stimuli/11010011.jpg"," ","","feedback_trial","1","","","","","","","","","","","","","","","","","","","","",""
"","","","","","image-keyboard-response","107","550164","0.0-55.0","63daca8ae542ff8f19d3099a","665500ab8938657b03fbdba8","6657935af0ec5f5cada7f2c1","732","stimuli/1011110.jpg","1","","prediction_trial","1","","true","","1","false","false","false","false","false","false","[2,1]","011","110","1","","","","","","",""
"","","","","","image-keyboard-response","108","550744","0.0-56.0","63daca8ae542ff8f19d3099a","665500ab8938657b03fbdba8","6657935af0ec5f5cada7f2c1","578","stimuli/10111101.jpg"," ","","feedback_trial","2","","","","","","","","","","","","","","","","","","","","",""
"","","","","","image-keyboard-response","109","551280","0.0-57.0","63daca8ae542ff8f19d3099a","665500ab8938657b03fbdba8","6657935af0ec5f5cada7f2c1","535","stimuli/0001111.jpg","1","","prediction_trial","0","","false","","0","false","false","true","true","false","false","[0]","001","111","0","","","","","","",""
"","","","","","image-keyboard-response","110","551826","0.0-58.0","63daca8ae542ff8f19d3099a","665500ab8938657b03fbdba8","6657935af0ec5f5cada7f2c1","544","stimuli/00011110.jpg"," ","","feedback_trial","0","","","","","","","","","","","","","","","","","","","","",""
"","","","","","image-keyboard-response","111","553892","0.0-59.0","63daca8ae542ff8f19d3099a","665500ab8938657b03fbdba8","6657935af0ec5f5cada7f2c1","2064","stimuli/1110110.jpg","1","","prediction_trial","1","","true","","1","false","false","false","false","false","false","[0,1]","110","110","1","","","","","","",""
"","","","","","image-keyboard-response","112","554343","0.0-60.0","63daca8ae542ff8f19d3099a","665500ab8938657b03fbdba8","6657935af0ec5f5cada7f2c1","450","stimuli/11101101.jpg"," ","","feedback_trial","0","","","","","","","","","","","","","","","","","","","","",""
"","","","","","image-keyboard-response","113","556779","0.0-61.0","63daca8ae542ff8f19d3099a","665500ab8938657b03fbdba8","6657935af0ec5f5cada7f2c1","2434","stimuli/2011100.jpg","1","","prediction_trial","2","","false","","2","true","true","false","false","false","false","[1,2]","011","100","0","","","","","","",""
"","","","","","image-keyboard-response","114","557206","0.0-62.0","63daca8ae542ff8f19d3099a","665500ab8938657b03fbdba8","6657935af0ec5f5cada7f2c1","425","stimuli/20111002.jpg"," ","","feedback_trial","1","","","","","","","","","","","","","","","","","","","","",""
"","","","","","image-keyboard-response","115","558555","0.0-63.0","63daca8ae542ff8f19d3099a","665500ab8938657b03fbdba8","6657935af0ec5f5cada7f2c1","1348","stimuli/1110001.jpg","1","","prediction_trial","1","","true","","1","true","true","false","false","false","false","[1,0]","110","001","1","","","","","","",""
"","","","","","image-keyboard-response","116","559069","0.0-64.0","63daca8ae542ff8f19d3099a","665500ab8938657b03fbdba8","6657935af0ec5f5cada7f2c1","512","stimuli/11100011.jpg"," ","","feedback_trial","1","","","","","","","","","","","","","","","","","","","","",""
"","","","","","image-keyboard-response","117","561568","0.0-65.0","63daca8ae542ff8f19d3099a","665500ab8938657b03fbdba8","6657935af0ec5f5cada7f2c1","2498","stimuli/0101001.jpg","0","","prediction_trial","2","","false","","0","true","true","false","false","false","false","[2,0]","101","001","0","","","","","","",""
"","","","","","image-keyboard-response","118","562140","0.0-66.0","63daca8ae542ff8f19d3099a","665500ab8938657b03fbdba8","6657935af0ec5f5cada7f2c1","570","stimuli/01010012.jpg"," ","","feedback_trial","2","","","","","","","","","","","","","","","","","","","","",""
"","","","","","image-keyboard-response","119","565348","0.0-67.0","63daca8ae542ff8f19d3099a","665500ab8938657b03fbdba8","6657935af0ec5f5cada7f2c1","3206","stimuli/0101100.jpg","2","","prediction_trial","0","","false","","0","false","true","false","false","false","false","[2,0]","101","100","0","","","","","","",""
"","","","","","image-keyboard-response","120","565951","0.0-68.0","63daca8ae542ff8f19d3099a","665500ab8938657b03fbdba8","6657935af0ec5f5cada7f2c1","602","stimuli/01011000.jpg"," ","","feedback_trial","2","","","","","","","","","","","","","","","","","","","","",""
"","","","","","image-keyboard-response","121","566765","0.0-69.0","63daca8ae542ff8f19d3099a","665500ab8938657b03fbdba8","6657935af0ec5f5cada7f2c1","812","stimuli/1010101.jpg","0","","prediction_trial","1","","false","","1","true","true","false","true","false","true","[1]","010","101","0","","","","","","",""
"","","","","","image-keyboard-response","122","567565","0.0-70.0","63daca8ae542ff8f19d3099a","665500ab8938657b03fbdba8","6657935af0ec5f5cada7f2c1","799","stimuli/10101011.jpg"," ","","feedback_trial","1","","","","","","","","","","","","","","","","","","","","",""
"","","","","","image-keyboard-response","123","570802","0.0-71.0","63daca8ae542ff8f19d3099a","665500ab8938657b03fbdba8","6657935af0ec5f5cada7f2c1","3235","stimuli/1100001.jpg","1","","prediction_trial","1","","true","","1","true","true","true","true","true","true","[1]","100","001","1","","","","","","",""
"","","","","","image-keyboard-response","124","571313","0.0-72.0","63daca8ae542ff8f19d3099a","665500ab8938657b03fbdba8","6657935af0ec5f5cada7f2c1","510","stimuli/11000011.jpg"," ","","feedback_trial","1","","","","","","","","","","","","","","","","","","","","",""
"","","","","","image-keyboard-response","125","573590","0.0-73.0","63daca8ae542ff8f19d3099a","665500ab8938657b03fbdba8","6657935af0ec5f5cada7f2c1","2276","stimuli/0111100.jpg","1","","prediction_trial","0","","false","","0","false","true","false","false","false","false","[2,0,1]","111","100","0","","","","","","",""
"","","","","","image-keyboard-response","126","574050","0.0-74.0","63daca8ae542ff8f19d3099a","665500ab8938657b03fbdba8","6657935af0ec5f5cada7f2c1","458","stimuli/01111000.jpg"," ","","feedback_trial","2","","","","","","","","","","","","","","","","","","","","",""
"","","","","","image-keyboard-response","127","576133","0.0-75.0","63daca8ae542ff8f19d3099a","665500ab8938657b03fbdba8","6657935af0ec5f5cada7f2c1","2082","stimuli/2110001.jpg","0","","prediction_trial","2","","false","","2","false","true","true","true","false","true","[2]","110","001","0","","","","","","",""
"","","","","","image-keyboard-response","128","576593","0.0-76.0","63daca8ae542ff8f19d3099a","665500ab8938657b03fbdba8","6657935af0ec5f5cada7f2c1","458","stimuli/21100012.jpg"," ","","feedback_trial","2","","","","","","","","","","","","","","","","","","","","",""
"","","","","","image-keyboard-response","129","578480","0.0-77.0","63daca8ae542ff8f19d3099a","665500ab8938657b03fbdba8","6657935af0ec5f5cada7f2c1","1885","stimuli/2100001.jpg","0","","prediction_trial","2","","false","","2","false","true","true","true","false","true","[2]","100","001","0","","","","","","",""
"","","","","","image-keyboard-response","130","578970","0.0-78.0","63daca8ae542ff8f19d3099a","665500ab8938657b03fbdba8","6657935af0ec5f5cada7f2c1","489","stimuli/21000012.jpg"," ","","feedback_trial","2","","","","","","","","","","","","","","","","","","","","",""
"","","","","","image-keyboard-response","131","589333","0.0-79.0","63daca8ae542ff8f19d3099a","665500ab8938657b03fbdba8","6657935af0ec5f5cada7f2c1","10361","stimuli/0000100.jpg","0","","prediction_trial","0","","true","","0","false","true","true","true","false","true","[0]","000","100","1","","","","","","",""
"","","","","","image-keyboard-response","132","589882","0.0-80.0","63daca8ae542ff8f19d3099a","665500ab8938657b03fbdba8","6657935af0ec5f5cada7f2c1","548","stimuli/00001000.jpg"," ","","feedback_trial","0","","","","","","","","","","","","","","","","","","","","",""
"","","","","","image-keyboard-response","133","593667","0.0-81.0","63daca8ae542ff8f19d3099a","665500ab8938657b03fbdba8","6657935af0ec5f5cada7f2c1","3784","stimuli/0100111.jpg","1","","prediction_trial","0","","false","","0","false","false","false","true","false","false","[0]","100","111","0","","","","","","",""
"","","","","","image-keyboard-response","134","594107","0.0-82.0","63daca8ae542ff8f19d3099a","665500ab8938657b03fbdba8","6657935af0ec5f5cada7f2c1","439","stimuli/01001110.jpg"," ","","feedback_trial","0","","","","","","","","","","","","","","","","","","","","",""
"","","","","","image-keyboard-response","135","595506","0.0-83.0","63daca8ae542ff8f19d3099a","665500ab8938657b03fbdba8","6657935af0ec5f5cada7f2c1","1398","stimuli/1110000.jpg","2","","prediction_trial","0","","false","","1","true","true","false","false","false","false","[1,0]","110","000","0","","","","","","",""
"","","","","","image-keyboard-response","136","598466","0.0-84.0","63daca8ae542ff8f19d3099a","665500ab8938657b03fbdba8","6657935af0ec5f5cada7f2c1","2959","stimuli/11100000.jpg"," ","","feedback_trial","1","","","","","","","","","","","","","","","","","","","","",""
"","","","","","image-keyboard-response","137","601262","0.0-85.0","63daca8ae542ff8f19d3099a","665500ab8938657b03fbdba8","6657935af0ec5f5cada7f2c1","2787","stimuli/0100001.jpg","0","","prediction_trial","0","","true","","0","true","true","false","true","false","true","[0]","100","001","1","","","","","","",""
"","","","","","image-keyboard-response","138","601893","0.0-86.0","63daca8ae542ff8f19d3099a","665500ab8938657b03fbdba8","6657935af0ec5f5cada7f2c1","630","stimuli/01000010.jpg"," ","","feedback_trial","0","","","","","","","","","","","","","","","","","","","","",""
"","","","","","image-keyboard-response","139","605035","0.0-87.0","63daca8ae542ff8f19d3099a","665500ab8938657b03fbdba8","6657935af0ec5f5cada7f2c1","3140","stimuli/1011000.jpg","1","","prediction_trial","1","","true","","1","true","true","false","false","false","false","[2,1]","011","000","1","","","","","","",""
"","","","","","image-keyboard-response","140","605685","0.0-88.0","63daca8ae542ff8f19d3099a","665500ab8938657b03fbdba8","6657935af0ec5f5cada7f2c1","649","stimuli/10110001.jpg"," ","","feedback_trial","2","","","","","","","","","","","","","","","","","","","","",""
"","","","","","image-keyboard-response","141","607224","0.0-89.0","63daca8ae542ff8f19d3099a","665500ab8938657b03fbdba8","6657935af0ec5f5cada7f2c1","1529","stimuli/1010111.jpg","1","","prediction_trial","1","","true","","1","false","false","false","true","false","false","[1]","010","111","1","","","","","","",""
"","","","","","image-keyboard-response","142","607751","0.0-90.0","63daca8ae542ff8f19d3099a","665500ab8938657b03fbdba8","6657935af0ec5f5cada7f2c1","525","stimuli/10101111.jpg"," ","","feedback_trial","1","","","","","","","","","","","","","","","","","","","","",""
"","","","","","image-keyboard-response","143","609393","0.0-91.0","63daca8ae542ff8f19d3099a","665500ab8938657b03fbdba8","6657935af0ec5f5cada7f2c1","1641","stimuli/1011011.jpg","1","","prediction_trial","2","","false","","1","false","false","false","false","false","false","[1,2]","011","011","0","","","","","","",""
"","","","","","image-keyboard-response","144","609987","0.0-92.0","63daca8ae542ff8f19d3099a","665500ab8938657b03fbdba8","6657935af0ec5f5cada7f2c1","592","stimuli/10110112.jpg"," ","","feedback_trial","1","","","","","","","","","","","","","","","","","","","","",""
"","","","","","image-keyboard-response","145","614338","0.0-93.0","63daca8ae542ff8f19d3099a","665500ab8938657b03fbdba8","6657935af0ec5f5cada7f2c1","4350","stimuli/1001011.jpg","2","","prediction_trial","1","","false","","1","false","false","true","true","false","false","[1]","001","011","0","","","","","","",""
"","","","","","image-keyboard-response","146","615033","0.0-94.0","63daca8ae542ff8f19d3099a","665500ab8938657b03fbdba8","6657935af0ec5f5cada7f2c1","693","stimuli/10010111.jpg"," ","","feedback_trial","1","","","","","","","","","","","","","","","","","","","","",""
"","","","","","image-keyboard-response","147","616920","0.0-95.0","63daca8ae542ff8f19d3099a","665500ab8938657b03fbdba8","6657935af0ec5f5cada7f2c1","1885","stimuli/2011000.jpg","2","","prediction_trial","2","","true","","2","true","true","false","false","false","false","[2,1]","011","000","1","","","","","","",""
"","","","","","image-keyboard-response","148","617435","0.0-96.0","63daca8ae542ff8f19d3099a","665500ab8938657b03fbdba8","6657935af0ec5f5cada7f2c1","515","stimuli/20110002.jpg"," ","","feedback_trial","2","","","","","","","","","","","","","","","","","","","","",""
"","","","","","image-keyboard-response","149","619061","0.0-97.0","63daca8ae542ff8f19d3099a","665500ab8938657b03fbdba8","6657935af0ec5f5cada7f2c1","1625","stimuli/1101100.jpg","1","","prediction_trial","1","","true","","1","true","true","true","true","true","true","[1]","101","100","1","","","","","","",""
"","","","","","image-keyboard-response","150","619532","0.0-98.0","63daca8ae542ff8f19d3099a","665500ab8938657b03fbdba8","6657935af0ec5f5cada7f2c1","469","stimuli/11011001.jpg"," ","","feedback_trial","1","","","","","","","","","","","","","","","","","","","","",""
"","","","","","image-keyboard-response","151","622681","0.0-99.0","63daca8ae542ff8f19d3099a","665500ab8938657b03fbdba8","6657935af0ec5f5cada7f2c1","3148","stimuli/2011101.jpg","0","","prediction_trial","2","","false","","2","false","false","false","false","false","false","[1,2]","011","101","0","","","","","","",""
"","","","","","image-keyboard-response","152","623142","0.0-100.0","63daca8ae542ff8f19d3099a","665500ab8938657b03fbdba8","6657935af0ec5f5cada7f2c1","461","stimuli/20111012.jpg"," ","","feedback_trial","1","","","","","","","","","","","","","","","","","","","","",""
"","","","","","image-keyboard-response","153","625697","0.0-101.0","63daca8ae542ff8f19d3099a","665500ab8938657b03fbdba8","6657935af0ec5f5cada7f2c1","2553","stimuli/2111000.jpg","2","","prediction_trial","1","","false","","2","true","true","false","false","false","false","[2,1,0]","111","000","0","","","","","","",""
"","","","","","image-keyboard-response","154","626285","0.0-102.0","63daca8ae542ff8f19d3099a","665500ab8938657b03fbdba8","6657935af0ec5f5cada7f2c1","587","stimuli/21110001.jpg"," ","","feedback_trial","2","","","","","","","","","","","","","","","","","","","","",""
"","","","","","image-keyboard-response","155","628260","0.0-103.0","63daca8ae542ff8f19d3099a","665500ab8938657b03fbdba8","6657935af0ec5f5cada7f2c1","1973","stimuli/1100111.jpg","2","","prediction_trial","1","","false","","1","false","false","true","true","false","false","[1]","100","111","0","","","","","","",""
"","","","","","image-keyboard-response","156","628764","0.0-104.0","63daca8ae542ff8f19d3099a","665500ab8938657b03fbdba8","6657935af0ec5f5cada7f2c1","503","stimuli/11001111.jpg"," ","","feedback_trial","1","","","","","","","","","","","","","","","","","","","","",""
"","","","","","image-keyboard-response","157","629888","0.0-105.0","63daca8ae542ff8f19d3099a","665500ab8938657b03fbdba8","6657935af0ec5f5cada7f2c1","1122","stimuli/0100110.jpg","2","","prediction_trial","0","","false","","0","false","false","false","true","false","false","[0]","100","110","0","","","","","","",""
"","","","","","image-keyboard-response","158","630393","0.0-106.0","63daca8ae542ff8f19d3099a","665500ab8938657b03fbdba8","6657935af0ec5f5cada7f2c1","504","stimuli/01001100.jpg"," ","","feedback_trial","0","","","","","","","","","","","","","","","","","","","","",""
"","","","","","image-keyboard-response","159","632622","0.0-107.0","63daca8ae542ff8f19d3099a","665500ab8938657b03fbdba8","6657935af0ec5f5cada7f2c1","2227","stimuli/2101100.jpg","2","","prediction_trial","2","","true","","2","true","true","false","false","false","false","[2,0]","101","100","1","","","","","","",""
"","","","","","image-keyboard-response","160","633551","0.0-108.0","63daca8ae542ff8f19d3099a","665500ab8938657b03fbdba8","6657935af0ec5f5cada7f2c1","928","stimuli/21011002.jpg"," ","","feedback_trial","2","","","","","","","","","","","","","","","","","","","","",""
"","","","","","image-keyboard-response","161","635184","0.0-109.0","63daca8ae542ff8f19d3099a","665500ab8938657b03fbdba8","6657935af0ec5f5cada7f2c1","1632","stimuli/0000000.jpg","0","","prediction_trial","0","","true","","0","true","true","true","true","true","true","[0]","000","000","1","","","","","","",""
"","","","","","image-keyboard-response","162","635697","0.0-110.0","63daca8ae542ff8f19d3099a","665500ab8938657b03fbdba8","6657935af0ec5f5cada7f2c1","511","stimuli/00000000.jpg"," ","","feedback_trial","0","","","","","","","","","","","","","","","","","","","","",""
"","","","","","image-keyboard-response","163","636914","0.0-111.0","63daca8ae542ff8f19d3099a","665500ab8938657b03fbdba8","6657935af0ec5f5cada7f2c1","1216","stimuli/1000100.jpg","1","","prediction_trial","1","","true","","1","true","true","true","true","true","true","[1]","000","100","1","","","","","","",""
"","","","","","image-keyboard-response","164","637406","0.0-112.0","63daca8ae542ff8f19d3099a","665500ab8938657b03fbdba8","6657935af0ec5f5cada7f2c1","490","stimuli/10001001.jpg"," ","","feedback_trial","1","","","","","","","","","","","","","","","","","","","","",""
"","","","","","image-keyboard-response","165","638619","0.0-113.0","63daca8ae542ff8f19d3099a","665500ab8938657b03fbdba8","6657935af0ec5f5cada7f2c1","1212","stimuli/1110101.jpg","2","","prediction_trial","1","","false","","1","true","true","false","false","false","false","[1,0]","110","101","0","","","","","","",""
"","","","","","image-keyboard-response","166","639136","0.0-114.0","63daca8ae542ff8f19d3099a","665500ab8938657b03fbdba8","6657935af0ec5f5cada7f2c1","516","stimuli/11101011.jpg"," ","","feedback_trial","1","","","","","","","","","","","","","","","","","","","","",""
"","","","","","image-keyboard-response","167","640367","0.0-115.0","63daca8ae542ff8f19d3099a","665500ab8938657b03fbdba8","6657935af0ec5f5cada7f2c1","1230","stimuli/0001011.jpg","0","","prediction_trial","0","","true","","0","true","true","true","true","true","true","[0]","001","011","1","","","","","","",""
"","","","","","image-keyboard-response","168","640784","0.0-116.0","63daca8ae542ff8f19d3099a","665500ab8938657b03fbdba8","6657935af0ec5f5cada7f2c1","415","stimuli/00010110.jpg"," ","","feedback_trial","0","","","","","","","","","","","","","","","","","","","","",""
"","","","","","image-keyboard-response","169","641462","0.0-117.0","63daca8ae542ff8f19d3099a","665500ab8938657b03fbdba8","6657935af0ec5f5cada7f2c1","677","stimuli/0000001.jpg","0","","prediction_trial","0","","true","","0","true","true","true","true","true","true","[0]","000","001","1","","","","","","",""
"","","","","","image-keyboard-response","170","641824","0.0-118.0","63daca8ae542ff8f19d3099a","665500ab8938657b03fbdba8","6657935af0ec5f5cada7f2c1","361","stimuli/00000010.jpg"," ","","feedback_trial","0","","","","","","","","","","","","","","","","","","","","",""
"","","","","","image-keyboard-response","171","643130","0.0-119.0","63daca8ae542ff8f19d3099a","665500ab8938657b03fbdba8","6657935af0ec5f5cada7f2c1","1304","stimuli/1101101.jpg","1","","prediction_trial","1","","true","","1","true","true","true","true","true","true","[1]","101","101","1","","","","","","",""
"","","","","","image-keyboard-response","172","643602","0.0-120.0","63daca8ae542ff8f19d3099a","665500ab8938657b03fbdba8","6657935af0ec5f5cada7f2c1","470","stimuli/11011011.jpg"," ","","feedback_trial","1","","","","","","","","","","","","","","","","","","","","",""
"","","","","","image-keyboard-response","173","647192","0.0-121.0","63daca8ae542ff8f19d3099a","665500ab8938657b03fbdba8","6657935af0ec5f5cada7f2c1","3589","stimuli/1110010.jpg","1","","prediction_trial","1","","true","","1","false","true","false","false","false","false","[0,1]","110","010","1","","","","","","",""
"","","","","","image-keyboard-response","174","647728","0.0-122.0","63daca8ae542ff8f19d3099a","665500ab8938657b03fbdba8","6657935af0ec5f5cada7f2c1","534","stimuli/11100101.jpg"," ","","feedback_trial","0","","","","","","","","","","","","","","","","","","","","",""
"","","","","","image-keyboard-response","175","650724","0.0-123.0","63daca8ae542ff8f19d3099a","665500ab8938657b03fbdba8","6657935af0ec5f5cada7f2c1","2995","stimuli/2101001.jpg","2","","prediction_trial","2","","true","","2","false","true","false","false","false","false","[0,2]","101","001","1","","","","","","",""
"","","","","","image-keyboard-response","176","651115","0.0-124.0","63daca8ae542ff8f19d3099a","665500ab8938657b03fbdba8","6657935af0ec5f5cada7f2c1","390","stimuli/21010012.jpg"," ","","feedback_trial","0","","","","","","","","","","","","","","","","","","","","",""
"","","","","","image-keyboard-response","177","653318","0.0-125.0","63daca8ae542ff8f19d3099a","665500ab8938657b03fbdba8","6657935af0ec5f5cada7f2c1","2201","stimuli/1101010.jpg","1","","prediction_trial","1","","true","","1","false","true","true","true","false","true","[1]","101","010","1","","","","","","",""
"","","","","","image-keyboard-response","178","653764","0.0-126.0","63daca8ae542ff8f19d3099a","665500ab8938657b03fbdba8","6657935af0ec5f5cada7f2c1","445","stimuli/11010101.jpg"," ","","feedback_trial","1","","","","","","","","","","","","","","","","","","","","",""
"","","","","","image-keyboard-response","179","659379","0.0-127.0","63daca8ae542ff8f19d3099a","665500ab8938657b03fbdba8","6657935af0ec5f5cada7f2c1","5614","stimuli/1111100.jpg","0","","prediction_trial","2","","false","","1","true","true","false","false","false","false","[0,2,1]","111","100","0","","","","","","",""
"","","","","","image-keyboard-response","180","659953","0.0-128.0","63daca8ae542ff8f19d3099a","665500ab8938657b03fbdba8","6657935af0ec5f5cada7f2c1","572","stimuli/11111002.jpg"," ","","feedback_trial","0","","","","","","","","","","","","","","","","","","","","",""
"","","","","","image-keyboard-response","181","663486","0.0-129.0","63daca8ae542ff8f19d3099a","665500ab8938657b03fbdba8","6657935af0ec5f5cada7f2c1","3532","stimuli/1111010.jpg","1","","prediction_trial","2","","false","","1","false","true","false","false","false","false","[0,2,1]","111","010","0","","","","","","",""
"","","","","","image-keyboard-response","182","664093","0.0-130.0","63daca8ae542ff8f19d3099a","665500ab8938657b03fbdba8","6657935af0ec5f5cada7f2c1","605","stimuli/11110102.jpg"," ","","feedback_trial","0","","","","","","","","","","","","","","","","","","","","",""
"","","","","","image-keyboard-response","183","665404","0.0-131.0","63daca8ae542ff8f19d3099a","665500ab8938657b03fbdba8","6657935af0ec5f5cada7f2c1","1309","stimuli/0010000.jpg","0","","prediction_trial","0","","true","","0","true","true","true","true","true","true","[0]","010","000","1","","","","","","",""
"","","","","","image-keyboard-response","184","665764","0.0-132.0","63daca8ae542ff8f19d3099a","665500ab8938657b03fbdba8","6657935af0ec5f5cada7f2c1","359","stimuli/00100000.jpg"," ","","feedback_trial","0","","","","","","","","","","","","","","","","","","","","",""
"","","","","","image-keyboard-response","185","667473","0.0-133.0","63daca8ae542ff8f19d3099a","665500ab8938657b03fbdba8","6657935af0ec5f5cada7f2c1","1716","stimuli/1110100.jpg","0","","prediction_trial","1","","false","","1","true","true","false","false","false","false","[1,0]","110","100","0","","","","","","",""
"","","","","","image-keyboard-response","186","667866","0.0-134.0","63daca8ae542ff8f19d3099a","665500ab8938657b03fbdba8","6657935af0ec5f5cada7f2c1","392","stimuli/11101001.jpg"," ","","feedback_trial","1","","","","","","","","","","","","","","","","","","","","",""
"","","","","","image-keyboard-response","187","669785","0.0-135.0","63daca8ae542ff8f19d3099a","665500ab8938657b03fbdba8","6657935af0ec5f5cada7f2c1","1917","stimuli/0100011.jpg","0","","prediction_trial","0","","true","","0","true","true","false","true","false","true","[0]","100","011","1","","","","","","",""
"","","","","","image-keyboard-response","188","670380","0.0-136.0","63daca8ae542ff8f19d3099a","665500ab8938657b03fbdba8","6657935af0ec5f5cada7f2c1","594","stimuli/01000110.jpg"," ","","feedback_trial","0","","","","","","","","","","","","","","","","","","","","",""
"","","","","","image-keyboard-response","189","672321","0.0-137.0","63daca8ae542ff8f19d3099a","665500ab8938657b03fbdba8","6657935af0ec5f5cada7f2c1","1940","stimuli/0101110.jpg","1","","prediction_trial","0","","false","","0","false","false","false","false","false","false","[0,2]","101","110","0","","","","","","",""
"","","","","","image-keyboard-response","190","672779","0.0-138.0","63daca8ae542ff8f19d3099a","665500ab8938657b03fbdba8","6657935af0ec5f5cada7f2c1","456","stimuli/01011100.jpg"," ","","feedback_trial","0","","","","","","","","","","","","","","","","","","","","",""
"","","","","","image-keyboard-response","191","674899","0.0-139.0","63daca8ae542ff8f19d3099a","665500ab8938657b03fbdba8","6657935af0ec5f5cada7f2c1","2119","stimuli/0100101.jpg","2","","prediction_trial","0","","false","","0","false","false","false","true","false","false","[0]","100","101","0","","","","","","",""
"","","","","","image-keyboard-response","192","675415","0.0-140.0","63daca8ae542ff8f19d3099a","665500ab8938657b03fbdba8","6657935af0ec5f5cada7f2c1","515","stimuli/01001010.jpg"," ","","feedback_trial","0","","","","","","","","","","","","","","","","","","","","",""
"","","","","","image-keyboard-response","193","679616","0.0-141.0","63daca8ae542ff8f19d3099a","665500ab8938657b03fbdba8","6657935af0ec5f5cada7f2c1","4200","stimuli/2001101.jpg","2","","prediction_trial","2","","true","","2","false","false","false","true","false","false","[2]","001","101","1","","","","","","",""
"","","","","","image-keyboard-response","194","680393","0.0-142.0","63daca8ae542ff8f19d3099a","665500ab8938657b03fbdba8","6657935af0ec5f5cada7f2c1","775","stimuli/20011012.jpg"," ","","feedback_trial","2","","","","","","","","","","","","","","","","","","","","",""
"","","","","","image-keyboard-response","195","683248","0.0-143.0","63daca8ae542ff8f19d3099a","665500ab8938657b03fbdba8","6657935af0ec5f5cada7f2c1","2854","stimuli/1101011.jpg","1","","prediction_trial","1","","true","","1","false","false","true","true","false","false","[1]","101","011","1","","","","","","",""
"","","","","","image-keyboard-response","196","683697","0.0-144.0","63daca8ae542ff8f19d3099a","665500ab8938657b03fbdba8","6657935af0ec5f5cada7f2c1","447","stimuli/11010111.jpg"," ","","feedback_trial","1","","","","","","","","","","","","","","","","","","","","",""
"","","","","","image-keyboard-response","197","685085","0.0-145.0","63daca8ae542ff8f19d3099a","665500ab8938657b03fbdba8","6657935af0ec5f5cada7f2c1","1387","stimuli/2111110.jpg","1","","prediction_trial","2","","false","","2","true","true","false","false","false","false","[2,1,0]","111","110","0","","","","","","",""
"","","","","","image-keyboard-response","198","685539","0.0-146.0","63daca8ae542ff8f19d3099a","665500ab8938657b03fbdba8","6657935af0ec5f5cada7f2c1","453","stimuli/21111102.jpg"," ","","feedback_trial","2","","","","","","","","","","","","","","","","","","","","",""
"","","","","","image-keyboard-response","199","686880","0.0-147.0","63daca8ae542ff8f19d3099a","665500ab8938657b03fbdba8","6657935af0ec5f5cada7f2c1","1340","stimuli/0010010.jpg","0","","prediction_trial","0","","true","","0","true","true","true","true","true","true","[0]","010","010","1","","","","","","",""
"","","","","","image-keyboard-response","200","687276","0.0-148.0","63daca8ae542ff8f19d3099a","665500ab8938657b03fbdba8","6657935af0ec5f5cada7f2c1","395","stimuli/00100100.jpg"," ","","feedback_trial","0","","","","","","","","","","","","","","","","","","","","",""
"","","","","","image-keyboard-response","201","689319","0.0-149.0","63daca8ae542ff8f19d3099a","665500ab8938657b03fbdba8","6657935af0ec5f5cada7f2c1","2041","stimuli/2001100.jpg","0","","prediction_trial","2","","false","","2","true","true","false","true","false","true","[2]","001","100","0","","","","","","",""
"","","","","","image-keyboard-response","202","690254","0.0-150.0","63daca8ae542ff8f19d3099a","665500ab8938657b03fbdba8","6657935af0ec5f5cada7f2c1","934","stimuli/20011002.jpg"," ","","feedback_trial","2","","","","","","","","","","","","","","","","","","","","",""
"","","","","","image-keyboard-response","203","692282","0.0-151.0","63daca8ae542ff8f19d3099a","665500ab8938657b03fbdba8","6657935af0ec5f5cada7f2c1","2026","stimuli/2110100.jpg","2","","prediction_trial","2","","true","","2","true","true","true","true","true","true","[2]","110","100","1","","","","","","",""
"","","","","","image-keyboard-response","204","692673","0.0-152.0","63daca8ae542ff8f19d3099a","665500ab8938657b03fbdba8","6657935af0ec5f5cada7f2c1","390","stimuli/21101002.jpg"," ","","feedback_trial","2","","","","","","","","","","","","","","","","","","","","",""
"","","","","","image-keyboard-response","205","694038","0.0-153.0","63daca8ae542ff8f19d3099a","665500ab8938657b03fbdba8","6657935af0ec5f5cada7f2c1","1364","stimuli/2110111.jpg","2","","prediction_trial","2","","true","","2","false","false","true","true","false","false","[2]","110","111","1","","","","","","",""
"","","","","","image-keyboard-response","206","694437","0.0-154.0","63daca8ae542ff8f19d3099a","665500ab8938657b03fbdba8","6657935af0ec5f5cada7f2c1","397","stimuli/21101112.jpg"," ","","feedback_trial","2","","","","","","","","","","","","","","","","","","","","",""
"","","","","","image-keyboard-response","207","695728","0.0-155.0","63daca8ae542ff8f19d3099a","665500ab8938657b03fbdba8","6657935af0ec5f5cada7f2c1","1290","stimuli/1101110.jpg","1","","prediction_trial","1","","true","","1","false","false","true","true","false","false","[1]","101","110","1","","","","","","",""
"","","","","","image-keyboard-response","208","696082","0.0-156.0","63daca8ae542ff8f19d3099a","665500ab8938657b03fbdba8","6657935af0ec5f5cada7f2c1","353","stimuli/11011101.jpg"," ","","feedback_trial","1","","","","","","","","","","","","","","","","","","","","",""
"","","","","","image-keyboard-response","209","696975","0.0-157.0","63daca8ae542ff8f19d3099a","665500ab8938657b03fbdba8","6657935af0ec5f5cada7f2c1","883","stimuli/1101111.jpg","1","","prediction_trial","1","","true","","1","false","false","true","true","false","false","[1]","101","111","1","","","","","","",""
"","","","","","image-keyboard-response","210","697333","0.0-158.0","63daca8ae542ff8f19d3099a","665500ab8938657b03fbdba8","6657935af0ec5f5cada7f2c1","357","stimuli/11011111.jpg"," ","","feedback_trial","1","","","","","","","","","","","","","","","","","","","","",""
"","","","","","image-keyboard-response","211","698946","0.0-159.0","63daca8ae542ff8f19d3099a","665500ab8938657b03fbdba8","6657935af0ec5f5cada7f2c1","1612","stimuli/1010000.jpg","0","","prediction_trial","1","","false","","1","true","true","false","true","false","true","[1]","010","000","0","","","","","","",""
"","","","","","image-keyboard-response","212","702661","0.0-160.0","63daca8ae542ff8f19d3099a","665500ab8938657b03fbdba8","6657935af0ec5f5cada7f2c1","3713","stimuli/10100001.jpg"," ","","feedback_trial","1","","","","","","","","","","","","","","","","","","","","",""
"","","","","","image-keyboard-response","213","704150","0.0-161.0","63daca8ae542ff8f19d3099a","665500ab8938657b03fbdba8","6657935af0ec5f5cada7f2c1","1488","stimuli/0011110.jpg","0","","prediction_trial","0","","true","","0","false","false","true","true","false","false","[0]","011","110","1","","","","","","",""
"","","","","","image-keyboard-response","214","704442","0.0-162.0","63daca8ae542ff8f19d3099a","665500ab8938657b03fbdba8","6657935af0ec5f5cada7f2c1","291","stimuli/00111100.jpg"," ","","feedback_trial","0","","","","","","","","","","","","","","","","","","","","",""
"","","","","","image-keyboard-response","215","706098","0.0-163.0","63daca8ae542ff8f19d3099a","665500ab8938657b03fbdba8","6657935af0ec5f5cada7f2c1","1654","stimuli/0100000.jpg","0","","prediction_trial","0","","true","","0","true","true","false","true","false","true","[0]","100","000","1","","","","","","",""
"","","","","","image-keyboard-response","216","706542","0.0-164.0","63daca8ae542ff8f19d3099a","665500ab8938657b03fbdba8","6657935af0ec5f5cada7f2c1","443","stimuli/01000000.jpg"," ","","feedback_trial","0","","","","","","","","","","","","","","","","","","","","",""
"","","","","","image-keyboard-response","217","708866","0.0-165.0","63daca8ae542ff8f19d3099a","665500ab8938657b03fbdba8","6657935af0ec5f5cada7f2c1","2322","stimuli/1100011.jpg","0","","prediction_trial","1","","false","","1","false","false","true","true","false","false","[1]","100","011","0","","","","","","",""
"","","","","","image-keyboard-response","218","709162","0.0-166.0","63daca8ae542ff8f19d3099a","665500ab8938657b03fbdba8","6657935af0ec5f5cada7f2c1","294","stimuli/11000111.jpg"," ","","feedback_trial","1","","","","","","","","","","","","","","","","","","","","",""
"","","","","","image-keyboard-response","219","710786","0.0-167.0","63daca8ae542ff8f19d3099a","665500ab8938657b03fbdba8","6657935af0ec5f5cada7f2c1","1623","stimuli/2100100.jpg","2","","prediction_trial","2","","true","","2","true","true","true","true","true","true","[2]","100","100","1","","","","","","",""
"","","","","","image-keyboard-response","220","711050","0.0-168.0","63daca8ae542ff8f19d3099a","665500ab8938657b03fbdba8","6657935af0ec5f5cada7f2c1","263","stimuli/21001002.jpg"," ","","feedback_trial","2","","","","","","","","","","","","","","","","","","","","",""
"","","","","","image-keyboard-response","221","712711","0.0-169.0","63daca8ae542ff8f19d3099a","665500ab8938657b03fbdba8","6657935af0ec5f5cada7f2c1","1660","stimuli/1111101.jpg","2","","prediction_trial","1","","false","","1","true","true","false","false","false","false","[0,2,1]","111","101","0","","","","","","",""
"","","","","","image-keyboard-response","222","713062","0.0-170.0","63daca8ae542ff8f19d3099a","665500ab8938657b03fbdba8","6657935af0ec5f5cada7f2c1","350","stimuli/11111011.jpg"," ","","feedback_trial","0","","","","","","","","","","","","","","","","","","","","",""
"","","","","","image-keyboard-response","223","714454","0.0-171.0","63daca8ae542ff8f19d3099a","665500ab8938657b03fbdba8","6657935af0ec5f5cada7f2c1","1390","stimuli/0001000.jpg","0","","prediction_trial","0","","true","","0","true","true","true","true","true","true","[0]","001","000","1","","","","","","",""
"","","","","","image-keyboard-response","224","714715","0.0-172.0","63daca8ae542ff8f19d3099a","665500ab8938657b03fbdba8","6657935af0ec5f5cada7f2c1","260","stimuli/00010000.jpg"," ","","feedback_trial","0","","","","","","","","","","","","","","","","","","","","",""
"","","","","","image-keyboard-response","225","717674","0.0-173.0","63daca8ae542ff8f19d3099a","665500ab8938657b03fbdba8","6657935af0ec5f5cada7f2c1","2957","stimuli/1100110.jpg","1","","prediction_trial","1","","true","","1","false","false","true","true","false","false","[1]","100","110","1","","","","","","",""
"","","","","","image-keyboard-response","226","717991","0.0-174.0","63daca8ae542ff8f19d3099a","665500ab8938657b03fbdba8","6657935af0ec5f5cada7f2c1","316","stimuli/11001101.jpg"," ","","feedback_trial","1","","","","","","","","","","","","","","","","","","","","",""
"","","","","","image-keyboard-response","227","720516","0.0-175.0","63daca8ae542ff8f19d3099a","665500ab8938657b03fbdba8","6657935af0ec5f5cada7f2c1","2515","stimuli/2101111.jpg","1","","prediction_trial","2","","false","","2","false","false","false","false","false","false","[2,0]","101","111","0","","","","","","",""
"","","","","","image-keyboard-response","228","721095","0.0-176.0","63daca8ae542ff8f19d3099a","665500ab8938657b03fbdba8","6657935af0ec5f5cada7f2c1","578","stimuli/21011112.jpg"," ","","feedback_trial","2","","","","","","","","","","","","","","","","","","","","",""
"","","","","","image-keyboard-response","229","722476","0.0-177.0","63daca8ae542ff8f19d3099a","665500ab8938657b03fbdba8","6657935af0ec5f5cada7f2c1","1380","stimuli/2100110.jpg","2","","prediction_trial","2","","true","","2","true","true","true","true","true","true","[2]","100","110","1","","","","","","",""
"","","","","","image-keyboard-response","230","722797","0.0-178.0","63daca8ae542ff8f19d3099a","665500ab8938657b03fbdba8","6657935af0ec5f5cada7f2c1","319","stimuli/21001102.jpg"," ","","feedback_trial","2","","","","","","","","","","","","","","","","","","","","",""
"","","","","","image-keyboard-response","231","723913","0.0-179.0","63daca8ae542ff8f19d3099a","665500ab8938657b03fbdba8","6657935af0ec5f5cada7f2c1","1115","stimuli/1000001.jpg","1","","prediction_trial","1","","true","","1","true","true","true","true","true","true","[1]","000","001","1","","","","","","",""
"","","","","","image-keyboard-response","232","724270","0.0-180.0","63daca8ae542ff8f19d3099a","665500ab8938657b03fbdba8","6657935af0ec5f5cada7f2c1","355","stimuli/10000011.jpg"," ","","feedback_trial","1","","","","","","","","","","","","","","","","","","","","",""
"","","","","","image-keyboard-response","233","725355","0.0-181.0","63daca8ae542ff8f19d3099a","665500ab8938657b03fbdba8","6657935af0ec5f5cada7f2c1","1083","stimuli/0110011.jpg","1","","prediction_trial","1","","true","","0","true","true","false","false","false","false","[0,1]","110","011","1","","","","","","",""
"","","","","","image-keyboard-response","234","725616","0.0-182.0","63daca8ae542ff8f19d3099a","665500ab8938657b03fbdba8","6657935af0ec5f5cada7f2c1","260","stimuli/01100111.jpg"," ","","feedback_trial","0","","","","","","","","","","","","","","","","","","","","",""
"","","","","","image-keyboard-response","235","727256","0.0-183.0","63daca8ae542ff8f19d3099a","665500ab8938657b03fbdba8","6657935af0ec5f5cada7f2c1","1639","stimuli/1010100.jpg","1","","prediction_trial","1","","true","","1","true","true","false","true","false","true","[1]","010","100","1","","","","","","",""
"","","","","","image-keyboard-response","236","727721","0.0-184.0","63daca8ae542ff8f19d3099a","665500ab8938657b03fbdba8","6657935af0ec5f5cada7f2c1","464","stimuli/10101001.jpg"," ","","feedback_trial","1","","","","","","","","","","","","","","","","","","","","",""
"","","","","","image-keyboard-response","237","729095","0.0-185.0","63daca8ae542ff8f19d3099a","665500ab8938657b03fbdba8","6657935af0ec5f5cada7f2c1","1372","stimuli/2011001.jpg","2","","prediction_trial","1","","false","","2","false","true","false","false","false","false","[1,2]","011","001","0","","","","","","",""
"","","","","","image-keyboard-response","238","729378","0.0-186.0","63daca8ae542ff8f19d3099a","665500ab8938657b03fbdba8","6657935af0ec5f5cada7f2c1","281","stimuli/20110011.jpg"," ","","feedback_trial","1","","","","","","","","","","","","","","","","","","","","",""
"","","","","","image-keyboard-response","239","730799","0.0-187.0","63daca8ae542ff8f19d3099a","665500ab8938657b03fbdba8","6657935af0ec5f5cada7f2c1","1420","stimuli/1010001.jpg","1","","prediction_trial","1","","true","","1","true","true","false","true","false","true","[1]","010","001","1","","","","","","",""
"","","","","","image-keyboard-response","240","731140","0.0-188.0","63daca8ae542ff8f19d3099a","665500ab8938657b03fbdba8","6657935af0ec5f5cada7f2c1","339","stimuli/10100011.jpg"," ","","feedback_trial","1","","","","","","","","","","","","","","","","","","","","",""
"","","","","","image-keyboard-response","241","731682","0.0-189.0","63daca8ae542ff8f19d3099a","665500ab8938657b03fbdba8","6657935af0ec5f5cada7f2c1","541","stimuli/1000000.jpg","1","","prediction_trial","1","","true","","1","true","true","true","true","true","true","[1]","000","000","1","","","","","","",""
"","","","","","image-keyboard-response","242","732318","0.0-190.0","63daca8ae542ff8f19d3099a","665500ab8938657b03fbdba8","6657935af0ec5f5cada7f2c1","635","stimuli/10000001.jpg"," ","","feedback_trial","1","","","","","","","","","","","","","","","","","","","","",""
"","","","","","image-keyboard-response","243","735532","0.0-191.0","63daca8ae542ff8f19d3099a","665500ab8938657b03fbdba8","6657935af0ec5f5cada7f2c1","3212","stimuli/1000011.jpg","2","","prediction_trial","1","","false","","1","false","false","true","true","false","false","[1]","000","011","0","","","","","","",""
"","","","","","image-keyboard-response","244","735912","0.0-192.0","63daca8ae542ff8f19d3099a","665500ab8938657b03fbdba8","6657935af0ec5f5cada7f2c1","379","stimuli/10000111.jpg"," ","","feedback_trial","1","","","","","","","","","","","","","","","","","","","","",""
"","","","","","image-keyboard-response","245","737250","0.0-193.0","63daca8ae542ff8f19d3099a","665500ab8938657b03fbdba8","6657935af0ec5f5cada7f2c1","1337","stimuli/2101010.jpg","2","","prediction_trial","0","","false","","2","true","true","false","false","false","false","[0,2]","101","010","0","","","","","","",""
"","","","","","image-keyboard-response","246","737549","0.0-194.0","63daca8ae542ff8f19d3099a","665500ab8938657b03fbdba8","6657935af0ec5f5cada7f2c1","297","stimuli/21010100.jpg"," ","","feedback_trial","0","","","","","","","","","","","","","","","","","","","","",""
"","","","","","image-keyboard-response","247","738379","0.0-195.0","63daca8ae542ff8f19d3099a","665500ab8938657b03fbdba8","6657935af0ec5f5cada7f2c1","829","stimuli/1100100.jpg","1","","prediction_trial","1","","true","","1","true","true","true","true","true","true","[1]","100","100","1","","","","","","",""
"","","","","","image-keyboard-response","248","738674","0.0-196.0","63daca8ae542ff8f19d3099a","665500ab8938657b03fbdba8","6657935af0ec5f5cada7f2c1","294","stimuli/11001001.jpg"," ","","feedback_trial","1","","","","","","","","","","","","","","","","","","","","",""
"","","","","","image-keyboard-response","249","739594","0.0-197.0","63daca8ae542ff8f19d3099a","665500ab8938657b03fbdba8","6657935af0ec5f5cada7f2c1","919","stimuli/1001010.jpg","1","","prediction_trial","1","","true","","1","false","true","true","true","false","true","[1]","001","010","1","","","","","","",""
"","","","","","image-keyboard-response","250","739906","0.0-198.0","63daca8ae542ff8f19d3099a","665500ab8938657b03fbdba8","6657935af0ec5f5cada7f2c1","310","stimuli/10010101.jpg"," ","","feedback_trial","1","","","","","","","","","","","","","","","","","","","","",""
"","","","","","image-keyboard-response","251","743508","0.0-199.0","63daca8ae542ff8f19d3099a","665500ab8938657b03fbdba8","6657935af0ec5f5cada7f2c1","3601","stimuli/0111011.jpg","1","","prediction_trial","1","","true","","0","true","true","false","false","false","false","[0,2,1]","111","011","1","","","","","","",""
"","","","","","image-keyboard-response","252","743901","0.0-200.0","63daca8ae542ff8f19d3099a","665500ab8938657b03fbdba8","6657935af0ec5f5cada7f2c1","392","stimuli/01110111.jpg"," ","","feedback_trial","0","","","","","","","","","","","","","","","","","","","","",""
"","","","","","image-keyboard-response","253","744954","0.0-201.0","63daca8ae542ff8f19d3099a","665500ab8938657b03fbdba8","6657935af0ec5f5cada7f2c1","1051","stimuli/2010001.jpg","2","","prediction_trial","2","","true","","2","false","true","true","true","false","true","[2]","010","001","1","","","","","","",""
"","","","","","image-keyboard-response","254","745290","0.0-202.0","63daca8ae542ff8f19d3099a","665500ab8938657b03fbdba8","6657935af0ec5f5cada7f2c1","334","stimuli/20100012.jpg"," ","","feedback_trial","2","","","","","","","","","","","","","","","","","","","","",""
"","","","","","image-keyboard-response","255","746874","0.0-203.0","63daca8ae542ff8f19d3099a","665500ab8938657b03fbdba8","6657935af0ec5f5cada7f2c1","1582","stimuli/1000111.jpg","1","","prediction_trial","1","","true","","1","false","false","true","true","false","false","[1]","000","111","1","","","","","","",""
"","","","","","image-keyboard-response","256","747172","0.0-204.0","63daca8ae542ff8f19d3099a","665500ab8938657b03fbdba8","6657935af0ec5f5cada7f2c1","296","stimuli/10001111.jpg"," ","","feedback_trial","1","","","","","","","","","","","","","","","","","","","","",""
"","","","","","image-keyboard-response","257","748132","0.0-205.0","63daca8ae542ff8f19d3099a","665500ab8938657b03fbdba8","6657935af0ec5f5cada7f2c1","959","stimuli/2111011.jpg","1","","prediction_trial","2","","false","","2","false","false","false","false","false","false","[2,1,0]","111","011","0","","","","","","",""
"","","","","","image-keyboard-response","258","748396","0.0-206.0","63daca8ae542ff8f19d3099a","665500ab8938657b03fbdba8","6657935af0ec5f5cada7f2c1","263","stimuli/21110112.jpg"," ","","feedback_trial","2","","","","","","","","","","","","","","","","","","","","",""
"","","","","","image-keyboard-response","259","749228","0.0-207.0","63daca8ae542ff8f19d3099a","665500ab8938657b03fbdba8","6657935af0ec5f5cada7f2c1","830","stimuli/1001101.jpg","1","","prediction_trial","1","","true","","1","true","true","true","true","true","true","[1]","001","101","1","","","","","","",""
"","","","","","image-keyboard-response","260","749670","0.0-208.0","63daca8ae542ff8f19d3099a","665500ab8938657b03fbdba8","6657935af0ec5f5cada7f2c1","441","stimuli/10011011.jpg"," ","","feedback_trial","1","","","","","","","","","","","","","","","","","","","","",""
"","","","","","image-keyboard-response","261","751080","0.0-209.0","63daca8ae542ff8f19d3099a","665500ab8938657b03fbdba8","6657935af0ec5f5cada7f2c1","1408","stimuli/0000111.jpg","1","","prediction_trial","0","","false","","0","false","false","true","true","false","false","[0]","000","111","0","","","","","","",""
"","","","","","image-keyboard-response","262","751504","0.0-210.0","63daca8ae542ff8f19d3099a","665500ab8938657b03fbdba8","6657935af0ec5f5cada7f2c1","423","stimuli/00001110.jpg"," ","","feedback_trial","0","","","","","","","","","","","","","","","","","","","","",""
"","","","","","image-keyboard-response","263","752313","0.0-211.0","63daca8ae542ff8f19d3099a","665500ab8938657b03fbdba8","6657935af0ec5f5cada7f2c1","800","stimuli/0101111.jpg","2","","prediction_trial","2","","true","","0","false","false","false","false","false","false","[0,2]","101","111","1","","","","","","",""
"","","","","","image-keyboard-response","264","752656","0.0-212.0","63daca8ae542ff8f19d3099a","665500ab8938657b03fbdba8","6657935af0ec5f5cada7f2c1","342","stimuli/01011112.jpg"," ","","feedback_trial","0","","","","","","","","","","","","","","","","","","","","",""
"","","","","","image-keyboard-response","265","755305","0.0-213.0","63daca8ae542ff8f19d3099a","665500ab8938657b03fbdba8","6657935af0ec5f5cada7f2c1","2649","stimuli/0001100.jpg","0","","prediction_trial","0","","true","","0","false","true","true","true","false","true","[0]","001","100","1","","","","","","",""
"","","","","","image-keyboard-response","266","755592","0.0-214.0","63daca8ae542ff8f19d3099a","665500ab8938657b03fbdba8","6657935af0ec5f5cada7f2c1","286","stimuli/00011000.jpg"," ","","feedback_trial","0","","","","","","","","","","","","","","","","","","","","",""
"","","","","","image-keyboard-response","267","762398","0.0-215.0","63daca8ae542ff8f19d3099a","665500ab8938657b03fbdba8","6657935af0ec5f5cada7f2c1","6805","stimuli/1111000.jpg","1","","prediction_trial","2","","false","","1","true","true","false","false","false","false","[2,0,1]","111","000","0","","","","","","",""
"","","","","","image-keyboard-response","268","762770","0.0-216.0","63daca8ae542ff8f19d3099a","665500ab8938657b03fbdba8","6657935af0ec5f5cada7f2c1","370","stimuli/11110002.jpg"," ","","feedback_trial","2","","","","","","","","","","","","","","","","","","","","",""
"","","","","","image-keyboard-response","269","764844","0.0-217.0","63daca8ae542ff8f19d3099a","665500ab8938657b03fbdba8","6657935af0ec5f5cada7f2c1","2073","stimuli/0110000.jpg","1","","prediction_trial","0","","false","","0","true","true","false","false","false","false","[0,1]","110","000","0","","","","","","",""
"","","","","","image-keyboard-response","270","765190","0.0-218.0","63daca8ae542ff8f19d3099a","665500ab8938657b03fbdba8","6657935af0ec5f5cada7f2c1","345","stimuli/01100000.jpg"," ","","feedback_trial","0","","","","","","","","","","","","","","","","","","","","",""
"","","","","","image-keyboard-response","271","767170","0.0-219.0","63daca8ae542ff8f19d3099a","665500ab8938657b03fbdba8","6657935af0ec5f5cada7f2c1","1979","stimuli/2001001.jpg","2","","prediction_trial","2","","true","","2","false","true","false","true","false","true","[2]","001","001","1","","","","","","",""
"","","","","","image-keyboard-response","272","767496","0.0-220.0","63daca8ae542ff8f19d3099a","665500ab8938657b03fbdba8","6657935af0ec5f5cada7f2c1","324","stimuli/20010012.jpg"," ","","feedback_trial","2","","","","","","","","","","","","","","","","","","","","",""
"","","","","","image-keyboard-response","273","768911","0.0-221.0","63daca8ae542ff8f19d3099a","665500ab8938657b03fbdba8","6657935af0ec5f5cada7f2c1","1414","stimuli/1111111.jpg","1","","prediction_trial","2","","false","","1","false","false","false","false","false","false","[2,1,0]","111","111","0","","","","","","",""
"","","","","","image-keyboard-response","274","769280","0.0-222.0","63daca8ae542ff8f19d3099a","665500ab8938657b03fbdba8","6657935af0ec5f5cada7f2c1","368","stimuli/11111112.jpg"," ","","feedback_trial","2","","","","","","","","","","","","","","","","","","","","",""
"","","","","","image-keyboard-response","275","770701","0.0-223.0","63daca8ae542ff8f19d3099a","665500ab8938657b03fbdba8","6657935af0ec5f5cada7f2c1","1419","stimuli/2111010.jpg","2","","prediction_trial","2","","true","","2","true","true","false","false","false","false","[2,0,1]","111","010","1","","","","","","",""
"","","","","","image-keyboard-response","276","771074","0.0-224.0","63daca8ae542ff8f19d3099a","665500ab8938657b03fbdba8","6657935af0ec5f5cada7f2c1","372","stimuli/21110102.jpg"," ","","feedback_trial","2","","","","","","","","","","","","","","","","","","","","",""
"","","","","","image-keyboard-response","277","773880","0.0-225.0","63daca8ae542ff8f19d3099a","665500ab8938657b03fbdba8","6657935af0ec5f5cada7f2c1","2804","stimuli/1000010.jpg","1","","prediction_trial","1","","true","","1","false","true","true","true","false","true","[1]","000","010","1","","","","","","",""
"","","","","","image-keyboard-response","278","774269","0.0-226.0","63daca8ae542ff8f19d3099a","665500ab8938657b03fbdba8","6657935af0ec5f5cada7f2c1","388","stimuli/10000101.jpg"," ","","feedback_trial","1","","","","","","","","","","","","","","","","","","","","",""
"","","","","","image-keyboard-response","279","775839","0.0-227.0","63daca8ae542ff8f19d3099a","665500ab8938657b03fbdba8","6657935af0ec5f5cada7f2c1","1569","stimuli/0101101.jpg","2","","prediction_trial","2","","true","","0","false","false","false","false","false","false","[0,2]","101","101","1","","","","","","",""
"","","","","","image-keyboard-response","280","776282","0.0-228.0","63daca8ae542ff8f19d3099a","665500ab8938657b03fbdba8","6657935af0ec5f5cada7f2c1","441","stimuli/01011012.jpg"," ","","feedback_trial","0","","","","","","","","","","","","","","","","","","","","",""
"","","","","","image-keyboard-response","281","777609","0.0-229.0","63daca8ae542ff8f19d3099a","665500ab8938657b03fbdba8","6657935af0ec5f5cada7f2c1","1326","stimuli/0010001.jpg","0","","prediction_trial","0","","true","","0","true","true","true","true","true","true","[0]","010","001","1","","","","","","",""
"","","","","","image-keyboard-response","282","777988","0.0-230.0","63daca8ae542ff8f19d3099a","665500ab8938657b03fbdba8","6657935af0ec5f5cada7f2c1","377","stimuli/00100010.jpg"," ","","feedback_trial","0","","","","","","","","","","","","","","","","","","","","",""
"","","","","","image-keyboard-response","283","779015","0.0-231.0","63daca8ae542ff8f19d3099a","665500ab8938657b03fbdba8","6657935af0ec5f5cada7f2c1","1026","stimuli/0111111.jpg","1","","prediction_trial","0","","false","","0","false","false","false","false","false","false","[2,0,1]","111","111","0","","","","","","",""
"","","","","","image-keyboard-response","284","779527","0.0-232.0","63daca8ae542ff8f19d3099a","665500ab8938657b03fbdba8","6657935af0ec5f5cada7f2c1","510","stimuli/01111110.jpg"," ","","feedback_trial","2","","","","","","","","","","","","","","","","","","","","",""
"","","","","","image-keyboard-response","285","780435","0.0-233.0","63daca8ae542ff8f19d3099a","665500ab8938657b03fbdba8","6657935af0ec5f5cada7f2c1","906","stimuli/1001111.jpg","1","","prediction_trial","1","","true","","1","false","false","true","true","false","false","[1]","001","111","1","","","","","","",""
"","","","","","image-keyboard-response","286","780926","0.0-234.0","63daca8ae542ff8f19d3099a","665500ab8938657b03fbdba8","6657935af0ec5f5cada7f2c1","490","stimuli/10011111.jpg"," ","","feedback_trial","1","","","","","","","","","","","","","","","","","","","","",""
"","","","","","image-keyboard-response","287","782147","0.0-235.0","63daca8ae542ff8f19d3099a","665500ab8938657b03fbdba8","6657935af0ec5f5cada7f2c1","1220","stimuli/0110001.jpg","0","","prediction_trial","0","","true","","0","true","true","false","false","false","false","[1,0]","110","001","1","","","","","","",""
"","","","","","image-keyboard-response","288","782459","0.0-236.0","63daca8ae542ff8f19d3099a","665500ab8938657b03fbdba8","6657935af0ec5f5cada7f2c1","310","stimuli/01100010.jpg"," ","","feedback_trial","1","","","","","","","","","","","","","","","","","","","","",""
"","","","","","image-keyboard-response","289","783306","0.0-237.0","63daca8ae542ff8f19d3099a","665500ab8938657b03fbdba8","6657935af0ec5f5cada7f2c1","846","stimuli/1100000.jpg","1","","prediction_trial","1","","true","","1","true","true","true","true","true","true","[1]","100","000","1","","","","","","",""
"","","","","","image-keyboard-response","290","783563","0.0-238.0","63daca8ae542ff8f19d3099a","665500ab8938657b03fbdba8","6657935af0ec5f5cada7f2c1","255","stimuli/11000001.jpg"," ","","feedback_trial","1","","","","","","","","","","","","","","","","","","","","",""
"","","","","","image-keyboard-response","291","784450","0.0-239.0","63daca8ae542ff8f19d3099a","665500ab8938657b03fbdba8","6657935af0ec5f5cada7f2c1","885","stimuli/1110011.jpg","1","","prediction_trial","1","","true","","1","false","false","false","false","false","false","[0,1]","110","011","1","","","","","","",""
"","","","","","image-keyboard-response","292","784861","0.0-240.0","63daca8ae542ff8f19d3099a","665500ab8938657b03fbdba8","6657935af0ec5f5cada7f2c1","410","stimuli/11100111.jpg"," ","","feedback_trial","0","","","","","","","","","","","","","","","","","","","","",""
"","","","","","image-keyboard-response","293","786414","0.0-241.0","63daca8ae542ff8f19d3099a","665500ab8938657b03fbdba8","6657935af0ec5f5cada7f2c1","1552","stimuli/1001110.jpg","1","","prediction_trial","1","","true","","1","false","false","true","true","false","false","[1]","001","110","1","","","","","","",""
"","","","","","image-keyboard-response","294","786744","0.0-242.0","63daca8ae542ff8f19d3099a","665500ab8938657b03fbdba8","6657935af0ec5f5cada7f2c1","329","stimuli/10011101.jpg"," ","","feedback_trial","1","","","","","","","","","","","","","","","","","","","","",""
"","","","","","image-keyboard-response","295","788177","0.0-243.0","63daca8ae542ff8f19d3099a","665500ab8938657b03fbdba8","6657935af0ec5f5cada7f2c1","1423","stimuli/2101000.jpg","2","","prediction_trial","0","","false","","2","true","true","false","false","false","false","[0,2]","101","000","0","","","","","","",""
"","","","","","image-keyboard-response","296","788478","0.0-244.0","63daca8ae542ff8f19d3099a","665500ab8938657b03fbdba8","6657935af0ec5f5cada7f2c1","300","stimuli/21010000.jpg"," ","","feedback_trial","0","","","","","","","","","","","","","","","","","","","","",""
"","","","","","image-keyboard-response","297","789766","0.0-245.0","63daca8ae542ff8f19d3099a","665500ab8938657b03fbdba8","6657935af0ec5f5cada7f2c1","1287","stimuli/0010100.jpg","0","","prediction_trial","0","","true","","0","false","true","true","true","false","true","[0]","010","100","1","","","","","","",""
"","","","","","image-keyboard-response","298","789996","0.0-246.0","63daca8ae542ff8f19d3099a","665500ab8938657b03fbdba8","6657935af0ec5f5cada7f2c1","228","stimuli/00101000.jpg"," ","","feedback_trial","0","","","","","","","","","","","","","","","","","","","","",""
"","","","","","image-keyboard-response","299","791275","0.0-247.0","63daca8ae542ff8f19d3099a","665500ab8938657b03fbdba8","6657935af0ec5f5cada7f2c1","1270","stimuli/0001001.jpg","0","","prediction_trial","0","","true","","0","true","true","true","true","true","true","[0]","001","001","1","","","","","","",""
"","","","","","image-keyboard-response","300","791527","0.0-248.0","63daca8ae542ff8f19d3099a","665500ab8938657b03fbdba8","6657935af0ec5f5cada7f2c1","251","stimuli/00010010.jpg"," ","","feedback_trial","0","","","","","","","","","","","","","","","","","","","","",""
"","","","","","image-keyboard-response","301","796544","0.0-249.0","63daca8ae542ff8f19d3099a","665500ab8938657b03fbdba8","6657935af0ec5f5cada7f2c1","5015","stimuli/0110101.jpg","2","","prediction_trial","1","","false","","0","false","false","false","false","false","false","[1,0]","110","101","0","","","","","","",""
"","","","","","image-keyboard-response","302","799129","0.0-250.0","63daca8ae542ff8f19d3099a","665500ab8938657b03fbdba8","6657935af0ec5f5cada7f2c1","2583","stimuli/01101011.jpg"," ","","feedback_trial","1","","","","","","","","","","","","","","","","","","","","",""
"","","","","","image-keyboard-response","303","800183","0.0-251.0","63daca8ae542ff8f19d3099a","665500ab8938657b03fbdba8","6657935af0ec5f5cada7f2c1","1053","stimuli/2101110.jpg","2","","prediction_trial","2","","true","","2","true","true","false","false","false","false","[0,2]","101","110","1","","","","","","",""
"","","","","","image-keyboard-response","304","800465","0.0-252.0","63daca8ae542ff8f19d3099a","665500ab8938657b03fbdba8","6657935af0ec5f5cada7f2c1","281","stimuli/21011102.jpg"," ","","feedback_trial","0","","","","","","","","","","","","","","","","","","","","",""
"","","","","","image-keyboard-response","305","801362","0.0-253.0","63daca8ae542ff8f19d3099a","665500ab8938657b03fbdba8","6657935af0ec5f5cada7f2c1","896","stimuli/2001110.jpg","2","","prediction_trial","2","","true","","2","true","true","false","true","false","true","[2]","001","110","1","","","","","","",""
"","","","","","image-keyboard-response","306","801687","0.0-254.0","63daca8ae542ff8f19d3099a","665500ab8938657b03fbdba8","6657935af0ec5f5cada7f2c1","324","stimuli/20011102.jpg"," ","","feedback_trial","2","","","","","","","","","","","","","","","","","","","","",""
"","","","","","image-keyboard-response","307","802777","0.0-255.0","63daca8ae542ff8f19d3099a","665500ab8938657b03fbdba8","6657935af0ec5f5cada7f2c1","1089","stimuli/0011001.jpg","0","","prediction_trial","0","","true","","0","true","true","true","true","true","true","[0]","011","001","1","","","","","","",""
"","","","","","image-keyboard-response","308","803033","0.0-256.0","63daca8ae542ff8f19d3099a","665500ab8938657b03fbdba8","6657935af0ec5f5cada7f2c1","254","stimuli/00110010.jpg"," ","","feedback_trial","0","","","","","","","","","","","","","","","","","","","","",""
"","","","","","image-keyboard-response","309","804126","0.0-257.0","63daca8ae542ff8f19d3099a","665500ab8938657b03fbdba8","6657935af0ec5f5cada7f2c1","1091","stimuli/0010101.jpg","0","","prediction_trial","0","","true","","0","false","false","true","true","false","false","[0]","010","101","1","","","","","","",""
