"success","timeout","failed_images","failed_audio","failed_video","trial_type","trial_index","time_elapsed","internal_node_id","prolific_id","prolific_study_id","prolific_session_id","rt","stimulus","response","view_history","trial","character_choice","stimulus_dict","accuracy","correct_response","ball_pos","ego_ball_visible","ego_can_infer","alter_ball_visible","alter_can_infer","collective_ball_visible","collective_can_infer","search_locations","alter_occluders","ego_occluders","accuracy_bool","feedback","age","ethnicity","gender","race","overall_accuracy","bonus"
"true","false","[]","[]","[]","preload","0","3054","0.0-0.0","5953462b2d8f240001481c53","665500ab8938657b03fbdba8","665792ad457c84106353b05f","","","","","","","","","","","","","","","","","","","","","","","","","","",""
"true","","","","","fullscreen","1","5592","0.0-1.0","5953462b2d8f240001481c53","665500ab8938657b03fbdba8","665792ad457c84106353b05f","","","","","","","","","","","","","","","","","","","","","","","","","","",""
"","","","","","html-button-response","2","6636","0.0-2.0","5953462b2d8f240001481c53","665500ab8938657b03fbdba8","665792ad457c84106353b05f","1042","<p><b>Consent Form</b></p> <div style=""text-align:left;background-color:lightgrey; padding:20px; max-width:900px;""><p>Please consider this information carefully before deciding whether to participate in this research.</p> <p>The purpose of this research is to examine which factors influence social judgment and decision-making. You will be asked to make judgements about individuals and actions in social scenarios. We are simply interested in your judgement. The study will take less than 1 hour to complete, and you will receive less than $20 on Prolific. Your compensation and time commitment are specified in the study description. There are no anticipated risks associated with participating in this study. The effects of participating should be comparable to those you would ordinarily experience from viewing a computer monitor and using a mouse or keyboard for a similar amount of time. At the end of the study, we will provide an explanation of the questions that motivate this line of research and will describe the potential implications. </p><p> Your participation in this study is completely voluntary and you may refuse to participate or you may choose to withdraw at any time without penalty or loss of benefits to you which are otherwise entitled. Your participation in this study will remain confidential. No personally identifiable information will be associated with your data. Also, all analyses of the data will be averaged across all the participants, so your individual responses will never be specifically analyzed. </p><p> If you have questions or concerns about your participation or payment, or want to request a summary of research findings, please contact Dr. Jonathan Phillips at Jonathan.S.Phillips@dartmouth.edu. </p><p> Please save a copy of this form for your records. </p><p><b>Agreement: </b>The nature and purpose of this research have been sufficiently explained and I agree to participate in this study. I understand that I am free to withdraw at any time without incurring any penalty. Please consent by clicking the button below to continue. Otherwise, please exit the study at any time. </p>","0","","","","","","","","","","","","","","","","","","","","","","","",""
"","","","","","instructions","3","27950","0.0-3.0-0.0","5953462b2d8f240001481c53","665500ab8938657b03fbdba8","665792ad457c84106353b05f","21312","","","[{""page_index"":0,""viewing_time"":1026},{""page_index"":1,""viewing_time"":956},{""page_index"":2,""viewing_time"":694},{""page_index"":3,""viewing_time"":1486},{""page_index"":4,""viewing_time"":1258},{""page_index"":5,""viewing_time"":1274},{""page_index"":6,""viewing_time"":1945},{""page_index"":7,""viewing_time"":1397},{""page_index"":8,""viewing_time"":1128},{""page_index"":9,""viewing_time"":707},{""page_index"":10,""viewing_time"":3742},{""page_index"":11,""viewing_time"":2451},{""page_index"":12,""viewing_time"":2464},{""page_index"":13,""viewing_time"":784}]","intro","","","","","","","","","","","","","","","","","","","","","",""
"","","","","","image-keyboard-response","4","29138","0.0-3.0-1.0","5953462b2d8f240001481c53","665500ab8938657b03fbdba8","665792ad457c84106353b05f","1178","stimuli/1010110.jpg","2","","prediction_practice","1","{""filepath"":""stimuli/1010110.jpg"",""ball_pos"":1,""ego_ball_visible"":false,""ego_can_infer"":false,""alter_ball_visible"":false,""alter_can_infer"":true,""collective_ball_visible"":false,""collective_can_infer"":false,""search_locations"":[1],""alter_occluders"":""010"",""ego_occluders"":""110""}","false","","","","","","","","","","","","","","","","","","",""
"","","","","","image-keyboard-response","5","32488","0.0-3.0-2.0","5953462b2d8f240001481c53","665500ab8938657b03fbdba8","665792ad457c84106353b05f","3349","stimuli/10101101.jpg"," ","","practrice_feedback","1","","","","","","","","","","","","","","","","","","","","",""
"","","","","","image-keyboard-response","6","34228","0.0-3.0-3.0","5953462b2d8f240001481c53","665500ab8938657b03fbdba8","665792ad457c84106353b05f","1739","stimuli/0101101.jpg","1","","prediction_practice","0","{""filepath"":""stimuli/0101101.jpg"",""ball_pos"":0,""ego_ball_visible"":false,""ego_can_infer"":false,""alter_ball_visible"":false,""alter_can_infer"":false,""collective_ball_visible"":false,""collective_can_infer"":false,""search_locations"":[0,2],""alter_occluders"":""101"",""ego_occluders"":""101""}","false","","","","","","","","","","","","","","","","","","",""
"","","","","","image-keyboard-response","7","36955","0.0-3.0-4.0","5953462b2d8f240001481c53","665500ab8938657b03fbdba8","665792ad457c84106353b05f","2727","stimuli/01011010.jpg"," ","","practrice_feedback","0","","","","","","","","","","","","","","","","","","","","",""
"","","","","","image-keyboard-response","8","38364","0.0-3.0-5.0","5953462b2d8f240001481c53","665500ab8938657b03fbdba8","665792ad457c84106353b05f","1408","stimuli/1000101.jpg","1","","prediction_practice","1","{""filepath"":""stimuli/1000101.jpg"",""ball_pos"":1,""ego_ball_visible"":true,""ego_can_infer"":true,""alter_ball_visible"":true,""alter_can_infer"":true,""collective_ball_visible"":true,""collective_can_infer"":true,""search_locations"":[1],""alter_occluders"":""000"",""ego_occluders"":""101""}","true","","","","","","","","","","","","","","","","","","",""
"","","","","","image-keyboard-response","9","39207","0.0-3.0-6.0","5953462b2d8f240001481c53","665500ab8938657b03fbdba8","665792ad457c84106353b05f","842","stimuli/10001011.jpg"," ","","practrice_feedback","1","","","","","","","","","","","","","","","","","","","","",""
"","","","","","image-keyboard-response","10","40795","0.0-3.0-7.0","5953462b2d8f240001481c53","665500ab8938657b03fbdba8","665792ad457c84106353b05f","1587","stimuli/2010111.jpg","0","","prediction_practice","2","{""filepath"":""stimuli/2010111.jpg"",""ball_pos"":2,""ego_ball_visible"":false,""ego_can_infer"":false,""alter_ball_visible"":true,""alter_can_infer"":true,""collective_ball_visible"":false,""collective_can_infer"":false,""search_locations"":[2],""alter_occluders"":""010"",""ego_occluders"":""111""}","false","","","","","","","","","","","","","","","","","","",""
"","","","","","image-keyboard-response","11","42064","0.0-3.0-8.0","5953462b2d8f240001481c53","665500ab8938657b03fbdba8","665792ad457c84106353b05f","1269","stimuli/20101112.jpg"," ","","practrice_feedback","2","","","","","","","","","","","","","","","","","","","","",""
"","","","","","image-keyboard-response","12","43431","0.0-3.0-9.0","5953462b2d8f240001481c53","665500ab8938657b03fbdba8","665792ad457c84106353b05f","1366","stimuli/1011110.jpg","0","","prediction_practice","2","{""filepath"":""stimuli/1011110.jpg"",""ball_pos"":1,""ego_ball_visible"":false,""ego_can_infer"":false,""alter_ball_visible"":false,""alter_can_infer"":false,""collective_ball_visible"":false,""collective_can_infer"":false,""search_locations"":[2,1],""alter_occluders"":""011"",""ego_occluders"":""110""}","false","","","","","","","","","","","","","","","","","","",""
"","","","","","image-keyboard-response","13","44605","0.0-3.0-10.0","5953462b2d8f240001481c53","665500ab8938657b03fbdba8","665792ad457c84106353b05f","1173","stimuli/10111102.jpg"," ","","practrice_feedback","2","","","","","","","","","","","","","","","","","","","","",""
"","","","","","image-keyboard-response","14","48210","0.0-3.0-11.0","5953462b2d8f240001481c53","665500ab8938657b03fbdba8","665792ad457c84106353b05f","3604","stimuli/1010000.jpg","1","","prediction_practice","1","{""filepath"":""stimuli/1010000.jpg"",""ball_pos"":1,""ego_ball_visible"":true,""ego_can_infer"":true,""alter_ball_visible"":false,""alter_can_infer"":true,""collective_ball_visible"":false,""collective_can_infer"":true,""search_locations"":[1],""alter_occluders"":""010"",""ego_occluders"":""000""}","true","","","","","","","","","","","","","","","","","","",""
"","","","","","image-keyboard-response","15","48725","0.0-3.0-12.0","5953462b2d8f240001481c53","665500ab8938657b03fbdba8","665792ad457c84106353b05f","514","stimuli/10100001.jpg"," ","","practrice_feedback","1","","","","","","","","","","","","","","","","","","","","",""
"","","","","","image-keyboard-response","16","50646","0.0-3.0-13.0","5953462b2d8f240001481c53","665500ab8938657b03fbdba8","665792ad457c84106353b05f","1920","stimuli/0111110.jpg","0","","prediction_practice","0","{""filepath"":""stimuli/0111110.jpg"",""ball_pos"":0,""ego_ball_visible"":false,""ego_can_infer"":false,""alter_ball_visible"":false,""alter_can_infer"":false,""collective_ball_visible"":false,""collective_can_infer"":false,""search_locations"":[1,0,2],""alter_occluders"":""111"",""ego_occluders"":""110""}","true","","","","","","","","","","","","","","","","","","",""
"","","","","","image-keyboard-response","17","51466","0.0-3.0-14.0","5953462b2d8f240001481c53","665500ab8938657b03fbdba8","665792ad457c84106353b05f","819","stimuli/01111100.jpg"," ","","practrice_feedback","1","","","","","","","","","","","","","","","","","","","","",""
"","","","","","image-keyboard-response","18","52863","0.0-3.0-15.0","5953462b2d8f240001481c53","665500ab8938657b03fbdba8","665792ad457c84106353b05f","1397","stimuli/1100111.jpg","2","","prediction_practice","1","{""filepath"":""stimuli/1100111.jpg"",""ball_pos"":1,""ego_ball_visible"":false,""ego_can_infer"":false,""alter_ball_visible"":true,""alter_can_infer"":true,""collective_ball_visible"":false,""collective_can_infer"":false,""search_locations"":[1],""alter_occluders"":""100"",""ego_occluders"":""111""}","false","","","","","","","","","","","","","","","","","","",""
"","","","","","image-keyboard-response","19","53438","0.0-3.0-16.0","5953462b2d8f240001481c53","665500ab8938657b03fbdba8","665792ad457c84106353b05f","574","stimuli/11001111.jpg"," ","","practrice_feedback","1","","","","","","","","","","","","","","","","","","","","",""
"","","","","","image-keyboard-response","20","55284","0.0-3.0-17.0","5953462b2d8f240001481c53","665500ab8938657b03fbdba8","665792ad457c84106353b05f","1845","stimuli/2001110.jpg","2","","prediction_practice","2","{""filepath"":""stimuli/2001110.jpg"",""ball_pos"":2,""ego_ball_visible"":true,""ego_can_infer"":true,""alter_ball_visible"":false,""alter_can_infer"":true,""collective_ball_visible"":false,""collective_can_infer"":true,""search_locations"":[2],""alter_occluders"":""001"",""ego_occluders"":""110""}","true","","","","","","","","","","","","","","","","","","",""
"","","","","","image-keyboard-response","21","56001","0.0-3.0-18.0","5953462b2d8f240001481c53","665500ab8938657b03fbdba8","665792ad457c84106353b05f","716","stimuli/20011102.jpg"," ","","practrice_feedback","2","","","","","","","","","","","","","","","","","","","","",""
"","","","","","image-keyboard-response","22","58069","0.0-3.0-19.0","5953462b2d8f240001481c53","665500ab8938657b03fbdba8","665792ad457c84106353b05f","2068","stimuli/0101111.jpg","0","","prediction_practice","0","{""filepath"":""stimuli/0101111.jpg"",""ball_pos"":0,""ego_ball_visible"":false,""ego_can_infer"":false,""alter_ball_visible"":false,""alter_can_infer"":false,""collective_ball_visible"":false,""collective_can_infer"":false,""search_locations"":[0,2],""alter_occluders"":""101"",""ego_occluders"":""111""}","true","","","","","","","","","","","","","","","","","","",""
"","","","","","image-keyboard-response","23","58684","0.0-3.0-20.0","5953462b2d8f240001481c53","665500ab8938657b03fbdba8","665792ad457c84106353b05f","614","stimuli/01011110.jpg"," ","","practrice_feedback","0","","","","","","","","","","","","","","","","","","","","",""
"","","","","","html-button-response","24","61523","0.0-3.0-21.0","5953462b2d8f240001481c53","665500ab8938657b03fbdba8","665792ad457c84106353b05f","2839","Now that you've had some practice, you'll be tested with a couple of easy trials. If you correctly predict Sam's choice, you'll move on to complete the experiment!","0","","","","","","","","","","","","","","","","","","","","","","","",""
"","","","","","image-keyboard-response","25","62559","0.0-3.0-22.0-0.0","5953462b2d8f240001481c53","665500ab8938657b03fbdba8","665792ad457c84106353b05f","1035","stimuli/0000011.jpg","arrowleft","","comprehension_quiz","","","true","arrowleft","","","","","","","","","","","","","","","","","",""
"","","","","","image-keyboard-response","26","63002","0.0-3.0-22.0-1.0","5953462b2d8f240001481c53","665500ab8938657b03fbdba8","665792ad457c84106353b05f","442","stimuli/00000110.jpg"," ","","comprehension_quiz","","","true"," ","","","","","","","","","","","","","","","","","",""
"","","","","","image-keyboard-response","27","64269","0.0-3.0-22.0-2.0","5953462b2d8f240001481c53","665500ab8938657b03fbdba8","665792ad457c84106353b05f","1266","stimuli/1010010.jpg","arrowdown","","comprehension_quiz","","","true","arrowdown","","","","","","","","","","","","","","","","","",""
"","","","","","image-keyboard-response","28","64609","0.0-3.0-22.0-3.0","5953462b2d8f240001481c53","665500ab8938657b03fbdba8","665792ad457c84106353b05f","339","stimuli/10100101.jpg"," ","","comprehension_quiz","","","true"," ","","","","","","","","","","","","","","","","","",""
"","","","","","html-button-response","29","66460","0.0-4.0","5953462b2d8f240001481c53","665500ab8938657b03fbdba8","665792ad457c84106353b05f","1850","The experiment will now begin.","0","","","","","","","","","","","","","","","","","","","","","","","",""
"","","","","","image-keyboard-response","30","67330","0.0-5.0","5953462b2d8f240001481c53","665500ab8938657b03fbdba8","665792ad457c84106353b05f","868","stimuli/1001000.jpg","1","","prediction_trial","1","","true","","1","true","true","true","true","true","true","[1]","001","000","1","","","","","","",""
"","","","","","image-keyboard-response","31","67657","0.0-6.0","5953462b2d8f240001481c53","665500ab8938657b03fbdba8","665792ad457c84106353b05f","327","stimuli/10010001.jpg"," ","","feedback_trial","1","","","","","","","","","","","","","","","","","","","","",""
"","","","","","image-keyboard-response","32","70776","0.0-7.0","5953462b2d8f240001481c53","665500ab8938657b03fbdba8","665792ad457c84106353b05f","3118","stimuli/1101011.jpg","1","","prediction_trial","1","","true","","1","false","false","true","true","false","false","[1]","101","011","1","","","","","","",""
"","","","","","image-keyboard-response","33","71247","0.0-8.0","5953462b2d8f240001481c53","665500ab8938657b03fbdba8","665792ad457c84106353b05f","470","stimuli/11010111.jpg"," ","","feedback_trial","1","","","","","","","","","","","","","","","","","","","","",""
"","","","","","image-keyboard-response","34","72576","0.0-9.0","5953462b2d8f240001481c53","665500ab8938657b03fbdba8","665792ad457c84106353b05f","1328","stimuli/1111111.jpg","2","","prediction_trial","2","","true","","1","false","false","false","false","false","false","[2,1,0]","111","111","1","","","","","","",""
"","","","","","image-keyboard-response","35","73026","0.0-10.0","5953462b2d8f240001481c53","665500ab8938657b03fbdba8","665792ad457c84106353b05f","449","stimuli/11111112.jpg"," ","","feedback_trial","2","","","","","","","","","","","","","","","","","","","","",""
"","","","","","image-keyboard-response","36","75175","0.0-11.0","5953462b2d8f240001481c53","665500ab8938657b03fbdba8","665792ad457c84106353b05f","2148","stimuli/1010100.jpg","1","","prediction_trial","1","","true","","1","true","true","false","true","false","true","[1]","010","100","1","","","","","","",""
"","","","","","image-keyboard-response","37","75773","0.0-12.0","5953462b2d8f240001481c53","665500ab8938657b03fbdba8","665792ad457c84106353b05f","597","stimuli/10101001.jpg"," ","","feedback_trial","1","","","","","","","","","","","","","","","","","","","","",""
"","","","","","image-keyboard-response","38","77437","0.0-13.0","5953462b2d8f240001481c53","665500ab8938657b03fbdba8","665792ad457c84106353b05f","1664","stimuli/0111000.jpg","1","","prediction_trial","1","","true","","0","true","true","false","false","false","false","[0,2,1]","111","000","1","","","","","","",""
"","","","","","image-keyboard-response","39","77821","0.0-14.0","5953462b2d8f240001481c53","665500ab8938657b03fbdba8","665792ad457c84106353b05f","383","stimuli/01110001.jpg"," ","","feedback_trial","0","","","","","","","","","","","","","","","","","","","","",""
"","","","","","image-keyboard-response","40","79183","0.0-15.0","5953462b2d8f240001481c53","665500ab8938657b03fbdba8","665792ad457c84106353b05f","1361","stimuli/2111000.jpg","1","","prediction_trial","2","","false","","2","true","true","false","false","false","false","[2,1,0]","111","000","0","","","","","","",""
"","","","","","image-keyboard-response","41","79671","0.0-16.0","5953462b2d8f240001481c53","665500ab8938657b03fbdba8","665792ad457c84106353b05f","488","stimuli/21110002.jpg"," ","","feedback_trial","2","","","","","","","","","","","","","","","","","","","","",""
"","","","","","image-keyboard-response","42","82373","0.0-17.0","5953462b2d8f240001481c53","665500ab8938657b03fbdba8","665792ad457c84106353b05f","2701","stimuli/2111101.jpg","1","","prediction_trial","2","","false","","2","false","false","false","false","false","false","[0,1,2]","111","101","0","","","","","","",""
"","","","","","image-keyboard-response","43","82850","0.0-18.0","5953462b2d8f240001481c53","665500ab8938657b03fbdba8","665792ad457c84106353b05f","477","stimuli/21111012.jpg"," ","","feedback_trial","0","","","","","","","","","","","","","","","","","","","","",""
"","","","","","image-keyboard-response","44","83737","0.0-19.0","5953462b2d8f240001481c53","665500ab8938657b03fbdba8","665792ad457c84106353b05f","886","stimuli/2110000.jpg","2","","prediction_trial","2","","true","","2","true","true","true","true","true","true","[2]","110","000","1","","","","","","",""
"","","","","","image-keyboard-response","45","84016","0.0-20.0","5953462b2d8f240001481c53","665500ab8938657b03fbdba8","665792ad457c84106353b05f","278","stimuli/21100002.jpg"," ","","feedback_trial","2","","","","","","","","","","","","","","","","","","","","",""
"","","","","","image-keyboard-response","46","84897","0.0-21.0","5953462b2d8f240001481c53","665500ab8938657b03fbdba8","665792ad457c84106353b05f","880","stimuli/2010000.jpg","2","","prediction_trial","2","","true","","2","true","true","true","true","true","true","[2]","010","000","1","","","","","","",""
"","","","","","image-keyboard-response","47","85097","0.0-22.0","5953462b2d8f240001481c53","665500ab8938657b03fbdba8","665792ad457c84106353b05f","199","stimuli/20100002.jpg"," ","","feedback_trial","2","","","","","","","","","","","","","","","","","","","","",""
"","","","","","image-keyboard-response","48","88228","0.0-23.0","5953462b2d8f240001481c53","665500ab8938657b03fbdba8","665792ad457c84106353b05f","3130","stimuli/2011100.jpg","1","","prediction_trial","2","","false","","2","true","true","false","false","false","false","[2,1]","011","100","0","","","","","","",""
"","","","","","image-keyboard-response","49","88621","0.0-24.0","5953462b2d8f240001481c53","665500ab8938657b03fbdba8","665792ad457c84106353b05f","393","stimuli/20111002.jpg"," ","","feedback_trial","2","","","","","","","","","","","","","","","","","","","","",""
"","","","","","image-keyboard-response","50","90605","0.0-25.0","5953462b2d8f240001481c53","665500ab8938657b03fbdba8","665792ad457c84106353b05f","1983","stimuli/2001100.jpg","2","","prediction_trial","2","","true","","2","true","true","false","true","false","true","[2]","001","100","1","","","","","","",""
"","","","","","image-keyboard-response","51","90890","0.0-26.0","5953462b2d8f240001481c53","665500ab8938657b03fbdba8","665792ad457c84106353b05f","284","stimuli/20011002.jpg"," ","","feedback_trial","2","","","","","","","","","","","","","","","","","","","","",""
"","","","","","image-keyboard-response","52","92133","0.0-27.0","5953462b2d8f240001481c53","665500ab8938657b03fbdba8","665792ad457c84106353b05f","1243","stimuli/2111111.jpg","1","","prediction_trial","1","","true","","2","false","false","false","false","false","false","[1,2,0]","111","111","1","","","","","","",""
"","","","","","image-keyboard-response","53","92457","0.0-28.0","5953462b2d8f240001481c53","665500ab8938657b03fbdba8","665792ad457c84106353b05f","324","stimuli/21111111.jpg"," ","","feedback_trial","1","","","","","","","","","","","","","","","","","","","","",""
"","","","","","image-keyboard-response","54","94392","0.0-29.0","5953462b2d8f240001481c53","665500ab8938657b03fbdba8","665792ad457c84106353b05f","1934","stimuli/2101100.jpg","2","","prediction_trial","2","","true","","2","true","true","false","false","false","false","[0,2]","101","100","1","","","","","","",""
"","","","","","image-keyboard-response","55","94687","0.0-30.0","5953462b2d8f240001481c53","665500ab8938657b03fbdba8","665792ad457c84106353b05f","295","stimuli/21011002.jpg"," ","","feedback_trial","0","","","","","","","","","","","","","","","","","","","","",""
"","","","","","image-keyboard-response","56","96058","0.0-31.0","5953462b2d8f240001481c53","665500ab8938657b03fbdba8","665792ad457c84106353b05f","1370","stimuli/0101001.jpg","0","","prediction_trial","0","","true","","0","true","true","false","false","false","false","[0,2]","101","001","1","","","","","","",""
"","","","","","image-keyboard-response","57","96356","0.0-32.0","5953462b2d8f240001481c53","665500ab8938657b03fbdba8","665792ad457c84106353b05f","298","stimuli/01010010.jpg"," ","","feedback_trial","0","","","","","","","","","","","","","","","","","","","","",""
"","","","","","image-keyboard-response","58","97500","0.0-33.0","5953462b2d8f240001481c53","665500ab8938657b03fbdba8","665792ad457c84106353b05f","1143","stimuli/2111110.jpg","2","","prediction_trial","2","","true","","2","true","true","false","false","false","false","[0,1,2]","111","110","1","","","","","","",""
"","","","","","image-keyboard-response","59","97825","0.0-34.0","5953462b2d8f240001481c53","665500ab8938657b03fbdba8","665792ad457c84106353b05f","324","stimuli/21111102.jpg"," ","","feedback_trial","0","","","","","","","","","","","","","","","","","","","","",""
"","","","","","image-keyboard-response","60","99227","0.0-35.0","5953462b2d8f240001481c53","665500ab8938657b03fbdba8","665792ad457c84106353b05f","1401","stimuli/2110100.jpg","2","","prediction_trial","2","","true","","2","true","true","true","true","true","true","[2]","110","100","1","","","","","","",""
"","","","","","image-keyboard-response","61","99459","0.0-36.0","5953462b2d8f240001481c53","665500ab8938657b03fbdba8","665792ad457c84106353b05f","232","stimuli/21101002.jpg"," ","","feedback_trial","2","","","","","","","","","","","","","","","","","","","","",""
"","","","","","image-keyboard-response","62","101263","0.0-37.0","5953462b2d8f240001481c53","665500ab8938657b03fbdba8","665792ad457c84106353b05f","1803","stimuli/1000011.jpg","2","","prediction_trial","1","","false","","1","false","false","true","true","false","false","[1]","000","011","0","","","","","","",""
"","","","","","image-keyboard-response","63","101450","0.0-38.0","5953462b2d8f240001481c53","665500ab8938657b03fbdba8","665792ad457c84106353b05f","186","stimuli/10000111.jpg"," ","","feedback_trial","1","","","","","","","","","","","","","","","","","","","","",""
"","","","","","image-keyboard-response","64","102438","0.0-39.0","5953462b2d8f240001481c53","665500ab8938657b03fbdba8","665792ad457c84106353b05f","987","stimuli/2000010.jpg","2","","prediction_trial","2","","true","","2","true","true","true","true","true","true","[2]","000","010","1","","","","","","",""
"","","","","","image-keyboard-response","65","102591","0.0-40.0","5953462b2d8f240001481c53","665500ab8938657b03fbdba8","665792ad457c84106353b05f","152","stimuli/20000102.jpg"," ","","feedback_trial","2","","","","","","","","","","","","","","","","","","","","",""
"","","","","","image-keyboard-response","66","103423","0.0-41.0","5953462b2d8f240001481c53","665500ab8938657b03fbdba8","665792ad457c84106353b05f","831","stimuli/2010100.jpg","2","","prediction_trial","2","","true","","2","true","true","true","true","true","true","[2]","010","100","1","","","","","","",""
"","","","","","image-keyboard-response","67","103564","0.0-42.0","5953462b2d8f240001481c53","665500ab8938657b03fbdba8","665792ad457c84106353b05f","140","stimuli/20101002.jpg"," ","","feedback_trial","2","","","","","","","","","","","","","","","","","","","","",""
"","","","","","image-keyboard-response","68","105626","0.0-43.0","5953462b2d8f240001481c53","665500ab8938657b03fbdba8","665792ad457c84106353b05f","2061","stimuli/1001011.jpg","1","","prediction_trial","1","","true","","1","false","false","true","true","false","false","[1]","001","011","1","","","","","","",""
"","","","","","image-keyboard-response","69","105999","0.0-44.0","5953462b2d8f240001481c53","665500ab8938657b03fbdba8","665792ad457c84106353b05f","373","stimuli/10010111.jpg"," ","","feedback_trial","1","","","","","","","","","","","","","","","","","","","","",""
"","","","","","image-keyboard-response","70","107263","0.0-45.0","5953462b2d8f240001481c53","665500ab8938657b03fbdba8","665792ad457c84106353b05f","1263","stimuli/1011001.jpg","1","","prediction_trial","1","","true","","1","true","true","false","false","false","false","[2,1]","011","001","1","","","","","","",""
"","","","","","image-keyboard-response","71","107652","0.0-46.0","5953462b2d8f240001481c53","665500ab8938657b03fbdba8","665792ad457c84106353b05f","388","stimuli/10110011.jpg"," ","","feedback_trial","2","","","","","","","","","","","","","","","","","","","","",""
"","","","","","image-keyboard-response","72","108521","0.0-47.0","5953462b2d8f240001481c53","665500ab8938657b03fbdba8","665792ad457c84106353b05f","869","stimuli/0000011.jpg","0","","prediction_trial","0","","true","","0","true","true","true","true","true","true","[0]","000","011","1","","","","","","",""
"","","","","","image-keyboard-response","73","108739","0.0-48.0","5953462b2d8f240001481c53","665500ab8938657b03fbdba8","665792ad457c84106353b05f","217","stimuli/00000110.jpg"," ","","feedback_trial","0","","","","","","","","","","","","","","","","","","","","",""
"","","","","","image-keyboard-response","74","109621","0.0-49.0","5953462b2d8f240001481c53","665500ab8938657b03fbdba8","665792ad457c84106353b05f","881","stimuli/1010111.jpg","2","","prediction_trial","1","","false","","1","false","false","false","true","false","false","[1]","010","111","0","","","","","","",""
"","","","","","image-keyboard-response","75","110061","0.0-50.0","5953462b2d8f240001481c53","665500ab8938657b03fbdba8","665792ad457c84106353b05f","439","stimuli/10101111.jpg"," ","","feedback_trial","1","","","","","","","","","","","","","","","","","","","","",""
"","","","","","image-keyboard-response","76","111289","0.0-51.0","5953462b2d8f240001481c53","665500ab8938657b03fbdba8","665792ad457c84106353b05f","1228","stimuli/1111000.jpg","1","","prediction_trial","2","","false","","1","true","true","false","false","false","false","[2,0,1]","111","000","0","","","","","","",""
"","","","","","image-keyboard-response","77","111729","0.0-52.0","5953462b2d8f240001481c53","665500ab8938657b03fbdba8","665792ad457c84106353b05f","438","stimuli/11110002.jpg"," ","","feedback_trial","2","","","","","","","","","","","","","","","","","","","","",""
"","","","","","image-keyboard-response","78","113817","0.0-53.0","5953462b2d8f240001481c53","665500ab8938657b03fbdba8","665792ad457c84106353b05f","2087","stimuli/1011101.jpg","1","","prediction_trial","2","","false","","1","true","true","false","false","false","false","[1,2]","011","101","0","","","","","","",""
"","","","","","image-keyboard-response","79","114266","0.0-54.0","5953462b2d8f240001481c53","665500ab8938657b03fbdba8","665792ad457c84106353b05f","448","stimuli/10111012.jpg"," ","","feedback_trial","1","","","","","","","","","","","","","","","","","","","","",""
"","","","","","image-keyboard-response","80","115158","0.0-55.0","5953462b2d8f240001481c53","665500ab8938657b03fbdba8","665792ad457c84106353b05f","891","stimuli/2111100.jpg","2","","prediction_trial","2","","true","","2","true","true","false","false","false","false","[1,0,2]","111","100","1","","","","","","",""
"","","","","","image-keyboard-response","81","115546","0.0-56.0","5953462b2d8f240001481c53","665500ab8938657b03fbdba8","665792ad457c84106353b05f","387","stimuli/21111002.jpg"," ","","feedback_trial","1","","","","","","","","","","","","","","","","","","","","",""
"","","","","","image-keyboard-response","82","116657","0.0-57.0","5953462b2d8f240001481c53","665500ab8938657b03fbdba8","665792ad457c84106353b05f","1111","stimuli/1111010.jpg","1","","prediction_trial","2","","false","","1","false","true","false","false","false","false","[0,1,2]","111","010","0","","","","","","",""
"","","","","","image-keyboard-response","83","116904","0.0-58.0","5953462b2d8f240001481c53","665500ab8938657b03fbdba8","665792ad457c84106353b05f","246","stimuli/11110102.jpg"," ","","feedback_trial","0","","","","","","","","","","","","","","","","","","","","",""
"","","","","","image-keyboard-response","84","118454","0.0-59.0","5953462b2d8f240001481c53","665500ab8938657b03fbdba8","665792ad457c84106353b05f","1549","stimuli/0100011.jpg","0","","prediction_trial","0","","true","","0","true","true","false","true","false","true","[0]","100","011","1","","","","","","",""
"","","","","","image-keyboard-response","85","118692","0.0-60.0","5953462b2d8f240001481c53","665500ab8938657b03fbdba8","665792ad457c84106353b05f","238","stimuli/01000110.jpg"," ","","feedback_trial","0","","","","","","","","","","","","","","","","","","","","",""
"","","","","","image-keyboard-response","86","119887","0.0-61.0","5953462b2d8f240001481c53","665500ab8938657b03fbdba8","665792ad457c84106353b05f","1194","stimuli/0111101.jpg","0","","prediction_trial","1","","false","","0","false","false","false","false","false","false","[0,2,1]","111","101","0","","","","","","",""
"","","","","","image-keyboard-response","87","120350","0.0-62.0","5953462b2d8f240001481c53","665500ab8938657b03fbdba8","665792ad457c84106353b05f","462","stimuli/01111011.jpg"," ","","feedback_trial","0","","","","","","","","","","","","","","","","","","","","",""
"","","","","","image-keyboard-response","88","122307","0.0-63.0","5953462b2d8f240001481c53","665500ab8938657b03fbdba8","665792ad457c84106353b05f","1957","stimuli/1100010.jpg","1","","prediction_trial","1","","true","","1","false","true","true","true","false","true","[1]","100","010","1","","","","","","",""
"","","","","","image-keyboard-response","89","122904","0.0-64.0","5953462b2d8f240001481c53","665500ab8938657b03fbdba8","665792ad457c84106353b05f","597","stimuli/11000101.jpg"," ","","feedback_trial","1","","","","","","","","","","","","","","","","","","","","",""
"","","","","","image-keyboard-response","90","124050","0.0-65.0","5953462b2d8f240001481c53","665500ab8938657b03fbdba8","665792ad457c84106353b05f","1145","stimuli/1101111.jpg","1","","prediction_trial","1","","true","","1","false","false","true","true","false","false","[1]","101","111","1","","","","","","",""
"","","","","","image-keyboard-response","91","124628","0.0-66.0","5953462b2d8f240001481c53","665500ab8938657b03fbdba8","665792ad457c84106353b05f","577","stimuli/11011111.jpg"," ","","feedback_trial","1","","","","","","","","","","","","","","","","","","","","",""
"","","","","","image-keyboard-response","92","125547","0.0-67.0","5953462b2d8f240001481c53","665500ab8938657b03fbdba8","665792ad457c84106353b05f","919","stimuli/2010110.jpg","2","","prediction_trial","2","","true","","2","true","true","true","true","true","true","[2]","010","110","1","","","","","","",""
"","","","","","image-keyboard-response","93","125836","0.0-68.0","5953462b2d8f240001481c53","665500ab8938657b03fbdba8","665792ad457c84106353b05f","288","stimuli/20101102.jpg"," ","","feedback_trial","2","","","","","","","","","","","","","","","","","","","","",""
"","","","","","image-keyboard-response","94","127075","0.0-69.0","5953462b2d8f240001481c53","665500ab8938657b03fbdba8","665792ad457c84106353b05f","1238","stimuli/1100110.jpg","1","","prediction_trial","1","","true","","1","false","false","true","true","false","false","[1]","100","110","1","","","","","","",""
"","","","","","image-keyboard-response","95","127439","0.0-70.0","5953462b2d8f240001481c53","665500ab8938657b03fbdba8","665792ad457c84106353b05f","363","stimuli/11001101.jpg"," ","","feedback_trial","1","","","","","","","","","","","","","","","","","","","","",""
"","","","","","image-keyboard-response","96","128488","0.0-71.0","5953462b2d8f240001481c53","665500ab8938657b03fbdba8","665792ad457c84106353b05f","1049","stimuli/0101100.jpg","0","","prediction_trial","0","","true","","0","false","true","false","false","false","false","[2,0]","101","100","1","","","","","","",""
"","","","","","image-keyboard-response","97","128857","0.0-72.0","5953462b2d8f240001481c53","665500ab8938657b03fbdba8","665792ad457c84106353b05f","369","stimuli/01011000.jpg"," ","","feedback_trial","2","","","","","","","","","","","","","","","","","","","","",""
"","","","","","image-keyboard-response","98","129744","0.0-73.0","5953462b2d8f240001481c53","665500ab8938657b03fbdba8","665792ad457c84106353b05f","885","stimuli/0010111.jpg","0","","prediction_trial","0","","true","","0","false","false","true","true","false","false","[0]","010","111","1","","","","","","",""
"","","","","","image-keyboard-response","99","130150","0.0-74.0","5953462b2d8f240001481c53","665500ab8938657b03fbdba8","665792ad457c84106353b05f","405","stimuli/00101110.jpg"," ","","feedback_trial","0","","","","","","","","","","","","","","","","","","","","",""
"","","","","","image-keyboard-response","100","131478","0.0-75.0","5953462b2d8f240001481c53","665500ab8938657b03fbdba8","665792ad457c84106353b05f","1328","stimuli/1101010.jpg","1","","prediction_trial","1","","true","","1","false","true","true","true","false","true","[1]","101","010","1","","","","","","",""
"","","","","","image-keyboard-response","101","131828","0.0-76.0","5953462b2d8f240001481c53","665500ab8938657b03fbdba8","665792ad457c84106353b05f","349","stimuli/11010101.jpg"," ","","feedback_trial","1","","","","","","","","","","","","","","","","","","","","",""
"","","","","","image-keyboard-response","102","132625","0.0-77.0","5953462b2d8f240001481c53","665500ab8938657b03fbdba8","665792ad457c84106353b05f","796","stimuli/2000110.jpg","2","","prediction_trial","2","","true","","2","true","true","true","true","true","true","[2]","000","110","1","","","","","","",""
"","","","","","image-keyboard-response","103","132826","0.0-78.0","5953462b2d8f240001481c53","665500ab8938657b03fbdba8","665792ad457c84106353b05f","200","stimuli/20001102.jpg"," ","","feedback_trial","2","","","","","","","","","","","","","","","","","","","","",""
"","","","","","image-keyboard-response","104","134032","0.0-79.0","5953462b2d8f240001481c53","665500ab8938657b03fbdba8","665792ad457c84106353b05f","1205","stimuli/1110100.jpg","0","","prediction_trial","0","","true","","1","true","true","false","false","false","false","[1,0]","110","100","1","","","","","","",""
"","","","","","image-keyboard-response","105","134316","0.0-80.0","5953462b2d8f240001481c53","665500ab8938657b03fbdba8","665792ad457c84106353b05f","283","stimuli/11101000.jpg"," ","","feedback_trial","1","","","","","","","","","","","","","","","","","","","","",""
"","","","","","image-keyboard-response","106","135542","0.0-81.0","5953462b2d8f240001481c53","665500ab8938657b03fbdba8","665792ad457c84106353b05f","1226","stimuli/0101010.jpg","0","","prediction_trial","2","","false","","0","true","true","false","false","false","false","[0,2]","101","010","0","","","","","","",""
"","","","","","image-keyboard-response","107","136246","0.0-82.0","5953462b2d8f240001481c53","665500ab8938657b03fbdba8","665792ad457c84106353b05f","703","stimuli/01010102.jpg"," ","","feedback_trial","0","","","","","","","","","","","","","","","","","","","","",""
"","","","","","image-keyboard-response","108","138177","0.0-83.0","5953462b2d8f240001481c53","665500ab8938657b03fbdba8","665792ad457c84106353b05f","1929","stimuli/2001110.jpg","2","","prediction_trial","2","","true","","2","true","true","false","true","false","true","[2]","001","110","1","","","","","","",""
"","","","","","image-keyboard-response","109","138440","0.0-84.0","5953462b2d8f240001481c53","665500ab8938657b03fbdba8","665792ad457c84106353b05f","263","stimuli/20011102.jpg"," ","","feedback_trial","2","","","","","","","","","","","","","","","","","","","","",""
"","","","","","image-keyboard-response","110","140064","0.0-85.0","5953462b2d8f240001481c53","665500ab8938657b03fbdba8","665792ad457c84106353b05f","1624","stimuli/2000011.jpg","1","","prediction_trial","2","","false","","2","false","false","true","true","false","false","[2]","000","011","0","","","","","","",""
"","","","","","image-keyboard-response","111","140594","0.0-86.0","5953462b2d8f240001481c53","665500ab8938657b03fbdba8","665792ad457c84106353b05f","529","stimuli/20000112.jpg"," ","","feedback_trial","2","","","","","","","","","","","","","","","","","","","","",""
"","","","","","image-keyboard-response","112","141633","0.0-87.0","5953462b2d8f240001481c53","665500ab8938657b03fbdba8","665792ad457c84106353b05f","1038","stimuli/1100000.jpg","1","","prediction_trial","1","","true","","1","true","true","true","true","true","true","[1]","100","000","1","","","","","","",""
"","","","","","image-keyboard-response","113","141866","0.0-88.0","5953462b2d8f240001481c53","665500ab8938657b03fbdba8","665792ad457c84106353b05f","233","stimuli/11000001.jpg"," ","","feedback_trial","1","","","","","","","","","","","","","","","","","","","","",""
"","","","","","image-keyboard-response","114","143003","0.0-89.0","5953462b2d8f240001481c53","665500ab8938657b03fbdba8","665792ad457c84106353b05f","1136","stimuli/2100001.jpg","2","","prediction_trial","2","","true","","2","false","true","true","true","false","true","[2]","100","001","1","","","","","","",""
"","","","","","image-keyboard-response","115","143320","0.0-90.0","5953462b2d8f240001481c53","665500ab8938657b03fbdba8","665792ad457c84106353b05f","316","stimuli/21000012.jpg"," ","","feedback_trial","2","","","","","","","","","","","","","","","","","","","","",""
"","","","","","image-keyboard-response","116","144233","0.0-91.0","5953462b2d8f240001481c53","665500ab8938657b03fbdba8","665792ad457c84106353b05f","912","stimuli/2100100.jpg","2","","prediction_trial","2","","true","","2","true","true","true","true","true","true","[2]","100","100","1","","","","","","",""
"","","","","","image-keyboard-response","117","144402","0.0-92.0","5953462b2d8f240001481c53","665500ab8938657b03fbdba8","665792ad457c84106353b05f","168","stimuli/21001002.jpg"," ","","feedback_trial","2","","","","","","","","","","","","","","","","","","","","",""
"","","","","","image-keyboard-response","118","145445","0.0-93.0","5953462b2d8f240001481c53","665500ab8938657b03fbdba8","665792ad457c84106353b05f","1043","stimuli/2111011.jpg","1","","prediction_trial","1","","true","","2","false","false","false","false","false","false","[2,1,0]","111","011","1","","","","","","",""
"","","","","","image-keyboard-response","119","145895","0.0-94.0","5953462b2d8f240001481c53","665500ab8938657b03fbdba8","665792ad457c84106353b05f","448","stimuli/21110111.jpg"," ","","feedback_trial","2","","","","","","","","","","","","","","","","","","","","",""
"","","","","","image-keyboard-response","120","147421","0.0-95.0","5953462b2d8f240001481c53","665500ab8938657b03fbdba8","665792ad457c84106353b05f","1526","stimuli/2101110.jpg","2","","prediction_trial","0","","false","","2","true","true","false","false","false","false","[2,0]","101","110","0","","","","","","",""
"","","","","","image-keyboard-response","121","147866","0.0-96.0","5953462b2d8f240001481c53","665500ab8938657b03fbdba8","665792ad457c84106353b05f","444","stimuli/21011100.jpg"," ","","feedback_trial","2","","","","","","","","","","","","","","","","","","","","",""
"","","","","","image-keyboard-response","122","148752","0.0-97.0","5953462b2d8f240001481c53","665500ab8938657b03fbdba8","665792ad457c84106353b05f","885","stimuli/1001100.jpg","1","","prediction_trial","1","","true","","1","true","true","true","true","true","true","[1]","001","100","1","","","","","","",""
"","","","","","image-keyboard-response","123","149026","0.0-98.0","5953462b2d8f240001481c53","665500ab8938657b03fbdba8","665792ad457c84106353b05f","274","stimuli/10011001.jpg"," ","","feedback_trial","1","","","","","","","","","","","","","","","","","","","","",""
"","","","","","image-keyboard-response","124","149767","0.0-99.0","5953462b2d8f240001481c53","665500ab8938657b03fbdba8","665792ad457c84106353b05f","740","stimuli/0011100.jpg","0","","prediction_trial","0","","true","","0","false","true","true","true","false","true","[0]","011","100","1","","","","","","",""
"","","","","","image-keyboard-response","125","150052","0.0-100.0","5953462b2d8f240001481c53","665500ab8938657b03fbdba8","665792ad457c84106353b05f","285","stimuli/00111000.jpg"," ","","feedback_trial","0","","","","","","","","","","","","","","","","","","","","",""
"","","","","","image-keyboard-response","126","150734","0.0-101.0","5953462b2d8f240001481c53","665500ab8938657b03fbdba8","665792ad457c84106353b05f","681","stimuli/2010010.jpg","2","","prediction_trial","2","","true","","2","true","true","true","true","true","true","[2]","010","010","1","","","","","","",""
"","","","","","image-keyboard-response","127","150910","0.0-102.0","5953462b2d8f240001481c53","665500ab8938657b03fbdba8","665792ad457c84106353b05f","176","stimuli/20100102.jpg"," ","","feedback_trial","2","","","","","","","","","","","","","","","","","","","","",""
"","","","","","image-keyboard-response","128","151620","0.0-103.0","5953462b2d8f240001481c53","665500ab8938657b03fbdba8","665792ad457c84106353b05f","708","stimuli/1101001.jpg","1","","prediction_trial","1","","true","","1","true","true","true","true","true","true","[1]","101","001","1","","","","","","",""
"","","","","","image-keyboard-response","129","151790","0.0-104.0","5953462b2d8f240001481c53","665500ab8938657b03fbdba8","665792ad457c84106353b05f","170","stimuli/11010011.jpg"," ","","feedback_trial","1","","","","","","","","","","","","","","","","","","","","",""
"","","","","","image-keyboard-response","130","152704","0.0-105.0","5953462b2d8f240001481c53","665500ab8938657b03fbdba8","665792ad457c84106353b05f","913","stimuli/2100111.jpg","1","","prediction_trial","2","","false","","2","false","false","true","true","false","false","[2]","100","111","0","","","","","","",""
"","","","","","image-keyboard-response","131","152927","0.0-106.0","5953462b2d8f240001481c53","665500ab8938657b03fbdba8","665792ad457c84106353b05f","222","stimuli/21001112.jpg"," ","","feedback_trial","2","","","","","","","","","","","","","","","","","","","","",""
"","","","","","image-keyboard-response","132","153761","0.0-107.0","5953462b2d8f240001481c53","665500ab8938657b03fbdba8","665792ad457c84106353b05f","834","stimuli/1010110.jpg","0","","prediction_trial","1","","false","","1","false","false","false","true","false","false","[1]","010","110","0","","","","","","",""
"","","","","","image-keyboard-response","133","153892","0.0-108.0","5953462b2d8f240001481c53","665500ab8938657b03fbdba8","665792ad457c84106353b05f","130","stimuli/10101101.jpg"," ","","feedback_trial","1","","","","","","","","","","","","","","","","","","","","",""
"","","","","","image-keyboard-response","134","154745","0.0-109.0","5953462b2d8f240001481c53","665500ab8938657b03fbdba8","665792ad457c84106353b05f","853","stimuli/2000100.jpg","2","","prediction_trial","2","","true","","2","true","true","true","true","true","true","[2]","000","100","1","","","","","","",""
"","","","","","image-keyboard-response","135","154910","0.0-110.0","5953462b2d8f240001481c53","665500ab8938657b03fbdba8","665792ad457c84106353b05f","165","stimuli/20001002.jpg"," ","","feedback_trial","2","","","","","","","","","","","","","","","","","","","","",""
"","","","","","image-keyboard-response","136","155726","0.0-111.0","5953462b2d8f240001481c53","665500ab8938657b03fbdba8","665792ad457c84106353b05f","815","stimuli/0011101.jpg","0","","prediction_trial","0","","true","","0","false","false","true","true","false","false","[0]","011","101","1","","","","","","",""
"","","","","","image-keyboard-response","137","155878","0.0-112.0","5953462b2d8f240001481c53","665500ab8938657b03fbdba8","665792ad457c84106353b05f","151","stimuli/00111010.jpg"," ","","feedback_trial","0","","","","","","","","","","","","","","","","","","","","",""
"","","","","","image-keyboard-response","138","156707","0.0-113.0","5953462b2d8f240001481c53","665500ab8938657b03fbdba8","665792ad457c84106353b05f","829","stimuli/1100001.jpg","1","","prediction_trial","1","","true","","1","true","true","true","true","true","true","[1]","100","001","1","","","","","","",""
"","","","","","image-keyboard-response","139","156903","0.0-114.0","5953462b2d8f240001481c53","665500ab8938657b03fbdba8","665792ad457c84106353b05f","196","stimuli/11000011.jpg"," ","","feedback_trial","1","","","","","","","","","","","","","","","","","","","","",""
"","","","","","image-keyboard-response","140","157655","0.0-115.0","5953462b2d8f240001481c53","665500ab8938657b03fbdba8","665792ad457c84106353b05f","751","stimuli/2001011.jpg","1","","prediction_trial","2","","false","","2","false","false","false","true","false","false","[2]","001","011","0","","","","","","",""
"","","","","","image-keyboard-response","141","158100","0.0-116.0","5953462b2d8f240001481c53","665500ab8938657b03fbdba8","665792ad457c84106353b05f","445","stimuli/20010112.jpg"," ","","feedback_trial","2","","","","","","","","","","","","","","","","","","","","",""
"","","","","","image-keyboard-response","142","158894","0.0-117.0","5953462b2d8f240001481c53","665500ab8938657b03fbdba8","665792ad457c84106353b05f","793","stimuli/0001110.jpg","0","","prediction_trial","0","","true","","0","false","false","true","true","false","false","[0]","001","110","1","","","","","","",""
"","","","","","image-keyboard-response","143","159312","0.0-118.0","5953462b2d8f240001481c53","665500ab8938657b03fbdba8","665792ad457c84106353b05f","418","stimuli/00011100.jpg"," ","","feedback_trial","0","","","","","","","","","","","","","","","","","","","","",""
"","","","","","image-keyboard-response","144","159937","0.0-119.0","5953462b2d8f240001481c53","665500ab8938657b03fbdba8","665792ad457c84106353b05f","624","stimuli/1101101.jpg","1","","prediction_trial","1","","true","","1","true","true","true","true","true","true","[1]","101","101","1","","","","","","",""
"","","","","","image-keyboard-response","145","160179","0.0-120.0","5953462b2d8f240001481c53","665500ab8938657b03fbdba8","665792ad457c84106353b05f","241","stimuli/11011011.jpg"," ","","feedback_trial","1","","","","","","","","","","","","","","","","","","","","",""
"","","","","","image-keyboard-response","146","162046","0.0-121.0","5953462b2d8f240001481c53","665500ab8938657b03fbdba8","665792ad457c84106353b05f","1867","stimuli/0110100.jpg","0","","prediction_trial","1","","false","","0","false","true","false","false","false","false","[0,1]","110","100","0","","","","","","",""
"","","","","","image-keyboard-response","147","162664","0.0-122.0","5953462b2d8f240001481c53","665500ab8938657b03fbdba8","665792ad457c84106353b05f","617","stimuli/01101001.jpg"," ","","feedback_trial","0","","","","","","","","","","","","","","","","","","","","",""
"","","","","","image-keyboard-response","148","163481","0.0-123.0","5953462b2d8f240001481c53","665500ab8938657b03fbdba8","665792ad457c84106353b05f","816","stimuli/2110001.jpg","2","","prediction_trial","2","","true","","2","false","true","true","true","false","true","[2]","110","001","1","","","","","","",""
"","","","","","image-keyboard-response","149","163799","0.0-124.0","5953462b2d8f240001481c53","665500ab8938657b03fbdba8","665792ad457c84106353b05f","317","stimuli/21100012.jpg"," ","","feedback_trial","2","","","","","","","","","","","","","","","","","","","","",""
"","","","","","image-keyboard-response","150","164427","0.0-125.0","5953462b2d8f240001481c53","665500ab8938657b03fbdba8","665792ad457c84106353b05f","627","stimuli/1000101.jpg","1","","prediction_trial","1","","true","","1","true","true","true","true","true","true","[1]","000","101","1","","","","","","",""
"","","","","","image-keyboard-response","151","164665","0.0-126.0","5953462b2d8f240001481c53","665500ab8938657b03fbdba8","665792ad457c84106353b05f","237","stimuli/10001011.jpg"," ","","feedback_trial","1","","","","","","","","","","","","","","","","","","","","",""
"","","","","","image-keyboard-response","152","165378","0.0-127.0","5953462b2d8f240001481c53","665500ab8938657b03fbdba8","665792ad457c84106353b05f","713","stimuli/2110011.jpg","2","","prediction_trial","2","","true","","2","false","false","true","true","false","false","[2]","110","011","1","","","","","","",""
"","","","","","image-keyboard-response","153","165549","0.0-128.0","5953462b2d8f240001481c53","665500ab8938657b03fbdba8","665792ad457c84106353b05f","170","stimuli/21100112.jpg"," ","","feedback_trial","2","","","","","","","","","","","","","","","","","","","","",""
"","","","","","image-keyboard-response","154","166212","0.0-129.0","5953462b2d8f240001481c53","665500ab8938657b03fbdba8","665792ad457c84106353b05f","662","stimuli/0001010.jpg","0","","prediction_trial","0","","true","","0","true","true","true","true","true","true","[0]","001","010","1","","","","","","",""
"","","","","","image-keyboard-response","155","166358","0.0-130.0","5953462b2d8f240001481c53","665500ab8938657b03fbdba8","665792ad457c84106353b05f","145","stimuli/00010100.jpg"," ","","feedback_trial","0","","","","","","","","","","","","","","","","","","","","",""
"","","","","","image-keyboard-response","156","166932","0.0-131.0","5953462b2d8f240001481c53","665500ab8938657b03fbdba8","665792ad457c84106353b05f","573","stimuli/1010000.jpg","1","","prediction_trial","1","","true","","1","true","true","false","true","false","true","[1]","010","000","1","","","","","","",""
"","","","","","image-keyboard-response","157","167263","0.0-132.0","5953462b2d8f240001481c53","665500ab8938657b03fbdba8","665792ad457c84106353b05f","331","stimuli/10100001.jpg"," ","","feedback_trial","1","","","","","","","","","","","","","","","","","","","","",""
"","","","","","image-keyboard-response","158","167974","0.0-133.0","5953462b2d8f240001481c53","665500ab8938657b03fbdba8","665792ad457c84106353b05f","710","stimuli/2000001.jpg","2","","prediction_trial","2","","true","","2","false","true","true","true","false","true","[2]","000","001","1","","","","","","",""
"","","","","","image-keyboard-response","159","168124","0.0-134.0","5953462b2d8f240001481c53","665500ab8938657b03fbdba8","665792ad457c84106353b05f","149","stimuli/20000012.jpg"," ","","feedback_trial","2","","","","","","","","","","","","","","","","","","","","",""
"","","","","","image-keyboard-response","160","169084","0.0-135.0","5953462b2d8f240001481c53","665500ab8938657b03fbdba8","665792ad457c84106353b05f","960","stimuli/0000111.jpg","1","","prediction_trial","0","","false","","0","false","false","true","true","false","false","[0]","000","111","0","","","","","","",""
"","","","","","image-keyboard-response","161","169550","0.0-136.0","5953462b2d8f240001481c53","665500ab8938657b03fbdba8","665792ad457c84106353b05f","466","stimuli/00001110.jpg"," ","","feedback_trial","0","","","","","","","","","","","","","","","","","","","","",""
"","","","","","image-keyboard-response","162","170175","0.0-137.0","5953462b2d8f240001481c53","665500ab8938657b03fbdba8","665792ad457c84106353b05f","624","stimuli/0011110.jpg","0","","prediction_trial","0","","true","","0","false","false","true","true","false","false","[0]","011","110","1","","","","","","",""
"","","","","","image-keyboard-response","163","170384","0.0-138.0","5953462b2d8f240001481c53","665500ab8938657b03fbdba8","665792ad457c84106353b05f","209","stimuli/00111100.jpg"," ","","feedback_trial","0","","","","","","","","","","","","","","","","","","","","",""
"","","","","","image-keyboard-response","164","171183","0.0-139.0","5953462b2d8f240001481c53","665500ab8938657b03fbdba8","665792ad457c84106353b05f","798","stimuli/2010001.jpg","2","","prediction_trial","2","","true","","2","false","true","true","true","false","true","[2]","010","001","1","","","","","","",""
"","","","","","image-keyboard-response","165","171356","0.0-140.0","5953462b2d8f240001481c53","665500ab8938657b03fbdba8","665792ad457c84106353b05f","172","stimuli/20100012.jpg"," ","","feedback_trial","2","","","","","","","","","","","","","","","","","","","","",""
"","","","","","image-keyboard-response","166","172082","0.0-141.0","5953462b2d8f240001481c53","665500ab8938657b03fbdba8","665792ad457c84106353b05f","726","stimuli/2100010.jpg","2","","prediction_trial","2","","true","","2","true","true","true","true","true","true","[2]","100","010","1","","","","","","",""
"","","","","","image-keyboard-response","167","172309","0.0-142.0","5953462b2d8f240001481c53","665500ab8938657b03fbdba8","665792ad457c84106353b05f","226","stimuli/21000102.jpg"," ","","feedback_trial","2","","","","","","","","","","","","","","","","","","","","",""
"","","","","","image-keyboard-response","168","172921","0.0-143.0","5953462b2d8f240001481c53","665500ab8938657b03fbdba8","665792ad457c84106353b05f","611","stimuli/2110110.jpg","2","","prediction_trial","2","","true","","2","true","true","true","true","true","true","[2]","110","110","1","","","","","","",""
"","","","","","image-keyboard-response","169","173067","0.0-144.0","5953462b2d8f240001481c53","665500ab8938657b03fbdba8","665792ad457c84106353b05f","146","stimuli/21101102.jpg"," ","","feedback_trial","2","","","","","","","","","","","","","","","","","","","","",""
"","","","","","image-keyboard-response","170","173570","0.0-145.0","5953462b2d8f240001481c53","665500ab8938657b03fbdba8","665792ad457c84106353b05f","502","stimuli/2011110.jpg","2","","prediction_trial","2","","true","","2","true","true","false","false","false","false","[1,2]","011","110","1","","","","","","",""
"","","","","","image-keyboard-response","171","173702","0.0-146.0","5953462b2d8f240001481c53","665500ab8938657b03fbdba8","665792ad457c84106353b05f","131","stimuli/20111102.jpg"," ","","feedback_trial","1","","","","","","","","","","","","","","","","","","","","",""
"","","","","","image-keyboard-response","172","175012","0.0-147.0","5953462b2d8f240001481c53","665500ab8938657b03fbdba8","665792ad457c84106353b05f","1309","stimuli/2100101.jpg","0","","prediction_trial","2","","false","","2","false","false","true","true","false","false","[2]","100","101","0","","","","","","",""
"","","","","","image-keyboard-response","173","175479","0.0-148.0","5953462b2d8f240001481c53","665500ab8938657b03fbdba8","665792ad457c84106353b05f","467","stimuli/21001012.jpg"," ","","feedback_trial","2","","","","","","","","","","","","","","","","","","","","",""
"","","","","","image-keyboard-response","174","176125","0.0-149.0","5953462b2d8f240001481c53","665500ab8938657b03fbdba8","665792ad457c84106353b05f","645","stimuli/2001000.jpg","2","","prediction_trial","2","","true","","2","true","true","false","true","false","true","[2]","001","000","1","","","","","","",""
"","","","","","image-keyboard-response","175","176531","0.0-150.0","5953462b2d8f240001481c53","665500ab8938657b03fbdba8","665792ad457c84106353b05f","406","stimuli/20010002.jpg"," ","","feedback_trial","2","","","","","","","","","","","","","","","","","","","","",""
"","","","","","image-keyboard-response","176","178429","0.0-151.0","5953462b2d8f240001481c53","665500ab8938657b03fbdba8","665792ad457c84106353b05f","1897","stimuli/2011101.jpg","2","","prediction_trial","1","","false","","2","false","false","false","false","false","false","[1,2]","011","101","0","","","","","","",""
"","","","","","image-keyboard-response","177","178971","0.0-152.0","5953462b2d8f240001481c53","665500ab8938657b03fbdba8","665792ad457c84106353b05f","542","stimuli/20111011.jpg"," ","","feedback_trial","1","","","","","","","","","","","","","","","","","","","","",""
"","","","","","image-keyboard-response","178","181335","0.0-153.0","5953462b2d8f240001481c53","665500ab8938657b03fbdba8","665792ad457c84106353b05f","2363","stimuli/0010010.jpg","0","","prediction_trial","0","","true","","0","true","true","true","true","true","true","[0]","010","010","1","","","","","","",""
"","","","","","image-keyboard-response","179","181663","0.0-154.0","5953462b2d8f240001481c53","665500ab8938657b03fbdba8","665792ad457c84106353b05f","327","stimuli/00100100.jpg"," ","","feedback_trial","0","","","","","","","","","","","","","","","","","","","","",""
"","","","","","image-keyboard-response","180","182269","0.0-155.0","5953462b2d8f240001481c53","665500ab8938657b03fbdba8","665792ad457c84106353b05f","606","stimuli/0011011.jpg","0","","prediction_trial","0","","true","","0","true","true","true","true","true","true","[0]","011","011","1","","","","","","",""
"","","","","","image-keyboard-response","181","182494","0.0-156.0","5953462b2d8f240001481c53","665500ab8938657b03fbdba8","665792ad457c84106353b05f","225","stimuli/00110110.jpg"," ","","feedback_trial","0","","","","","","","","","","","","","","","","","","","","",""
"","","","","","image-keyboard-response","182","183432","0.0-157.0","5953462b2d8f240001481c53","665500ab8938657b03fbdba8","665792ad457c84106353b05f","937","stimuli/0010101.jpg","2","","prediction_trial","0","","false","","0","false","false","true","true","false","false","[0]","010","101","0","","","","","","",""
"","","","","","image-keyboard-response","183","183868","0.0-158.0","5953462b2d8f240001481c53","665500ab8938657b03fbdba8","665792ad457c84106353b05f","436","stimuli/00101010.jpg"," ","","feedback_trial","0","","","","","","","","","","","","","","","","","","","","",""
"","","","","","image-keyboard-response","184","185744","0.0-159.0","5953462b2d8f240001481c53","665500ab8938657b03fbdba8","665792ad457c84106353b05f","1875","stimuli/2110111.jpg","0","","prediction_trial","2","","false","","2","false","false","true","true","false","false","[2]","110","111","0","","","","","","",""
"","","","","","image-keyboard-response","185","186672","0.0-160.0","5953462b2d8f240001481c53","665500ab8938657b03fbdba8","665792ad457c84106353b05f","927","stimuli/21101112.jpg"," ","","feedback_trial","2","","","","","","","","","","","","","","","","","","","","",""
"","","","","","image-keyboard-response","186","188153","0.0-161.0","5953462b2d8f240001481c53","665500ab8938657b03fbdba8","665792ad457c84106353b05f","1480","stimuli/2011000.jpg","2","","prediction_trial","1","","false","","2","true","true","false","false","false","false","[1,2]","011","000","0","","","","","","",""
"","","","","","image-keyboard-response","187","188601","0.0-162.0","5953462b2d8f240001481c53","665500ab8938657b03fbdba8","665792ad457c84106353b05f","447","stimuli/20110001.jpg"," ","","feedback_trial","1","","","","","","","","","","","","","","","","","","","","",""
"","","","","","image-keyboard-response","188","191241","0.0-163.0","5953462b2d8f240001481c53","665500ab8938657b03fbdba8","665792ad457c84106353b05f","2640","stimuli/0100010.jpg","0","","prediction_trial","0","","true","","0","true","true","false","true","false","true","[0]","100","010","1","","","","","","",""
"","","","","","image-keyboard-response","189","191711","0.0-164.0","5953462b2d8f240001481c53","665500ab8938657b03fbdba8","665792ad457c84106353b05f","469","stimuli/01000100.jpg"," ","","feedback_trial","0","","","","","","","","","","","","","","","","","","","","",""
"","","","","","image-keyboard-response","190","192828","0.0-165.0","5953462b2d8f240001481c53","665500ab8938657b03fbdba8","665792ad457c84106353b05f","1117","stimuli/2000111.jpg","0","","prediction_trial","2","","false","","2","false","false","true","true","false","false","[2]","000","111","0","","","","","","",""
"","","","","","image-keyboard-response","191","193280","0.0-166.0","5953462b2d8f240001481c53","665500ab8938657b03fbdba8","665792ad457c84106353b05f","451","stimuli/20001112.jpg"," ","","feedback_trial","2","","","","","","","","","","","","","","","","","","","","",""
"","","","","","image-keyboard-response","192","194469","0.0-167.0","5953462b2d8f240001481c53","665500ab8938657b03fbdba8","665792ad457c84106353b05f","1188","stimuli/2011001.jpg","2","","prediction_trial","2","","true","","2","false","true","false","false","false","false","[1,2]","011","001","1","","","","","","",""
"","","","","","image-keyboard-response","193","194922","0.0-168.0","5953462b2d8f240001481c53","665500ab8938657b03fbdba8","665792ad457c84106353b05f","453","stimuli/20110012.jpg"," ","","feedback_trial","1","","","","","","","","","","","","","","","","","","","","",""
"","","","","","image-keyboard-response","194","195697","0.0-169.0","5953462b2d8f240001481c53","665500ab8938657b03fbdba8","665792ad457c84106353b05f","775","stimuli/2100000.jpg","2","","prediction_trial","2","","true","","2","true","true","true","true","true","true","[2]","100","000","1","","","","","","",""
"","","","","","image-keyboard-response","195","195964","0.0-170.0","5953462b2d8f240001481c53","665500ab8938657b03fbdba8","665792ad457c84106353b05f","266","stimuli/21000002.jpg"," ","","feedback_trial","2","","","","","","","","","","","","","","","","","","","","",""
"","","","","","image-keyboard-response","196","196865","0.0-171.0","5953462b2d8f240001481c53","665500ab8938657b03fbdba8","665792ad457c84106353b05f","901","stimuli/1111001.jpg","1","","prediction_trial","1","","true","","1","true","true","false","false","false","false","[1,0,2]","111","001","1","","","","","","",""
"","","","","","image-keyboard-response","197","197287","0.0-172.0","5953462b2d8f240001481c53","665500ab8938657b03fbdba8","665792ad457c84106353b05f","421","stimuli/11110011.jpg"," ","","feedback_trial","1","","","","","","","","","","","","","","","","","","","","",""
"","","","","","image-keyboard-response","198","198856","0.0-173.0","5953462b2d8f240001481c53","665500ab8938657b03fbdba8","665792ad457c84106353b05f","1568","stimuli/1011010.jpg","1","","prediction_trial","2","","false","","1","false","true","false","false","false","false","[1,2]","011","010","0","","","","","","",""
"","","","","","image-keyboard-response","199","199320","0.0-174.0","5953462b2d8f240001481c53","665500ab8938657b03fbdba8","665792ad457c84106353b05f","463","stimuli/10110102.jpg"," ","","feedback_trial","1","","","","","","","","","","","","","","","","","","","","",""
"","","","","","image-keyboard-response","200","200810","0.0-175.0","5953462b2d8f240001481c53","665500ab8938657b03fbdba8","665792ad457c84106353b05f","1490","stimuli/2011010.jpg","1","","prediction_trial","1","","true","","2","true","true","false","false","false","false","[1,2]","011","010","1","","","","","","",""
"","","","","","image-keyboard-response","201","201233","0.0-176.0","5953462b2d8f240001481c53","665500ab8938657b03fbdba8","665792ad457c84106353b05f","422","stimuli/20110101.jpg"," ","","feedback_trial","1","","","","","","","","","","","","","","","","","","","","",""
"","","","","","image-keyboard-response","202","203210","0.0-177.0","5953462b2d8f240001481c53","665500ab8938657b03fbdba8","665792ad457c84106353b05f","1976","stimuli/0011010.jpg","0","","prediction_trial","0","","true","","0","true","true","true","true","true","true","[0]","011","010","1","","","","","","",""
"","","","","","image-keyboard-response","203","203477","0.0-178.0","5953462b2d8f240001481c53","665500ab8938657b03fbdba8","665792ad457c84106353b05f","266","stimuli/00110100.jpg"," ","","feedback_trial","0","","","","","","","","","","","","","","","","","","","","",""
"","","","","","image-keyboard-response","204","204229","0.0-179.0","5953462b2d8f240001481c53","665500ab8938657b03fbdba8","665792ad457c84106353b05f","751","stimuli/1111100.jpg","1","","prediction_trial","0","","false","","1","true","true","false","false","false","false","[2,1,0]","111","100","0","","","","","","",""
"","","","","","image-keyboard-response","205","204564","0.0-180.0","5953462b2d8f240001481c53","665500ab8938657b03fbdba8","665792ad457c84106353b05f","334","stimuli/11111000.jpg"," ","","feedback_trial","2","","","","","","","","","","","","","","","","","","","","",""
"","","","","","image-keyboard-response","206","205555","0.0-181.0","5953462b2d8f240001481c53","665500ab8938657b03fbdba8","665792ad457c84106353b05f","991","stimuli/2111001.jpg","2","","prediction_trial","0","","false","","2","false","true","false","false","false","false","[2,0,1]","111","001","0","","","","","","",""
"","","","","","image-keyboard-response","207","205864","0.0-182.0","5953462b2d8f240001481c53","665500ab8938657b03fbdba8","665792ad457c84106353b05f","308","stimuli/21110010.jpg"," ","","feedback_trial","2","","","","","","","","","","","","","","","","","","","","",""
"","","","","","image-keyboard-response","208","206659","0.0-183.0","5953462b2d8f240001481c53","665500ab8938657b03fbdba8","665792ad457c84106353b05f","794","stimuli/1000100.jpg","1","","prediction_trial","1","","true","","1","true","true","true","true","true","true","[1]","000","100","1","","","","","","",""
"","","","","","image-keyboard-response","209","206872","0.0-184.0","5953462b2d8f240001481c53","665500ab8938657b03fbdba8","665792ad457c84106353b05f","213","stimuli/10001001.jpg"," ","","feedback_trial","1","","","","","","","","","","","","","","","","","","","","",""
"","","","","","image-keyboard-response","210","208026","0.0-185.0","5953462b2d8f240001481c53","665500ab8938657b03fbdba8","665792ad457c84106353b05f","1153","stimuli/1000111.jpg","1","","prediction_trial","1","","true","","1","false","false","true","true","false","false","[1]","000","111","1","","","","","","",""
"","","","","","image-keyboard-response","211","208474","0.0-186.0","5953462b2d8f240001481c53","665500ab8938657b03fbdba8","665792ad457c84106353b05f","448","stimuli/10001111.jpg"," ","","feedback_trial","1","","","","","","","","","","","","","","","","","","","","",""
"","","","","","image-keyboard-response","212","209349","0.0-187.0","5953462b2d8f240001481c53","665500ab8938657b03fbdba8","665792ad457c84106353b05f","875","stimuli/0000100.jpg","0","","prediction_trial","0","","true","","0","false","true","true","true","false","true","[0]","000","100","1","","","","","","",""
"","","","","","image-keyboard-response","213","209670","0.0-188.0","5953462b2d8f240001481c53","665500ab8938657b03fbdba8","665792ad457c84106353b05f","320","stimuli/00001000.jpg"," ","","feedback_trial","0","","","","","","","","","","","","","","","","","","","","",""
"","","","","","image-keyboard-response","214","210775","0.0-189.0","5953462b2d8f240001481c53","665500ab8938657b03fbdba8","665792ad457c84106353b05f","1104","stimuli/1110010.jpg","1","","prediction_trial","1","","true","","1","false","true","false","false","false","false","[1,0]","110","010","1","","","","","","",""
"","","","","","image-keyboard-response","215","211070","0.0-190.0","5953462b2d8f240001481c53","665500ab8938657b03fbdba8","665792ad457c84106353b05f","295","stimuli/11100101.jpg"," ","","feedback_trial","1","","","","","","","","","","","","","","","","","","","","",""
"","","","","","image-keyboard-response","216","212164","0.0-191.0","5953462b2d8f240001481c53","665500ab8938657b03fbdba8","665792ad457c84106353b05f","1093","stimuli/1101100.jpg","1","","prediction_trial","1","","true","","1","true","true","true","true","true","true","[1]","101","100","1","","","","","","",""
"","","","","","image-keyboard-response","217","212447","0.0-192.0","5953462b2d8f240001481c53","665500ab8938657b03fbdba8","665792ad457c84106353b05f","282","stimuli/11011001.jpg"," ","","feedback_trial","1","","","","","","","","","","","","","","","","","","","","",""
"","","","","","image-keyboard-response","218","213395","0.0-193.0","5953462b2d8f240001481c53","665500ab8938657b03fbdba8","665792ad457c84106353b05f","947","stimuli/2010111.jpg","2","","prediction_trial","2","","true","","2","false","false","true","true","false","false","[2]","010","111","1","","","","","","",""
"","","","","","image-keyboard-response","219","213827","0.0-194.0","5953462b2d8f240001481c53","665500ab8938657b03fbdba8","665792ad457c84106353b05f","432","stimuli/20101112.jpg"," ","","feedback_trial","2","","","","","","","","","","","","","","","","","","","","",""
"","","","","","image-keyboard-response","220","214866","0.0-195.0","5953462b2d8f240001481c53","665500ab8938657b03fbdba8","665792ad457c84106353b05f","1039","stimuli/1010101.jpg","1","","prediction_trial","1","","true","","1","true","true","false","true","false","true","[1]","010","101","1","","","","","","",""
"","","","","","image-keyboard-response","221","215252","0.0-196.0","5953462b2d8f240001481c53","665500ab8938657b03fbdba8","665792ad457c84106353b05f","385","stimuli/10101011.jpg"," ","","feedback_trial","1","","","","","","","","","","","","","","","","","","","","",""
"","","","","","image-keyboard-response","222","216061","0.0-197.0","5953462b2d8f240001481c53","665500ab8938657b03fbdba8","665792ad457c84106353b05f","808","stimuli/0010011.jpg","0","","prediction_trial","0","","true","","0","true","true","true","true","true","true","[0]","010","011","1","","","","","","",""
"","","","","","image-keyboard-response","223","216231","0.0-198.0","5953462b2d8f240001481c53","665500ab8938657b03fbdba8","665792ad457c84106353b05f","169","stimuli/00100110.jpg"," ","","feedback_trial","0","","","","","","","","","","","","","","","","","","","","",""
"","","","","","image-keyboard-response","224","216994","0.0-199.0","5953462b2d8f240001481c53","665500ab8938657b03fbdba8","665792ad457c84106353b05f","763","stimuli/0011111.jpg","0","","prediction_trial","0","","true","","0","false","false","true","true","false","false","[0]","011","111","1","","","","","","",""
"","","","","","image-keyboard-response","225","217450","0.0-200.0","5953462b2d8f240001481c53","665500ab8938657b03fbdba8","665792ad457c84106353b05f","455","stimuli/00111110.jpg"," ","","feedback_trial","0","","","","","","","","","","","","","","","","","","","","",""
"","","","","","image-keyboard-response","226","218327","0.0-201.0","5953462b2d8f240001481c53","665500ab8938657b03fbdba8","665792ad457c84106353b05f","876","stimuli/0010000.jpg","0","","prediction_trial","0","","true","","0","true","true","true","true","true","true","[0]","010","000","1","","","","","","",""
"","","","","","image-keyboard-response","227","218644","0.0-202.0","5953462b2d8f240001481c53","665500ab8938657b03fbdba8","665792ad457c84106353b05f","316","stimuli/00100000.jpg"," ","","feedback_trial","0","","","","","","","","","","","","","","","","","","","","",""
"","","","","","image-keyboard-response","228","219218","0.0-203.0","5953462b2d8f240001481c53","665500ab8938657b03fbdba8","665792ad457c84106353b05f","574","stimuli/0101011.jpg","0","","prediction_trial","2","","false","","0","true","true","false","false","false","false","[0,2]","101","011","0","","","","","","",""
"","","","","","image-keyboard-response","229","219675","0.0-204.0","5953462b2d8f240001481c53","665500ab8938657b03fbdba8","665792ad457c84106353b05f","455","stimuli/01010112.jpg"," ","","feedback_trial","0","","","","","","","","","","","","","","","","","","","","",""
"","","","","","image-keyboard-response","230","220450","0.0-205.0","5953462b2d8f240001481c53","665500ab8938657b03fbdba8","665792ad457c84106353b05f","775","stimuli/0101000.jpg","0","","prediction_trial","2","","false","","0","true","true","false","false","false","false","[2,0]","101","000","0","","","","","","",""
"","","","","","image-keyboard-response","231","221173","0.0-206.0","5953462b2d8f240001481c53","665500ab8938657b03fbdba8","665792ad457c84106353b05f","722","stimuli/01010002.jpg"," ","","feedback_trial","2","","","","","","","","","","","","","","","","","","","","",""
"","","","","","image-keyboard-response","232","222135","0.0-207.0","5953462b2d8f240001481c53","665500ab8938657b03fbdba8","665792ad457c84106353b05f","962","stimuli/1110001.jpg","1","","prediction_trial","0","","false","","1","true","true","false","false","false","false","[1,0]","110","001","0","","","","","","",""
"","","","","","image-keyboard-response","233","222696","0.0-208.0","5953462b2d8f240001481c53","665500ab8938657b03fbdba8","665792ad457c84106353b05f","560","stimuli/11100010.jpg"," ","","feedback_trial","1","","","","","","","","","","","","","","","","","","","","",""
"","","","","","image-keyboard-response","234","223740","0.0-209.0","5953462b2d8f240001481c53","665500ab8938657b03fbdba8","665792ad457c84106353b05f","1043","stimuli/1000110.jpg","0","","prediction_trial","1","","false","","1","false","false","true","true","false","false","[1]","000","110","0","","","","","","",""
"","","","","","image-keyboard-response","235","224248","0.0-210.0","5953462b2d8f240001481c53","665500ab8938657b03fbdba8","665792ad457c84106353b05f","507","stimuli/10001101.jpg"," ","","feedback_trial","1","","","","","","","","","","","","","","","","","","","","",""
"","","","","","image-keyboard-response","236","225194","0.0-211.0","5953462b2d8f240001481c53","665500ab8938657b03fbdba8","665792ad457c84106353b05f","946","stimuli/1101110.jpg","1","","prediction_trial","1","","true","","1","false","false","true","true","false","false","[1]","101","110","1","","","","","","",""
"","","","","","image-keyboard-response","237","225668","0.0-212.0","5953462b2d8f240001481c53","665500ab8938657b03fbdba8","665792ad457c84106353b05f","473","stimuli/11011101.jpg"," ","","feedback_trial","1","","","","","","","","","","","","","","","","","","","","",""
"","","","","","image-keyboard-response","238","226421","0.0-213.0","5953462b2d8f240001481c53","665500ab8938657b03fbdba8","665792ad457c84106353b05f","752","stimuli/2001111.jpg","1","","prediction_trial","2","","false","","2","false","false","false","true","false","false","[2]","001","111","0","","","","","","",""
"","","","","","image-keyboard-response","239","226847","0.0-214.0","5953462b2d8f240001481c53","665500ab8938657b03fbdba8","665792ad457c84106353b05f","425","stimuli/20011112.jpg"," ","","feedback_trial","2","","","","","","","","","","","","","","","","","","","","",""
"","","","","","image-keyboard-response","240","228618","0.0-215.0","5953462b2d8f240001481c53","665500ab8938657b03fbdba8","665792ad457c84106353b05f","1771","stimuli/2010011.jpg","1","","prediction_trial","2","","false","","2","false","false","true","true","false","false","[2]","010","011","0","","","","","","",""
"","","","","","image-keyboard-response","241","229065","0.0-216.0","5953462b2d8f240001481c53","665500ab8938657b03fbdba8","665792ad457c84106353b05f","446","stimuli/20100112.jpg"," ","","feedback_trial","2","","","","","","","","","","","","","","","","","","","","",""
"","","","","","image-keyboard-response","242","230204","0.0-217.0","5953462b2d8f240001481c53","665500ab8938657b03fbdba8","665792ad457c84106353b05f","1138","stimuli/0010110.jpg","1","","prediction_trial","0","","false","","0","false","false","true","true","false","false","[0]","010","110","0","","","","","","",""
"","","","","","image-keyboard-response","243","230677","0.0-218.0","5953462b2d8f240001481c53","665500ab8938657b03fbdba8","665792ad457c84106353b05f","473","stimuli/00101100.jpg"," ","","feedback_trial","0","","","","","","","","","","","","","","","","","","","","",""
"","","","","","image-keyboard-response","244","231525","0.0-219.0","5953462b2d8f240001481c53","665500ab8938657b03fbdba8","665792ad457c84106353b05f","847","stimuli/1001101.jpg","1","","prediction_trial","1","","true","","1","true","true","true","true","true","true","[1]","001","101","1","","","","","","",""
"","","","","","image-keyboard-response","245","231757","0.0-220.0","5953462b2d8f240001481c53","665500ab8938657b03fbdba8","665792ad457c84106353b05f","232","stimuli/10011011.jpg"," ","","feedback_trial","1","","","","","","","","","","","","","","","","","","","","",""
"","","","","","image-keyboard-response","246","232783","0.0-221.0","5953462b2d8f240001481c53","665500ab8938657b03fbdba8","665792ad457c84106353b05f","1024","stimuli/1110011.jpg","1","","prediction_trial","0","","false","","1","false","false","false","false","false","false","[1,0]","110","011","0","","","","","","",""
"","","","","","image-keyboard-response","247","233211","0.0-222.0","5953462b2d8f240001481c53","665500ab8938657b03fbdba8","665792ad457c84106353b05f","427","stimuli/11100110.jpg"," ","","feedback_trial","1","","","","","","","","","","","","","","","","","","","","",""
"","","","","","image-keyboard-response","248","234242","0.0-223.0","5953462b2d8f240001481c53","665500ab8938657b03fbdba8","665792ad457c84106353b05f","1031","stimuli/1001010.jpg","1","","prediction_trial","1","","true","","1","false","true","true","true","false","true","[1]","001","010","1","","","","","","",""
"","","","","","image-keyboard-response","249","234785","0.0-224.0","5953462b2d8f240001481c53","665500ab8938657b03fbdba8","665792ad457c84106353b05f","542","stimuli/10010101.jpg"," ","","feedback_trial","1","","","","","","","","","","","","","","","","","","","","",""
"","","","","","image-keyboard-response","250","235554","0.0-225.0","5953462b2d8f240001481c53","665500ab8938657b03fbdba8","665792ad457c84106353b05f","768","stimuli/0011000.jpg","0","","prediction_trial","0","","true","","0","true","true","true","true","true","true","[0]","011","000","1","","","","","","",""
"","","","","","image-keyboard-response","251","235977","0.0-226.0","5953462b2d8f240001481c53","665500ab8938657b03fbdba8","665792ad457c84106353b05f","422","stimuli/00110000.jpg"," ","","feedback_trial","0","","","","","","","","","","","","","","","","","","","","",""
"","","","","","image-keyboard-response","252","237038","0.0-227.0","5953462b2d8f240001481c53","665500ab8938657b03fbdba8","665792ad457c84106353b05f","1061","stimuli/2001001.jpg","2","","prediction_trial","2","","true","","2","false","true","false","true","false","true","[2]","001","001","1","","","","","","",""
"","","","","","image-keyboard-response","253","237482","0.0-228.0","5953462b2d8f240001481c53","665500ab8938657b03fbdba8","665792ad457c84106353b05f","443","stimuli/20010012.jpg"," ","","feedback_trial","2","","","","","","","","","","","","","","","","","","","","",""
"","","","","","image-keyboard-response","254","238482","0.0-229.0","5953462b2d8f240001481c53","665500ab8938657b03fbdba8","665792ad457c84106353b05f","1000","stimuli/2100011.jpg","0","","prediction_trial","2","","false","","2","false","false","true","true","false","false","[2]","100","011","0","","","","","","",""
"","","","","","image-keyboard-response","255","239062","0.0-230.0","5953462b2d8f240001481c53","665500ab8938657b03fbdba8","665792ad457c84106353b05f","579","stimuli/21000112.jpg"," ","","feedback_trial","2","","","","","","","","","","","","","","","","","","","","",""
"","","","","","image-keyboard-response","256","240019","0.0-231.0","5953462b2d8f240001481c53","665500ab8938657b03fbdba8","665792ad457c84106353b05f","956","stimuli/1011011.jpg","1","","prediction_trial","2","","false","","1","false","false","false","false","false","false","[1,2]","011","011","0","","","","","","",""
"","","","","","image-keyboard-response","257","240451","0.0-232.0","5953462b2d8f240001481c53","665500ab8938657b03fbdba8","665792ad457c84106353b05f","431","stimuli/10110112.jpg"," ","","feedback_trial","1","","","","","","","","","","","","","","","","","","","","",""
"","","","","","image-keyboard-response","258","241852","0.0-233.0","5953462b2d8f240001481c53","665500ab8938657b03fbdba8","665792ad457c84106353b05f","1400","stimuli/0001100.jpg","0","","prediction_trial","0","","true","","0","false","true","true","true","false","true","[0]","001","100","1","","","","","","",""
"","","","","","image-keyboard-response","259","242277","0.0-234.0","5953462b2d8f240001481c53","665500ab8938657b03fbdba8","665792ad457c84106353b05f","425","stimuli/00011000.jpg"," ","","feedback_trial","0","","","","","","","","","","","","","","","","","","","","",""
"","","","","","image-keyboard-response","260","243602","0.0-235.0","5953462b2d8f240001481c53","665500ab8938657b03fbdba8","665792ad457c84106353b05f","1323","stimuli/0111100.jpg","1","","prediction_trial","0","","false","","0","false","true","false","false","false","false","[0,1,2]","111","100","0","","","","","","",""
"","","","","","image-keyboard-response","261","243994","0.0-236.0","5953462b2d8f240001481c53","665500ab8938657b03fbdba8","665792ad457c84106353b05f","391","stimuli/01111000.jpg"," ","","feedback_trial","0","","","","","","","","","","","","","","","","","","","","",""
"","","","","","image-keyboard-response","262","244933","0.0-237.0","5953462b2d8f240001481c53","665500ab8938657b03fbdba8","665792ad457c84106353b05f","939","stimuli/1100111.jpg","2","","prediction_trial","1","","false","","1","false","false","true","true","false","false","[1]","100","111","0","","","","","","",""
"","","","","","image-keyboard-response","263","245382","0.0-238.0","5953462b2d8f240001481c53","665500ab8938657b03fbdba8","665792ad457c84106353b05f","448","stimuli/11001111.jpg"," ","","feedback_trial","1","","","","","","","","","","","","","","","","","","","","",""
"","","","","","image-keyboard-response","264","246142","0.0-239.0","5953462b2d8f240001481c53","665500ab8938657b03fbdba8","665792ad457c84106353b05f","760","stimuli/1000000.jpg","1","","prediction_trial","1","","true","","1","true","true","true","true","true","true","[1]","000","000","1","","","","","","",""
"","","","","","image-keyboard-response","265","246524","0.0-240.0","5953462b2d8f240001481c53","665500ab8938657b03fbdba8","665792ad457c84106353b05f","381","stimuli/10000001.jpg"," ","","feedback_trial","1","","","","","","","","","","","","","","","","","","","","",""
"","","","","","image-keyboard-response","266","248036","0.0-241.0","5953462b2d8f240001481c53","665500ab8938657b03fbdba8","665792ad457c84106353b05f","1512","stimuli/2101000.jpg","2","","prediction_trial","0","","false","","2","true","true","false","false","false","false","[0,2]","101","000","0","","","","","","",""
"","","","","","image-keyboard-response","267","248398","0.0-242.0","5953462b2d8f240001481c53","665500ab8938657b03fbdba8","665792ad457c84106353b05f","361","stimuli/21010000.jpg"," ","","feedback_trial","0","","","","","","","","","","","","","","","","","","","","",""
"","","","","","image-keyboard-response","268","249281","0.0-243.0","5953462b2d8f240001481c53","665500ab8938657b03fbdba8","665792ad457c84106353b05f","882","stimuli/1010010.jpg","1","","prediction_trial","1","","true","","1","false","true","false","true","false","true","[1]","010","010","1","","","","","","",""
"","","","","","image-keyboard-response","269","249550","0.0-244.0","5953462b2d8f240001481c53","665500ab8938657b03fbdba8","665792ad457c84106353b05f","269","stimuli/10100101.jpg"," ","","feedback_trial","1","","","","","","","","","","","","","","","","","","","","",""
"","","","","","image-keyboard-response","270","250957","0.0-245.0","5953462b2d8f240001481c53","665500ab8938657b03fbdba8","665792ad457c84106353b05f","1406","stimuli/1011000.jpg","1","","prediction_trial","1","","true","","1","true","true","false","false","false","false","[2,1]","011","000","1","","","","","","",""
"","","","","","image-keyboard-response","271","251307","0.0-246.0","5953462b2d8f240001481c53","665500ab8938657b03fbdba8","665792ad457c84106353b05f","349","stimuli/10110001.jpg"," ","","feedback_trial","2","","","","","","","","","","","","","","","","","","","","",""
"","","","","","image-keyboard-response","272","252177","0.0-247.0","5953462b2d8f240001481c53","665500ab8938657b03fbdba8","665792ad457c84106353b05f","869","stimuli/0100100.jpg","0","","prediction_trial","0","","true","","0","false","true","false","true","false","true","[0]","100","100","1","","","","","","",""
"","","","","","image-keyboard-response","273","252464","0.0-248.0","5953462b2d8f240001481c53","665500ab8938657b03fbdba8","665792ad457c84106353b05f","287","stimuli/01001000.jpg"," ","","feedback_trial","0","","","","","","","","","","","","","","","","","","","","",""
"","","","","","image-keyboard-response","274","254007","0.0-249.0","5953462b2d8f240001481c53","665500ab8938657b03fbdba8","665792ad457c84106353b05f","1542","stimuli/2001101.jpg","2","","prediction_trial","2","","true","","2","false","false","false","true","false","false","[2]","001","101","1","","","","","","",""
"","","","","","image-keyboard-response","275","254460","0.0-250.0","5953462b2d8f240001481c53","665500ab8938657b03fbdba8","665792ad457c84106353b05f","453","stimuli/20011012.jpg"," ","","feedback_trial","2","","","","","","","","","","","","","","","","","","","","",""
"","","","","","image-keyboard-response","276","255379","0.0-251.0","5953462b2d8f240001481c53","665500ab8938657b03fbdba8","665792ad457c84106353b05f","918","stimuli/1001001.jpg","1","","prediction_trial","1","","true","","1","true","true","true","true","true","true","[1]","001","001","1","","","","","","",""
"","","","","","image-keyboard-response","277","255643","0.0-252.0","5953462b2d8f240001481c53","665500ab8938657b03fbdba8","665792ad457c84106353b05f","263","stimuli/10010011.jpg"," ","","feedback_trial","1","","","","","","","","","","","","","","","","","","","","",""
"","","","","","image-keyboard-response","278","256281","0.0-253.0","5953462b2d8f240001481c53","665500ab8938657b03fbdba8","665792ad457c84106353b05f","637","stimuli/2110010.jpg","2","","prediction_trial","2","","true","","2","true","true","true","true","true","true","[2]","110","010","1","","","","","","",""
"","","","","","image-keyboard-response","279","256492","0.0-254.0","5953462b2d8f240001481c53","665500ab8938657b03fbdba8","665792ad457c84106353b05f","210","stimuli/21100102.jpg"," ","","feedback_trial","2","","","","","","","","","","","","","","","","","","","","",""
"","","","","","image-keyboard-response","280","258432","0.0-255.0","5953462b2d8f240001481c53","665500ab8938657b03fbdba8","665792ad457c84106353b05f","1939","stimuli/1010001.jpg","1","","prediction_trial","1","","true","","1","true","true","false","true","false","true","[1]","010","001","1","","","","","","",""
"","","","","","image-keyboard-response","281","258679","0.0-256.0","5953462b2d8f240001481c53","665500ab8938657b03fbdba8","665792ad457c84106353b05f","246","stimuli/10100011.jpg"," ","","feedback_trial","1","","","","","","","","","","","","","","","","","","","","",""
"","","","","","image-keyboard-response","282","260957","0.0-257.0","5953462b2d8f240001481c53","665500ab8938657b03fbdba8","665792ad457c84106353b05f","2278","stimuli/2101010.jpg","0","","prediction_trial","2","","false","","2","true","true","false","false","false","false","[0,2]","101","010","0","","","","","","",""
"","","","","","image-keyboard-response","283","261415","0.0-258.0","5953462b2d8f240001481c53","665500ab8938657b03fbdba8","665792ad457c84106353b05f","457","stimuli/21010102.jpg"," ","","feedback_trial","0","","","","","","","","","","","","","","","","","","","","",""
"","","","","","image-keyboard-response","284","262376","0.0-259.0","5953462b2d8f240001481c53","665500ab8938657b03fbdba8","665792ad457c84106353b05f","960","stimuli/0110001.jpg","0","","prediction_trial","1","","false","","0","true","true","false","false","false","false","[0,1]","110","001","0","","","","","","",""
"","","","","","image-keyboard-response","285","262837","0.0-260.0","5953462b2d8f240001481c53","665500ab8938657b03fbdba8","665792ad457c84106353b05f","461","stimuli/01100011.jpg"," ","","feedback_trial","0","","","","","","","","","","","","","","","","","","","","",""
"","","","","","image-keyboard-response","286","264017","0.0-261.0","5953462b2d8f240001481c53","665500ab8938657b03fbdba8","665792ad457c84106353b05f","1178","stimuli/0100111.jpg","0","","prediction_trial","0","","true","","0","false","false","false","true","false","false","[0]","100","111","1","","","","","","",""
"","","","","","image-keyboard-response","287","264447","0.0-262.0","5953462b2d8f240001481c53","665500ab8938657b03fbdba8","665792ad457c84106353b05f","430","stimuli/01001110.jpg"," ","","feedback_trial","0","","","","","","","","","","","","","","","","","","","","",""
"","","","","","image-keyboard-response","288","265354","0.0-263.0","5953462b2d8f240001481c53","665500ab8938657b03fbdba8","665792ad457c84106353b05f","906","stimuli/1011100.jpg","1","","prediction_trial","1","","true","","1","true","true","false","false","false","false","[1,2]","011","100","1","","","","","","",""
"","","","","","image-keyboard-response","289","265697","0.0-264.0","5953462b2d8f240001481c53","665500ab8938657b03fbdba8","665792ad457c84106353b05f","342","stimuli/10111001.jpg"," ","","feedback_trial","1","","","","","","","","","","","","","","","","","","","","",""
"","","","","","image-keyboard-response","290","266309","0.0-265.0","5953462b2d8f240001481c53","665500ab8938657b03fbdba8","665792ad457c84106353b05f","611","stimuli/1100100.jpg","1","","prediction_trial","1","","true","","1","true","true","true","true","true","true","[1]","100","100","1","","","","","","",""
"","","","","","image-keyboard-response","291","266606","0.0-266.0","5953462b2d8f240001481c53","665500ab8938657b03fbdba8","665792ad457c84106353b05f","297","stimuli/11001001.jpg"," ","","feedback_trial","1","","","","","","","","","","","","","","","","","","","","",""
"","","","","","image-keyboard-response","292","268135","0.0-267.0","5953462b2d8f240001481c53","665500ab8938657b03fbdba8","665792ad457c84106353b05f","1529","stimuli/0100101.jpg","2","","prediction_trial","0","","false","","0","false","false","false","true","false","false","[0]","100","101","0","","","","","","",""
"","","","","","image-keyboard-response","293","268553","0.0-268.0","5953462b2d8f240001481c53","665500ab8938657b03fbdba8","665792ad457c84106353b05f","417","stimuli/01001010.jpg"," ","","feedback_trial","0","","","","","","","","","","","","","","","","","","","","",""
"","","","","","image-keyboard-response","294","269820","0.0-269.0","5953462b2d8f240001481c53","665500ab8938657b03fbdba8","665792ad457c84106353b05f","1266","stimuli/0101111.jpg","2","","prediction_trial","0","","false","","0","false","false","false","false","false","false","[0,2]","101","111","0","","","","","","",""
"","","","","","image-keyboard-response","295","270268","0.0-270.0","5953462b2d8f240001481c53","665500ab8938657b03fbdba8","665792ad457c84106353b05f","448","stimuli/01011110.jpg"," ","","feedback_trial","0","","","","","","","","","","","","","","","","","","","","",""
"","","","","","image-keyboard-response","296","271033","0.0-271.0","5953462b2d8f240001481c53","665500ab8938657b03fbdba8","665792ad457c84106353b05f","763","stimuli/0110000.jpg","0","","prediction_trial","1","","false","","0","true","true","false","false","false","false","[0,1]","110","000","0","","","","","","",""
"","","","","","image-keyboard-response","297","271550","0.0-272.0","5953462b2d8f240001481c53","665500ab8938657b03fbdba8","665792ad457c84106353b05f","517","stimuli/01100001.jpg"," ","","feedback_trial","0","","","","","","","","","","","","","","","","","","","","",""
"","","","","","image-keyboard-response","298","272359","0.0-273.0","5953462b2d8f240001481c53","665500ab8938657b03fbdba8","665792ad457c84106353b05f","809","stimuli/1001111.jpg","1","","prediction_trial","1","","true","","1","false","false","true","true","false","false","[1]","001","111","1","","","","","","",""
"","","","","","image-keyboard-response","299","272799","0.0-274.0","5953462b2d8f240001481c53","665500ab8938657b03fbdba8","665792ad457c84106353b05f","439","stimuli/10011111.jpg"," ","","feedback_trial","1","","","","","","","","","","","","","","","","","","","","",""
"","","","","","image-keyboard-response","300","273492","0.0-275.0","5953462b2d8f240001481c53","665500ab8938657b03fbdba8","665792ad457c84106353b05f","692","stimuli/0101110.jpg","1","","prediction_trial","0","","false","","0","false","false","false","false","false","false","[0,2]","101","110","0","","","","","","",""
"","","","","","image-keyboard-response","301","273992","0.0-276.0","5953462b2d8f240001481c53","665500ab8938657b03fbdba8","665792ad457c84106353b05f","499","stimuli/01011100.jpg"," ","","feedback_trial","0","","","","","","","","","","","","","","","","","","","","",""
"","","","","","image-keyboard-response","302","275980","0.0-277.0","5953462b2d8f240001481c53","665500ab8938657b03fbdba8","665792ad457c84106353b05f","1987","stimuli/0110101.jpg","0","","prediction_trial","0","","true","","0","false","false","false","false","false","false","[1,0]","110","101","1","","","","","","",""
"","","","","","image-keyboard-response","303","276375","0.0-278.0","5953462b2d8f240001481c53","665500ab8938657b03fbdba8","665792ad457c84106353b05f","395","stimuli/01101010.jpg"," ","","feedback_trial","1","","","","","","","","","","","","","","","","","","","","",""
"","","","","","image-keyboard-response","304","277296","0.0-279.0","5953462b2d8f240001481c53","665500ab8938657b03fbdba8","665792ad457c84106353b05f","920","stimuli/1111110.jpg","1","","prediction_trial","1","","true","","1","false","false","false","false","false","false","[2,0,1]","111","110","1","","","","","","",""
"","","","","","image-keyboard-response","305","277732","0.0-280.0","5953462b2d8f240001481c53","665500ab8938657b03fbdba8","665792ad457c84106353b05f","435","stimuli/11111101.jpg"," ","","feedback_trial","2","","","","","","","","","","","","","","","","","","","","",""
"","","","","","image-keyboard-response","306","278541","0.0-281.0","5953462b2d8f240001481c53","665500ab8938657b03fbdba8","665792ad457c84106353b05f","808","stimuli/2101001.jpg","2","","prediction_trial","0","","false","","2","false","true","false","false","false","false","[0,2]","101","001","0","","","","","","",""
"","","","","","image-keyboard-response","307","278768","0.0-282.0","5953462b2d8f240001481c53","665500ab8938657b03fbdba8","665792ad457c84106353b05f","225","stimuli/21010010.jpg"," ","","feedback_trial","0","","","","","","","","","","","","","","","","","","","","",""
"","","","","","image-keyboard-response","308","279674","0.0-283.0","5953462b2d8f240001481c53","665500ab8938657b03fbdba8","665792ad457c84106353b05f","906","stimuli/2000000.jpg","2","","prediction_trial","2","","true","","2","true","true","true","true","true","true","[2]","000","000","1","","","","","","",""
"","","","","","image-keyboard-response","309","279987","0.0-284.0","5953462b2d8f240001481c53","665500ab8938657b03fbdba8","665792ad457c84106353b05f","312","stimuli/20000002.jpg"," ","","feedback_trial","2","","","","","","","","","","","","","","","","","","","","",""
"","","","","","image-keyboard-response","310","281748","0.0-285.0","5953462b2d8f240001481c53","665500ab8938657b03fbdba8","665792ad457c84106353b05f","1760","stimuli/0111001.jpg","1","","prediction_trial","2","","false","","0","true","true","false","false","false","false","[2,1,0]","111","001","0","","","","","","",""
"","","","","","image-keyboard-response","311","282236","0.0-286.0","5953462b2d8f240001481c53","665500ab8938657b03fbdba8","665792ad457c84106353b05f","488","stimuli/01110012.jpg"," ","","feedback_trial","2","","","","","","","","","","","","","","","","","","","","",""
"","","","","","image-keyboard-response","312","283395","0.0-287.0","5953462b2d8f240001481c53","665500ab8938657b03fbdba8","665792ad457c84106353b05f","1158","stimuli/0110111.jpg","0","","prediction_trial","1","","false","","0","false","false","false","false","false","false","[0,1]","110","111","0","","","","","","",""
"","","","","","image-keyboard-response","313","283859","0.0-288.0","5953462b2d8f240001481c53","665500ab8938657b03fbdba8","665792ad457c84106353b05f","463","stimuli/01101111.jpg"," ","","feedback_trial","0","","","","","","","","","","","","","","","","","","","","",""
"","","","","","image-keyboard-response","314","284682","0.0-289.0","5953462b2d8f240001481c53","665500ab8938657b03fbdba8","665792ad457c84106353b05f","823","stimuli/0100000.jpg","0","","prediction_trial","0","","true","","0","true","true","false","true","false","true","[0]","100","000","1","","","","","","",""
"","","","","","image-keyboard-response","315","285063","0.0-290.0","5953462b2d8f240001481c53","665500ab8938657b03fbdba8","665792ad457c84106353b05f","381","stimuli/01000000.jpg"," ","","feedback_trial","0","","","","","","","","","","","","","","","","","","","","",""
"","","","","","image-keyboard-response","316","285902","0.0-291.0","5953462b2d8f240001481c53","665500ab8938657b03fbdba8","665792ad457c84106353b05f","838","stimuli/0011001.jpg","0","","prediction_trial","0","","true","","0","true","true","true","true","true","true","[0]","011","001","1","","","","","","",""
"","","","","","image-keyboard-response","317","286224","0.0-292.0","5953462b2d8f240001481c53","665500ab8938657b03fbdba8","665792ad457c84106353b05f","321","stimuli/00110010.jpg"," ","","feedback_trial","0","","","","","","","","","","","","","","","","","","","","",""
"","","","","","survey-html-form","318","320538","0.0-293.0","5953462b2d8f240001481c53","665500ab8938657b03fbdba8","665792ad457c84106353b05f","34312","","{""feedback"":""I mostly just tried to figure out what he could see from his perspective, then guessed based on that information."",""age"":""29"",""gender"":""Female"",""other_gender"":"""",""race"":""White"",""other_race"":"""",""ethnicity"":""Non-Hispanic""}","","exit_survey","","","","","","","","","","","","","","","","I mostly just tried to figure out what he could see from his perspective, then guessed based on that information.","29","Non-Hispanic","Female","White","0.6666666666666666","0.6666666666666666"
