"success","timeout","failed_images","failed_audio","failed_video","trial_type","trial_index","time_elapsed","internal_node_id","prolific_id","prolific_study_id","prolific_session_id","rt","stimulus","response","view_history","trial","character_choice","stimulus_dict","accuracy","correct_response","ball_pos","ego_ball_visible","ego_can_infer","alter_ball_visible","alter_can_infer","collective_ball_visible","collective_can_infer","search_locations","alter_occluders","ego_occluders","accuracy_bool","feedback","age","ethnicity","gender","race","overall_accuracy","bonus"
"true","false","[]","[]","[]","preload","0","2863","0.0-0.0","60e9fd8a2f52070be49cf317","665500ab8938657b03fbdba8","66577b965db577d15c359b34","","","","","","","","","","","","","","","","","","","","","","","","","","",""
"true","","","","","fullscreen","1","5440","0.0-1.0","60e9fd8a2f52070be49cf317","665500ab8938657b03fbdba8","66577b965db577d15c359b34","","","","","","","","","","","","","","","","","","","","","","","","","","",""
"","","","","","html-button-response","2","12934","0.0-2.0","60e9fd8a2f52070be49cf317","665500ab8938657b03fbdba8","66577b965db577d15c359b34","7493","<p><b>Consent Form</b></p> <div style=""text-align:left;background-color:lightgrey; padding:20px; max-width:900px;""><p>Please consider this information carefully before deciding whether to participate in this research.</p> <p>The purpose of this research is to examine which factors influence social judgment and decision-making. You will be asked to make judgements about individuals and actions in social scenarios. We are simply interested in your judgement. The study will take less than 1 hour to complete, and you will receive less than $20 on Prolific. Your compensation and time commitment are specified in the study description. There are no anticipated risks associated with participating in this study. The effects of participating should be comparable to those you would ordinarily experience from viewing a computer monitor and using a mouse or keyboard for a similar amount of time. At the end of the study, we will provide an explanation of the questions that motivate this line of research and will describe the potential implications. </p><p> Your participation in this study is completely voluntary and you may refuse to participate or you may choose to withdraw at any time without penalty or loss of benefits to you which are otherwise entitled. Your participation in this study will remain confidential. No personally identifiable information will be associated with your data. Also, all analyses of the data will be averaged across all the participants, so your individual responses will never be specifically analyzed. </p><p> If you have questions or concerns about your participation or payment, or want to request a summary of research findings, please contact Dr. Jonathan Phillips at Jonathan.S.Phillips@dartmouth.edu. </p><p> Please save a copy of this form for your records. </p><p><b>Agreement: </b>The nature and purpose of this research have been sufficiently explained and I agree to participate in this study. I understand that I am free to withdraw at any time without incurring any penalty. Please consent by clicking the button below to continue. Otherwise, please exit the study at any time. </p>","0","","","","","","","","","","","","","","","","","","","","","","","",""
"","","","","","instructions","3","48229","0.0-3.0-0.0","60e9fd8a2f52070be49cf317","665500ab8938657b03fbdba8","66577b965db577d15c359b34","35295","","","[{""page_index"":0,""viewing_time"":1126},{""page_index"":1,""viewing_time"":1113},{""page_index"":2,""viewing_time"":1717},{""page_index"":3,""viewing_time"":2710},{""page_index"":4,""viewing_time"":1541},{""page_index"":5,""viewing_time"":9880},{""page_index"":6,""viewing_time"":1764},{""page_index"":7,""viewing_time"":1233},{""page_index"":8,""viewing_time"":1907},{""page_index"":9,""viewing_time"":2083},{""page_index"":10,""viewing_time"":5425},{""page_index"":11,""viewing_time"":1728},{""page_index"":12,""viewing_time"":2185},{""page_index"":13,""viewing_time"":882}]","intro","","","","","","","","","","","","","","","","","","","","","",""
"","","","","","image-keyboard-response","4","50099","0.0-3.0-1.0","60e9fd8a2f52070be49cf317","665500ab8938657b03fbdba8","66577b965db577d15c359b34","1864","stimuli/2110000.jpg","2","","prediction_practice","2","{""filepath"":""stimuli/2110000.jpg"",""ball_pos"":2,""ego_ball_visible"":true,""ego_can_infer"":true,""alter_ball_visible"":true,""alter_can_infer"":true,""collective_ball_visible"":true,""collective_can_infer"":true,""search_locations"":[2],""alter_occluders"":""110"",""ego_occluders"":""000""}","true","","","","","","","","","","","","","","","","","","",""
"","","","","","image-keyboard-response","5","51299","0.0-3.0-2.0","60e9fd8a2f52070be49cf317","665500ab8938657b03fbdba8","66577b965db577d15c359b34","1198","stimuli/21100002.jpg"," ","","practrice_feedback","2","","","","","","","","","","","","","","","","","","","","",""
"","","","","","image-keyboard-response","6","52847","0.0-3.0-3.0","60e9fd8a2f52070be49cf317","665500ab8938657b03fbdba8","66577b965db577d15c359b34","1545","stimuli/0111100.jpg","0","","prediction_practice","2","{""filepath"":""stimuli/0111100.jpg"",""ball_pos"":0,""ego_ball_visible"":false,""ego_can_infer"":true,""alter_ball_visible"":false,""alter_can_infer"":false,""collective_ball_visible"":false,""collective_can_infer"":false,""search_locations"":[2,0,1],""alter_occluders"":""111"",""ego_occluders"":""100""}","false","","","","","","","","","","","","","","","","","","",""
"","","","","","image-keyboard-response","7","56184","0.0-3.0-4.0","60e9fd8a2f52070be49cf317","665500ab8938657b03fbdba8","66577b965db577d15c359b34","3335","stimuli/01111002.jpg"," ","","practrice_feedback","2","","","","","","","","","","","","","","","","","","","","",""
"","","","","","image-keyboard-response","8","57410","0.0-3.0-5.0","60e9fd8a2f52070be49cf317","665500ab8938657b03fbdba8","66577b965db577d15c359b34","1221","stimuli/2110010.jpg","2","","prediction_practice","2","{""filepath"":""stimuli/2110010.jpg"",""ball_pos"":2,""ego_ball_visible"":true,""ego_can_infer"":true,""alter_ball_visible"":true,""alter_can_infer"":true,""collective_ball_visible"":true,""collective_can_infer"":true,""search_locations"":[2],""alter_occluders"":""110"",""ego_occluders"":""010""}","true","","","","","","","","","","","","","","","","","","",""
"","","","","","image-keyboard-response","9","58127","0.0-3.0-6.0","60e9fd8a2f52070be49cf317","665500ab8938657b03fbdba8","66577b965db577d15c359b34","715","stimuli/21100102.jpg"," ","","practrice_feedback","2","","","","","","","","","","","","","","","","","","","","",""
"","","","","","image-keyboard-response","10","60271","0.0-3.0-7.0","60e9fd8a2f52070be49cf317","665500ab8938657b03fbdba8","66577b965db577d15c359b34","2141","stimuli/2100011.jpg","1","","prediction_practice","2","{""filepath"":""stimuli/2100011.jpg"",""ball_pos"":2,""ego_ball_visible"":false,""ego_can_infer"":false,""alter_ball_visible"":true,""alter_can_infer"":true,""collective_ball_visible"":false,""collective_can_infer"":false,""search_locations"":[2],""alter_occluders"":""100"",""ego_occluders"":""011""}","false","","","","","","","","","","","","","","","","","","",""
"","","","","","image-keyboard-response","11","61312","0.0-3.0-8.0","60e9fd8a2f52070be49cf317","665500ab8938657b03fbdba8","66577b965db577d15c359b34","1039","stimuli/21000112.jpg"," ","","practrice_feedback","2","","","","","","","","","","","","","","","","","","","","",""
"","","","","","image-keyboard-response","12","62670","0.0-3.0-9.0","60e9fd8a2f52070be49cf317","665500ab8938657b03fbdba8","66577b965db577d15c359b34","1357","stimuli/0101111.jpg","1","","prediction_practice","2","{""filepath"":""stimuli/0101111.jpg"",""ball_pos"":0,""ego_ball_visible"":false,""ego_can_infer"":false,""alter_ball_visible"":false,""alter_can_infer"":false,""collective_ball_visible"":false,""collective_can_infer"":false,""search_locations"":[0,2],""alter_occluders"":""101"",""ego_occluders"":""111""}","false","","","","","","","","","","","","","","","","","","",""
"","","","","","image-keyboard-response","13","63444","0.0-3.0-10.0","60e9fd8a2f52070be49cf317","665500ab8938657b03fbdba8","66577b965db577d15c359b34","772","stimuli/01011112.jpg"," ","","practrice_feedback","0","","","","","","","","","","","","","","","","","","","","",""
"","","","","","image-keyboard-response","14","64031","0.0-3.0-11.0","60e9fd8a2f52070be49cf317","665500ab8938657b03fbdba8","66577b965db577d15c359b34","584","stimuli/2110100.jpg","2","","prediction_practice","2","{""filepath"":""stimuli/2110100.jpg"",""ball_pos"":2,""ego_ball_visible"":true,""ego_can_infer"":true,""alter_ball_visible"":true,""alter_can_infer"":true,""collective_ball_visible"":true,""collective_can_infer"":true,""search_locations"":[2],""alter_occluders"":""110"",""ego_occluders"":""100""}","true","","","","","","","","","","","","","","","","","","",""
"","","","","","image-keyboard-response","15","64695","0.0-3.0-12.0","60e9fd8a2f52070be49cf317","665500ab8938657b03fbdba8","66577b965db577d15c359b34","663","stimuli/21101002.jpg"," ","","practrice_feedback","2","","","","","","","","","","","","","","","","","","","","",""
"","","","","","image-keyboard-response","16","66707","0.0-3.0-13.0","60e9fd8a2f52070be49cf317","665500ab8938657b03fbdba8","66577b965db577d15c359b34","2009","stimuli/0000100.jpg","0","","prediction_practice","0","{""filepath"":""stimuli/0000100.jpg"",""ball_pos"":0,""ego_ball_visible"":false,""ego_can_infer"":true,""alter_ball_visible"":true,""alter_can_infer"":true,""collective_ball_visible"":false,""collective_can_infer"":true,""search_locations"":[0],""alter_occluders"":""000"",""ego_occluders"":""100""}","true","","","","","","","","","","","","","","","","","","",""
"","","","","","image-keyboard-response","17","67720","0.0-3.0-14.0","60e9fd8a2f52070be49cf317","665500ab8938657b03fbdba8","66577b965db577d15c359b34","1010","stimuli/00001000.jpg"," ","","practrice_feedback","0","","","","","","","","","","","","","","","","","","","","",""
"","","","","","image-keyboard-response","18","69576","0.0-3.0-15.0","60e9fd8a2f52070be49cf317","665500ab8938657b03fbdba8","66577b965db577d15c359b34","1854","stimuli/1111111.jpg","2","","prediction_practice","0","{""filepath"":""stimuli/1111111.jpg"",""ball_pos"":1,""ego_ball_visible"":false,""ego_can_infer"":false,""alter_ball_visible"":false,""alter_can_infer"":false,""collective_ball_visible"":false,""collective_can_infer"":false,""search_locations"":[1,2,0],""alter_occluders"":""111"",""ego_occluders"":""111""}","false","","","","","","","","","","","","","","","","","","",""
"","","","","","image-keyboard-response","19","70332","0.0-3.0-16.0","60e9fd8a2f52070be49cf317","665500ab8938657b03fbdba8","66577b965db577d15c359b34","755","stimuli/11111110.jpg"," ","","practrice_feedback","1","","","","","","","","","","","","","","","","","","","","",""
"","","","","","image-keyboard-response","20","70938","0.0-3.0-17.0","60e9fd8a2f52070be49cf317","665500ab8938657b03fbdba8","66577b965db577d15c359b34","604","stimuli/1001100.jpg","1","","prediction_practice","1","{""filepath"":""stimuli/1001100.jpg"",""ball_pos"":1,""ego_ball_visible"":true,""ego_can_infer"":true,""alter_ball_visible"":true,""alter_can_infer"":true,""collective_ball_visible"":true,""collective_can_infer"":true,""search_locations"":[1],""alter_occluders"":""001"",""ego_occluders"":""100""}","true","","","","","","","","","","","","","","","","","","",""
"","","","","","image-keyboard-response","21","71431","0.0-3.0-18.0","60e9fd8a2f52070be49cf317","665500ab8938657b03fbdba8","66577b965db577d15c359b34","491","stimuli/10011001.jpg"," ","","practrice_feedback","1","","","","","","","","","","","","","","","","","","","","",""
"","","","","","image-keyboard-response","22","72369","0.0-3.0-19.0","60e9fd8a2f52070be49cf317","665500ab8938657b03fbdba8","66577b965db577d15c359b34","937","stimuli/2101011.jpg","1","","prediction_practice","0","{""filepath"":""stimuli/2101011.jpg"",""ball_pos"":2,""ego_ball_visible"":false,""ego_can_infer"":false,""alter_ball_visible"":false,""alter_can_infer"":false,""collective_ball_visible"":false,""collective_can_infer"":false,""search_locations"":[0,2],""alter_occluders"":""101"",""ego_occluders"":""011""}","false","","","","","","","","","","","","","","","","","","",""
"","","","","","image-keyboard-response","23","73044","0.0-3.0-20.0","60e9fd8a2f52070be49cf317","665500ab8938657b03fbdba8","66577b965db577d15c359b34","674","stimuli/21010110.jpg"," ","","practrice_feedback","0","","","","","","","","","","","","","","","","","","","","",""
"","","","","","html-button-response","24","76976","0.0-3.0-21.0","60e9fd8a2f52070be49cf317","665500ab8938657b03fbdba8","66577b965db577d15c359b34","3931","Now that you've had some practice, you'll be tested with a couple of easy trials. If you correctly predict Sam's choice, you'll move on to complete the experiment!","0","","","","","","","","","","","","","","","","","","","","","","","",""
"","","","","","image-keyboard-response","25","78083","0.0-3.0-22.0-0.0","60e9fd8a2f52070be49cf317","665500ab8938657b03fbdba8","66577b965db577d15c359b34","1102","stimuli/0000011.jpg","arrowleft","","comprehension_quiz","","","true","arrowleft","","","","","","","","","","","","","","","","","",""
"","","","","","image-keyboard-response","26","78610","0.0-3.0-22.0-1.0","60e9fd8a2f52070be49cf317","665500ab8938657b03fbdba8","66577b965db577d15c359b34","525","stimuli/00000110.jpg"," ","","comprehension_quiz","","","true"," ","","","","","","","","","","","","","","","","","",""
"","","","","","image-keyboard-response","27","81367","0.0-3.0-22.0-2.0","60e9fd8a2f52070be49cf317","665500ab8938657b03fbdba8","66577b965db577d15c359b34","2754","stimuli/1010010.jpg","arrowdown","","comprehension_quiz","","","true","arrowdown","","","","","","","","","","","","","","","","","",""
"","","","","","image-keyboard-response","28","81873","0.0-3.0-22.0-3.0","60e9fd8a2f52070be49cf317","665500ab8938657b03fbdba8","66577b965db577d15c359b34","504","stimuli/10100101.jpg"," ","","comprehension_quiz","","","true"," ","","","","","","","","","","","","","","","","","",""
"","","","","","html-button-response","29","83523","0.0-4.0","60e9fd8a2f52070be49cf317","665500ab8938657b03fbdba8","66577b965db577d15c359b34","1648","The experiment will now begin.","0","","","","","","","","","","","","","","","","","","","","","","","",""
"","","","","","image-keyboard-response","30","84850","0.0-5.0","60e9fd8a2f52070be49cf317","665500ab8938657b03fbdba8","66577b965db577d15c359b34","1325","stimuli/0000010.jpg","0","","prediction_trial","0","","true","","0","true","true","true","true","true","true","[0]","000","010","1","","","","","","",""
"","","","","","image-keyboard-response","31","85329","0.0-6.0","60e9fd8a2f52070be49cf317","665500ab8938657b03fbdba8","66577b965db577d15c359b34","477","stimuli/00000100.jpg"," ","","feedback_trial","0","","","","","","","","","","","","","","","","","","","","",""
"","","","","","image-keyboard-response","32","87385","0.0-7.0","60e9fd8a2f52070be49cf317","665500ab8938657b03fbdba8","66577b965db577d15c359b34","2054","stimuli/0100001.jpg","0","","prediction_trial","0","","true","","0","true","true","false","true","false","true","[0]","100","001","1","","","","","","",""
"","","","","","image-keyboard-response","33","87971","0.0-8.0","60e9fd8a2f52070be49cf317","665500ab8938657b03fbdba8","66577b965db577d15c359b34","581","stimuli/01000010.jpg"," ","","feedback_trial","0","","","","","","","","","","","","","","","","","","","","",""
"","","","","","image-keyboard-response","34","89511","0.0-9.0","60e9fd8a2f52070be49cf317","665500ab8938657b03fbdba8","66577b965db577d15c359b34","1537","stimuli/2111100.jpg","2","","prediction_trial","2","","true","","2","true","true","false","false","false","false","[1,0,2]","111","100","1","","","","","","",""
"","","","","","image-keyboard-response","35","90115","0.0-10.0","60e9fd8a2f52070be49cf317","665500ab8938657b03fbdba8","66577b965db577d15c359b34","602","stimuli/21111002.jpg"," ","","feedback_trial","1","","","","","","","","","","","","","","","","","","","","",""
"","","","","","image-keyboard-response","36","90821","0.0-11.0","60e9fd8a2f52070be49cf317","665500ab8938657b03fbdba8","66577b965db577d15c359b34","704","stimuli/1100000.jpg","1","","prediction_trial","1","","true","","1","true","true","true","true","true","true","[1]","100","000","1","","","","","","",""
"","","","","","image-keyboard-response","37","91080","0.0-12.0","60e9fd8a2f52070be49cf317","665500ab8938657b03fbdba8","66577b965db577d15c359b34","258","stimuli/11000001.jpg"," ","","feedback_trial","1","","","","","","","","","","","","","","","","","","","","",""
"","","","","","image-keyboard-response","38","92404","0.0-13.0","60e9fd8a2f52070be49cf317","665500ab8938657b03fbdba8","66577b965db577d15c359b34","1322","stimuli/1001111.jpg","1","","prediction_trial","1","","true","","1","false","false","true","true","false","false","[1]","001","111","1","","","","","","",""
"","","","","","image-keyboard-response","39","92963","0.0-14.0","60e9fd8a2f52070be49cf317","665500ab8938657b03fbdba8","66577b965db577d15c359b34","558","stimuli/10011111.jpg"," ","","feedback_trial","1","","","","","","","","","","","","","","","","","","","","",""
"","","","","","image-keyboard-response","40","93705","0.0-15.0","60e9fd8a2f52070be49cf317","665500ab8938657b03fbdba8","66577b965db577d15c359b34","740","stimuli/0011001.jpg","0","","prediction_trial","0","","true","","0","true","true","true","true","true","true","[0]","011","001","1","","","","","","",""
"","","","","","image-keyboard-response","41","94213","0.0-16.0","60e9fd8a2f52070be49cf317","665500ab8938657b03fbdba8","66577b965db577d15c359b34","506","stimuli/00110010.jpg"," ","","feedback_trial","0","","","","","","","","","","","","","","","","","","","","",""
"","","","","","image-keyboard-response","42","94773","0.0-17.0","60e9fd8a2f52070be49cf317","665500ab8938657b03fbdba8","66577b965db577d15c359b34","558","stimuli/1001001.jpg","1","","prediction_trial","1","","true","","1","true","true","true","true","true","true","[1]","001","001","1","","","","","","",""
"","","","","","image-keyboard-response","43","95107","0.0-18.0","60e9fd8a2f52070be49cf317","665500ab8938657b03fbdba8","66577b965db577d15c359b34","332","stimuli/10010011.jpg"," ","","feedback_trial","1","","","","","","","","","","","","","","","","","","","","",""
"","","","","","image-keyboard-response","44","95603","0.0-19.0","60e9fd8a2f52070be49cf317","665500ab8938657b03fbdba8","66577b965db577d15c359b34","495","stimuli/0011011.jpg","0","","prediction_trial","0","","true","","0","true","true","true","true","true","true","[0]","011","011","1","","","","","","",""
"","","","","","image-keyboard-response","45","95900","0.0-20.0","60e9fd8a2f52070be49cf317","665500ab8938657b03fbdba8","66577b965db577d15c359b34","295","stimuli/00110110.jpg"," ","","feedback_trial","0","","","","","","","","","","","","","","","","","","","","",""
"","","","","","image-keyboard-response","46","96421","0.0-21.0","60e9fd8a2f52070be49cf317","665500ab8938657b03fbdba8","66577b965db577d15c359b34","519","stimuli/2110110.jpg","2","","prediction_trial","2","","true","","2","true","true","true","true","true","true","[2]","110","110","1","","","","","","",""
"","","","","","image-keyboard-response","47","96724","0.0-22.0","60e9fd8a2f52070be49cf317","665500ab8938657b03fbdba8","66577b965db577d15c359b34","301","stimuli/21101102.jpg"," ","","feedback_trial","2","","","","","","","","","","","","","","","","","","","","",""
"","","","","","image-keyboard-response","48","97256","0.0-23.0","60e9fd8a2f52070be49cf317","665500ab8938657b03fbdba8","66577b965db577d15c359b34","531","stimuli/0001000.jpg","0","","prediction_trial","0","","true","","0","true","true","true","true","true","true","[0]","001","000","1","","","","","","",""
"","","","","","image-keyboard-response","49","97554","0.0-24.0","60e9fd8a2f52070be49cf317","665500ab8938657b03fbdba8","66577b965db577d15c359b34","294","stimuli/00010000.jpg"," ","","feedback_trial","0","","","","","","","","","","","","","","","","","","","","",""
"","","","","","image-keyboard-response","50","98980","0.0-25.0","60e9fd8a2f52070be49cf317","665500ab8938657b03fbdba8","66577b965db577d15c359b34","1424","stimuli/0110011.jpg","0","","prediction_trial","0","","true","","0","true","true","false","false","false","false","[1,0]","110","011","1","","","","","","",""
"","","","","","image-keyboard-response","51","99510","0.0-26.0","60e9fd8a2f52070be49cf317","665500ab8938657b03fbdba8","66577b965db577d15c359b34","528","stimuli/01100110.jpg"," ","","feedback_trial","1","","","","","","","","","","","","","","","","","","","","",""
"","","","","","image-keyboard-response","52","100064","0.0-27.0","60e9fd8a2f52070be49cf317","665500ab8938657b03fbdba8","66577b965db577d15c359b34","551","stimuli/0011000.jpg","0","","prediction_trial","0","","true","","0","true","true","true","true","true","true","[0]","011","000","1","","","","","","",""
"","","","","","image-keyboard-response","53","100387","0.0-28.0","60e9fd8a2f52070be49cf317","665500ab8938657b03fbdba8","66577b965db577d15c359b34","322","stimuli/00110000.jpg"," ","","feedback_trial","0","","","","","","","","","","","","","","","","","","","","",""
"","","","","","image-keyboard-response","54","102075","0.0-29.0","60e9fd8a2f52070be49cf317","665500ab8938657b03fbdba8","66577b965db577d15c359b34","1684","stimuli/0111100.jpg","0","","prediction_trial","0","","true","","0","false","true","false","false","false","false","[2,0,1]","111","100","1","","","","","","",""
"","","","","","image-keyboard-response","55","102560","0.0-30.0","60e9fd8a2f52070be49cf317","665500ab8938657b03fbdba8","66577b965db577d15c359b34","483","stimuli/01111000.jpg"," ","","feedback_trial","2","","","","","","","","","","","","","","","","","","","","",""
"","","","","","image-keyboard-response","56","103927","0.0-31.0","60e9fd8a2f52070be49cf317","665500ab8938657b03fbdba8","66577b965db577d15c359b34","1365","stimuli/1110000.jpg","1","","prediction_trial","0","","false","","1","true","true","false","false","false","false","[0,1]","110","000","0","","","","","","",""
"","","","","","image-keyboard-response","57","104493","0.0-32.0","60e9fd8a2f52070be49cf317","665500ab8938657b03fbdba8","66577b965db577d15c359b34","564","stimuli/11100000.jpg"," ","","feedback_trial","0","","","","","","","","","","","","","","","","","","","","",""
"","","","","","image-keyboard-response","58","105557","0.0-33.0","60e9fd8a2f52070be49cf317","665500ab8938657b03fbdba8","66577b965db577d15c359b34","1063","stimuli/2110011.jpg","2","","prediction_trial","2","","true","","2","false","false","true","true","false","false","[2]","110","011","1","","","","","","",""
"","","","","","image-keyboard-response","59","106034","0.0-34.0","60e9fd8a2f52070be49cf317","665500ab8938657b03fbdba8","66577b965db577d15c359b34","476","stimuli/21100112.jpg"," ","","feedback_trial","2","","","","","","","","","","","","","","","","","","","","",""
"","","","","","image-keyboard-response","60","107058","0.0-35.0","60e9fd8a2f52070be49cf317","665500ab8938657b03fbdba8","66577b965db577d15c359b34","1022","stimuli/0110001.jpg","0","","prediction_trial","1","","false","","0","true","true","false","false","false","false","[0,1]","110","001","0","","","","","","",""
"","","","","","image-keyboard-response","61","107497","0.0-36.0","60e9fd8a2f52070be49cf317","665500ab8938657b03fbdba8","66577b965db577d15c359b34","438","stimuli/01100011.jpg"," ","","feedback_trial","0","","","","","","","","","","","","","","","","","","","","",""
"","","","","","image-keyboard-response","62","108084","0.0-37.0","60e9fd8a2f52070be49cf317","665500ab8938657b03fbdba8","66577b965db577d15c359b34","585","stimuli/1101000.jpg","1","","prediction_trial","1","","true","","1","true","true","true","true","true","true","[1]","101","000","1","","","","","","",""
"","","","","","image-keyboard-response","63","108360","0.0-38.0","60e9fd8a2f52070be49cf317","665500ab8938657b03fbdba8","66577b965db577d15c359b34","273","stimuli/11010001.jpg"," ","","feedback_trial","1","","","","","","","","","","","","","","","","","","","","",""
"","","","","","image-keyboard-response","64","110409","0.0-39.0","60e9fd8a2f52070be49cf317","665500ab8938657b03fbdba8","66577b965db577d15c359b34","2048","stimuli/2000111.jpg","1","","prediction_trial","2","","false","","2","false","false","true","true","false","false","[2]","000","111","0","","","","","","",""
"","","","","","image-keyboard-response","65","110874","0.0-40.0","60e9fd8a2f52070be49cf317","665500ab8938657b03fbdba8","66577b965db577d15c359b34","463","stimuli/20001112.jpg"," ","","feedback_trial","2","","","","","","","","","","","","","","","","","","","","",""
"","","","","","image-keyboard-response","66","111576","0.0-41.0","60e9fd8a2f52070be49cf317","665500ab8938657b03fbdba8","66577b965db577d15c359b34","700","stimuli/2100111.jpg","1","","prediction_trial","2","","false","","2","false","false","true","true","false","false","[2]","100","111","0","","","","","","",""
"","","","","","image-keyboard-response","67","112007","0.0-42.0","60e9fd8a2f52070be49cf317","665500ab8938657b03fbdba8","66577b965db577d15c359b34","429","stimuli/21001112.jpg"," ","","feedback_trial","2","","","","","","","","","","","","","","","","","","","","",""
"","","","","","image-keyboard-response","68","112841","0.0-43.0","60e9fd8a2f52070be49cf317","665500ab8938657b03fbdba8","66577b965db577d15c359b34","833","stimuli/1010111.jpg","2","","prediction_trial","1","","false","","1","false","false","false","true","false","false","[1]","010","111","0","","","","","","",""
"","","","","","image-keyboard-response","69","113314","0.0-44.0","60e9fd8a2f52070be49cf317","665500ab8938657b03fbdba8","66577b965db577d15c359b34","471","stimuli/10101111.jpg"," ","","feedback_trial","1","","","","","","","","","","","","","","","","","","","","",""
"","","","","","image-keyboard-response","70","115521","0.0-45.0","60e9fd8a2f52070be49cf317","665500ab8938657b03fbdba8","66577b965db577d15c359b34","2204","stimuli/2000101.jpg","0","","prediction_trial","2","","false","","2","false","false","true","true","false","false","[2]","000","101","0","","","","","","",""
"","","","","","image-keyboard-response","71","115952","0.0-46.0","60e9fd8a2f52070be49cf317","665500ab8938657b03fbdba8","66577b965db577d15c359b34","427","stimuli/20001012.jpg"," ","","feedback_trial","2","","","","","","","","","","","","","","","","","","","","",""
"","","","","","image-keyboard-response","72","116531","0.0-47.0","60e9fd8a2f52070be49cf317","665500ab8938657b03fbdba8","66577b965db577d15c359b34","576","stimuli/0010000.jpg","0","","prediction_trial","0","","true","","0","true","true","true","true","true","true","[0]","010","000","1","","","","","","",""
"","","","","","image-keyboard-response","73","116866","0.0-48.0","60e9fd8a2f52070be49cf317","665500ab8938657b03fbdba8","66577b965db577d15c359b34","334","stimuli/00100000.jpg"," ","","feedback_trial","0","","","","","","","","","","","","","","","","","","","","",""
"","","","","","image-keyboard-response","74","117489","0.0-49.0","60e9fd8a2f52070be49cf317","665500ab8938657b03fbdba8","66577b965db577d15c359b34","622","stimuli/1001101.jpg","1","","prediction_trial","1","","true","","1","true","true","true","true","true","true","[1]","001","101","1","","","","","","",""
"","","","","","image-keyboard-response","75","117714","0.0-50.0","60e9fd8a2f52070be49cf317","665500ab8938657b03fbdba8","66577b965db577d15c359b34","222","stimuli/10011011.jpg"," ","","feedback_trial","1","","","","","","","","","","","","","","","","","","","","",""
"","","","","","image-keyboard-response","76","118589","0.0-51.0","60e9fd8a2f52070be49cf317","665500ab8938657b03fbdba8","66577b965db577d15c359b34","874","stimuli/2100101.jpg","2","","prediction_trial","2","","true","","2","false","false","true","true","false","false","[2]","100","101","1","","","","","","",""
"","","","","","image-keyboard-response","77","119011","0.0-52.0","60e9fd8a2f52070be49cf317","665500ab8938657b03fbdba8","66577b965db577d15c359b34","420","stimuli/21001012.jpg"," ","","feedback_trial","2","","","","","","","","","","","","","","","","","","","","",""
"","","","","","image-keyboard-response","78","137800","0.0-53.0","60e9fd8a2f52070be49cf317","665500ab8938657b03fbdba8","66577b965db577d15c359b34","18788","stimuli/1000111.jpg","2","","prediction_trial","1","","false","","1","false","false","true","true","false","false","[1]","000","111","0","","","","","","",""
"","","","","","image-keyboard-response","79","138402","0.0-54.0","60e9fd8a2f52070be49cf317","665500ab8938657b03fbdba8","66577b965db577d15c359b34","600","stimuli/10001111.jpg"," ","","feedback_trial","1","","","","","","","","","","","","","","","","","","","","",""
"","","","","","image-keyboard-response","80","139432","0.0-55.0","60e9fd8a2f52070be49cf317","665500ab8938657b03fbdba8","66577b965db577d15c359b34","1029","stimuli/0000111.jpg","1","","prediction_trial","0","","false","","0","false","false","true","true","false","false","[0]","000","111","0","","","","","","",""
"","","","","","image-keyboard-response","81","139852","0.0-56.0","60e9fd8a2f52070be49cf317","665500ab8938657b03fbdba8","66577b965db577d15c359b34","418","stimuli/00001110.jpg"," ","","feedback_trial","0","","","","","","","","","","","","","","","","","","","","",""
"","","","","","image-keyboard-response","82","141024","0.0-57.0","60e9fd8a2f52070be49cf317","665500ab8938657b03fbdba8","66577b965db577d15c359b34","1170","stimuli/1111011.jpg","1","","prediction_trial","2","","false","","1","false","false","false","false","false","false","[1,2,0]","111","011","0","","","","","","",""
"","","","","","image-keyboard-response","83","141420","0.0-58.0","60e9fd8a2f52070be49cf317","665500ab8938657b03fbdba8","66577b965db577d15c359b34","393","stimuli/11110112.jpg"," ","","feedback_trial","1","","","","","","","","","","","","","","","","","","","","",""
"","","","","","image-keyboard-response","84","142023","0.0-59.0","60e9fd8a2f52070be49cf317","665500ab8938657b03fbdba8","66577b965db577d15c359b34","601","stimuli/0000011.jpg","0","","prediction_trial","0","","true","","0","true","true","true","true","true","true","[0]","000","011","1","","","","","","",""
"","","","","","image-keyboard-response","85","142248","0.0-60.0","60e9fd8a2f52070be49cf317","665500ab8938657b03fbdba8","66577b965db577d15c359b34","223","stimuli/00000110.jpg"," ","","feedback_trial","0","","","","","","","","","","","","","","","","","","","","",""
"","","","","","image-keyboard-response","86","142934","0.0-61.0","60e9fd8a2f52070be49cf317","665500ab8938657b03fbdba8","66577b965db577d15c359b34","683","stimuli/2110101.jpg","2","","prediction_trial","2","","true","","2","false","false","true","true","false","false","[2]","110","101","1","","","","","","",""
"","","","","","image-keyboard-response","87","143436","0.0-62.0","60e9fd8a2f52070be49cf317","665500ab8938657b03fbdba8","66577b965db577d15c359b34","501","stimuli/21101012.jpg"," ","","feedback_trial","2","","","","","","","","","","","","","","","","","","","","",""
"","","","","","image-keyboard-response","88","144043","0.0-63.0","60e9fd8a2f52070be49cf317","665500ab8938657b03fbdba8","66577b965db577d15c359b34","604","stimuli/1111001.jpg","1","","prediction_trial","2","","false","","1","true","true","false","false","false","false","[1,2,0]","111","001","0","","","","","","",""
"","","","","","image-keyboard-response","89","144508","0.0-64.0","60e9fd8a2f52070be49cf317","665500ab8938657b03fbdba8","66577b965db577d15c359b34","462","stimuli/11110012.jpg"," ","","feedback_trial","1","","","","","","","","","","","","","","","","","","","","",""
"","","","","","image-keyboard-response","90","146648","0.0-65.0","60e9fd8a2f52070be49cf317","665500ab8938657b03fbdba8","66577b965db577d15c359b34","2138","stimuli/1010011.jpg","2","","prediction_trial","1","","false","","1","false","false","false","true","false","false","[1]","010","011","0","","","","","","",""
"","","","","","image-keyboard-response","91","147096","0.0-66.0","60e9fd8a2f52070be49cf317","665500ab8938657b03fbdba8","66577b965db577d15c359b34","446","stimuli/10100111.jpg"," ","","feedback_trial","1","","","","","","","","","","","","","","","","","","","","",""
"","","","","","image-keyboard-response","92","153180","0.0-67.0","60e9fd8a2f52070be49cf317","665500ab8938657b03fbdba8","66577b965db577d15c359b34","6082","stimuli/0001101.jpg","0","","prediction_trial","0","","true","","0","false","false","true","true","false","false","[0]","001","101","1","","","","","","",""
"","","","","","image-keyboard-response","93","154212","0.0-68.0","60e9fd8a2f52070be49cf317","665500ab8938657b03fbdba8","66577b965db577d15c359b34","1028","stimuli/00011010.jpg"," ","","feedback_trial","0","","","","","","","","","","","","","","","","","","","","",""
"","","","","","image-keyboard-response","94","155269","0.0-69.0","60e9fd8a2f52070be49cf317","665500ab8938657b03fbdba8","66577b965db577d15c359b34","1056","stimuli/2110111.jpg","2","","prediction_trial","2","","true","","2","false","false","true","true","false","false","[2]","110","111","1","","","","","","",""
"","","","","","image-keyboard-response","95","155679","0.0-70.0","60e9fd8a2f52070be49cf317","665500ab8938657b03fbdba8","66577b965db577d15c359b34","408","stimuli/21101112.jpg"," ","","feedback_trial","2","","","","","","","","","","","","","","","","","","","","",""
"","","","","","image-keyboard-response","96","156583","0.0-71.0","60e9fd8a2f52070be49cf317","665500ab8938657b03fbdba8","66577b965db577d15c359b34","902","stimuli/1100111.jpg","2","","prediction_trial","1","","false","","1","false","false","true","true","false","false","[1]","100","111","0","","","","","","",""
"","","","","","image-keyboard-response","97","157006","0.0-72.0","60e9fd8a2f52070be49cf317","665500ab8938657b03fbdba8","66577b965db577d15c359b34","420","stimuli/11001111.jpg"," ","","feedback_trial","1","","","","","","","","","","","","","","","","","","","","",""
"","","","","","image-keyboard-response","98","158248","0.0-73.0","60e9fd8a2f52070be49cf317","665500ab8938657b03fbdba8","66577b965db577d15c359b34","1240","stimuli/0101010.jpg","0","","prediction_trial","0","","true","","0","true","true","false","false","false","false","[2,0]","101","010","1","","","","","","",""
"","","","","","image-keyboard-response","99","158696","0.0-74.0","60e9fd8a2f52070be49cf317","665500ab8938657b03fbdba8","66577b965db577d15c359b34","444","stimuli/01010100.jpg"," ","","feedback_trial","2","","","","","","","","","","","","","","","","","","","","",""
"","","","","","image-keyboard-response","100","160665","0.0-75.0","60e9fd8a2f52070be49cf317","665500ab8938657b03fbdba8","66577b965db577d15c359b34","1968","stimuli/1011000.jpg","1","","prediction_trial","2","","false","","1","true","true","false","false","false","false","[1,2]","011","000","0","","","","","","",""
"","","","","","image-keyboard-response","101","161054","0.0-76.0","60e9fd8a2f52070be49cf317","665500ab8938657b03fbdba8","66577b965db577d15c359b34","386","stimuli/10110002.jpg"," ","","feedback_trial","1","","","","","","","","","","","","","","","","","","","","",""
"","","","","","image-keyboard-response","102","161711","0.0-77.0","60e9fd8a2f52070be49cf317","665500ab8938657b03fbdba8","66577b965db577d15c359b34","655","stimuli/2100010.jpg","2","","prediction_trial","2","","true","","2","true","true","true","true","true","true","[2]","100","010","1","","","","","","",""
"","","","","","image-keyboard-response","103","162178","0.0-78.0","60e9fd8a2f52070be49cf317","665500ab8938657b03fbdba8","66577b965db577d15c359b34","465","stimuli/21000102.jpg"," ","","feedback_trial","2","","","","","","","","","","","","","","","","","","","","",""
"","","","","","image-keyboard-response","104","163837","0.0-79.0","60e9fd8a2f52070be49cf317","665500ab8938657b03fbdba8","66577b965db577d15c359b34","1658","stimuli/0001110.jpg","1","","prediction_trial","0","","false","","0","false","false","true","true","false","false","[0]","001","110","0","","","","","","",""
"","","","","","image-keyboard-response","105","164243","0.0-80.0","60e9fd8a2f52070be49cf317","665500ab8938657b03fbdba8","66577b965db577d15c359b34","404","stimuli/00011100.jpg"," ","","feedback_trial","0","","","","","","","","","","","","","","","","","","","","",""
"","","","","","image-keyboard-response","106","164905","0.0-81.0","60e9fd8a2f52070be49cf317","665500ab8938657b03fbdba8","66577b965db577d15c359b34","660","stimuli/0110101.jpg","2","","prediction_trial","1","","false","","0","false","false","false","false","false","false","[0,1]","110","101","0","","","","","","",""
"","","","","","image-keyboard-response","107","166943","0.0-82.0","60e9fd8a2f52070be49cf317","665500ab8938657b03fbdba8","66577b965db577d15c359b34","2035","stimuli/01101011.jpg"," ","","feedback_trial","0","","","","","","","","","","","","","","","","","","","","",""
"","","","","","image-keyboard-response","108","167662","0.0-83.0","60e9fd8a2f52070be49cf317","665500ab8938657b03fbdba8","66577b965db577d15c359b34","717","stimuli/1001000.jpg","1","","prediction_trial","1","","true","","1","true","true","true","true","true","true","[1]","001","000","1","","","","","","",""
"","","","","","image-keyboard-response","109","168009","0.0-84.0","60e9fd8a2f52070be49cf317","665500ab8938657b03fbdba8","66577b965db577d15c359b34","345","stimuli/10010001.jpg"," ","","feedback_trial","1","","","","","","","","","","","","","","","","","","","","",""
"","","","","","image-keyboard-response","110","168615","0.0-85.0","60e9fd8a2f52070be49cf317","665500ab8938657b03fbdba8","66577b965db577d15c359b34","604","stimuli/0001011.jpg","0","","prediction_trial","0","","true","","0","true","true","true","true","true","true","[0]","001","011","1","","","","","","",""
"","","","","","image-keyboard-response","111","168845","0.0-86.0","60e9fd8a2f52070be49cf317","665500ab8938657b03fbdba8","66577b965db577d15c359b34","223","stimuli/00010110.jpg"," ","","feedback_trial","0","","","","","","","","","","","","","","","","","","","","",""
"","","","","","image-keyboard-response","112","169644","0.0-87.0","60e9fd8a2f52070be49cf317","665500ab8938657b03fbdba8","66577b965db577d15c359b34","798","stimuli/2010100.jpg","2","","prediction_trial","2","","true","","2","true","true","true","true","true","true","[2]","010","100","1","","","","","","",""
"","","","","","image-keyboard-response","113","169908","0.0-88.0","60e9fd8a2f52070be49cf317","665500ab8938657b03fbdba8","66577b965db577d15c359b34","260","stimuli/20101002.jpg"," ","","feedback_trial","2","","","","","","","","","","","","","","","","","","","","",""
"","","","","","image-keyboard-response","114","171515","0.0-89.0","60e9fd8a2f52070be49cf317","665500ab8938657b03fbdba8","66577b965db577d15c359b34","1605","stimuli/0001100.jpg","0","","prediction_trial","0","","true","","0","false","true","true","true","false","true","[0]","001","100","1","","","","","","",""
"","","","","","image-keyboard-response","115","171789","0.0-90.0","60e9fd8a2f52070be49cf317","665500ab8938657b03fbdba8","66577b965db577d15c359b34","272","stimuli/00011000.jpg"," ","","feedback_trial","0","","","","","","","","","","","","","","","","","","","","",""
"","","","","","image-keyboard-response","116","172688","0.0-91.0","60e9fd8a2f52070be49cf317","665500ab8938657b03fbdba8","66577b965db577d15c359b34","894","stimuli/1111101.jpg","1","","prediction_trial","2","","false","","1","true","true","false","false","false","false","[2,0,1]","111","101","0","","","","","","",""
"","","","","","image-keyboard-response","117","173170","0.0-92.0","60e9fd8a2f52070be49cf317","665500ab8938657b03fbdba8","66577b965db577d15c359b34","480","stimuli/11111012.jpg"," ","","feedback_trial","2","","","","","","","","","","","","","","","","","","","","",""
"","","","","","image-keyboard-response","118","174372","0.0-93.0","60e9fd8a2f52070be49cf317","665500ab8938657b03fbdba8","66577b965db577d15c359b34","1198","stimuli/0101100.jpg","0","","prediction_trial","0","","true","","0","false","true","false","false","false","false","[2,0]","101","100","1","","","","","","",""
"","","","","","image-keyboard-response","119","174753","0.0-94.0","60e9fd8a2f52070be49cf317","665500ab8938657b03fbdba8","66577b965db577d15c359b34","379","stimuli/01011000.jpg"," ","","feedback_trial","2","","","","","","","","","","","","","","","","","","","","",""
"","","","","","image-keyboard-response","120","176158","0.0-95.0","60e9fd8a2f52070be49cf317","665500ab8938657b03fbdba8","66577b965db577d15c359b34","1403","stimuli/1000110.jpg","1","","prediction_trial","1","","true","","1","false","false","true","true","false","false","[1]","000","110","1","","","","","","",""
"","","","","","image-keyboard-response","121","176597","0.0-96.0","60e9fd8a2f52070be49cf317","665500ab8938657b03fbdba8","66577b965db577d15c359b34","437","stimuli/10001101.jpg"," ","","feedback_trial","1","","","","","","","","","","","","","","","","","","","","",""
"","","","","","image-keyboard-response","122","177181","0.0-97.0","60e9fd8a2f52070be49cf317","665500ab8938657b03fbdba8","66577b965db577d15c359b34","582","stimuli/2010010.jpg","2","","prediction_trial","2","","true","","2","true","true","true","true","true","true","[2]","010","010","1","","","","","","",""
"","","","","","image-keyboard-response","123","177503","0.0-98.0","60e9fd8a2f52070be49cf317","665500ab8938657b03fbdba8","66577b965db577d15c359b34","320","stimuli/20100102.jpg"," ","","feedback_trial","2","","","","","","","","","","","","","","","","","","","","",""
"","","","","","image-keyboard-response","124","178189","0.0-99.0","60e9fd8a2f52070be49cf317","665500ab8938657b03fbdba8","66577b965db577d15c359b34","684","stimuli/0111010.jpg","0","","prediction_trial","0","","true","","0","true","true","false","false","false","false","[2,0,1]","111","010","1","","","","","","",""
"","","","","","image-keyboard-response","125","178535","0.0-100.0","60e9fd8a2f52070be49cf317","665500ab8938657b03fbdba8","66577b965db577d15c359b34","344","stimuli/01110100.jpg"," ","","feedback_trial","2","","","","","","","","","","","","","","","","","","","","",""
"","","","","","image-keyboard-response","126","179153","0.0-101.0","60e9fd8a2f52070be49cf317","665500ab8938657b03fbdba8","66577b965db577d15c359b34","616","stimuli/1010000.jpg","1","","prediction_trial","1","","true","","1","true","true","false","true","false","true","[1]","010","000","1","","","","","","",""
"","","","","","image-keyboard-response","127","179440","0.0-102.0","60e9fd8a2f52070be49cf317","665500ab8938657b03fbdba8","66577b965db577d15c359b34","285","stimuli/10100001.jpg"," ","","feedback_trial","1","","","","","","","","","","","","","","","","","","","","",""
"","","","","","image-keyboard-response","128","181651","0.0-103.0","60e9fd8a2f52070be49cf317","665500ab8938657b03fbdba8","66577b965db577d15c359b34","2210","stimuli/0101111.jpg","1","","prediction_trial","0","","false","","0","false","false","false","false","false","false","[0,2]","101","111","0","","","","","","",""
"","","","","","image-keyboard-response","129","182223","0.0-104.0","60e9fd8a2f52070be49cf317","665500ab8938657b03fbdba8","66577b965db577d15c359b34","570","stimuli/01011110.jpg"," ","","feedback_trial","0","","","","","","","","","","","","","","","","","","","","",""
"","","","","","image-keyboard-response","130","182955","0.0-105.0","60e9fd8a2f52070be49cf317","665500ab8938657b03fbdba8","66577b965db577d15c359b34","730","stimuli/0100000.jpg","0","","prediction_trial","0","","true","","0","true","true","false","true","false","true","[0]","100","000","1","","","","","","",""
"","","","","","image-keyboard-response","131","183483","0.0-106.0","60e9fd8a2f52070be49cf317","665500ab8938657b03fbdba8","66577b965db577d15c359b34","526","stimuli/01000000.jpg"," ","","feedback_trial","0","","","","","","","","","","","","","","","","","","","","",""
"","","","","","image-keyboard-response","132","185412","0.0-107.0","60e9fd8a2f52070be49cf317","665500ab8938657b03fbdba8","66577b965db577d15c359b34","1927","stimuli/0101011.jpg","0","","prediction_trial","2","","false","","0","true","true","false","false","false","false","[0,2]","101","011","0","","","","","","",""
"","","","","","image-keyboard-response","133","185832","0.0-108.0","60e9fd8a2f52070be49cf317","665500ab8938657b03fbdba8","66577b965db577d15c359b34","418","stimuli/01010112.jpg"," ","","feedback_trial","0","","","","","","","","","","","","","","","","","","","","",""
"","","","","","image-keyboard-response","134","187289","0.0-109.0","60e9fd8a2f52070be49cf317","665500ab8938657b03fbdba8","66577b965db577d15c359b34","1453","stimuli/2111111.jpg","2","","prediction_trial","0","","false","","2","false","false","false","false","false","false","[0,2,1]","111","111","0","","","","","","",""
"","","","","","image-keyboard-response","135","187717","0.0-110.0","60e9fd8a2f52070be49cf317","665500ab8938657b03fbdba8","66577b965db577d15c359b34","425","stimuli/21111110.jpg"," ","","feedback_trial","0","","","","","","","","","","","","","","","","","","","","",""
"","","","","","image-keyboard-response","136","188760","0.0-111.0","60e9fd8a2f52070be49cf317","665500ab8938657b03fbdba8","66577b965db577d15c359b34","1042","stimuli/2011010.jpg","2","","prediction_trial","2","","true","","2","true","true","false","false","false","false","[2,1]","011","010","1","","","","","","",""
"","","","","","image-keyboard-response","137","189172","0.0-112.0","60e9fd8a2f52070be49cf317","665500ab8938657b03fbdba8","66577b965db577d15c359b34","410","stimuli/20110102.jpg"," ","","feedback_trial","2","","","","","","","","","","","","","","","","","","","","",""
"","","","","","image-keyboard-response","138","191124","0.0-113.0","60e9fd8a2f52070be49cf317","665500ab8938657b03fbdba8","66577b965db577d15c359b34","1949","stimuli/1010001.jpg","1","","prediction_trial","1","","true","","1","true","true","false","true","false","true","[1]","010","001","1","","","","","","",""
"","","","","","image-keyboard-response","139","191573","0.0-114.0","60e9fd8a2f52070be49cf317","665500ab8938657b03fbdba8","66577b965db577d15c359b34","447","stimuli/10100011.jpg"," ","","feedback_trial","1","","","","","","","","","","","","","","","","","","","","",""
"","","","","","image-keyboard-response","140","193448","0.0-115.0","60e9fd8a2f52070be49cf317","665500ab8938657b03fbdba8","66577b965db577d15c359b34","1873","stimuli/2101011.jpg","1","","prediction_trial","2","","false","","2","false","false","false","false","false","false","[0,2]","101","011","0","","","","","","",""
"","","","","","image-keyboard-response","141","193805","0.0-116.0","60e9fd8a2f52070be49cf317","665500ab8938657b03fbdba8","66577b965db577d15c359b34","355","stimuli/21010112.jpg"," ","","feedback_trial","0","","","","","","","","","","","","","","","","","","","","",""
"","","","","","image-keyboard-response","142","194574","0.0-117.0","60e9fd8a2f52070be49cf317","665500ab8938657b03fbdba8","66577b965db577d15c359b34","767","stimuli/1000000.jpg","1","","prediction_trial","1","","true","","1","true","true","true","true","true","true","[1]","000","000","1","","","","","","",""
"","","","","","image-keyboard-response","143","194905","0.0-118.0","60e9fd8a2f52070be49cf317","665500ab8938657b03fbdba8","66577b965db577d15c359b34","329","stimuli/10000001.jpg"," ","","feedback_trial","1","","","","","","","","","","","","","","","","","","","","",""
"","","","","","image-keyboard-response","144","195628","0.0-119.0","60e9fd8a2f52070be49cf317","665500ab8938657b03fbdba8","66577b965db577d15c359b34","721","stimuli/0101101.jpg","2","","prediction_trial","2","","true","","0","false","false","false","false","false","false","[2,0]","101","101","1","","","","","","",""
"","","","","","image-keyboard-response","145","195956","0.0-120.0","60e9fd8a2f52070be49cf317","665500ab8938657b03fbdba8","66577b965db577d15c359b34","322","stimuli/01011012.jpg"," ","","feedback_trial","2","","","","","","","","","","","","","","","","","","","","",""
"","","","","","image-keyboard-response","146","196963","0.0-121.0","60e9fd8a2f52070be49cf317","665500ab8938657b03fbdba8","66577b965db577d15c359b34","1003","stimuli/2001110.jpg","2","","prediction_trial","2","","true","","2","true","true","false","true","false","true","[2]","001","110","1","","","","","","",""
"","","","","","image-keyboard-response","147","197177","0.0-122.0","60e9fd8a2f52070be49cf317","665500ab8938657b03fbdba8","66577b965db577d15c359b34","212","stimuli/20011102.jpg"," ","","feedback_trial","2","","","","","","","","","","","","","","","","","","","","",""
"","","","","","image-keyboard-response","148","198390","0.0-123.0","60e9fd8a2f52070be49cf317","665500ab8938657b03fbdba8","66577b965db577d15c359b34","1211","stimuli/0110111.jpg","1","","prediction_trial","1","","true","","0","false","false","false","false","false","false","[1,0]","110","111","1","","","","","","",""
"","","","","","image-keyboard-response","149","198768","0.0-124.0","60e9fd8a2f52070be49cf317","665500ab8938657b03fbdba8","66577b965db577d15c359b34","376","stimuli/01101111.jpg"," ","","feedback_trial","1","","","","","","","","","","","","","","","","","","","","",""
"","","","","","image-keyboard-response","150","199283","0.0-125.0","60e9fd8a2f52070be49cf317","665500ab8938657b03fbdba8","66577b965db577d15c359b34","513","stimuli/2000010.jpg","2","","prediction_trial","2","","true","","2","true","true","true","true","true","true","[2]","000","010","1","","","","","","",""
"","","","","","image-keyboard-response","151","199509","0.0-126.0","60e9fd8a2f52070be49cf317","665500ab8938657b03fbdba8","66577b965db577d15c359b34","224","stimuli/20000102.jpg"," ","","feedback_trial","2","","","","","","","","","","","","","","","","","","","","",""
"","","","","","image-keyboard-response","152","199986","0.0-127.0","60e9fd8a2f52070be49cf317","665500ab8938657b03fbdba8","66577b965db577d15c359b34","475","stimuli/0101001.jpg","0","","prediction_trial","2","","false","","0","true","true","false","false","false","false","[2,0]","101","001","0","","","","","","",""
"","","","","","image-keyboard-response","153","200367","0.0-128.0","60e9fd8a2f52070be49cf317","665500ab8938657b03fbdba8","66577b965db577d15c359b34","380","stimuli/01010012.jpg"," ","","feedback_trial","2","","","","","","","","","","","","","","","","","","","","",""
"","","","","","image-keyboard-response","154","200907","0.0-129.0","60e9fd8a2f52070be49cf317","665500ab8938657b03fbdba8","66577b965db577d15c359b34","537","stimuli/0010001.jpg","0","","prediction_trial","0","","true","","0","true","true","true","true","true","true","[0]","010","001","1","","","","","","",""
"","","","","","image-keyboard-response","155","201197","0.0-130.0","60e9fd8a2f52070be49cf317","665500ab8938657b03fbdba8","66577b965db577d15c359b34","288","stimuli/00100010.jpg"," ","","feedback_trial","0","","","","","","","","","","","","","","","","","","","","",""
"","","","","","image-keyboard-response","156","201904","0.0-131.0","60e9fd8a2f52070be49cf317","665500ab8938657b03fbdba8","66577b965db577d15c359b34","707","stimuli/2111101.jpg","2","","prediction_trial","0","","false","","2","false","false","false","false","false","false","[2,1,0]","111","101","0","","","","","","",""
"","","","","","image-keyboard-response","157","202269","0.0-132.0","60e9fd8a2f52070be49cf317","665500ab8938657b03fbdba8","66577b965db577d15c359b34","363","stimuli/21111010.jpg"," ","","feedback_trial","2","","","","","","","","","","","","","","","","","","","","",""
"","","","","","image-keyboard-response","158","202931","0.0-133.0","60e9fd8a2f52070be49cf317","665500ab8938657b03fbdba8","66577b965db577d15c359b34","661","stimuli/1111110.jpg","0","","prediction_trial","1","","false","","1","false","false","false","false","false","false","[0,2,1]","111","110","0","","","","","","",""
"","","","","","image-keyboard-response","159","203172","0.0-134.0","60e9fd8a2f52070be49cf317","665500ab8938657b03fbdba8","66577b965db577d15c359b34","239","stimuli/11111101.jpg"," ","","feedback_trial","0","","","","","","","","","","","","","","","","","","","","",""
"","","","","","image-keyboard-response","160","203700","0.0-135.0","60e9fd8a2f52070be49cf317","665500ab8938657b03fbdba8","66577b965db577d15c359b34","525","stimuli/2101010.jpg","2","","prediction_trial","0","","false","","2","true","true","false","false","false","false","[2,0]","101","010","0","","","","","","",""
"","","","","","image-keyboard-response","161","203964","0.0-136.0","60e9fd8a2f52070be49cf317","665500ab8938657b03fbdba8","66577b965db577d15c359b34","263","stimuli/21010100.jpg"," ","","feedback_trial","2","","","","","","","","","","","","","","","","","","","","",""
"","","","","","image-keyboard-response","162","204521","0.0-137.0","60e9fd8a2f52070be49cf317","665500ab8938657b03fbdba8","66577b965db577d15c359b34","556","stimuli/0111011.jpg","0","","prediction_trial","2","","false","","0","true","true","false","false","false","false","[1,2,0]","111","011","0","","","","","","",""
"","","","","","image-keyboard-response","163","204791","0.0-138.0","60e9fd8a2f52070be49cf317","665500ab8938657b03fbdba8","66577b965db577d15c359b34","266","stimuli/01110112.jpg"," ","","feedback_trial","1","","","","","","","","","","","","","","","","","","","","",""
"","","","","","image-keyboard-response","164","206477","0.0-139.0","60e9fd8a2f52070be49cf317","665500ab8938657b03fbdba8","66577b965db577d15c359b34","1681","stimuli/1010110.jpg","0","","prediction_trial","1","","false","","1","false","false","false","true","false","false","[1]","010","110","0","","","","","","",""
"","","","","","image-keyboard-response","165","206796","0.0-140.0","60e9fd8a2f52070be49cf317","665500ab8938657b03fbdba8","66577b965db577d15c359b34","318","stimuli/10101101.jpg"," ","","feedback_trial","1","","","","","","","","","","","","","","","","","","","","",""
"","","","","","image-keyboard-response","166","207868","0.0-141.0","60e9fd8a2f52070be49cf317","665500ab8938657b03fbdba8","66577b965db577d15c359b34","1069","stimuli/0111110.jpg","0","","prediction_trial","0","","true","","0","false","false","false","false","false","false","[2,1,0]","111","110","1","","","","","","",""
"","","","","","image-keyboard-response","167","208177","0.0-142.0","60e9fd8a2f52070be49cf317","665500ab8938657b03fbdba8","66577b965db577d15c359b34","307","stimuli/01111100.jpg"," ","","feedback_trial","2","","","","","","","","","","","","","","","","","","","","",""
"","","","","","image-keyboard-response","168","213884","0.0-143.0","60e9fd8a2f52070be49cf317","665500ab8938657b03fbdba8","66577b965db577d15c359b34","5704","stimuli/0000001.jpg","0","","prediction_trial","0","","true","","0","true","true","true","true","true","true","[0]","000","001","1","","","","","","",""
"","","","","","image-keyboard-response","169","214220","0.0-144.0","60e9fd8a2f52070be49cf317","665500ab8938657b03fbdba8","66577b965db577d15c359b34","333","stimuli/00000010.jpg"," ","","feedback_trial","0","","","","","","","","","","","","","","","","","","","","",""
"","","","","","image-keyboard-response","170","214669","0.0-145.0","60e9fd8a2f52070be49cf317","665500ab8938657b03fbdba8","66577b965db577d15c359b34","446","stimuli/0011010.jpg","0","","prediction_trial","0","","true","","0","true","true","true","true","true","true","[0]","011","010","1","","","","","","",""
"","","","","","image-keyboard-response","171","214831","0.0-146.0","60e9fd8a2f52070be49cf317","665500ab8938657b03fbdba8","66577b965db577d15c359b34","161","stimuli/00110100.jpg"," ","","feedback_trial","0","","","","","","","","","","","","","","","","","","","","",""
"","","","","","image-keyboard-response","172","215518","0.0-147.0","60e9fd8a2f52070be49cf317","665500ab8938657b03fbdba8","66577b965db577d15c359b34","685","stimuli/0110000.jpg","0","","prediction_trial","0","","true","","0","true","true","false","false","false","false","[0,1]","110","000","1","","","","","","",""
"","","","","","image-keyboard-response","173","215802","0.0-148.0","60e9fd8a2f52070be49cf317","665500ab8938657b03fbdba8","66577b965db577d15c359b34","283","stimuli/01100000.jpg"," ","","feedback_trial","0","","","","","","","","","","","","","","","","","","","","",""
"","","","","","image-keyboard-response","174","216733","0.0-149.0","60e9fd8a2f52070be49cf317","665500ab8938657b03fbdba8","66577b965db577d15c359b34","928","stimuli/1100010.jpg","1","","prediction_trial","1","","true","","1","false","true","true","true","false","true","[1]","100","010","1","","","","","","",""
"","","","","","image-keyboard-response","175","217086","0.0-150.0","60e9fd8a2f52070be49cf317","665500ab8938657b03fbdba8","66577b965db577d15c359b34","352","stimuli/11000101.jpg"," ","","feedback_trial","1","","","","","","","","","","","","","","","","","","","","",""
"","","","","","image-keyboard-response","176","217971","0.0-151.0","60e9fd8a2f52070be49cf317","665500ab8938657b03fbdba8","66577b965db577d15c359b34","884","stimuli/1011011.jpg","2","","prediction_trial","1","","false","","1","false","false","false","false","false","false","[1,2]","011","011","0","","","","","","",""
"","","","","","image-keyboard-response","177","218395","0.0-152.0","60e9fd8a2f52070be49cf317","665500ab8938657b03fbdba8","66577b965db577d15c359b34","422","stimuli/10110111.jpg"," ","","feedback_trial","1","","","","","","","","","","","","","","","","","","","","",""
"","","","","","image-keyboard-response","178","219091","0.0-153.0","60e9fd8a2f52070be49cf317","665500ab8938657b03fbdba8","66577b965db577d15c359b34","695","stimuli/2111011.jpg","2","","prediction_trial","2","","true","","2","false","false","false","false","false","false","[2,1,0]","111","011","1","","","","","","",""
"","","","","","image-keyboard-response","179","219469","0.0-154.0","60e9fd8a2f52070be49cf317","665500ab8938657b03fbdba8","66577b965db577d15c359b34","376","stimuli/21110112.jpg"," ","","feedback_trial","2","","","","","","","","","","","","","","","","","","","","",""
"","","","","","image-keyboard-response","180","221050","0.0-155.0","60e9fd8a2f52070be49cf317","665500ab8938657b03fbdba8","66577b965db577d15c359b34","1578","stimuli/1101111.jpg","1","","prediction_trial","1","","true","","1","false","false","true","true","false","false","[1]","101","111","1","","","","","","",""
"","","","","","image-keyboard-response","181","221413","0.0-156.0","60e9fd8a2f52070be49cf317","665500ab8938657b03fbdba8","66577b965db577d15c359b34","362","stimuli/11011111.jpg"," ","","feedback_trial","1","","","","","","","","","","","","","","","","","","","","",""
"","","","","","image-keyboard-response","182","222054","0.0-157.0","60e9fd8a2f52070be49cf317","665500ab8938657b03fbdba8","66577b965db577d15c359b34","639","stimuli/1011100.jpg","1","","prediction_trial","2","","false","","1","true","true","false","false","false","false","[2,1]","011","100","0","","","","","","",""
"","","","","","image-keyboard-response","183","222433","0.0-158.0","60e9fd8a2f52070be49cf317","665500ab8938657b03fbdba8","66577b965db577d15c359b34","377","stimuli/10111002.jpg"," ","","feedback_trial","2","","","","","","","","","","","","","","","","","","","","",""
"","","","","","image-keyboard-response","184","223050","0.0-159.0","60e9fd8a2f52070be49cf317","665500ab8938657b03fbdba8","66577b965db577d15c359b34","615","stimuli/0000000.jpg","0","","prediction_trial","0","","true","","0","true","true","true","true","true","true","[0]","000","000","1","","","","","","",""
"","","","","","image-keyboard-response","185","223322","0.0-160.0","60e9fd8a2f52070be49cf317","665500ab8938657b03fbdba8","66577b965db577d15c359b34","266","stimuli/00000000.jpg"," ","","feedback_trial","0","","","","","","","","","","","","","","","","","","","","",""
"","","","","","image-keyboard-response","186","223886","0.0-161.0","60e9fd8a2f52070be49cf317","665500ab8938657b03fbdba8","66577b965db577d15c359b34","562","stimuli/1110011.jpg","2","","prediction_trial","0","","false","","1","false","false","false","false","false","false","[0,1]","110","011","0","","","","","","",""
"","","","","","image-keyboard-response","187","224265","0.0-162.0","60e9fd8a2f52070be49cf317","665500ab8938657b03fbdba8","66577b965db577d15c359b34","376","stimuli/11100110.jpg"," ","","feedback_trial","0","","","","","","","","","","","","","","","","","","","","",""
"","","","","","image-keyboard-response","188","224737","0.0-163.0","60e9fd8a2f52070be49cf317","665500ab8938657b03fbdba8","66577b965db577d15c359b34","470","stimuli/2010000.jpg","2","","prediction_trial","2","","true","","2","true","true","true","true","true","true","[2]","010","000","1","","","","","","",""
"","","","","","image-keyboard-response","189","225064","0.0-164.0","60e9fd8a2f52070be49cf317","665500ab8938657b03fbdba8","66577b965db577d15c359b34","325","stimuli/20100002.jpg"," ","","feedback_trial","2","","","","","","","","","","","","","","","","","","","","",""
"","","","","","image-keyboard-response","190","225662","0.0-165.0","60e9fd8a2f52070be49cf317","665500ab8938657b03fbdba8","66577b965db577d15c359b34","596","stimuli/2111001.jpg","2","","prediction_trial","1","","false","","2","false","true","false","false","false","false","[1,0,2]","111","001","0","","","","","","",""
"","","","","","image-keyboard-response","191","226004","0.0-166.0","60e9fd8a2f52070be49cf317","665500ab8938657b03fbdba8","66577b965db577d15c359b34","340","stimuli/21110011.jpg"," ","","feedback_trial","1","","","","","","","","","","","","","","","","","","","","",""
"","","","","","image-keyboard-response","192","226447","0.0-167.0","60e9fd8a2f52070be49cf317","665500ab8938657b03fbdba8","66577b965db577d15c359b34","441","stimuli/1110111.jpg","2","","prediction_trial","1","","false","","1","false","false","false","false","false","false","[0,1]","110","111","0","","","","","","",""
"","","","","","image-keyboard-response","193","226881","0.0-168.0","60e9fd8a2f52070be49cf317","665500ab8938657b03fbdba8","66577b965db577d15c359b34","431","stimuli/11101111.jpg"," ","","feedback_trial","0","","","","","","","","","","","","","","","","","","","","",""
"","","","","","image-keyboard-response","194","227280","0.0-169.0","60e9fd8a2f52070be49cf317","665500ab8938657b03fbdba8","66577b965db577d15c359b34","397","stimuli/2010110.jpg","2","","prediction_trial","2","","true","","2","true","true","true","true","true","true","[2]","010","110","1","","","","","","",""
"","","","","","image-keyboard-response","195","227601","0.0-170.0","60e9fd8a2f52070be49cf317","665500ab8938657b03fbdba8","66577b965db577d15c359b34","319","stimuli/20101102.jpg"," ","","feedback_trial","2","","","","","","","","","","","","","","","","","","","","",""
"","","","","","image-keyboard-response","196","228193","0.0-171.0","60e9fd8a2f52070be49cf317","665500ab8938657b03fbdba8","66577b965db577d15c359b34","589","stimuli/1100001.jpg","1","","prediction_trial","1","","true","","1","true","true","true","true","true","true","[1]","100","001","1","","","","","","",""
"","","","","","image-keyboard-response","197","228482","0.0-172.0","60e9fd8a2f52070be49cf317","665500ab8938657b03fbdba8","66577b965db577d15c359b34","287","stimuli/11000011.jpg"," ","","feedback_trial","1","","","","","","","","","","","","","","","","","","","","",""
"","","","","","image-keyboard-response","198","228917","0.0-173.0","60e9fd8a2f52070be49cf317","665500ab8938657b03fbdba8","66577b965db577d15c359b34","432","stimuli/1000101.jpg","1","","prediction_trial","1","","true","","1","true","true","true","true","true","true","[1]","000","101","1","","","","","","",""
"","","","","","image-keyboard-response","199","229453","0.0-174.0","60e9fd8a2f52070be49cf317","665500ab8938657b03fbdba8","66577b965db577d15c359b34","532","stimuli/10001011.jpg"," ","","feedback_trial","1","","","","","","","","","","","","","","","","","","","","",""
"","","","","","image-keyboard-response","200","230080","0.0-175.0","60e9fd8a2f52070be49cf317","665500ab8938657b03fbdba8","66577b965db577d15c359b34","626","stimuli/0010111.jpg","2","","prediction_trial","0","","false","","0","false","false","true","true","false","false","[0]","010","111","0","","","","","","",""
"","","","","","image-keyboard-response","201","230484","0.0-176.0","60e9fd8a2f52070be49cf317","665500ab8938657b03fbdba8","66577b965db577d15c359b34","400","stimuli/00101110.jpg"," ","","feedback_trial","0","","","","","","","","","","","","","","","","","","","","",""
"","","","","","image-keyboard-response","202","231632","0.0-177.0","60e9fd8a2f52070be49cf317","665500ab8938657b03fbdba8","66577b965db577d15c359b34","1147","stimuli/0000101.jpg","2","","prediction_trial","0","","false","","0","false","false","true","true","false","false","[0]","000","101","0","","","","","","",""
"","","","","","image-keyboard-response","203","232034","0.0-178.0","60e9fd8a2f52070be49cf317","665500ab8938657b03fbdba8","66577b965db577d15c359b34","398","stimuli/00001010.jpg"," ","","feedback_trial","0","","","","","","","","","","","","","","","","","","","","",""
"","","","","","image-keyboard-response","204","232551","0.0-179.0","60e9fd8a2f52070be49cf317","665500ab8938657b03fbdba8","66577b965db577d15c359b34","515","stimuli/2001101.jpg","2","","prediction_trial","2","","true","","2","false","false","false","true","false","false","[2]","001","101","1","","","","","","",""
"","","","","","image-keyboard-response","205","233225","0.0-180.0","60e9fd8a2f52070be49cf317","665500ab8938657b03fbdba8","66577b965db577d15c359b34","672","stimuli/20011012.jpg"," ","","feedback_trial","2","","","","","","","","","","","","","","","","","","","","",""
"","","","","","image-keyboard-response","206","233765","0.0-181.0","60e9fd8a2f52070be49cf317","665500ab8938657b03fbdba8","66577b965db577d15c359b34","537","stimuli/0001010.jpg","0","","prediction_trial","0","","true","","0","true","true","true","true","true","true","[0]","001","010","1","","","","","","",""
"","","","","","image-keyboard-response","207","234389","0.0-182.0","60e9fd8a2f52070be49cf317","665500ab8938657b03fbdba8","66577b965db577d15c359b34","619","stimuli/00010100.jpg"," ","","feedback_trial","0","","","","","","","","","","","","","","","","","","","","",""
"","","","","","image-keyboard-response","208","235995","0.0-183.0","60e9fd8a2f52070be49cf317","665500ab8938657b03fbdba8","66577b965db577d15c359b34","1604","stimuli/1101110.jpg","0","","prediction_trial","1","","false","","1","false","false","true","true","false","false","[1]","101","110","0","","","","","","",""
"","","","","","image-keyboard-response","209","236445","0.0-184.0","60e9fd8a2f52070be49cf317","665500ab8938657b03fbdba8","66577b965db577d15c359b34","448","stimuli/11011101.jpg"," ","","feedback_trial","1","","","","","","","","","","","","","","","","","","","","",""
"","","","","","image-keyboard-response","210","237531","0.0-185.0","60e9fd8a2f52070be49cf317","665500ab8938657b03fbdba8","66577b965db577d15c359b34","1085","stimuli/0000110.jpg","1","","prediction_trial","0","","false","","0","false","false","true","true","false","false","[0]","000","110","0","","","","","","",""
"","","","","","image-keyboard-response","211","237956","0.0-186.0","60e9fd8a2f52070be49cf317","665500ab8938657b03fbdba8","66577b965db577d15c359b34","421","stimuli/00001100.jpg"," ","","feedback_trial","0","","","","","","","","","","","","","","","","","","","","",""
"","","","","","image-keyboard-response","212","238397","0.0-187.0","60e9fd8a2f52070be49cf317","665500ab8938657b03fbdba8","66577b965db577d15c359b34","438","stimuli/1100101.jpg","1","","prediction_trial","1","","true","","1","true","true","true","true","true","true","[1]","100","101","1","","","","","","",""
"","","","","","image-keyboard-response","213","238792","0.0-188.0","60e9fd8a2f52070be49cf317","665500ab8938657b03fbdba8","66577b965db577d15c359b34","392","stimuli/11001011.jpg"," ","","feedback_trial","1","","","","","","","","","","","","","","","","","","","","",""
"","","","","","image-keyboard-response","214","240729","0.0-189.0","60e9fd8a2f52070be49cf317","665500ab8938657b03fbdba8","66577b965db577d15c359b34","1935","stimuli/2010011.jpg","2","","prediction_trial","2","","true","","2","false","false","true","true","false","false","[2]","010","011","1","","","","","","",""
"","","","","","image-keyboard-response","215","241279","0.0-190.0","60e9fd8a2f52070be49cf317","665500ab8938657b03fbdba8","66577b965db577d15c359b34","546","stimuli/20100112.jpg"," ","","feedback_trial","2","","","","","","","","","","","","","","","","","","","","",""
"","","","","","image-keyboard-response","216","242991","0.0-191.0","60e9fd8a2f52070be49cf317","665500ab8938657b03fbdba8","66577b965db577d15c359b34","1711","stimuli/1011001.jpg","1","","prediction_trial","1","","true","","1","true","true","false","false","false","false","[2,1]","011","001","1","","","","","","",""
"","","","","","image-keyboard-response","217","243321","0.0-192.0","60e9fd8a2f52070be49cf317","665500ab8938657b03fbdba8","66577b965db577d15c359b34","326","stimuli/10110011.jpg"," ","","feedback_trial","2","","","","","","","","","","","","","","","","","","","","",""
"","","","","","image-keyboard-response","218","243992","0.0-193.0","60e9fd8a2f52070be49cf317","665500ab8938657b03fbdba8","66577b965db577d15c359b34","669","stimuli/0111111.jpg","1","","prediction_trial","1","","true","","0","false","false","false","false","false","false","[0,2,1]","111","111","1","","","","","","",""
"","","","","","image-keyboard-response","219","244317","0.0-194.0","60e9fd8a2f52070be49cf317","665500ab8938657b03fbdba8","66577b965db577d15c359b34","323","stimuli/01111111.jpg"," ","","feedback_trial","0","","","","","","","","","","","","","","","","","","","","",""
"","","","","","image-keyboard-response","220","245114","0.0-195.0","60e9fd8a2f52070be49cf317","665500ab8938657b03fbdba8","66577b965db577d15c359b34","793","stimuli/2010101.jpg","0","","prediction_trial","2","","false","","2","false","false","true","true","false","false","[2]","010","101","0","","","","","","",""
"","","","","","image-keyboard-response","221","245506","0.0-196.0","60e9fd8a2f52070be49cf317","665500ab8938657b03fbdba8","66577b965db577d15c359b34","388","stimuli/20101012.jpg"," ","","feedback_trial","2","","","","","","","","","","","","","","","","","","","","",""
"","","","","","image-keyboard-response","222","246962","0.0-197.0","60e9fd8a2f52070be49cf317","665500ab8938657b03fbdba8","66577b965db577d15c359b34","1454","stimuli/0101000.jpg","0","","prediction_trial","2","","false","","0","true","true","false","false","false","false","[2,0]","101","000","0","","","","","","",""
"","","","","","image-keyboard-response","223","247297","0.0-198.0","60e9fd8a2f52070be49cf317","665500ab8938657b03fbdba8","66577b965db577d15c359b34","333","stimuli/01010002.jpg"," ","","feedback_trial","2","","","","","","","","","","","","","","","","","","","","",""
"","","","","","image-keyboard-response","224","248211","0.0-199.0","60e9fd8a2f52070be49cf317","665500ab8938657b03fbdba8","66577b965db577d15c359b34","912","stimuli/1101101.jpg","1","","prediction_trial","1","","true","","1","true","true","true","true","true","true","[1]","101","101","1","","","","","","",""
"","","","","","image-keyboard-response","225","248368","0.0-200.0","60e9fd8a2f52070be49cf317","665500ab8938657b03fbdba8","66577b965db577d15c359b34","155","stimuli/11011011.jpg"," ","","feedback_trial","1","","","","","","","","","","","","","","","","","","","","",""
"","","","","","image-keyboard-response","226","249104","0.0-201.0","60e9fd8a2f52070be49cf317","665500ab8938657b03fbdba8","66577b965db577d15c359b34","735","stimuli/0111101.jpg","2","","prediction_trial","0","","false","","0","false","false","false","false","false","false","[2,1,0]","111","101","0","","","","","","",""
"","","","","","image-keyboard-response","227","249521","0.0-202.0","60e9fd8a2f52070be49cf317","665500ab8938657b03fbdba8","66577b965db577d15c359b34","415","stimuli/01111010.jpg"," ","","feedback_trial","2","","","","","","","","","","","","","","","","","","","","",""
"","","","","","image-keyboard-response","228","249960","0.0-203.0","60e9fd8a2f52070be49cf317","665500ab8938657b03fbdba8","66577b965db577d15c359b34","437","stimuli/2011110.jpg","2","","prediction_trial","1","","false","","2","true","true","false","false","false","false","[2,1]","011","110","0","","","","","","",""
"","","","","","image-keyboard-response","229","250392","0.0-204.0","60e9fd8a2f52070be49cf317","665500ab8938657b03fbdba8","66577b965db577d15c359b34","431","stimuli/20111101.jpg"," ","","feedback_trial","2","","","","","","","","","","","","","","","","","","","","",""
"","","","","","image-keyboard-response","230","251024","0.0-205.0","60e9fd8a2f52070be49cf317","665500ab8938657b03fbdba8","66577b965db577d15c359b34","630","stimuli/0011100.jpg","0","","prediction_trial","0","","true","","0","false","true","true","true","false","true","[0]","011","100","1","","","","","","",""
"","","","","","image-keyboard-response","231","251346","0.0-206.0","60e9fd8a2f52070be49cf317","665500ab8938657b03fbdba8","66577b965db577d15c359b34","320","stimuli/00111000.jpg"," ","","feedback_trial","0","","","","","","","","","","","","","","","","","","","","",""
"","","","","","image-keyboard-response","232","252169","0.0-207.0","60e9fd8a2f52070be49cf317","665500ab8938657b03fbdba8","66577b965db577d15c359b34","819","stimuli/0111000.jpg","0","","prediction_trial","2","","false","","0","true","true","false","false","false","false","[1,0,2]","111","000","0","","","","","","",""
"","","","","","image-keyboard-response","233","252514","0.0-208.0","60e9fd8a2f52070be49cf317","665500ab8938657b03fbdba8","66577b965db577d15c359b34","341","stimuli/01110002.jpg"," ","","feedback_trial","1","","","","","","","","","","","","","","","","","","","","",""
"","","","","","image-keyboard-response","234","253031","0.0-209.0","60e9fd8a2f52070be49cf317","665500ab8938657b03fbdba8","66577b965db577d15c359b34","514","stimuli/2011100.jpg","2","","prediction_trial","1","","false","","2","true","true","false","false","false","false","[1,2]","011","100","0","","","","","","",""
"","","","","","image-keyboard-response","235","253396","0.0-210.0","60e9fd8a2f52070be49cf317","665500ab8938657b03fbdba8","66577b965db577d15c359b34","363","stimuli/20111001.jpg"," ","","feedback_trial","1","","","","","","","","","","","","","","","","","","","","",""
"","","","","","image-keyboard-response","236","254182","0.0-211.0","60e9fd8a2f52070be49cf317","665500ab8938657b03fbdba8","66577b965db577d15c359b34","784","stimuli/0010100.jpg","0","","prediction_trial","0","","true","","0","false","true","true","true","false","true","[0]","010","100","1","","","","","","",""
"","","","","","image-keyboard-response","237","254463","0.0-212.0","60e9fd8a2f52070be49cf317","665500ab8938657b03fbdba8","66577b965db577d15c359b34","279","stimuli/00101000.jpg"," ","","feedback_trial","0","","","","","","","","","","","","","","","","","","","","",""
"","","","","","image-keyboard-response","238","255351","0.0-213.0","60e9fd8a2f52070be49cf317","665500ab8938657b03fbdba8","66577b965db577d15c359b34","886","stimuli/1011111.jpg","0","","prediction_trial","1","","false","","1","false","false","false","false","false","false","[2,1]","011","111","0","","","","","","",""
"","","","","","image-keyboard-response","239","255744","0.0-214.0","60e9fd8a2f52070be49cf317","665500ab8938657b03fbdba8","66577b965db577d15c359b34","390","stimuli/10111111.jpg"," ","","feedback_trial","2","","","","","","","","","","","","","","","","","","","","",""
"","","","","","image-keyboard-response","240","256311","0.0-215.0","60e9fd8a2f52070be49cf317","665500ab8938657b03fbdba8","66577b965db577d15c359b34","564","stimuli/2001000.jpg","2","","prediction_trial","2","","true","","2","true","true","false","true","false","true","[2]","001","000","1","","","","","","",""
"","","","","","image-keyboard-response","241","256598","0.0-216.0","60e9fd8a2f52070be49cf317","665500ab8938657b03fbdba8","66577b965db577d15c359b34","285","stimuli/20010002.jpg"," ","","feedback_trial","2","","","","","","","","","","","","","","","","","","","","",""
"","","","","","image-keyboard-response","242","257348","0.0-217.0","60e9fd8a2f52070be49cf317","665500ab8938657b03fbdba8","66577b965db577d15c359b34","748","stimuli/2101101.jpg","2","","prediction_trial","0","","false","","2","false","false","false","false","false","false","[2,0]","101","101","0","","","","","","",""
"","","","","","image-keyboard-response","243","257723","0.0-218.0","60e9fd8a2f52070be49cf317","665500ab8938657b03fbdba8","66577b965db577d15c359b34","372","stimuli/21011010.jpg"," ","","feedback_trial","2","","","","","","","","","","","","","","","","","","","","",""
"","","","","","image-keyboard-response","244","258174","0.0-219.0","60e9fd8a2f52070be49cf317","665500ab8938657b03fbdba8","66577b965db577d15c359b34","449","stimuli/1101011.jpg","2","","prediction_trial","1","","false","","1","false","false","true","true","false","false","[1]","101","011","0","","","","","","",""
"","","","","","image-keyboard-response","245","258560","0.0-220.0","60e9fd8a2f52070be49cf317","665500ab8938657b03fbdba8","66577b965db577d15c359b34","383","stimuli/11010111.jpg"," ","","feedback_trial","1","","","","","","","","","","","","","","","","","","","","",""
"","","","","","image-keyboard-response","246","260243","0.0-221.0","60e9fd8a2f52070be49cf317","665500ab8938657b03fbdba8","66577b965db577d15c359b34","1682","stimuli/1111010.jpg","1","","prediction_trial","2","","false","","1","false","true","false","false","false","false","[0,2,1]","111","010","0","","","","","","",""
"","","","","","image-keyboard-response","247","260661","0.0-222.0","60e9fd8a2f52070be49cf317","665500ab8938657b03fbdba8","66577b965db577d15c359b34","416","stimuli/11110102.jpg"," ","","feedback_trial","0","","","","","","","","","","","","","","","","","","","","",""
"","","","","","image-keyboard-response","248","261707","0.0-223.0","60e9fd8a2f52070be49cf317","665500ab8938657b03fbdba8","66577b965db577d15c359b34","1042","stimuli/1101010.jpg","1","","prediction_trial","1","","true","","1","false","true","true","true","false","true","[1]","101","010","1","","","","","","",""
"","","","","","image-keyboard-response","249","262068","0.0-224.0","60e9fd8a2f52070be49cf317","665500ab8938657b03fbdba8","66577b965db577d15c359b34","357","stimuli/11010101.jpg"," ","","feedback_trial","1","","","","","","","","","","","","","","","","","","","","",""
"","","","","","image-keyboard-response","250","264322","0.0-225.0","60e9fd8a2f52070be49cf317","665500ab8938657b03fbdba8","66577b965db577d15c359b34","2252","stimuli/1011101.jpg","1","","prediction_trial","1","","true","","1","true","true","false","false","false","false","[2,1]","011","101","1","","","","","","",""
"","","","","","image-keyboard-response","251","264709","0.0-226.0","60e9fd8a2f52070be49cf317","665500ab8938657b03fbdba8","66577b965db577d15c359b34","385","stimuli/10111011.jpg"," ","","feedback_trial","2","","","","","","","","","","","","","","","","","","","","",""
"","","","","","image-keyboard-response","252","266559","0.0-227.0","60e9fd8a2f52070be49cf317","665500ab8938657b03fbdba8","66577b965db577d15c359b34","1848","stimuli/0100010.jpg","0","","prediction_trial","0","","true","","0","true","true","false","true","false","true","[0]","100","010","1","","","","","","",""
"","","","","","image-keyboard-response","253","266818","0.0-228.0","60e9fd8a2f52070be49cf317","665500ab8938657b03fbdba8","66577b965db577d15c359b34","258","stimuli/01000100.jpg"," ","","feedback_trial","0","","","","","","","","","","","","","","","","","","","","",""
"","","","","","image-keyboard-response","254","268435","0.0-229.0","60e9fd8a2f52070be49cf317","665500ab8938657b03fbdba8","66577b965db577d15c359b34","1614","stimuli/1110100.jpg","1","","prediction_trial","1","","true","","1","true","true","false","false","false","false","[0,1]","110","100","1","","","","","","",""
"","","","","","image-keyboard-response","255","268821","0.0-230.0","60e9fd8a2f52070be49cf317","665500ab8938657b03fbdba8","66577b965db577d15c359b34","384","stimuli/11101001.jpg"," ","","feedback_trial","0","","","","","","","","","","","","","","","","","","","","",""
"","","","","","image-keyboard-response","256","269453","0.0-231.0","60e9fd8a2f52070be49cf317","665500ab8938657b03fbdba8","66577b965db577d15c359b34","630","stimuli/2100000.jpg","2","","prediction_trial","2","","true","","2","true","true","true","true","true","true","[2]","100","000","1","","","","","","",""
"","","","","","image-keyboard-response","257","269699","0.0-232.0","60e9fd8a2f52070be49cf317","665500ab8938657b03fbdba8","66577b965db577d15c359b34","242","stimuli/21000002.jpg"," ","","feedback_trial","2","","","","","","","","","","","","","","","","","","","","",""
"","","","","","image-keyboard-response","258","270245","0.0-233.0","60e9fd8a2f52070be49cf317","665500ab8938657b03fbdba8","66577b965db577d15c359b34","543","stimuli/2000110.jpg","2","","prediction_trial","2","","true","","2","true","true","true","true","true","true","[2]","000","110","1","","","","","","",""
"","","","","","image-keyboard-response","259","270463","0.0-234.0","60e9fd8a2f52070be49cf317","665500ab8938657b03fbdba8","66577b965db577d15c359b34","216","stimuli/20001102.jpg"," ","","feedback_trial","2","","","","","","","","","","","","","","","","","","","","",""
"","","","","","image-keyboard-response","260","270977","0.0-235.0","60e9fd8a2f52070be49cf317","665500ab8938657b03fbdba8","66577b965db577d15c359b34","512","stimuli/1101001.jpg","1","","prediction_trial","1","","true","","1","true","true","true","true","true","true","[1]","101","001","1","","","","","","",""
"","","","","","image-keyboard-response","261","271113","0.0-236.0","60e9fd8a2f52070be49cf317","665500ab8938657b03fbdba8","66577b965db577d15c359b34","134","stimuli/11010011.jpg"," ","","feedback_trial","1","","","","","","","","","","","","","","","","","","","","",""
"","","","","","image-keyboard-response","262","271891","0.0-237.0","60e9fd8a2f52070be49cf317","665500ab8938657b03fbdba8","66577b965db577d15c359b34","775","stimuli/1010100.jpg","1","","prediction_trial","1","","true","","1","true","true","false","true","false","true","[1]","010","100","1","","","","","","",""
"","","","","","image-keyboard-response","263","272167","0.0-238.0","60e9fd8a2f52070be49cf317","665500ab8938657b03fbdba8","66577b965db577d15c359b34","273","stimuli/10101001.jpg"," ","","feedback_trial","1","","","","","","","","","","","","","","","","","","","","",""
"","","","","","image-keyboard-response","264","272691","0.0-239.0","60e9fd8a2f52070be49cf317","665500ab8938657b03fbdba8","66577b965db577d15c359b34","522","stimuli/0010011.jpg","0","","prediction_trial","0","","true","","0","true","true","true","true","true","true","[0]","010","011","1","","","","","","",""
"","","","","","image-keyboard-response","265","272896","0.0-240.0","60e9fd8a2f52070be49cf317","665500ab8938657b03fbdba8","66577b965db577d15c359b34","203","stimuli/00100110.jpg"," ","","feedback_trial","0","","","","","","","","","","","","","","","","","","","","",""
"","","","","","image-keyboard-response","266","274410","0.0-241.0","60e9fd8a2f52070be49cf317","665500ab8938657b03fbdba8","66577b965db577d15c359b34","1512","stimuli/0110100.jpg","0","","prediction_trial","0","","true","","0","false","true","false","false","false","false","[1,0]","110","100","1","","","","","","",""
"","","","","","image-keyboard-response","267","274758","0.0-242.0","60e9fd8a2f52070be49cf317","665500ab8938657b03fbdba8","66577b965db577d15c359b34","341","stimuli/01101000.jpg"," ","","feedback_trial","1","","","","","","","","","","","","","","","","","","","","",""
"","","","","","image-keyboard-response","268","275815","0.0-243.0","60e9fd8a2f52070be49cf317","665500ab8938657b03fbdba8","66577b965db577d15c359b34","1054","stimuli/0011110.jpg","1","","prediction_trial","0","","false","","0","false","false","true","true","false","false","[0]","011","110","0","","","","","","",""
"","","","","","image-keyboard-response","269","276232","0.0-244.0","60e9fd8a2f52070be49cf317","665500ab8938657b03fbdba8","66577b965db577d15c359b34","414","stimuli/00111100.jpg"," ","","feedback_trial","0","","","","","","","","","","","","","","","","","","","","",""
"","","","","","image-keyboard-response","270","277092","0.0-245.0","60e9fd8a2f52070be49cf317","665500ab8938657b03fbdba8","66577b965db577d15c359b34","858","stimuli/0101110.jpg","1","","prediction_trial","0","","false","","0","false","false","false","false","false","false","[2,0]","101","110","0","","","","","","",""
"","","","","","image-keyboard-response","271","277452","0.0-246.0","60e9fd8a2f52070be49cf317","665500ab8938657b03fbdba8","66577b965db577d15c359b34","358","stimuli/01011100.jpg"," ","","feedback_trial","2","","","","","","","","","","","","","","","","","","","","",""
"","","","","","image-keyboard-response","272","278100","0.0-247.0","60e9fd8a2f52070be49cf317","665500ab8938657b03fbdba8","66577b965db577d15c359b34","644","stimuli/0001111.jpg","1","","prediction_trial","0","","false","","0","false","false","true","true","false","false","[0]","001","111","0","","","","","","",""
"","","","","","image-keyboard-response","273","278678","0.0-248.0","60e9fd8a2f52070be49cf317","665500ab8938657b03fbdba8","66577b965db577d15c359b34","573","stimuli/00011110.jpg"," ","","feedback_trial","0","","","","","","","","","","","","","","","","","","","","",""
"","","","","","image-keyboard-response","274","279226","0.0-249.0","60e9fd8a2f52070be49cf317","665500ab8938657b03fbdba8","66577b965db577d15c359b34","546","stimuli/2110000.jpg","2","","prediction_trial","2","","true","","2","true","true","true","true","true","true","[2]","110","000","1","","","","","","",""
"","","","","","image-keyboard-response","275","279407","0.0-250.0","60e9fd8a2f52070be49cf317","665500ab8938657b03fbdba8","66577b965db577d15c359b34","180","stimuli/21100002.jpg"," ","","feedback_trial","2","","","","","","","","","","","","","","","","","","","","",""
"","","","","","image-keyboard-response","276","280156","0.0-251.0","60e9fd8a2f52070be49cf317","665500ab8938657b03fbdba8","66577b965db577d15c359b34","745","stimuli/2101100.jpg","2","","prediction_trial","0","","false","","2","true","true","false","false","false","false","[0,2]","101","100","0","","","","","","",""
"","","","","","image-keyboard-response","277","280519","0.0-252.0","60e9fd8a2f52070be49cf317","665500ab8938657b03fbdba8","66577b965db577d15c359b34","361","stimuli/21011000.jpg"," ","","feedback_trial","0","","","","","","","","","","","","","","","","","","","","",""
"","","","","","image-keyboard-response","278","280997","0.0-253.0","60e9fd8a2f52070be49cf317","665500ab8938657b03fbdba8","66577b965db577d15c359b34","477","stimuli/2100100.jpg","2","","prediction_trial","2","","true","","2","true","true","true","true","true","true","[2]","100","100","1","","","","","","",""
"","","","","","image-keyboard-response","279","281370","0.0-254.0","60e9fd8a2f52070be49cf317","665500ab8938657b03fbdba8","66577b965db577d15c359b34","370","stimuli/21001002.jpg"," ","","feedback_trial","2","","","","","","","","","","","","","","","","","","","","",""
"","","","","","image-keyboard-response","280","282621","0.0-255.0","60e9fd8a2f52070be49cf317","665500ab8938657b03fbdba8","66577b965db577d15c359b34","1249","stimuli/2011101.jpg","2","","prediction_trial","2","","true","","2","false","false","false","false","false","false","[2,1]","011","101","1","","","","","","",""
"","","","","","image-keyboard-response","281","283005","0.0-256.0","60e9fd8a2f52070be49cf317","665500ab8938657b03fbdba8","66577b965db577d15c359b34","382","stimuli/20111012.jpg"," ","","feedback_trial","2","","","","","","","","","","","","","","","","","","","","",""
"","","","","","image-keyboard-response","282","283540","0.0-257.0","60e9fd8a2f52070be49cf317","665500ab8938657b03fbdba8","66577b965db577d15c359b34","533","stimuli/2110100.jpg","2","","prediction_trial","2","","true","","2","true","true","true","true","true","true","[2]","110","100","1","","","","","","",""
"","","","","","image-keyboard-response","283","283803","0.0-258.0","60e9fd8a2f52070be49cf317","665500ab8938657b03fbdba8","66577b965db577d15c359b34","261","stimuli/21101002.jpg"," ","","feedback_trial","2","","","","","","","","","","","","","","","","","","","","",""
"","","","","","image-keyboard-response","284","302688","0.0-259.0","60e9fd8a2f52070be49cf317","665500ab8938657b03fbdba8","66577b965db577d15c359b34","18883","stimuli/0100110.jpg","1","","prediction_trial","0","","false","","0","false","false","false","true","false","false","[0]","100","110","0","","","","","","",""
"","","","","","image-keyboard-response","285","303659","0.0-260.0","60e9fd8a2f52070be49cf317","665500ab8938657b03fbdba8","66577b965db577d15c359b34","966","stimuli/01001100.jpg"," ","","feedback_trial","0","","","","","","","","","","","","","","","","","","","","",""
"","","","","","image-keyboard-response","286","304373","0.0-261.0","60e9fd8a2f52070be49cf317","665500ab8938657b03fbdba8","66577b965db577d15c359b34","712","stimuli/2011011.jpg","1","","prediction_trial","2","","false","","2","false","false","false","false","false","false","[2,1]","011","011","0","","","","","","",""
"","","","","","image-keyboard-response","287","304606","0.0-262.0","60e9fd8a2f52070be49cf317","665500ab8938657b03fbdba8","66577b965db577d15c359b34","232","stimuli/20110112.jpg"," ","","feedback_trial","2","","","","","","","","","","","","","","","","","","","","",""
"","","","","","image-keyboard-response","288","305146","0.0-263.0","60e9fd8a2f52070be49cf317","665500ab8938657b03fbdba8","66577b965db577d15c359b34","538","stimuli/2001010.jpg","2","","prediction_trial","2","","true","","2","true","true","false","true","false","true","[2]","001","010","1","","","","","","",""
"","","","","","image-keyboard-response","289","305519","0.0-264.0","60e9fd8a2f52070be49cf317","665500ab8938657b03fbdba8","66577b965db577d15c359b34","371","stimuli/20010102.jpg"," ","","feedback_trial","2","","","","","","","","","","","","","","","","","","","","",""
"","","","","","image-keyboard-response","290","306122","0.0-265.0","60e9fd8a2f52070be49cf317","665500ab8938657b03fbdba8","66577b965db577d15c359b34","601","stimuli/2100011.jpg","1","","prediction_trial","2","","false","","2","false","false","true","true","false","false","[2]","100","011","0","","","","","","",""
"","","","","","image-keyboard-response","291","306426","0.0-266.0","60e9fd8a2f52070be49cf317","665500ab8938657b03fbdba8","66577b965db577d15c359b34","302","stimuli/21000112.jpg"," ","","feedback_trial","2","","","","","","","","","","","","","","","","","","","","",""
"","","","","","image-keyboard-response","292","306994","0.0-267.0","60e9fd8a2f52070be49cf317","665500ab8938657b03fbdba8","66577b965db577d15c359b34","567","stimuli/2001100.jpg","2","","prediction_trial","2","","true","","2","true","true","false","true","false","true","[2]","001","100","1","","","","","","",""
"","","","","","image-keyboard-response","293","307301","0.0-268.0","60e9fd8a2f52070be49cf317","665500ab8938657b03fbdba8","66577b965db577d15c359b34","305","stimuli/20011002.jpg"," ","","feedback_trial","2","","","","","","","","","","","","","","","","","","","","",""
"","","","","","image-keyboard-response","294","307846","0.0-269.0","60e9fd8a2f52070be49cf317","665500ab8938657b03fbdba8","66577b965db577d15c359b34","543","stimuli/1110110.jpg","1","","prediction_trial","1","","true","","1","false","false","false","false","false","false","[0,1]","110","110","1","","","","","","",""
"","","","","","image-keyboard-response","295","308201","0.0-270.0","60e9fd8a2f52070be49cf317","665500ab8938657b03fbdba8","66577b965db577d15c359b34","349","stimuli/11101101.jpg"," ","","feedback_trial","0","","","","","","","","","","","","","","","","","","","","",""
"","","","","","image-keyboard-response","296","308703","0.0-271.0","60e9fd8a2f52070be49cf317","665500ab8938657b03fbdba8","66577b965db577d15c359b34","501","stimuli/2000000.jpg","2","","prediction_trial","2","","true","","2","true","true","true","true","true","true","[2]","000","000","1","","","","","","",""
"","","","","","image-keyboard-response","297","308955","0.0-272.0","60e9fd8a2f52070be49cf317","665500ab8938657b03fbdba8","66577b965db577d15c359b34","248","stimuli/20000002.jpg"," ","","feedback_trial","2","","","","","","","","","","","","","","","","","","","","",""
"","","","","","image-keyboard-response","298","309649","0.0-273.0","60e9fd8a2f52070be49cf317","665500ab8938657b03fbdba8","66577b965db577d15c359b34","689","stimuli/1111111.jpg","1","","prediction_trial","2","","false","","1","false","false","false","false","false","false","[1,2,0]","111","111","0","","","","","","",""
"","","","","","image-keyboard-response","299","310119","0.0-274.0","60e9fd8a2f52070be49cf317","665500ab8938657b03fbdba8","66577b965db577d15c359b34","468","stimuli/11111112.jpg"," ","","feedback_trial","1","","","","","","","","","","","","","","","","","","","","",""
"","","","","","image-keyboard-response","300","310782","0.0-275.0","60e9fd8a2f52070be49cf317","665500ab8938657b03fbdba8","66577b965db577d15c359b34","661","stimuli/0010110.jpg","1","","prediction_trial","0","","false","","0","false","false","true","true","false","false","[0]","010","110","0","","","","","","",""
"","","","","","image-keyboard-response","301","311147","0.0-276.0","60e9fd8a2f52070be49cf317","665500ab8938657b03fbdba8","66577b965db577d15c359b34","362","stimuli/00101100.jpg"," ","","feedback_trial","0","","","","","","","","","","","","","","","","","","","","",""
"","","","","","image-keyboard-response","302","311610","0.0-277.0","60e9fd8a2f52070be49cf317","665500ab8938657b03fbdba8","66577b965db577d15c359b34","461","stimuli/1000001.jpg","1","","prediction_trial","1","","true","","1","true","true","true","true","true","true","[1]","000","001","1","","","","","","",""
"","","","","","image-keyboard-response","303","311884","0.0-278.0","60e9fd8a2f52070be49cf317","665500ab8938657b03fbdba8","66577b965db577d15c359b34","272","stimuli/10000011.jpg"," ","","feedback_trial","1","","","","","","","","","","","","","","","","","","","","",""
"","","","","","image-keyboard-response","304","312537","0.0-279.0","60e9fd8a2f52070be49cf317","665500ab8938657b03fbdba8","66577b965db577d15c359b34","651","stimuli/0100011.jpg","0","","prediction_trial","0","","true","","0","true","true","false","true","false","true","[0]","100","011","1","","","","","","",""
"","","","","","image-keyboard-response","305","312889","0.0-280.0","60e9fd8a2f52070be49cf317","665500ab8938657b03fbdba8","66577b965db577d15c359b34","350","stimuli/01000110.jpg"," ","","feedback_trial","0","","","","","","","","","","","","","","","","","","","","",""
"","","","","","image-keyboard-response","306","313473","0.0-281.0","60e9fd8a2f52070be49cf317","665500ab8938657b03fbdba8","66577b965db577d15c359b34","581","stimuli/0001001.jpg","0","","prediction_trial","0","","true","","0","true","true","true","true","true","true","[0]","001","001","1","","","","","","",""
"","","","","","image-keyboard-response","307","313733","0.0-282.0","60e9fd8a2f52070be49cf317","665500ab8938657b03fbdba8","66577b965db577d15c359b34","257","stimuli/00010010.jpg"," ","","feedback_trial","0","","","","","","","","","","","","","","","","","","","","",""
"","","","","","image-keyboard-response","308","314666","0.0-283.0","60e9fd8a2f52070be49cf317","665500ab8938657b03fbdba8","66577b965db577d15c359b34","932","stimuli/1001011.jpg","1","","prediction_trial","1","","true","","1","false","false","true","true","false","false","[1]","001","011","1","","","","","","",""
"","","","","","image-keyboard-response","309","314979","0.0-284.0","60e9fd8a2f52070be49cf317","665500ab8938657b03fbdba8","66577b965db577d15c359b34","310","stimuli/10010111.jpg"," ","","feedback_trial","1","","","","","","","","","","","","","","","","","","","","",""
"","","","","","image-keyboard-response","310","315783","0.0-285.0","60e9fd8a2f52070be49cf317","665500ab8938657b03fbdba8","66577b965db577d15c359b34","798","stimuli/0100111.jpg","1","","prediction_trial","0","","false","","0","false","false","false","true","false","false","[0]","100","111","0","","","","","","",""
"","","","","","image-keyboard-response","311","316140","0.0-286.0","60e9fd8a2f52070be49cf317","665500ab8938657b03fbdba8","66577b965db577d15c359b34","353","stimuli/01001110.jpg"," ","","feedback_trial","0","","","","","","","","","","","","","","","","","","","","",""
"","","","","","image-keyboard-response","312","316696","0.0-287.0","60e9fd8a2f52070be49cf317","665500ab8938657b03fbdba8","66577b965db577d15c359b34","554","stimuli/0111001.jpg","0","","prediction_trial","1","","false","","0","true","true","false","false","false","false","[0,2,1]","111","001","0","","","","","","",""
"","","","","","image-keyboard-response","313","317227","0.0-288.0","60e9fd8a2f52070be49cf317","665500ab8938657b03fbdba8","66577b965db577d15c359b34","529","stimuli/01110011.jpg"," ","","feedback_trial","0","","","","","","","","","","","","","","","","","","","","",""
"","","","","","image-keyboard-response","314","318117","0.0-289.0","60e9fd8a2f52070be49cf317","665500ab8938657b03fbdba8","66577b965db577d15c359b34","885","stimuli/2010001.jpg","2","","prediction_trial","2","","true","","2","false","true","true","true","false","true","[2]","010","001","1","","","","","","",""
"","","","","","image-keyboard-response","315","318403","0.0-290.0","60e9fd8a2f52070be49cf317","665500ab8938657b03fbdba8","66577b965db577d15c359b34","283","stimuli/20100012.jpg"," ","","feedback_trial","2","","","","","","","","","","","","","","","","","","","","",""
"","","","","","image-keyboard-response","316","318967","0.0-291.0","60e9fd8a2f52070be49cf317","665500ab8938657b03fbdba8","66577b965db577d15c359b34","563","stimuli/2111000.jpg","2","","prediction_trial","1","","false","","2","true","true","false","false","false","false","[1,2,0]","111","000","0","","","","","","",""
"","","","","","image-keyboard-response","317","319337","0.0-292.0","60e9fd8a2f52070be49cf317","665500ab8938657b03fbdba8","66577b965db577d15c359b34","367","stimuli/21110001.jpg"," ","","feedback_trial","1","","","","","","","","","","","","","","","","","","","","",""
"","","","","","survey-html-form","318","336805","0.0-293.0","60e9fd8a2f52070be49cf317","665500ab8938657b03fbdba8","66577b965db577d15c359b34","17465","","{""feedback"":""I wanted to select the ball every time"",""age"":""24"",""gender"":""Male"",""other_gender"":"""",""race"":""White"",""other_race"":"""",""ethnicity"":""Non-Hispanic""}","","exit_survey","","","","","","","","","","","","","","","","I wanted to select the ball every time","24","Non-Hispanic","Male","White","0.6041666666666666","0.6041666666666666"
