"success","timeout","failed_images","failed_audio","failed_video","trial_type","trial_index","time_elapsed","internal_node_id","prolific_id","prolific_study_id","prolific_session_id","rt","stimulus","response","view_history","trial","character_choice","stimulus_dict","accuracy","correct_response","ball_pos","ego_ball_visible","ego_can_infer","alter_ball_visible","alter_can_infer","collective_ball_visible","collective_can_infer","search_locations","alter_occluders","ego_occluders","accuracy_bool","feedback","age","ethnicity","gender","race","overall_accuracy","bonus"
"true","false","[]","[]","[]","preload","0","10236","0.0-0.0","633e327052bcc8b44d6e0d2c","665500ab8938657b03fbdba8","665792e95b6c4b9ca099583a","","","","","","","","","","","","","","","","","","","","","","","","","","",""
"true","","","","","fullscreen","1","13603","0.0-1.0","633e327052bcc8b44d6e0d2c","665500ab8938657b03fbdba8","665792e95b6c4b9ca099583a","","","","","","","","","","","","","","","","","","","","","","","","","","",""
"","","","","","html-button-response","2","30508","0.0-2.0","633e327052bcc8b44d6e0d2c","665500ab8938657b03fbdba8","665792e95b6c4b9ca099583a","16904","<p><b>Consent Form</b></p> <div style=""text-align:left;background-color:lightgrey; padding:20px; max-width:900px;""><p>Please consider this information carefully before deciding whether to participate in this research.</p> <p>The purpose of this research is to examine which factors influence social judgment and decision-making. You will be asked to make judgements about individuals and actions in social scenarios. We are simply interested in your judgement. The study will take less than 1 hour to complete, and you will receive less than $20 on Prolific. Your compensation and time commitment are specified in the study description. There are no anticipated risks associated with participating in this study. The effects of participating should be comparable to those you would ordinarily experience from viewing a computer monitor and using a mouse or keyboard for a similar amount of time. At the end of the study, we will provide an explanation of the questions that motivate this line of research and will describe the potential implications. </p><p> Your participation in this study is completely voluntary and you may refuse to participate or you may choose to withdraw at any time without penalty or loss of benefits to you which are otherwise entitled. Your participation in this study will remain confidential. No personally identifiable information will be associated with your data. Also, all analyses of the data will be averaged across all the participants, so your individual responses will never be specifically analyzed. </p><p> If you have questions or concerns about your participation or payment, or want to request a summary of research findings, please contact Dr. Jonathan Phillips at Jonathan.S.Phillips@dartmouth.edu. </p><p> Please save a copy of this form for your records. </p><p><b>Agreement: </b>The nature and purpose of this research have been sufficiently explained and I agree to participate in this study. I understand that I am free to withdraw at any time without incurring any penalty. Please consent by clicking the button below to continue. Otherwise, please exit the study at any time. </p>","0","","","","","","","","","","","","","","","","","","","","","","","",""
"","","","","","instructions","3","144429","0.0-3.0-0.0","633e327052bcc8b44d6e0d2c","665500ab8938657b03fbdba8","665792e95b6c4b9ca099583a","113920","","","[{""page_index"":0,""viewing_time"":1503},{""page_index"":1,""viewing_time"":8312},{""page_index"":2,""viewing_time"":3168},{""page_index"":3,""viewing_time"":8968},{""page_index"":4,""viewing_time"":4984},{""page_index"":5,""viewing_time"":6056},{""page_index"":6,""viewing_time"":7480},{""page_index"":7,""viewing_time"":4952},{""page_index"":8,""viewing_time"":5944},{""page_index"":9,""viewing_time"":2608},{""page_index"":10,""viewing_time"":28104},{""page_index"":11,""viewing_time"":11152},{""page_index"":12,""viewing_time"":18984},{""page_index"":13,""viewing_time"":1704}]","intro","","","","","","","","","","","","","","","","","","","","","",""
"","","","","","image-keyboard-response","4","147397","0.0-3.0-1.0","633e327052bcc8b44d6e0d2c","665500ab8938657b03fbdba8","665792e95b6c4b9ca099583a","2967","stimuli/2110110.jpg","2","","prediction_practice","2","{""filepath"":""stimuli/2110110.jpg"",""ball_pos"":2,""ego_ball_visible"":true,""ego_can_infer"":true,""alter_ball_visible"":true,""alter_can_infer"":true,""collective_ball_visible"":true,""collective_can_infer"":true,""search_locations"":[2],""alter_occluders"":""110"",""ego_occluders"":""110""}","true","","","","","","","","","","","","","","","","","","",""
"","","","","","image-keyboard-response","5","148661","0.0-3.0-2.0","633e327052bcc8b44d6e0d2c","665500ab8938657b03fbdba8","665792e95b6c4b9ca099583a","1263","stimuli/21101102.jpg"," ","","practrice_feedback","2","","","","","","","","","","","","","","","","","","","","",""
"","","","","","image-keyboard-response","6","151101","0.0-3.0-3.0","633e327052bcc8b44d6e0d2c","665500ab8938657b03fbdba8","665792e95b6c4b9ca099583a","2439","stimuli/1101011.jpg","2","","prediction_practice","1","{""filepath"":""stimuli/1101011.jpg"",""ball_pos"":1,""ego_ball_visible"":false,""ego_can_infer"":false,""alter_ball_visible"":true,""alter_can_infer"":true,""collective_ball_visible"":false,""collective_can_infer"":false,""search_locations"":[1],""alter_occluders"":""101"",""ego_occluders"":""011""}","false","","","","","","","","","","","","","","","","","","",""
"","","","","","image-keyboard-response","7","153125","0.0-3.0-4.0","633e327052bcc8b44d6e0d2c","665500ab8938657b03fbdba8","665792e95b6c4b9ca099583a","2024","stimuli/11010111.jpg"," ","","practrice_feedback","1","","","","","","","","","","","","","","","","","","","","",""
"","","","","","image-keyboard-response","8","154621","0.0-3.0-5.0","633e327052bcc8b44d6e0d2c","665500ab8938657b03fbdba8","665792e95b6c4b9ca099583a","1495","stimuli/2101111.jpg","1","","prediction_practice","0","{""filepath"":""stimuli/2101111.jpg"",""ball_pos"":2,""ego_ball_visible"":false,""ego_can_infer"":false,""alter_ball_visible"":false,""alter_can_infer"":false,""collective_ball_visible"":false,""collective_can_infer"":false,""search_locations"":[2,0],""alter_occluders"":""101"",""ego_occluders"":""111""}","false","","","","","","","","","","","","","","","","","","",""
"","","","","","image-keyboard-response","9","156821","0.0-3.0-6.0","633e327052bcc8b44d6e0d2c","665500ab8938657b03fbdba8","665792e95b6c4b9ca099583a","2200","stimuli/21011110.jpg"," ","","practrice_feedback","2","","","","","","","","","","","","","","","","","","","","",""
"","","","","","image-keyboard-response","10","159301","0.0-3.0-7.0","633e327052bcc8b44d6e0d2c","665500ab8938657b03fbdba8","665792e95b6c4b9ca099583a","2480","stimuli/1001011.jpg","2","","prediction_practice","1","{""filepath"":""stimuli/1001011.jpg"",""ball_pos"":1,""ego_ball_visible"":false,""ego_can_infer"":false,""alter_ball_visible"":true,""alter_can_infer"":true,""collective_ball_visible"":false,""collective_can_infer"":false,""search_locations"":[1],""alter_occluders"":""001"",""ego_occluders"":""011""}","false","","","","","","","","","","","","","","","","","","",""
"","","","","","image-keyboard-response","11","160669","0.0-3.0-8.0","633e327052bcc8b44d6e0d2c","665500ab8938657b03fbdba8","665792e95b6c4b9ca099583a","1367","stimuli/10010111.jpg"," ","","practrice_feedback","1","","","","","","","","","","","","","","","","","","","","",""
"","","","","","image-keyboard-response","12","161877","0.0-3.0-9.0","633e327052bcc8b44d6e0d2c","665500ab8938657b03fbdba8","665792e95b6c4b9ca099583a","1207","stimuli/0001011.jpg","0","","prediction_practice","0","{""filepath"":""stimuli/0001011.jpg"",""ball_pos"":0,""ego_ball_visible"":true,""ego_can_infer"":true,""alter_ball_visible"":true,""alter_can_infer"":true,""collective_ball_visible"":true,""collective_can_infer"":true,""search_locations"":[0],""alter_occluders"":""001"",""ego_occluders"":""011""}","true","","","","","","","","","","","","","","","","","","",""
"","","","","","image-keyboard-response","13","163205","0.0-3.0-10.0","633e327052bcc8b44d6e0d2c","665500ab8938657b03fbdba8","665792e95b6c4b9ca099583a","1328","stimuli/00010110.jpg"," ","","practrice_feedback","0","","","","","","","","","","","","","","","","","","","","",""
"","","","","","image-keyboard-response","14","164365","0.0-3.0-11.0","633e327052bcc8b44d6e0d2c","665500ab8938657b03fbdba8","665792e95b6c4b9ca099583a","1159","stimuli/0011100.jpg","0","","prediction_practice","0","{""filepath"":""stimuli/0011100.jpg"",""ball_pos"":0,""ego_ball_visible"":false,""ego_can_infer"":true,""alter_ball_visible"":true,""alter_can_infer"":true,""collective_ball_visible"":false,""collective_can_infer"":true,""search_locations"":[0],""alter_occluders"":""011"",""ego_occluders"":""100""}","true","","","","","","","","","","","","","","","","","","",""
"","","","","","image-keyboard-response","15","165381","0.0-3.0-12.0","633e327052bcc8b44d6e0d2c","665500ab8938657b03fbdba8","665792e95b6c4b9ca099583a","1015","stimuli/00111000.jpg"," ","","practrice_feedback","0","","","","","","","","","","","","","","","","","","","","",""
"","","","","","image-keyboard-response","16","166221","0.0-3.0-13.0","633e327052bcc8b44d6e0d2c","665500ab8938657b03fbdba8","665792e95b6c4b9ca099583a","839","stimuli/1011100.jpg","1","","prediction_practice","2","{""filepath"":""stimuli/1011100.jpg"",""ball_pos"":1,""ego_ball_visible"":true,""ego_can_infer"":true,""alter_ball_visible"":false,""alter_can_infer"":false,""collective_ball_visible"":false,""collective_can_infer"":false,""search_locations"":[1,2],""alter_occluders"":""011"",""ego_occluders"":""100""}","false","","","","","","","","","","","","","","","","","","",""
"","","","","","image-keyboard-response","17","171805","0.0-3.0-14.0","633e327052bcc8b44d6e0d2c","665500ab8938657b03fbdba8","665792e95b6c4b9ca099583a","5584","stimuli/10111002.jpg"," ","","practrice_feedback","1","","","","","","","","","","","","","","","","","","","","",""
"","","","","","image-keyboard-response","18","176653","0.0-3.0-15.0","633e327052bcc8b44d6e0d2c","665500ab8938657b03fbdba8","665792e95b6c4b9ca099583a","4847","stimuli/1100010.jpg","1","","prediction_practice","1","{""filepath"":""stimuli/1100010.jpg"",""ball_pos"":1,""ego_ball_visible"":false,""ego_can_infer"":true,""alter_ball_visible"":true,""alter_can_infer"":true,""collective_ball_visible"":false,""collective_can_infer"":true,""search_locations"":[1],""alter_occluders"":""100"",""ego_occluders"":""010""}","true","","","","","","","","","","","","","","","","","","",""
"","","","","","image-keyboard-response","19","177645","0.0-3.0-16.0","633e327052bcc8b44d6e0d2c","665500ab8938657b03fbdba8","665792e95b6c4b9ca099583a","992","stimuli/11000101.jpg"," ","","practrice_feedback","1","","","","","","","","","","","","","","","","","","","","",""
"","","","","","image-keyboard-response","20","180037","0.0-3.0-17.0","633e327052bcc8b44d6e0d2c","665500ab8938657b03fbdba8","665792e95b6c4b9ca099583a","2391","stimuli/1111101.jpg","1","","prediction_practice","1","{""filepath"":""stimuli/1111101.jpg"",""ball_pos"":1,""ego_ball_visible"":true,""ego_can_infer"":true,""alter_ball_visible"":false,""alter_can_infer"":false,""collective_ball_visible"":false,""collective_can_infer"":false,""search_locations"":[2,1,0],""alter_occluders"":""111"",""ego_occluders"":""101""}","true","","","","","","","","","","","","","","","","","","",""
"","","","","","image-keyboard-response","21","180884","0.0-3.0-18.0","633e327052bcc8b44d6e0d2c","665500ab8938657b03fbdba8","665792e95b6c4b9ca099583a","848","stimuli/11111011.jpg"," ","","practrice_feedback","2","","","","","","","","","","","","","","","","","","","","",""
"","","","","","image-keyboard-response","22","182156","0.0-3.0-19.0","633e327052bcc8b44d6e0d2c","665500ab8938657b03fbdba8","665792e95b6c4b9ca099583a","1271","stimuli/2111100.jpg","2","","prediction_practice","0","{""filepath"":""stimuli/2111100.jpg"",""ball_pos"":2,""ego_ball_visible"":true,""ego_can_infer"":true,""alter_ball_visible"":false,""alter_can_infer"":false,""collective_ball_visible"":false,""collective_can_infer"":false,""search_locations"":[2,0,1],""alter_occluders"":""111"",""ego_occluders"":""100""}","false","","","","","","","","","","","","","","","","","","",""
"","","","","","image-keyboard-response","23","183124","0.0-3.0-20.0","633e327052bcc8b44d6e0d2c","665500ab8938657b03fbdba8","665792e95b6c4b9ca099583a","968","stimuli/21111000.jpg"," ","","practrice_feedback","2","","","","","","","","","","","","","","","","","","","","",""
"","","","","","html-button-response","24","190468","0.0-3.0-21.0","633e327052bcc8b44d6e0d2c","665500ab8938657b03fbdba8","665792e95b6c4b9ca099583a","7342","Now that you've had some practice, you'll be tested with a couple of easy trials. If you correctly predict Sam's choice, you'll move on to complete the experiment!","0","","","","","","","","","","","","","","","","","","","","","","","",""
"","","","","","image-keyboard-response","25","191580","0.0-3.0-22.0-0.0","633e327052bcc8b44d6e0d2c","665500ab8938657b03fbdba8","665792e95b6c4b9ca099583a","1112","stimuli/0000011.jpg","arrowleft","","comprehension_quiz","","","true","arrowleft","","","","","","","","","","","","","","","","","",""
"","","","","","image-keyboard-response","26","193788","0.0-3.0-22.0-1.0","633e327052bcc8b44d6e0d2c","665500ab8938657b03fbdba8","665792e95b6c4b9ca099583a","2206","stimuli/00000110.jpg"," ","","comprehension_quiz","","","true"," ","","","","","","","","","","","","","","","","","",""
"","","","","","image-keyboard-response","27","195820","0.0-3.0-22.0-2.0","633e327052bcc8b44d6e0d2c","665500ab8938657b03fbdba8","665792e95b6c4b9ca099583a","2031","stimuli/1010010.jpg","arrowdown","","comprehension_quiz","","","true","arrowdown","","","","","","","","","","","","","","","","","",""
"","","","","","image-keyboard-response","28","196644","0.0-3.0-22.0-3.0","633e327052bcc8b44d6e0d2c","665500ab8938657b03fbdba8","665792e95b6c4b9ca099583a","823","stimuli/10100101.jpg"," ","","comprehension_quiz","","","true"," ","","","","","","","","","","","","","","","","","",""
"","","","","","html-button-response","29","198884","0.0-4.0","633e327052bcc8b44d6e0d2c","665500ab8938657b03fbdba8","665792e95b6c4b9ca099583a","2239","The experiment will now begin.","0","","","","","","","","","","","","","","","","","","","","","","","",""
"","","","","","image-keyboard-response","30","201684","0.0-5.0","633e327052bcc8b44d6e0d2c","665500ab8938657b03fbdba8","665792e95b6c4b9ca099583a","2800","stimuli/1110110.jpg","1","","prediction_trial","1","","true","","1","false","false","false","false","false","false","[1,0]","110","110","1","","","","","","",""
"","","","","","image-keyboard-response","31","202716","0.0-6.0","633e327052bcc8b44d6e0d2c","665500ab8938657b03fbdba8","665792e95b6c4b9ca099583a","1031","stimuli/11101101.jpg"," ","","feedback_trial","1","","","","","","","","","","","","","","","","","","","","",""
"","","","","","image-keyboard-response","32","207772","0.0-7.0","633e327052bcc8b44d6e0d2c","665500ab8938657b03fbdba8","665792e95b6c4b9ca099583a","5055","stimuli/0010100.jpg","0","","prediction_trial","0","","true","","0","false","true","true","true","false","true","[0]","010","100","1","","","","","","",""
"","","","","","image-keyboard-response","33","208797","0.0-8.0","633e327052bcc8b44d6e0d2c","665500ab8938657b03fbdba8","665792e95b6c4b9ca099583a","1024","stimuli/00101000.jpg"," ","","feedback_trial","0","","","","","","","","","","","","","","","","","","","","",""
"","","","","","image-keyboard-response","34","211844","0.0-9.0","633e327052bcc8b44d6e0d2c","665500ab8938657b03fbdba8","665792e95b6c4b9ca099583a","3047","stimuli/1011101.jpg","1","","prediction_trial","1","","true","","1","true","true","false","false","false","false","[1,2]","011","101","1","","","","","","",""
"","","","","","image-keyboard-response","35","212500","0.0-10.0","633e327052bcc8b44d6e0d2c","665500ab8938657b03fbdba8","665792e95b6c4b9ca099583a","655","stimuli/10111011.jpg"," ","","feedback_trial","1","","","","","","","","","","","","","","","","","","","","",""
"","","","","","image-keyboard-response","36","213732","0.0-11.0","633e327052bcc8b44d6e0d2c","665500ab8938657b03fbdba8","665792e95b6c4b9ca099583a","1232","stimuli/1011100.jpg","1","","prediction_trial","1","","true","","1","true","true","false","false","false","false","[1,2]","011","100","1","","","","","","",""
"","","","","","image-keyboard-response","37","214388","0.0-12.0","633e327052bcc8b44d6e0d2c","665500ab8938657b03fbdba8","665792e95b6c4b9ca099583a","655","stimuli/10111001.jpg"," ","","feedback_trial","1","","","","","","","","","","","","","","","","","","","","",""
"","","","","","image-keyboard-response","38","216036","0.0-13.0","633e327052bcc8b44d6e0d2c","665500ab8938657b03fbdba8","665792e95b6c4b9ca099583a","1647","stimuli/1011011.jpg","1","","prediction_trial","2","","false","","1","false","false","false","false","false","false","[2,1]","011","011","0","","","","","","",""
"","","","","","image-keyboard-response","39","216700","0.0-14.0","633e327052bcc8b44d6e0d2c","665500ab8938657b03fbdba8","665792e95b6c4b9ca099583a","663","stimuli/10110112.jpg"," ","","feedback_trial","2","","","","","","","","","","","","","","","","","","","","",""
"","","","","","image-keyboard-response","40","217693","0.0-15.0","633e327052bcc8b44d6e0d2c","665500ab8938657b03fbdba8","665792e95b6c4b9ca099583a","992","stimuli/0011000.jpg","0","","prediction_trial","0","","true","","0","true","true","true","true","true","true","[0]","011","000","1","","","","","","",""
"","","","","","image-keyboard-response","41","218380","0.0-16.0","633e327052bcc8b44d6e0d2c","665500ab8938657b03fbdba8","665792e95b6c4b9ca099583a","687","stimuli/00110000.jpg"," ","","feedback_trial","0","","","","","","","","","","","","","","","","","","","","",""
"","","","","","image-keyboard-response","42","220404","0.0-17.0","633e327052bcc8b44d6e0d2c","665500ab8938657b03fbdba8","665792e95b6c4b9ca099583a","2023","stimuli/0010101.jpg","1","","prediction_trial","0","","false","","0","false","false","true","true","false","false","[0]","010","101","0","","","","","","",""
"","","","","","image-keyboard-response","43","221252","0.0-18.0","633e327052bcc8b44d6e0d2c","665500ab8938657b03fbdba8","665792e95b6c4b9ca099583a","848","stimuli/00101010.jpg"," ","","feedback_trial","0","","","","","","","","","","","","","","","","","","","","",""
"","","","","","image-keyboard-response","44","227789","0.0-19.0","633e327052bcc8b44d6e0d2c","665500ab8938657b03fbdba8","665792e95b6c4b9ca099583a","6536","stimuli/0011111.jpg","1","","prediction_trial","0","","false","","0","false","false","true","true","false","false","[0]","011","111","0","","","","","","",""
"","","","","","image-keyboard-response","45","228492","0.0-20.0","633e327052bcc8b44d6e0d2c","665500ab8938657b03fbdba8","665792e95b6c4b9ca099583a","703","stimuli/00111110.jpg"," ","","feedback_trial","0","","","","","","","","","","","","","","","","","","","","",""
"","","","","","image-keyboard-response","46","229620","0.0-21.0","633e327052bcc8b44d6e0d2c","665500ab8938657b03fbdba8","665792e95b6c4b9ca099583a","1127","stimuli/1100101.jpg","1","","prediction_trial","1","","true","","1","true","true","true","true","true","true","[1]","100","101","1","","","","","","",""
"","","","","","image-keyboard-response","47","230292","0.0-22.0","633e327052bcc8b44d6e0d2c","665500ab8938657b03fbdba8","665792e95b6c4b9ca099583a","672","stimuli/11001011.jpg"," ","","feedback_trial","1","","","","","","","","","","","","","","","","","","","","",""
"","","","","","image-keyboard-response","48","231028","0.0-23.0","633e327052bcc8b44d6e0d2c","665500ab8938657b03fbdba8","665792e95b6c4b9ca099583a","735","stimuli/2110000.jpg","2","","prediction_trial","2","","true","","2","true","true","true","true","true","true","[2]","110","000","1","","","","","","",""
"","","","","","image-keyboard-response","49","231587","0.0-24.0","633e327052bcc8b44d6e0d2c","665500ab8938657b03fbdba8","665792e95b6c4b9ca099583a","559","stimuli/21100002.jpg"," ","","feedback_trial","2","","","","","","","","","","","","","","","","","","","","",""
"","","","","","image-keyboard-response","50","234508","0.0-25.0","633e327052bcc8b44d6e0d2c","665500ab8938657b03fbdba8","665792e95b6c4b9ca099583a","2920","stimuli/0011101.jpg","0","","prediction_trial","0","","true","","0","false","false","true","true","false","false","[0]","011","101","1","","","","","","",""
"","","","","","image-keyboard-response","51","235220","0.0-26.0","633e327052bcc8b44d6e0d2c","665500ab8938657b03fbdba8","665792e95b6c4b9ca099583a","711","stimuli/00111010.jpg"," ","","feedback_trial","0","","","","","","","","","","","","","","","","","","","","",""
"","","","","","image-keyboard-response","52","236908","0.0-27.0","633e327052bcc8b44d6e0d2c","665500ab8938657b03fbdba8","665792e95b6c4b9ca099583a","1688","stimuli/2111000.jpg","2","","prediction_trial","0","","false","","2","true","true","false","false","false","false","[2,1,0]","111","000","0","","","","","","",""
"","","","","","image-keyboard-response","53","237644","0.0-28.0","633e327052bcc8b44d6e0d2c","665500ab8938657b03fbdba8","665792e95b6c4b9ca099583a","735","stimuli/21110000.jpg"," ","","feedback_trial","2","","","","","","","","","","","","","","","","","","","","",""
"","","","","","image-keyboard-response","54","238597","0.0-29.0","633e327052bcc8b44d6e0d2c","665500ab8938657b03fbdba8","665792e95b6c4b9ca099583a","951","stimuli/2110100.jpg","2","","prediction_trial","2","","true","","2","true","true","true","true","true","true","[2]","110","100","1","","","","","","",""
"","","","","","image-keyboard-response","55","239172","0.0-30.0","633e327052bcc8b44d6e0d2c","665500ab8938657b03fbdba8","665792e95b6c4b9ca099583a","575","stimuli/21101002.jpg"," ","","feedback_trial","2","","","","","","","","","","","","","","","","","","","","",""
"","","","","","image-keyboard-response","56","241453","0.0-31.0","633e327052bcc8b44d6e0d2c","665500ab8938657b03fbdba8","665792e95b6c4b9ca099583a","2279","stimuli/1100010.jpg","1","","prediction_trial","1","","true","","1","false","true","true","true","false","true","[1]","100","010","1","","","","","","",""
"","","","","","image-keyboard-response","57","242213","0.0-32.0","633e327052bcc8b44d6e0d2c","665500ab8938657b03fbdba8","665792e95b6c4b9ca099583a","759","stimuli/11000101.jpg"," ","","feedback_trial","1","","","","","","","","","","","","","","","","","","","","",""
"","","","","","image-keyboard-response","58","246285","0.0-33.0","633e327052bcc8b44d6e0d2c","665500ab8938657b03fbdba8","665792e95b6c4b9ca099583a","4072","stimuli/2001110.jpg","2","","prediction_trial","2","","true","","2","true","true","false","true","false","true","[2]","001","110","1","","","","","","",""
"","","","","","image-keyboard-response","59","246797","0.0-34.0","633e327052bcc8b44d6e0d2c","665500ab8938657b03fbdba8","665792e95b6c4b9ca099583a","511","stimuli/20011102.jpg"," ","","feedback_trial","2","","","","","","","","","","","","","","","","","","","","",""
"","","","","","image-keyboard-response","60","250261","0.0-35.0","633e327052bcc8b44d6e0d2c","665500ab8938657b03fbdba8","665792e95b6c4b9ca099583a","3464","stimuli/0101111.jpg","1","","prediction_trial","0","","false","","0","false","false","false","false","false","false","[0,2]","101","111","0","","","","","","",""
"","","","","","image-keyboard-response","61","251101","0.0-36.0","633e327052bcc8b44d6e0d2c","665500ab8938657b03fbdba8","665792e95b6c4b9ca099583a","839","stimuli/01011110.jpg"," ","","feedback_trial","0","","","","","","","","","","","","","","","","","","","","",""
"","","","","","image-keyboard-response","62","253621","0.0-37.0","633e327052bcc8b44d6e0d2c","665500ab8938657b03fbdba8","665792e95b6c4b9ca099583a","2520","stimuli/0110010.jpg","0","","prediction_trial","0","","true","","0","true","true","false","false","false","false","[0,1]","110","010","1","","","","","","",""
"","","","","","image-keyboard-response","63","254229","0.0-38.0","633e327052bcc8b44d6e0d2c","665500ab8938657b03fbdba8","665792e95b6c4b9ca099583a","607","stimuli/01100100.jpg"," ","","feedback_trial","0","","","","","","","","","","","","","","","","","","","","",""
"","","","","","image-keyboard-response","64","255581","0.0-39.0","633e327052bcc8b44d6e0d2c","665500ab8938657b03fbdba8","665792e95b6c4b9ca099583a","1352","stimuli/1101110.jpg","1","","prediction_trial","1","","true","","1","false","false","true","true","false","false","[1]","101","110","1","","","","","","",""
"","","","","","image-keyboard-response","65","256349","0.0-40.0","633e327052bcc8b44d6e0d2c","665500ab8938657b03fbdba8","665792e95b6c4b9ca099583a","767","stimuli/11011101.jpg"," ","","feedback_trial","1","","","","","","","","","","","","","","","","","","","","",""
"","","","","","image-keyboard-response","66","259221","0.0-41.0","633e327052bcc8b44d6e0d2c","665500ab8938657b03fbdba8","665792e95b6c4b9ca099583a","2871","stimuli/1110010.jpg","0","","prediction_trial","1","","false","","1","false","true","false","false","false","false","[0,1]","110","010","0","","","","","","",""
"","","","","","image-keyboard-response","67","260013","0.0-42.0","633e327052bcc8b44d6e0d2c","665500ab8938657b03fbdba8","665792e95b6c4b9ca099583a","792","stimuli/11100101.jpg"," ","","feedback_trial","0","","","","","","","","","","","","","","","","","","","","",""
"","","","","","image-keyboard-response","68","261357","0.0-43.0","633e327052bcc8b44d6e0d2c","665500ab8938657b03fbdba8","665792e95b6c4b9ca099583a","1344","stimuli/1001011.jpg","1","","prediction_trial","1","","true","","1","false","false","true","true","false","false","[1]","001","011","1","","","","","","",""
"","","","","","image-keyboard-response","69","262053","0.0-44.0","633e327052bcc8b44d6e0d2c","665500ab8938657b03fbdba8","665792e95b6c4b9ca099583a","695","stimuli/10010111.jpg"," ","","feedback_trial","1","","","","","","","","","","","","","","","","","","","","",""
"","","","","","image-keyboard-response","70","264013","0.0-45.0","633e327052bcc8b44d6e0d2c","665500ab8938657b03fbdba8","665792e95b6c4b9ca099583a","1960","stimuli/1010101.jpg","1","","prediction_trial","1","","true","","1","true","true","false","true","false","true","[1]","010","101","1","","","","","","",""
"","","","","","image-keyboard-response","71","264549","0.0-46.0","633e327052bcc8b44d6e0d2c","665500ab8938657b03fbdba8","665792e95b6c4b9ca099583a","535","stimuli/10101011.jpg"," ","","feedback_trial","1","","","","","","","","","","","","","","","","","","","","",""
"","","","","","image-keyboard-response","72","265925","0.0-47.0","633e327052bcc8b44d6e0d2c","665500ab8938657b03fbdba8","665792e95b6c4b9ca099583a","1375","stimuli/0001111.jpg","1","","prediction_trial","0","","false","","0","false","false","true","true","false","false","[0]","001","111","0","","","","","","",""
"","","","","","image-keyboard-response","73","266749","0.0-48.0","633e327052bcc8b44d6e0d2c","665500ab8938657b03fbdba8","665792e95b6c4b9ca099583a","824","stimuli/00011110.jpg"," ","","feedback_trial","0","","","","","","","","","","","","","","","","","","","","",""
"","","","","","image-keyboard-response","74","267493","0.0-49.0","633e327052bcc8b44d6e0d2c","665500ab8938657b03fbdba8","665792e95b6c4b9ca099583a","743","stimuli/1000001.jpg","1","","prediction_trial","1","","true","","1","true","true","true","true","true","true","[1]","000","001","1","","","","","","",""
"","","","","","image-keyboard-response","75","268157","0.0-50.0","633e327052bcc8b44d6e0d2c","665500ab8938657b03fbdba8","665792e95b6c4b9ca099583a","664","stimuli/10000011.jpg"," ","","feedback_trial","1","","","","","","","","","","","","","","","","","","","","",""
"","","","","","image-keyboard-response","76","270181","0.0-51.0","633e327052bcc8b44d6e0d2c","665500ab8938657b03fbdba8","665792e95b6c4b9ca099583a","2023","stimuli/1000110.jpg","1","","prediction_trial","1","","true","","1","false","false","true","true","false","false","[1]","000","110","1","","","","","","",""
"","","","","","image-keyboard-response","77","270773","0.0-52.0","633e327052bcc8b44d6e0d2c","665500ab8938657b03fbdba8","665792e95b6c4b9ca099583a","591","stimuli/10001101.jpg"," ","","feedback_trial","1","","","","","","","","","","","","","","","","","","","","",""
"","","","","","image-keyboard-response","78","272941","0.0-53.0","633e327052bcc8b44d6e0d2c","665500ab8938657b03fbdba8","665792e95b6c4b9ca099583a","2168","stimuli/0101000.jpg","0","","prediction_trial","2","","false","","0","true","true","false","false","false","false","[0,2]","101","000","0","","","","","","",""
"","","","","","image-keyboard-response","79","273653","0.0-54.0","633e327052bcc8b44d6e0d2c","665500ab8938657b03fbdba8","665792e95b6c4b9ca099583a","711","stimuli/01010002.jpg"," ","","feedback_trial","0","","","","","","","","","","","","","","","","","","","","",""
"","","","","","image-keyboard-response","80","275109","0.0-55.0","633e327052bcc8b44d6e0d2c","665500ab8938657b03fbdba8","665792e95b6c4b9ca099583a","1455","stimuli/2111111.jpg","1","","prediction_trial","2","","false","","2","false","false","false","false","false","false","[1,0,2]","111","111","0","","","","","","",""
"","","","","","image-keyboard-response","81","275821","0.0-56.0","633e327052bcc8b44d6e0d2c","665500ab8938657b03fbdba8","665792e95b6c4b9ca099583a","712","stimuli/21111112.jpg"," ","","feedback_trial","1","","","","","","","","","","","","","","","","","","","","",""
"","","","","","image-keyboard-response","82","276829","0.0-57.0","633e327052bcc8b44d6e0d2c","665500ab8938657b03fbdba8","665792e95b6c4b9ca099583a","1007","stimuli/0000111.jpg","1","","prediction_trial","0","","false","","0","false","false","true","true","false","false","[0]","000","111","0","","","","","","",""
"","","","","","image-keyboard-response","83","277477","0.0-58.0","633e327052bcc8b44d6e0d2c","665500ab8938657b03fbdba8","665792e95b6c4b9ca099583a","648","stimuli/00001110.jpg"," ","","feedback_trial","0","","","","","","","","","","","","","","","","","","","","",""
"","","","","","image-keyboard-response","84","279477","0.0-59.0","633e327052bcc8b44d6e0d2c","665500ab8938657b03fbdba8","665792e95b6c4b9ca099583a","1999","stimuli/0011110.jpg","1","","prediction_trial","0","","false","","0","false","false","true","true","false","false","[0]","011","110","0","","","","","","",""
"","","","","","image-keyboard-response","85","280109","0.0-60.0","633e327052bcc8b44d6e0d2c","665500ab8938657b03fbdba8","665792e95b6c4b9ca099583a","632","stimuli/00111100.jpg"," ","","feedback_trial","0","","","","","","","","","","","","","","","","","","","","",""
"","","","","","image-keyboard-response","86","281325","0.0-61.0","633e327052bcc8b44d6e0d2c","665500ab8938657b03fbdba8","665792e95b6c4b9ca099583a","1215","stimuli/1110100.jpg","1","","prediction_trial","0","","false","","1","true","true","false","false","false","false","[0,1]","110","100","0","","","","","","",""
"","","","","","image-keyboard-response","87","282045","0.0-62.0","633e327052bcc8b44d6e0d2c","665500ab8938657b03fbdba8","665792e95b6c4b9ca099583a","719","stimuli/11101000.jpg"," ","","feedback_trial","0","","","","","","","","","","","","","","","","","","","","",""
"","","","","","image-keyboard-response","88","283141","0.0-63.0","633e327052bcc8b44d6e0d2c","665500ab8938657b03fbdba8","665792e95b6c4b9ca099583a","1096","stimuli/1000111.jpg","1","","prediction_trial","1","","true","","1","false","false","true","true","false","false","[1]","000","111","1","","","","","","",""
"","","","","","image-keyboard-response","89","283813","0.0-64.0","633e327052bcc8b44d6e0d2c","665500ab8938657b03fbdba8","665792e95b6c4b9ca099583a","671","stimuli/10001111.jpg"," ","","feedback_trial","1","","","","","","","","","","","","","","","","","","","","",""
"","","","","","image-keyboard-response","90","285381","0.0-65.0","633e327052bcc8b44d6e0d2c","665500ab8938657b03fbdba8","665792e95b6c4b9ca099583a","1567","stimuli/0101100.jpg","0","","prediction_trial","0","","true","","0","false","true","false","false","false","false","[0,2]","101","100","1","","","","","","",""
"","","","","","image-keyboard-response","91","286765","0.0-66.0","633e327052bcc8b44d6e0d2c","665500ab8938657b03fbdba8","665792e95b6c4b9ca099583a","1384","stimuli/01011000.jpg"," ","","feedback_trial","0","","","","","","","","","","","","","","","","","","","","",""
"","","","","","image-keyboard-response","92","289909","0.0-67.0","633e327052bcc8b44d6e0d2c","665500ab8938657b03fbdba8","665792e95b6c4b9ca099583a","3143","stimuli/2111101.jpg","0","","prediction_trial","0","","true","","2","false","false","false","false","false","false","[0,1,2]","111","101","1","","","","","","",""
"","","","","","image-keyboard-response","93","290485","0.0-68.0","633e327052bcc8b44d6e0d2c","665500ab8938657b03fbdba8","665792e95b6c4b9ca099583a","576","stimuli/21111010.jpg"," ","","feedback_trial","0","","","","","","","","","","","","","","","","","","","","",""
"","","","","","image-keyboard-response","94","292549","0.0-69.0","633e327052bcc8b44d6e0d2c","665500ab8938657b03fbdba8","665792e95b6c4b9ca099583a","2063","stimuli/2001101.jpg","2","","prediction_trial","2","","true","","2","false","false","false","true","false","false","[2]","001","101","1","","","","","","",""
"","","","","","image-keyboard-response","95","293189","0.0-70.0","633e327052bcc8b44d6e0d2c","665500ab8938657b03fbdba8","665792e95b6c4b9ca099583a","640","stimuli/20011012.jpg"," ","","feedback_trial","2","","","","","","","","","","","","","","","","","","","","",""
"","","","","","image-keyboard-response","96","293925","0.0-71.0","633e327052bcc8b44d6e0d2c","665500ab8938657b03fbdba8","665792e95b6c4b9ca099583a","735","stimuli/2010100.jpg","2","","prediction_trial","2","","true","","2","true","true","true","true","true","true","[2]","010","100","1","","","","","","",""
"","","","","","image-keyboard-response","97","294493","0.0-72.0","633e327052bcc8b44d6e0d2c","665500ab8938657b03fbdba8","665792e95b6c4b9ca099583a","567","stimuli/20101002.jpg"," ","","feedback_trial","2","","","","","","","","","","","","","","","","","","","","",""
"","","","","","image-keyboard-response","98","295421","0.0-73.0","633e327052bcc8b44d6e0d2c","665500ab8938657b03fbdba8","665792e95b6c4b9ca099583a","927","stimuli/0101010.jpg","0","","prediction_trial","2","","false","","0","true","true","false","false","false","false","[0,2]","101","010","0","","","","","","",""
"","","","","","image-keyboard-response","99","296401","0.0-74.0","633e327052bcc8b44d6e0d2c","665500ab8938657b03fbdba8","665792e95b6c4b9ca099583a","979","stimuli/01010102.jpg"," ","","feedback_trial","0","","","","","","","","","","","","","","","","","","","","",""
"","","","","","image-keyboard-response","100","299173","0.0-75.0","633e327052bcc8b44d6e0d2c","665500ab8938657b03fbdba8","665792e95b6c4b9ca099583a","2772","stimuli/2111001.jpg","2","","prediction_trial","0","","false","","2","false","true","false","false","false","false","[1,2,0]","111","001","0","","","","","","",""
"","","","","","image-keyboard-response","101","300101","0.0-76.0","633e327052bcc8b44d6e0d2c","665500ab8938657b03fbdba8","665792e95b6c4b9ca099583a","927","stimuli/21110010.jpg"," ","","feedback_trial","1","","","","","","","","","","","","","","","","","","","","",""
"","","","","","image-keyboard-response","102","301972","0.0-77.0","633e327052bcc8b44d6e0d2c","665500ab8938657b03fbdba8","665792e95b6c4b9ca099583a","1871","stimuli/2110101.jpg","2","","prediction_trial","2","","true","","2","false","false","true","true","false","false","[2]","110","101","1","","","","","","",""
"","","","","","image-keyboard-response","103","302797","0.0-78.0","633e327052bcc8b44d6e0d2c","665500ab8938657b03fbdba8","665792e95b6c4b9ca099583a","824","stimuli/21101012.jpg"," ","","feedback_trial","2","","","","","","","","","","","","","","","","","","","","",""
"","","","","","image-keyboard-response","104","303853","0.0-79.0","633e327052bcc8b44d6e0d2c","665500ab8938657b03fbdba8","665792e95b6c4b9ca099583a","1055","stimuli/2011010.jpg","2","","prediction_trial","1","","false","","2","true","true","false","false","false","false","[2,1]","011","010","0","","","","","","",""
"","","","","","image-keyboard-response","105","304477","0.0-80.0","633e327052bcc8b44d6e0d2c","665500ab8938657b03fbdba8","665792e95b6c4b9ca099583a","623","stimuli/20110101.jpg"," ","","feedback_trial","2","","","","","","","","","","","","","","","","","","","","",""
"","","","","","image-keyboard-response","106","306404","0.0-81.0","633e327052bcc8b44d6e0d2c","665500ab8938657b03fbdba8","665792e95b6c4b9ca099583a","1927","stimuli/2011100.jpg","2","","prediction_trial","1","","false","","2","true","true","false","false","false","false","[1,2]","011","100","0","","","","","","",""
"","","","","","image-keyboard-response","107","306941","0.0-82.0","633e327052bcc8b44d6e0d2c","665500ab8938657b03fbdba8","665792e95b6c4b9ca099583a","535","stimuli/20111001.jpg"," ","","feedback_trial","1","","","","","","","","","","","","","","","","","","","","",""
"","","","","","image-keyboard-response","108","307709","0.0-83.0","633e327052bcc8b44d6e0d2c","665500ab8938657b03fbdba8","665792e95b6c4b9ca099583a","768","stimuli/1101001.jpg","1","","prediction_trial","1","","true","","1","true","true","true","true","true","true","[1]","101","001","1","","","","","","",""
"","","","","","image-keyboard-response","109","308293","0.0-84.0","633e327052bcc8b44d6e0d2c","665500ab8938657b03fbdba8","665792e95b6c4b9ca099583a","584","stimuli/11010011.jpg"," ","","feedback_trial","1","","","","","","","","","","","","","","","","","","","","",""
"","","","","","image-keyboard-response","110","309005","0.0-85.0","633e327052bcc8b44d6e0d2c","665500ab8938657b03fbdba8","665792e95b6c4b9ca099583a","711","stimuli/0010000.jpg","0","","prediction_trial","0","","true","","0","true","true","true","true","true","true","[0]","010","000","1","","","","","","",""
"","","","","","image-keyboard-response","111","309556","0.0-86.0","633e327052bcc8b44d6e0d2c","665500ab8938657b03fbdba8","665792e95b6c4b9ca099583a","551","stimuli/00100000.jpg"," ","","feedback_trial","0","","","","","","","","","","","","","","","","","","","","",""
"","","","","","image-keyboard-response","112","310557","0.0-87.0","633e327052bcc8b44d6e0d2c","665500ab8938657b03fbdba8","665792e95b6c4b9ca099583a","1000","stimuli/1000011.jpg","1","","prediction_trial","1","","true","","1","false","false","true","true","false","false","[1]","000","011","1","","","","","","",""
"","","","","","image-keyboard-response","113","311180","0.0-88.0","633e327052bcc8b44d6e0d2c","665500ab8938657b03fbdba8","665792e95b6c4b9ca099583a","623","stimuli/10000111.jpg"," ","","feedback_trial","1","","","","","","","","","","","","","","","","","","","","",""
"","","","","","image-keyboard-response","114","311949","0.0-89.0","633e327052bcc8b44d6e0d2c","665500ab8938657b03fbdba8","665792e95b6c4b9ca099583a","767","stimuli/1011111.jpg","0","","prediction_trial","1","","false","","1","false","false","false","false","false","false","[2,1]","011","111","0","","","","","","",""
"","","","","","image-keyboard-response","115","312612","0.0-90.0","633e327052bcc8b44d6e0d2c","665500ab8938657b03fbdba8","665792e95b6c4b9ca099583a","663","stimuli/10111111.jpg"," ","","feedback_trial","2","","","","","","","","","","","","","","","","","","","","",""
"","","","","","image-keyboard-response","116","313197","0.0-91.0","633e327052bcc8b44d6e0d2c","665500ab8938657b03fbdba8","665792e95b6c4b9ca099583a","583","stimuli/2110110.jpg","2","","prediction_trial","2","","true","","2","true","true","true","true","true","true","[2]","110","110","1","","","","","","",""
"","","","","","image-keyboard-response","117","313764","0.0-92.0","633e327052bcc8b44d6e0d2c","665500ab8938657b03fbdba8","665792e95b6c4b9ca099583a","567","stimuli/21101102.jpg"," ","","feedback_trial","2","","","","","","","","","","","","","","","","","","","","",""
"","","","","","image-keyboard-response","118","314717","0.0-93.0","633e327052bcc8b44d6e0d2c","665500ab8938657b03fbdba8","665792e95b6c4b9ca099583a","952","stimuli/0000110.jpg","1","","prediction_trial","0","","false","","0","false","false","true","true","false","false","[0]","000","110","0","","","","","","",""
"","","","","","image-keyboard-response","119","315292","0.0-94.0","633e327052bcc8b44d6e0d2c","665500ab8938657b03fbdba8","665792e95b6c4b9ca099583a","575","stimuli/00001100.jpg"," ","","feedback_trial","0","","","","","","","","","","","","","","","","","","","","",""
"","","","","","image-keyboard-response","120","316132","0.0-95.0","633e327052bcc8b44d6e0d2c","665500ab8938657b03fbdba8","665792e95b6c4b9ca099583a","840","stimuli/1010000.jpg","1","","prediction_trial","1","","true","","1","true","true","false","true","false","true","[1]","010","000","1","","","","","","",""
"","","","","","image-keyboard-response","121","316724","0.0-96.0","633e327052bcc8b44d6e0d2c","665500ab8938657b03fbdba8","665792e95b6c4b9ca099583a","592","stimuli/10100001.jpg"," ","","feedback_trial","1","","","","","","","","","","","","","","","","","","","","",""
"","","","","","image-keyboard-response","122","318213","0.0-97.0","633e327052bcc8b44d6e0d2c","665500ab8938657b03fbdba8","665792e95b6c4b9ca099583a","1488","stimuli/0101101.jpg","0","","prediction_trial","2","","false","","0","false","false","false","false","false","false","[0,2]","101","101","0","","","","","","",""
"","","","","","image-keyboard-response","123","318932","0.0-98.0","633e327052bcc8b44d6e0d2c","665500ab8938657b03fbdba8","665792e95b6c4b9ca099583a","719","stimuli/01011012.jpg"," ","","feedback_trial","0","","","","","","","","","","","","","","","","","","","","",""
"","","","","","image-keyboard-response","124","319637","0.0-99.0","633e327052bcc8b44d6e0d2c","665500ab8938657b03fbdba8","665792e95b6c4b9ca099583a","704","stimuli/2010001.jpg","2","","prediction_trial","2","","true","","2","false","true","true","true","false","true","[2]","010","001","1","","","","","","",""
"","","","","","image-keyboard-response","125","320292","0.0-100.0","633e327052bcc8b44d6e0d2c","665500ab8938657b03fbdba8","665792e95b6c4b9ca099583a","655","stimuli/20100012.jpg"," ","","feedback_trial","2","","","","","","","","","","","","","","","","","","","","",""
"","","","","","image-keyboard-response","126","321677","0.0-101.0","633e327052bcc8b44d6e0d2c","665500ab8938657b03fbdba8","665792e95b6c4b9ca099583a","1384","stimuli/2101000.jpg","2","","prediction_trial","2","","true","","2","true","true","false","false","false","false","[2,0]","101","000","1","","","","","","",""
"","","","","","image-keyboard-response","127","322372","0.0-102.0","633e327052bcc8b44d6e0d2c","665500ab8938657b03fbdba8","665792e95b6c4b9ca099583a","695","stimuli/21010002.jpg"," ","","feedback_trial","2","","","","","","","","","","","","","","","","","","","","",""
"","","","","","image-keyboard-response","128","323188","0.0-103.0","633e327052bcc8b44d6e0d2c","665500ab8938657b03fbdba8","665792e95b6c4b9ca099583a","815","stimuli/0110100.jpg","0","","prediction_trial","1","","false","","0","false","true","false","false","false","false","[1,0]","110","100","0","","","","","","",""
"","","","","","image-keyboard-response","129","323780","0.0-104.0","633e327052bcc8b44d6e0d2c","665500ab8938657b03fbdba8","665792e95b6c4b9ca099583a","592","stimuli/01101001.jpg"," ","","feedback_trial","1","","","","","","","","","","","","","","","","","","","","",""
"","","","","","image-keyboard-response","130","324653","0.0-105.0","633e327052bcc8b44d6e0d2c","665500ab8938657b03fbdba8","665792e95b6c4b9ca099583a","872","stimuli/2011101.jpg","0","","prediction_trial","2","","false","","2","false","false","false","false","false","false","[1,2]","011","101","0","","","","","","",""
"","","","","","image-keyboard-response","131","325740","0.0-106.0","633e327052bcc8b44d6e0d2c","665500ab8938657b03fbdba8","665792e95b6c4b9ca099583a","1087","stimuli/20111012.jpg"," ","","feedback_trial","1","","","","","","","","","","","","","","","","","","","","",""
"","","","","","image-keyboard-response","132","326844","0.0-107.0","633e327052bcc8b44d6e0d2c","665500ab8938657b03fbdba8","665792e95b6c4b9ca099583a","1103","stimuli/0100011.jpg","0","","prediction_trial","0","","true","","0","true","true","false","true","false","true","[0]","100","011","1","","","","","","",""
"","","","","","image-keyboard-response","133","327492","0.0-108.0","633e327052bcc8b44d6e0d2c","665500ab8938657b03fbdba8","665792e95b6c4b9ca099583a","647","stimuli/01000110.jpg"," ","","feedback_trial","0","","","","","","","","","","","","","","","","","","","","",""
"","","","","","image-keyboard-response","134","328149","0.0-109.0","633e327052bcc8b44d6e0d2c","665500ab8938657b03fbdba8","665792e95b6c4b9ca099583a","656","stimuli/1001000.jpg","1","","prediction_trial","1","","true","","1","true","true","true","true","true","true","[1]","001","000","1","","","","","","",""
"","","","","","image-keyboard-response","135","328789","0.0-110.0","633e327052bcc8b44d6e0d2c","665500ab8938657b03fbdba8","665792e95b6c4b9ca099583a","640","stimuli/10010001.jpg"," ","","feedback_trial","1","","","","","","","","","","","","","","","","","","","","",""
"","","","","","image-keyboard-response","136","330349","0.0-111.0","633e327052bcc8b44d6e0d2c","665500ab8938657b03fbdba8","665792e95b6c4b9ca099583a","1559","stimuli/2101101.jpg","0","","prediction_trial","0","","true","","2","false","false","false","false","false","false","[0,2]","101","101","1","","","","","","",""
"","","","","","image-keyboard-response","137","331044","0.0-112.0","633e327052bcc8b44d6e0d2c","665500ab8938657b03fbdba8","665792e95b6c4b9ca099583a","695","stimuli/21011010.jpg"," ","","feedback_trial","0","","","","","","","","","","","","","","","","","","","","",""
"","","","","","image-keyboard-response","138","332821","0.0-113.0","633e327052bcc8b44d6e0d2c","665500ab8938657b03fbdba8","665792e95b6c4b9ca099583a","1776","stimuli/2100011.jpg","1","","prediction_trial","2","","false","","2","false","false","true","true","false","false","[2]","100","011","0","","","","","","",""
"","","","","","image-keyboard-response","139","333412","0.0-114.0","633e327052bcc8b44d6e0d2c","665500ab8938657b03fbdba8","665792e95b6c4b9ca099583a","591","stimuli/21000112.jpg"," ","","feedback_trial","2","","","","","","","","","","","","","","","","","","","","",""
"","","","","","image-keyboard-response","140","334733","0.0-115.0","633e327052bcc8b44d6e0d2c","665500ab8938657b03fbdba8","665792e95b6c4b9ca099583a","1320","stimuli/0001101.jpg","0","","prediction_trial","0","","true","","0","false","false","true","true","false","false","[0]","001","101","1","","","","","","",""
"","","","","","image-keyboard-response","141","335404","0.0-116.0","633e327052bcc8b44d6e0d2c","665500ab8938657b03fbdba8","665792e95b6c4b9ca099583a","671","stimuli/00011010.jpg"," ","","feedback_trial","0","","","","","","","","","","","","","","","","","","","","",""
"","","","","","image-keyboard-response","142","336781","0.0-117.0","633e327052bcc8b44d6e0d2c","665500ab8938657b03fbdba8","665792e95b6c4b9ca099583a","1376","stimuli/2101010.jpg","2","","prediction_trial","2","","true","","2","true","true","false","false","false","false","[2,0]","101","010","1","","","","","","",""
"","","","","","image-keyboard-response","143","337484","0.0-118.0","633e327052bcc8b44d6e0d2c","665500ab8938657b03fbdba8","665792e95b6c4b9ca099583a","703","stimuli/21010102.jpg"," ","","feedback_trial","2","","","","","","","","","","","","","","","","","","","","",""
"","","","","","image-keyboard-response","144","338837","0.0-119.0","633e327052bcc8b44d6e0d2c","665500ab8938657b03fbdba8","665792e95b6c4b9ca099583a","1352","stimuli/2100111.jpg","1","","prediction_trial","2","","false","","2","false","false","true","true","false","false","[2]","100","111","0","","","","","","",""
"","","","","","image-keyboard-response","145","339524","0.0-120.0","633e327052bcc8b44d6e0d2c","665500ab8938657b03fbdba8","665792e95b6c4b9ca099583a","687","stimuli/21001112.jpg"," ","","feedback_trial","2","","","","","","","","","","","","","","","","","","","","",""
"","","","","","image-keyboard-response","146","341828","0.0-121.0","633e327052bcc8b44d6e0d2c","665500ab8938657b03fbdba8","665792e95b6c4b9ca099583a","2304","stimuli/1110111.jpg","2","","prediction_trial","0","","false","","1","false","false","false","false","false","false","[1,0]","110","111","0","","","","","","",""
"","","","","","image-keyboard-response","147","342429","0.0-122.0","633e327052bcc8b44d6e0d2c","665500ab8938657b03fbdba8","665792e95b6c4b9ca099583a","600","stimuli/11101110.jpg"," ","","feedback_trial","1","","","","","","","","","","","","","","","","","","","","",""
"","","","","","image-keyboard-response","148","343212","0.0-123.0","633e327052bcc8b44d6e0d2c","665500ab8938657b03fbdba8","665792e95b6c4b9ca099583a","783","stimuli/0011100.jpg","0","","prediction_trial","0","","true","","0","false","true","true","true","false","true","[0]","011","100","1","","","","","","",""
"","","","","","image-keyboard-response","149","343780","0.0-124.0","633e327052bcc8b44d6e0d2c","665500ab8938657b03fbdba8","665792e95b6c4b9ca099583a","567","stimuli/00111000.jpg"," ","","feedback_trial","0","","","","","","","","","","","","","","","","","","","","",""
"","","","","","image-keyboard-response","150","344709","0.0-125.0","633e327052bcc8b44d6e0d2c","665500ab8938657b03fbdba8","665792e95b6c4b9ca099583a","928","stimuli/0011011.jpg","0","","prediction_trial","0","","true","","0","true","true","true","true","true","true","[0]","011","011","1","","","","","","",""
"","","","","","image-keyboard-response","151","345140","0.0-126.0","633e327052bcc8b44d6e0d2c","665500ab8938657b03fbdba8","665792e95b6c4b9ca099583a","431","stimuli/00110110.jpg"," ","","feedback_trial","0","","","","","","","","","","","","","","","","","","","","",""
"","","","","","image-keyboard-response","152","345972","0.0-127.0","633e327052bcc8b44d6e0d2c","665500ab8938657b03fbdba8","665792e95b6c4b9ca099583a","832","stimuli/1111110.jpg","1","","prediction_trial","1","","true","","1","false","false","false","false","false","false","[1,2,0]","111","110","1","","","","","","",""
"","","","","","image-keyboard-response","153","346549","0.0-128.0","633e327052bcc8b44d6e0d2c","665500ab8938657b03fbdba8","665792e95b6c4b9ca099583a","576","stimuli/11111101.jpg"," ","","feedback_trial","1","","","","","","","","","","","","","","","","","","","","",""
"","","","","","image-keyboard-response","154","347605","0.0-129.0","633e327052bcc8b44d6e0d2c","665500ab8938657b03fbdba8","665792e95b6c4b9ca099583a","1055","stimuli/2100001.jpg","2","","prediction_trial","2","","true","","2","false","true","true","true","false","true","[2]","100","001","1","","","","","","",""
"","","","","","image-keyboard-response","155","348077","0.0-130.0","633e327052bcc8b44d6e0d2c","665500ab8938657b03fbdba8","665792e95b6c4b9ca099583a","472","stimuli/21000012.jpg"," ","","feedback_trial","2","","","","","","","","","","","","","","","","","","","","",""
"","","","","","image-keyboard-response","156","348932","0.0-131.0","633e327052bcc8b44d6e0d2c","665500ab8938657b03fbdba8","665792e95b6c4b9ca099583a","855","stimuli/2001001.jpg","2","","prediction_trial","2","","true","","2","false","true","false","true","false","true","[2]","001","001","1","","","","","","",""
"","","","","","image-keyboard-response","157","349388","0.0-132.0","633e327052bcc8b44d6e0d2c","665500ab8938657b03fbdba8","665792e95b6c4b9ca099583a","456","stimuli/20010012.jpg"," ","","feedback_trial","2","","","","","","","","","","","","","","","","","","","","",""
"","","","","","image-keyboard-response","158","350204","0.0-133.0","633e327052bcc8b44d6e0d2c","665500ab8938657b03fbdba8","665792e95b6c4b9ca099583a","815","stimuli/0100100.jpg","0","","prediction_trial","0","","true","","0","false","true","false","true","false","true","[0]","100","100","1","","","","","","",""
"","","","","","image-keyboard-response","159","350661","0.0-134.0","633e327052bcc8b44d6e0d2c","665500ab8938657b03fbdba8","665792e95b6c4b9ca099583a","456","stimuli/01001000.jpg"," ","","feedback_trial","0","","","","","","","","","","","","","","","","","","","","",""
"","","","","","image-keyboard-response","160","351644","0.0-135.0","633e327052bcc8b44d6e0d2c","665500ab8938657b03fbdba8","665792e95b6c4b9ca099583a","983","stimuli/2000000.jpg","2","","prediction_trial","2","","true","","2","true","true","true","true","true","true","[2]","000","000","1","","","","","","",""
"","","","","","image-keyboard-response","161","352085","0.0-136.0","633e327052bcc8b44d6e0d2c","665500ab8938657b03fbdba8","665792e95b6c4b9ca099583a","440","stimuli/20000002.jpg"," ","","feedback_trial","2","","","","","","","","","","","","","","","","","","","","",""
"","","","","","image-keyboard-response","162","352861","0.0-137.0","633e327052bcc8b44d6e0d2c","665500ab8938657b03fbdba8","665792e95b6c4b9ca099583a","775","stimuli/1011110.jpg","0","","prediction_trial","2","","false","","1","false","false","false","false","false","false","[1,2]","011","110","0","","","","","","",""
"","","","","","image-keyboard-response","163","353500","0.0-138.0","633e327052bcc8b44d6e0d2c","665500ab8938657b03fbdba8","665792e95b6c4b9ca099583a","639","stimuli/10111102.jpg"," ","","feedback_trial","1","","","","","","","","","","","","","","","","","","","","",""
"","","","","","image-keyboard-response","164","354308","0.0-139.0","633e327052bcc8b44d6e0d2c","665500ab8938657b03fbdba8","665792e95b6c4b9ca099583a","807","stimuli/1111001.jpg","1","","prediction_trial","2","","false","","1","true","true","false","false","false","false","[0,2,1]","111","001","0","","","","","","",""
"","","","","","image-keyboard-response","165","354860","0.0-140.0","633e327052bcc8b44d6e0d2c","665500ab8938657b03fbdba8","665792e95b6c4b9ca099583a","552","stimuli/11110012.jpg"," ","","feedback_trial","0","","","","","","","","","","","","","","","","","","","","",""
"","","","","","image-keyboard-response","166","355765","0.0-141.0","633e327052bcc8b44d6e0d2c","665500ab8938657b03fbdba8","665792e95b6c4b9ca099583a","904","stimuli/1000010.jpg","1","","prediction_trial","1","","true","","1","false","true","true","true","false","true","[1]","000","010","1","","","","","","",""
"","","","","","image-keyboard-response","167","356356","0.0-142.0","633e327052bcc8b44d6e0d2c","665500ab8938657b03fbdba8","665792e95b6c4b9ca099583a","591","stimuli/10000101.jpg"," ","","feedback_trial","1","","","","","","","","","","","","","","","","","","","","",""
"","","","","","image-keyboard-response","168","357340","0.0-143.0","633e327052bcc8b44d6e0d2c","665500ab8938657b03fbdba8","665792e95b6c4b9ca099583a","984","stimuli/2001111.jpg","1","","prediction_trial","2","","false","","2","false","false","false","true","false","false","[2]","001","111","0","","","","","","",""
"","","","","","image-keyboard-response","169","357988","0.0-144.0","633e327052bcc8b44d6e0d2c","665500ab8938657b03fbdba8","665792e95b6c4b9ca099583a","647","stimuli/20011112.jpg"," ","","feedback_trial","2","","","","","","","","","","","","","","","","","","","","",""
"","","","","","image-keyboard-response","170","360165","0.0-145.0","633e327052bcc8b44d6e0d2c","665500ab8938657b03fbdba8","665792e95b6c4b9ca099583a","2176","stimuli/1010100.jpg","0","","prediction_trial","1","","false","","1","true","true","false","true","false","true","[1]","010","100","0","","","","","","",""
"","","","","","image-keyboard-response","171","360677","0.0-146.0","633e327052bcc8b44d6e0d2c","665500ab8938657b03fbdba8","665792e95b6c4b9ca099583a","512","stimuli/10101001.jpg"," ","","feedback_trial","1","","","","","","","","","","","","","","","","","","","","",""
"","","","","","image-keyboard-response","172","361445","0.0-147.0","633e327052bcc8b44d6e0d2c","665500ab8938657b03fbdba8","665792e95b6c4b9ca099583a","767","stimuli/1010010.jpg","1","","prediction_trial","1","","true","","1","false","true","false","true","false","true","[1]","010","010","1","","","","","","",""
"","","","","","image-keyboard-response","173","361924","0.0-148.0","633e327052bcc8b44d6e0d2c","665500ab8938657b03fbdba8","665792e95b6c4b9ca099583a","479","stimuli/10100101.jpg"," ","","feedback_trial","1","","","","","","","","","","","","","","","","","","","","",""
"","","","","","image-keyboard-response","174","362677","0.0-149.0","633e327052bcc8b44d6e0d2c","665500ab8938657b03fbdba8","665792e95b6c4b9ca099583a","752","stimuli/0111010.jpg","0","","prediction_trial","2","","false","","0","true","true","false","false","false","false","[1,2,0]","111","010","0","","","","","","",""
"","","","","","image-keyboard-response","175","363180","0.0-150.0","633e327052bcc8b44d6e0d2c","665500ab8938657b03fbdba8","665792e95b6c4b9ca099583a","503","stimuli/01110102.jpg"," ","","feedback_trial","1","","","","","","","","","","","","","","","","","","","","",""
"","","","","","image-keyboard-response","176","364389","0.0-151.0","633e327052bcc8b44d6e0d2c","665500ab8938657b03fbdba8","665792e95b6c4b9ca099583a","1208","stimuli/1111011.jpg","1","","prediction_trial","2","","false","","1","false","false","false","false","false","false","[2,0,1]","111","011","0","","","","","","",""
"","","","","","image-keyboard-response","177","364916","0.0-152.0","633e327052bcc8b44d6e0d2c","665500ab8938657b03fbdba8","665792e95b6c4b9ca099583a","527","stimuli/11110112.jpg"," ","","feedback_trial","2","","","","","","","","","","","","","","","","","","","","",""
"","","","","","image-keyboard-response","178","366901","0.0-153.0","633e327052bcc8b44d6e0d2c","665500ab8938657b03fbdba8","665792e95b6c4b9ca099583a","1984","stimuli/2101001.jpg","0","","prediction_trial","2","","false","","2","false","true","false","false","false","false","[0,2]","101","001","0","","","","","","",""
"","","","","","image-keyboard-response","179","367548","0.0-154.0","633e327052bcc8b44d6e0d2c","665500ab8938657b03fbdba8","665792e95b6c4b9ca099583a","647","stimuli/21010012.jpg"," ","","feedback_trial","0","","","","","","","","","","","","","","","","","","","","",""
"","","","","","image-keyboard-response","180","368892","0.0-155.0","633e327052bcc8b44d6e0d2c","665500ab8938657b03fbdba8","665792e95b6c4b9ca099583a","1344","stimuli/0001000.jpg","0","","prediction_trial","0","","true","","0","true","true","true","true","true","true","[0]","001","000","1","","","","","","",""
"","","","","","image-keyboard-response","181","369989","0.0-156.0","633e327052bcc8b44d6e0d2c","665500ab8938657b03fbdba8","665792e95b6c4b9ca099583a","1095","stimuli/00010000.jpg"," ","","feedback_trial","0","","","","","","","","","","","","","","","","","","","","",""
"","","","","","image-keyboard-response","182","370708","0.0-157.0","633e327052bcc8b44d6e0d2c","665500ab8938657b03fbdba8","665792e95b6c4b9ca099583a","719","stimuli/0011001.jpg","0","","prediction_trial","0","","true","","0","true","true","true","true","true","true","[0]","011","001","1","","","","","","",""
"","","","","","image-keyboard-response","183","371316","0.0-158.0","633e327052bcc8b44d6e0d2c","665500ab8938657b03fbdba8","665792e95b6c4b9ca099583a","607","stimuli/00110010.jpg"," ","","feedback_trial","0","","","","","","","","","","","","","","","","","","","","",""
"","","","","","image-keyboard-response","184","371925","0.0-159.0","633e327052bcc8b44d6e0d2c","665500ab8938657b03fbdba8","665792e95b6c4b9ca099583a","607","stimuli/2010010.jpg","2","","prediction_trial","2","","true","","2","true","true","true","true","true","true","[2]","010","010","1","","","","","","",""
"","","","","","image-keyboard-response","185","372477","0.0-160.0","633e327052bcc8b44d6e0d2c","665500ab8938657b03fbdba8","665792e95b6c4b9ca099583a","551","stimuli/20100102.jpg"," ","","feedback_trial","2","","","","","","","","","","","","","","","","","","","","",""
"","","","","","image-keyboard-response","186","373940","0.0-161.0","633e327052bcc8b44d6e0d2c","665500ab8938657b03fbdba8","665792e95b6c4b9ca099583a","1463","stimuli/0111100.jpg","0","","prediction_trial","1","","false","","0","false","true","false","false","false","false","[2,0,1]","111","100","0","","","","","","",""
"","","","","","image-keyboard-response","187","374444","0.0-162.0","633e327052bcc8b44d6e0d2c","665500ab8938657b03fbdba8","665792e95b6c4b9ca099583a","504","stimuli/01111001.jpg"," ","","feedback_trial","2","","","","","","","","","","","","","","","","","","","","",""
"","","","","","image-keyboard-response","188","375300","0.0-163.0","633e327052bcc8b44d6e0d2c","665500ab8938657b03fbdba8","665792e95b6c4b9ca099583a","855","stimuli/0110101.jpg","2","","prediction_trial","1","","false","","0","false","false","false","false","false","false","[0,1]","110","101","0","","","","","","",""
"","","","","","image-keyboard-response","189","375908","0.0-164.0","633e327052bcc8b44d6e0d2c","665500ab8938657b03fbdba8","665792e95b6c4b9ca099583a","608","stimuli/01101011.jpg"," ","","feedback_trial","0","","","","","","","","","","","","","","","","","","","","",""
"","","","","","image-keyboard-response","190","377197","0.0-165.0","633e327052bcc8b44d6e0d2c","665500ab8938657b03fbdba8","665792e95b6c4b9ca099583a","1288","stimuli/1001101.jpg","1","","prediction_trial","1","","true","","1","true","true","true","true","true","true","[1]","001","101","1","","","","","","",""
"","","","","","image-keyboard-response","191","378109","0.0-166.0","633e327052bcc8b44d6e0d2c","665500ab8938657b03fbdba8","665792e95b6c4b9ca099583a","911","stimuli/10011011.jpg"," ","","feedback_trial","1","","","","","","","","","","","","","","","","","","","","",""
"","","","","","image-keyboard-response","192","379012","0.0-167.0","633e327052bcc8b44d6e0d2c","665500ab8938657b03fbdba8","665792e95b6c4b9ca099583a","903","stimuli/0111111.jpg","0","","prediction_trial","2","","false","","0","false","false","false","false","false","false","[2,1,0]","111","111","0","","","","","","",""
"","","","","","image-keyboard-response","193","379684","0.0-168.0","633e327052bcc8b44d6e0d2c","665500ab8938657b03fbdba8","665792e95b6c4b9ca099583a","672","stimuli/01111112.jpg"," ","","feedback_trial","2","","","","","","","","","","","","","","","","","","","","",""
"","","","","","image-keyboard-response","194","380445","0.0-169.0","633e327052bcc8b44d6e0d2c","665500ab8938657b03fbdba8","665792e95b6c4b9ca099583a","760","stimuli/1100000.jpg","1","","prediction_trial","1","","true","","1","true","true","true","true","true","true","[1]","100","000","1","","","","","","",""
"","","","","","image-keyboard-response","195","381124","0.0-170.0","633e327052bcc8b44d6e0d2c","665500ab8938657b03fbdba8","665792e95b6c4b9ca099583a","679","stimuli/11000001.jpg"," ","","feedback_trial","1","","","","","","","","","","","","","","","","","","","","",""
"","","","","","image-keyboard-response","196","381804","0.0-171.0","633e327052bcc8b44d6e0d2c","665500ab8938657b03fbdba8","665792e95b6c4b9ca099583a","680","stimuli/2100010.jpg","2","","prediction_trial","2","","true","","2","true","true","true","true","true","true","[2]","100","010","1","","","","","","",""
"","","","","","image-keyboard-response","197","382492","0.0-172.0","633e327052bcc8b44d6e0d2c","665500ab8938657b03fbdba8","665792e95b6c4b9ca099583a","687","stimuli/21000102.jpg"," ","","feedback_trial","2","","","","","","","","","","","","","","","","","","","","",""
"","","","","","image-keyboard-response","198","383637","0.0-173.0","633e327052bcc8b44d6e0d2c","665500ab8938657b03fbdba8","665792e95b6c4b9ca099583a","1144","stimuli/0101110.jpg","1","","prediction_trial","2","","false","","0","false","false","false","false","false","false","[2,0]","101","110","0","","","","","","",""
"","","","","","image-keyboard-response","199","385228","0.0-174.0","633e327052bcc8b44d6e0d2c","665500ab8938657b03fbdba8","665792e95b6c4b9ca099583a","1591","stimuli/01011102.jpg"," ","","feedback_trial","2","","","","","","","","","","","","","","","","","","","","",""
"","","","","","image-keyboard-response","200","386005","0.0-175.0","633e327052bcc8b44d6e0d2c","665500ab8938657b03fbdba8","665792e95b6c4b9ca099583a","776","stimuli/1110011.jpg","2","","prediction_trial","0","","false","","1","false","false","false","false","false","false","[1,0]","110","011","0","","","","","","",""
"","","","","","image-keyboard-response","201","386596","0.0-176.0","633e327052bcc8b44d6e0d2c","665500ab8938657b03fbdba8","665792e95b6c4b9ca099583a","591","stimuli/11100110.jpg"," ","","feedback_trial","1","","","","","","","","","","","","","","","","","","","","",""
"","","","","","image-keyboard-response","202","387180","0.0-177.0","633e327052bcc8b44d6e0d2c","665500ab8938657b03fbdba8","665792e95b6c4b9ca099583a","583","stimuli/1110101.jpg","1","","prediction_trial","1","","true","","1","true","true","false","false","false","false","[0,1]","110","101","1","","","","","","",""
"","","","","","image-keyboard-response","203","387845","0.0-178.0","633e327052bcc8b44d6e0d2c","665500ab8938657b03fbdba8","665792e95b6c4b9ca099583a","664","stimuli/11101011.jpg"," ","","feedback_trial","0","","","","","","","","","","","","","","","","","","","","",""
"","","","","","image-keyboard-response","204","388733","0.0-179.0","633e327052bcc8b44d6e0d2c","665500ab8938657b03fbdba8","665792e95b6c4b9ca099583a","887","stimuli/2101011.jpg","1","","prediction_trial","0","","false","","2","false","false","false","false","false","false","[2,0]","101","011","0","","","","","","",""
"","","","","","image-keyboard-response","205","389333","0.0-180.0","633e327052bcc8b44d6e0d2c","665500ab8938657b03fbdba8","665792e95b6c4b9ca099583a","600","stimuli/21010110.jpg"," ","","feedback_trial","2","","","","","","","","","","","","","","","","","","","","",""
"","","","","","image-keyboard-response","206","390012","0.0-181.0","633e327052bcc8b44d6e0d2c","665500ab8938657b03fbdba8","665792e95b6c4b9ca099583a","679","stimuli/1111101.jpg","1","","prediction_trial","0","","false","","1","true","true","false","false","false","false","[2,1,0]","111","101","0","","","","","","",""
"","","","","","image-keyboard-response","207","390596","0.0-182.0","633e327052bcc8b44d6e0d2c","665500ab8938657b03fbdba8","665792e95b6c4b9ca099583a","584","stimuli/11111010.jpg"," ","","feedback_trial","2","","","","","","","","","","","","","","","","","","","","",""
"","","","","","image-keyboard-response","208","391220","0.0-183.0","633e327052bcc8b44d6e0d2c","665500ab8938657b03fbdba8","665792e95b6c4b9ca099583a","623","stimuli/0100010.jpg","0","","prediction_trial","0","","true","","0","true","true","false","true","false","true","[0]","100","010","1","","","","","","",""
"","","","","","image-keyboard-response","209","391821","0.0-184.0","633e327052bcc8b44d6e0d2c","665500ab8938657b03fbdba8","665792e95b6c4b9ca099583a","600","stimuli/01000100.jpg"," ","","feedback_trial","0","","","","","","","","","","","","","","","","","","","","",""
"","","","","","image-keyboard-response","210","392517","0.0-185.0","633e327052bcc8b44d6e0d2c","665500ab8938657b03fbdba8","665792e95b6c4b9ca099583a","695","stimuli/2011111.jpg","0","","prediction_trial","1","","false","","2","false","false","false","false","false","false","[2,1]","011","111","0","","","","","","",""
"","","","","","image-keyboard-response","211","393076","0.0-186.0","633e327052bcc8b44d6e0d2c","665500ab8938657b03fbdba8","665792e95b6c4b9ca099583a","559","stimuli/20111111.jpg"," ","","feedback_trial","2","","","","","","","","","","","","","","","","","","","","",""
"","","","","","image-keyboard-response","212","393853","0.0-187.0","633e327052bcc8b44d6e0d2c","665500ab8938657b03fbdba8","665792e95b6c4b9ca099583a","776","stimuli/0001100.jpg","0","","prediction_trial","0","","true","","0","false","true","true","true","false","true","[0]","001","100","1","","","","","","",""
"","","","","","image-keyboard-response","213","394477","0.0-188.0","633e327052bcc8b44d6e0d2c","665500ab8938657b03fbdba8","665792e95b6c4b9ca099583a","623","stimuli/00011000.jpg"," ","","feedback_trial","0","","","","","","","","","","","","","","","","","","","","",""
"","","","","","image-keyboard-response","214","395477","0.0-189.0","633e327052bcc8b44d6e0d2c","665500ab8938657b03fbdba8","665792e95b6c4b9ca099583a","1000","stimuli/1011010.jpg","1","","prediction_trial","1","","true","","1","false","true","false","false","false","false","[1,2]","011","010","1","","","","","","",""
"","","","","","image-keyboard-response","215","396045","0.0-190.0","633e327052bcc8b44d6e0d2c","665500ab8938657b03fbdba8","665792e95b6c4b9ca099583a","567","stimuli/10110101.jpg"," ","","feedback_trial","1","","","","","","","","","","","","","","","","","","","","",""
"","","","","","image-keyboard-response","216","396766","0.0-191.0","633e327052bcc8b44d6e0d2c","665500ab8938657b03fbdba8","665792e95b6c4b9ca099583a","721","stimuli/2100100.jpg","2","","prediction_trial","2","","true","","2","true","true","true","true","true","true","[2]","100","100","1","","","","","","",""
"","","","","","image-keyboard-response","217","397276","0.0-192.0","633e327052bcc8b44d6e0d2c","665500ab8938657b03fbdba8","665792e95b6c4b9ca099583a","510","stimuli/21001002.jpg"," ","","feedback_trial","2","","","","","","","","","","","","","","","","","","","","",""
"","","","","","image-keyboard-response","218","398381","0.0-193.0","633e327052bcc8b44d6e0d2c","665500ab8938657b03fbdba8","665792e95b6c4b9ca099583a","1104","stimuli/0100101.jpg","2","","prediction_trial","0","","false","","0","false","false","false","true","false","false","[0]","100","101","0","","","","","","",""
"","","","","","image-keyboard-response","219","398940","0.0-194.0","633e327052bcc8b44d6e0d2c","665500ab8938657b03fbdba8","665792e95b6c4b9ca099583a","559","stimuli/01001010.jpg"," ","","feedback_trial","0","","","","","","","","","","","","","","","","","","","","",""
"","","","","","image-keyboard-response","220","399557","0.0-195.0","633e327052bcc8b44d6e0d2c","665500ab8938657b03fbdba8","665792e95b6c4b9ca099583a","616","stimuli/0011010.jpg","0","","prediction_trial","0","","true","","0","true","true","true","true","true","true","[0]","011","010","1","","","","","","",""
"","","","","","image-keyboard-response","221","400205","0.0-196.0","633e327052bcc8b44d6e0d2c","665500ab8938657b03fbdba8","665792e95b6c4b9ca099583a","647","stimuli/00110100.jpg"," ","","feedback_trial","0","","","","","","","","","","","","","","","","","","","","",""
"","","","","","image-keyboard-response","222","401397","0.0-197.0","633e327052bcc8b44d6e0d2c","665500ab8938657b03fbdba8","665792e95b6c4b9ca099583a","1191","stimuli/2110010.jpg","2","","prediction_trial","2","","true","","2","true","true","true","true","true","true","[2]","110","010","1","","","","","","",""
"","","","","","image-keyboard-response","223","401917","0.0-198.0","633e327052bcc8b44d6e0d2c","665500ab8938657b03fbdba8","665792e95b6c4b9ca099583a","519","stimuli/21100102.jpg"," ","","feedback_trial","2","","","","","","","","","","","","","","","","","","","","",""
"","","","","","image-keyboard-response","224","403349","0.0-199.0","633e327052bcc8b44d6e0d2c","665500ab8938657b03fbdba8","665792e95b6c4b9ca099583a","1431","stimuli/0111101.jpg","0","","prediction_trial","1","","false","","0","false","false","false","false","false","false","[1,0,2]","111","101","0","","","","","","",""
"","","","","","image-keyboard-response","225","403965","0.0-200.0","633e327052bcc8b44d6e0d2c","665500ab8938657b03fbdba8","665792e95b6c4b9ca099583a","615","stimuli/01111011.jpg"," ","","feedback_trial","1","","","","","","","","","","","","","","","","","","","","",""
"","","","","","image-keyboard-response","226","404741","0.0-201.0","633e327052bcc8b44d6e0d2c","665500ab8938657b03fbdba8","665792e95b6c4b9ca099583a","775","stimuli/2000100.jpg","2","","prediction_trial","2","","true","","2","true","true","true","true","true","true","[2]","000","100","1","","","","","","",""
"","","","","","image-keyboard-response","227","405468","0.0-202.0","633e327052bcc8b44d6e0d2c","665500ab8938657b03fbdba8","665792e95b6c4b9ca099583a","727","stimuli/20001002.jpg"," ","","feedback_trial","2","","","","","","","","","","","","","","","","","","","","",""
"","","","","","image-keyboard-response","228","408932","0.0-203.0","633e327052bcc8b44d6e0d2c","665500ab8938657b03fbdba8","665792e95b6c4b9ca099583a","3463","stimuli/2011011.jpg","1","","prediction_trial","2","","false","","2","false","false","false","false","false","false","[1,2]","011","011","0","","","","","","",""
"","","","","","image-keyboard-response","229","409525","0.0-204.0","633e327052bcc8b44d6e0d2c","665500ab8938657b03fbdba8","665792e95b6c4b9ca099583a","592","stimuli/20110112.jpg"," ","","feedback_trial","1","","","","","","","","","","","","","","","","","","","","",""
"","","","","","image-keyboard-response","230","410581","0.0-205.0","633e327052bcc8b44d6e0d2c","665500ab8938657b03fbdba8","665792e95b6c4b9ca099583a","1055","stimuli/2101111.jpg","1","","prediction_trial","0","","false","","2","false","false","false","false","false","false","[2,0]","101","111","0","","","","","","",""
"","","","","","image-keyboard-response","231","411125","0.0-206.0","633e327052bcc8b44d6e0d2c","665500ab8938657b03fbdba8","665792e95b6c4b9ca099583a","543","stimuli/21011110.jpg"," ","","feedback_trial","2","","","","","","","","","","","","","","","","","","","","",""
"","","","","","image-keyboard-response","232","411828","0.0-207.0","633e327052bcc8b44d6e0d2c","665500ab8938657b03fbdba8","665792e95b6c4b9ca099583a","704","stimuli/2100000.jpg","2","","prediction_trial","2","","true","","2","true","true","true","true","true","true","[2]","100","000","1","","","","","","",""
"","","","","","image-keyboard-response","233","412293","0.0-208.0","633e327052bcc8b44d6e0d2c","665500ab8938657b03fbdba8","665792e95b6c4b9ca099583a","464","stimuli/21000002.jpg"," ","","feedback_trial","2","","","","","","","","","","","","","","","","","","","","",""
"","","","","","image-keyboard-response","234","412885","0.0-209.0","633e327052bcc8b44d6e0d2c","665500ab8938657b03fbdba8","665792e95b6c4b9ca099583a","591","stimuli/0001001.jpg","0","","prediction_trial","0","","true","","0","true","true","true","true","true","true","[0]","001","001","1","","","","","","",""
"","","","","","image-keyboard-response","235","413341","0.0-210.0","633e327052bcc8b44d6e0d2c","665500ab8938657b03fbdba8","665792e95b6c4b9ca099583a","456","stimuli/00010010.jpg"," ","","feedback_trial","0","","","","","","","","","","","","","","","","","","","","",""
"","","","","","image-keyboard-response","236","414108","0.0-211.0","633e327052bcc8b44d6e0d2c","665500ab8938657b03fbdba8","665792e95b6c4b9ca099583a","767","stimuli/0110111.jpg","2","","prediction_trial","1","","false","","0","false","false","false","false","false","false","[0,1]","110","111","0","","","","","","",""
"","","","","","image-keyboard-response","237","414621","0.0-212.0","633e327052bcc8b44d6e0d2c","665500ab8938657b03fbdba8","665792e95b6c4b9ca099583a","512","stimuli/01101111.jpg"," ","","feedback_trial","0","","","","","","","","","","","","","","","","","","","","",""
"","","","","","image-keyboard-response","238","415525","0.0-213.0","633e327052bcc8b44d6e0d2c","665500ab8938657b03fbdba8","665792e95b6c4b9ca099583a","904","stimuli/1010111.jpg","1","","prediction_trial","1","","true","","1","false","false","false","true","false","false","[1]","010","111","1","","","","","","",""
"","","","","","image-keyboard-response","239","416069","0.0-214.0","633e327052bcc8b44d6e0d2c","665500ab8938657b03fbdba8","665792e95b6c4b9ca099583a","544","stimuli/10101111.jpg"," ","","feedback_trial","1","","","","","","","","","","","","","","","","","","","","",""
"","","","","","image-keyboard-response","240","416805","0.0-215.0","633e327052bcc8b44d6e0d2c","665500ab8938657b03fbdba8","665792e95b6c4b9ca099583a","735","stimuli/1111100.jpg","1","","prediction_trial","1","","true","","1","true","true","false","false","false","false","[1,2,0]","111","100","1","","","","","","",""
"","","","","","image-keyboard-response","241","417332","0.0-216.0","633e327052bcc8b44d6e0d2c","665500ab8938657b03fbdba8","665792e95b6c4b9ca099583a","527","stimuli/11111001.jpg"," ","","feedback_trial","1","","","","","","","","","","","","","","","","","","","","",""
"","","","","","image-keyboard-response","242","417972","0.0-217.0","633e327052bcc8b44d6e0d2c","665500ab8938657b03fbdba8","665792e95b6c4b9ca099583a","640","stimuli/2100110.jpg","2","","prediction_trial","2","","true","","2","true","true","true","true","true","true","[2]","100","110","1","","","","","","",""
"","","","","","image-keyboard-response","243","418429","0.0-218.0","633e327052bcc8b44d6e0d2c","665500ab8938657b03fbdba8","665792e95b6c4b9ca099583a","456","stimuli/21001102.jpg"," ","","feedback_trial","2","","","","","","","","","","","","","","","","","","","","",""
"","","","","","image-keyboard-response","244","419196","0.0-219.0","633e327052bcc8b44d6e0d2c","665500ab8938657b03fbdba8","665792e95b6c4b9ca099583a","767","stimuli/2010000.jpg","2","","prediction_trial","2","","true","","2","true","true","true","true","true","true","[2]","010","000","1","","","","","","",""
"","","","","","image-keyboard-response","245","419597","0.0-220.0","633e327052bcc8b44d6e0d2c","665500ab8938657b03fbdba8","665792e95b6c4b9ca099583a","400","stimuli/20100002.jpg"," ","","feedback_trial","2","","","","","","","","","","","","","","","","","","","","",""
"","","","","","image-keyboard-response","246","421269","0.0-221.0","633e327052bcc8b44d6e0d2c","665500ab8938657b03fbdba8","665792e95b6c4b9ca099583a","1672","stimuli/2001011.jpg","1","","prediction_trial","2","","false","","2","false","false","false","true","false","false","[2]","001","011","0","","","","","","",""
"","","","","","image-keyboard-response","247","421820","0.0-222.0","633e327052bcc8b44d6e0d2c","665500ab8938657b03fbdba8","665792e95b6c4b9ca099583a","551","stimuli/20010112.jpg"," ","","feedback_trial","2","","","","","","","","","","","","","","","","","","","","",""
"","","","","","image-keyboard-response","248","423461","0.0-223.0","633e327052bcc8b44d6e0d2c","665500ab8938657b03fbdba8","665792e95b6c4b9ca099583a","1640","stimuli/2100101.jpg","2","","prediction_trial","2","","true","","2","false","false","true","true","false","false","[2]","100","101","1","","","","","","",""
"","","","","","image-keyboard-response","249","423924","0.0-224.0","633e327052bcc8b44d6e0d2c","665500ab8938657b03fbdba8","665792e95b6c4b9ca099583a","463","stimuli/21001012.jpg"," ","","feedback_trial","2","","","","","","","","","","","","","","","","","","","","",""
"","","","","","image-keyboard-response","250","424781","0.0-225.0","633e327052bcc8b44d6e0d2c","665500ab8938657b03fbdba8","665792e95b6c4b9ca099583a","856","stimuli/1011001.jpg","1","","prediction_trial","1","","true","","1","true","true","false","false","false","false","[1,2]","011","001","1","","","","","","",""
"","","","","","image-keyboard-response","251","425229","0.0-226.0","633e327052bcc8b44d6e0d2c","665500ab8938657b03fbdba8","665792e95b6c4b9ca099583a","448","stimuli/10110011.jpg"," ","","feedback_trial","1","","","","","","","","","","","","","","","","","","","","",""
"","","","","","image-keyboard-response","252","425956","0.0-227.0","633e327052bcc8b44d6e0d2c","665500ab8938657b03fbdba8","665792e95b6c4b9ca099583a","727","stimuli/0010010.jpg","0","","prediction_trial","0","","true","","0","true","true","true","true","true","true","[0]","010","010","1","","","","","","",""
"","","","","","image-keyboard-response","253","426364","0.0-228.0","633e327052bcc8b44d6e0d2c","665500ab8938657b03fbdba8","665792e95b6c4b9ca099583a","408","stimuli/00100100.jpg"," ","","feedback_trial","0","","","","","","","","","","","","","","","","","","","","",""
"","","","","","image-keyboard-response","254","427284","0.0-229.0","633e327052bcc8b44d6e0d2c","665500ab8938657b03fbdba8","665792e95b6c4b9ca099583a","920","stimuli/1010110.jpg","1","","prediction_trial","1","","true","","1","false","false","false","true","false","false","[1]","010","110","1","","","","","","",""
"","","","","","image-keyboard-response","255","427829","0.0-230.0","633e327052bcc8b44d6e0d2c","665500ab8938657b03fbdba8","665792e95b6c4b9ca099583a","544","stimuli/10101101.jpg"," ","","feedback_trial","1","","","","","","","","","","","","","","","","","","","","",""
"","","","","","image-keyboard-response","256","428548","0.0-231.0","633e327052bcc8b44d6e0d2c","665500ab8938657b03fbdba8","665792e95b6c4b9ca099583a","719","stimuli/1111111.jpg","1","","prediction_trial","1","","true","","1","false","false","false","false","false","false","[2,1,0]","111","111","1","","","","","","",""
"","","","","","image-keyboard-response","257","428973","0.0-232.0","633e327052bcc8b44d6e0d2c","665500ab8938657b03fbdba8","665792e95b6c4b9ca099583a","424","stimuli/11111111.jpg"," ","","feedback_trial","2","","","","","","","","","","","","","","","","","","","","",""
"","","","","","image-keyboard-response","258","429597","0.0-233.0","633e327052bcc8b44d6e0d2c","665500ab8938657b03fbdba8","665792e95b6c4b9ca099583a","624","stimuli/0000000.jpg","0","","prediction_trial","0","","true","","0","true","true","true","true","true","true","[0]","000","000","1","","","","","","",""
"","","","","","image-keyboard-response","259","430044","0.0-234.0","633e327052bcc8b44d6e0d2c","665500ab8938657b03fbdba8","665792e95b6c4b9ca099583a","446","stimuli/00000000.jpg"," ","","feedback_trial","0","","","","","","","","","","","","","","","","","","","","",""
"","","","","","image-keyboard-response","260","430901","0.0-235.0","633e327052bcc8b44d6e0d2c","665500ab8938657b03fbdba8","665792e95b6c4b9ca099583a","857","stimuli/1111010.jpg","1","","prediction_trial","2","","false","","1","false","true","false","false","false","false","[0,1,2]","111","010","0","","","","","","",""
"","","","","","image-keyboard-response","261","431757","0.0-236.0","633e327052bcc8b44d6e0d2c","665500ab8938657b03fbdba8","665792e95b6c4b9ca099583a","855","stimuli/11110102.jpg"," ","","feedback_trial","0","","","","","","","","","","","","","","","","","","","","",""
"","","","","","image-keyboard-response","262","433980","0.0-237.0","633e327052bcc8b44d6e0d2c","665500ab8938657b03fbdba8","665792e95b6c4b9ca099583a","2223","stimuli/2010101.jpg","0","","prediction_trial","2","","false","","2","false","false","true","true","false","false","[2]","010","101","0","","","","","","",""
"","","","","","image-keyboard-response","263","434485","0.0-238.0","633e327052bcc8b44d6e0d2c","665500ab8938657b03fbdba8","665792e95b6c4b9ca099583a","504","stimuli/20101012.jpg"," ","","feedback_trial","2","","","","","","","","","","","","","","","","","","","","",""
"","","","","","image-keyboard-response","264","435045","0.0-239.0","633e327052bcc8b44d6e0d2c","665500ab8938657b03fbdba8","665792e95b6c4b9ca099583a","560","stimuli/0010011.jpg","0","","prediction_trial","0","","true","","0","true","true","true","true","true","true","[0]","010","011","1","","","","","","",""
"","","","","","image-keyboard-response","265","435477","0.0-240.0","633e327052bcc8b44d6e0d2c","665500ab8938657b03fbdba8","665792e95b6c4b9ca099583a","431","stimuli/00100110.jpg"," ","","feedback_trial","0","","","","","","","","","","","","","","","","","","","","",""
"","","","","","image-keyboard-response","266","436213","0.0-241.0","633e327052bcc8b44d6e0d2c","665500ab8938657b03fbdba8","665792e95b6c4b9ca099583a","736","stimuli/2111110.jpg","2","","prediction_trial","2","","true","","2","true","true","false","false","false","false","[2,1,0]","111","110","1","","","","","","",""
"","","","","","image-keyboard-response","267","436589","0.0-242.0","633e327052bcc8b44d6e0d2c","665500ab8938657b03fbdba8","665792e95b6c4b9ca099583a","375","stimuli/21111102.jpg"," ","","feedback_trial","2","","","","","","","","","","","","","","","","","","","","",""
"","","","","","image-keyboard-response","268","437253","0.0-243.0","633e327052bcc8b44d6e0d2c","665500ab8938657b03fbdba8","665792e95b6c4b9ca099583a","664","stimuli/0110110.jpg","1","","prediction_trial","0","","false","","0","false","false","false","false","false","false","[0,1]","110","110","0","","","","","","",""
"","","","","","image-keyboard-response","269","437789","0.0-244.0","633e327052bcc8b44d6e0d2c","665500ab8938657b03fbdba8","665792e95b6c4b9ca099583a","535","stimuli/01101100.jpg"," ","","feedback_trial","0","","","","","","","","","","","","","","","","","","","","",""
"","","","","","image-keyboard-response","270","438477","0.0-245.0","633e327052bcc8b44d6e0d2c","665500ab8938657b03fbdba8","665792e95b6c4b9ca099583a","687","stimuli/0000010.jpg","0","","prediction_trial","0","","true","","0","true","true","true","true","true","true","[0]","000","010","1","","","","","","",""
"","","","","","image-keyboard-response","271","438909","0.0-246.0","633e327052bcc8b44d6e0d2c","665500ab8938657b03fbdba8","665792e95b6c4b9ca099583a","432","stimuli/00000100.jpg"," ","","feedback_trial","0","","","","","","","","","","","","","","","","","","","","",""
"","","","","","image-keyboard-response","272","439477","0.0-247.0","633e327052bcc8b44d6e0d2c","665500ab8938657b03fbdba8","665792e95b6c4b9ca099583a","567","stimuli/1100100.jpg","1","","prediction_trial","1","","true","","1","true","true","true","true","true","true","[1]","100","100","1","","","","","","",""
"","","","","","image-keyboard-response","273","439901","0.0-248.0","633e327052bcc8b44d6e0d2c","665500ab8938657b03fbdba8","665792e95b6c4b9ca099583a","423","stimuli/11001001.jpg"," ","","feedback_trial","1","","","","","","","","","","","","","","","","","","","","",""
"","","","","","image-keyboard-response","274","440604","0.0-249.0","633e327052bcc8b44d6e0d2c","665500ab8938657b03fbdba8","665792e95b6c4b9ca099583a","703","stimuli/1101011.jpg","1","","prediction_trial","1","","true","","1","false","false","true","true","false","false","[1]","101","011","1","","","","","","",""
"","","","","","image-keyboard-response","275","441085","0.0-250.0","633e327052bcc8b44d6e0d2c","665500ab8938657b03fbdba8","665792e95b6c4b9ca099583a","480","stimuli/11010111.jpg"," ","","feedback_trial","1","","","","","","","","","","","","","","","","","","","","",""
"","","","","","image-keyboard-response","276","441669","0.0-251.0","633e327052bcc8b44d6e0d2c","665500ab8938657b03fbdba8","665792e95b6c4b9ca099583a","583","stimuli/0101011.jpg","0","","prediction_trial","2","","false","","0","true","true","false","false","false","false","[2,0]","101","011","0","","","","","","",""
"","","","","","image-keyboard-response","277","442149","0.0-252.0","633e327052bcc8b44d6e0d2c","665500ab8938657b03fbdba8","665792e95b6c4b9ca099583a","480","stimuli/01010112.jpg"," ","","feedback_trial","2","","","","","","","","","","","","","","","","","","","","",""
"","","","","","image-keyboard-response","278","442749","0.0-253.0","633e327052bcc8b44d6e0d2c","665500ab8938657b03fbdba8","665792e95b6c4b9ca099583a","599","stimuli/2101110.jpg","2","","prediction_trial","2","","true","","2","true","true","false","false","false","false","[2,0]","101","110","1","","","","","","",""
"","","","","","image-keyboard-response","279","443220","0.0-254.0","633e327052bcc8b44d6e0d2c","665500ab8938657b03fbdba8","665792e95b6c4b9ca099583a","471","stimuli/21011102.jpg"," ","","feedback_trial","2","","","","","","","","","","","","","","","","","","","","",""
"","","","","","image-keyboard-response","280","443949","0.0-255.0","633e327052bcc8b44d6e0d2c","665500ab8938657b03fbdba8","665792e95b6c4b9ca099583a","728","stimuli/1100110.jpg","1","","prediction_trial","1","","true","","1","false","false","true","true","false","false","[1]","100","110","1","","","","","","",""
"","","","","","image-keyboard-response","281","444357","0.0-256.0","633e327052bcc8b44d6e0d2c","665500ab8938657b03fbdba8","665792e95b6c4b9ca099583a","407","stimuli/11001101.jpg"," ","","feedback_trial","1","","","","","","","","","","","","","","","","","","","","",""
"","","","","","image-keyboard-response","282","446397","0.0-257.0","633e327052bcc8b44d6e0d2c","665500ab8938657b03fbdba8","665792e95b6c4b9ca099583a","2040","stimuli/0000101.jpg","2","","prediction_trial","0","","false","","0","false","false","true","true","false","false","[0]","000","101","0","","","","","","",""
"","","","","","image-keyboard-response","283","446893","0.0-258.0","633e327052bcc8b44d6e0d2c","665500ab8938657b03fbdba8","665792e95b6c4b9ca099583a","496","stimuli/00001010.jpg"," ","","feedback_trial","0","","","","","","","","","","","","","","","","","","","","",""
"","","","","","image-keyboard-response","284","447749","0.0-259.0","633e327052bcc8b44d6e0d2c","665500ab8938657b03fbdba8","665792e95b6c4b9ca099583a","856","stimuli/1001001.jpg","1","","prediction_trial","1","","true","","1","true","true","true","true","true","true","[1]","001","001","1","","","","","","",""
"","","","","","image-keyboard-response","285","448212","0.0-260.0","633e327052bcc8b44d6e0d2c","665500ab8938657b03fbdba8","665792e95b6c4b9ca099583a","463","stimuli/10010011.jpg"," ","","feedback_trial","1","","","","","","","","","","","","","","","","","","","","",""
"","","","","","image-keyboard-response","286","449901","0.0-261.0","633e327052bcc8b44d6e0d2c","665500ab8938657b03fbdba8","665792e95b6c4b9ca099583a","1688","stimuli/0010111.jpg","1","","prediction_trial","0","","false","","0","false","false","true","true","false","false","[0]","010","111","0","","","","","","",""
"","","","","","image-keyboard-response","287","450381","0.0-262.0","633e327052bcc8b44d6e0d2c","665500ab8938657b03fbdba8","665792e95b6c4b9ca099583a","479","stimuli/00101110.jpg"," ","","feedback_trial","0","","","","","","","","","","","","","","","","","","","","",""
"","","","","","image-keyboard-response","288","452429","0.0-263.0","633e327052bcc8b44d6e0d2c","665500ab8938657b03fbdba8","665792e95b6c4b9ca099583a","2048","stimuli/1001111.jpg","1","","prediction_trial","1","","true","","1","false","false","true","true","false","false","[1]","001","111","1","","","","","","",""
"","","","","","image-keyboard-response","289","452781","0.0-264.0","633e327052bcc8b44d6e0d2c","665500ab8938657b03fbdba8","665792e95b6c4b9ca099583a","351","stimuli/10011111.jpg"," ","","feedback_trial","1","","","","","","","","","","","","","","","","","","","","",""
"","","","","","image-keyboard-response","290","453485","0.0-265.0","633e327052bcc8b44d6e0d2c","665500ab8938657b03fbdba8","665792e95b6c4b9ca099583a","704","stimuli/1101010.jpg","1","","prediction_trial","1","","true","","1","false","true","true","true","false","true","[1]","101","010","1","","","","","","",""
"","","","","","image-keyboard-response","291","453885","0.0-266.0","633e327052bcc8b44d6e0d2c","665500ab8938657b03fbdba8","665792e95b6c4b9ca099583a","400","stimuli/11010101.jpg"," ","","feedback_trial","1","","","","","","","","","","","","","","","","","","","","",""
"","","","","","image-keyboard-response","292","454757","0.0-267.0","633e327052bcc8b44d6e0d2c","665500ab8938657b03fbdba8","665792e95b6c4b9ca099583a","872","stimuli/0100000.jpg","0","","prediction_trial","0","","true","","0","true","true","false","true","false","true","[0]","100","000","1","","","","","","",""
"","","","","","image-keyboard-response","293","455133","0.0-268.0","633e327052bcc8b44d6e0d2c","665500ab8938657b03fbdba8","665792e95b6c4b9ca099583a","375","stimuli/01000000.jpg"," ","","feedback_trial","0","","","","","","","","","","","","","","","","","","","","",""
"","","","","","image-keyboard-response","294","455948","0.0-269.0","633e327052bcc8b44d6e0d2c","665500ab8938657b03fbdba8","665792e95b6c4b9ca099583a","815","stimuli/1101100.jpg","1","","prediction_trial","1","","true","","1","true","true","true","true","true","true","[1]","101","100","1","","","","","","",""
"","","","","","image-keyboard-response","295","456389","0.0-270.0","633e327052bcc8b44d6e0d2c","665500ab8938657b03fbdba8","665792e95b6c4b9ca099583a","440","stimuli/11011001.jpg"," ","","feedback_trial","1","","","","","","","","","","","","","","","","","","","","",""
"","","","","","image-keyboard-response","296","457069","0.0-271.0","633e327052bcc8b44d6e0d2c","665500ab8938657b03fbdba8","665792e95b6c4b9ca099583a","680","stimuli/1101101.jpg","1","","prediction_trial","1","","true","","1","true","true","true","true","true","true","[1]","101","101","1","","","","","","",""
"","","","","","image-keyboard-response","297","457492","0.0-272.0","633e327052bcc8b44d6e0d2c","665500ab8938657b03fbdba8","665792e95b6c4b9ca099583a","423","stimuli/11011011.jpg"," ","","feedback_trial","1","","","","","","","","","","","","","","","","","","","","",""
"","","","","","image-keyboard-response","298","458213","0.0-273.0","633e327052bcc8b44d6e0d2c","665500ab8938657b03fbdba8","665792e95b6c4b9ca099583a","720","stimuli/1010011.jpg","1","","prediction_trial","1","","true","","1","false","false","false","true","false","false","[1]","010","011","1","","","","","","",""
"","","","","","image-keyboard-response","299","458605","0.0-274.0","633e327052bcc8b44d6e0d2c","665500ab8938657b03fbdba8","665792e95b6c4b9ca099583a","392","stimuli/10100111.jpg"," ","","feedback_trial","1","","","","","","","","","","","","","","","","","","","","",""
"","","","","","image-keyboard-response","300","459341","0.0-275.0","633e327052bcc8b44d6e0d2c","665500ab8938657b03fbdba8","665792e95b6c4b9ca099583a","735","stimuli/2000001.jpg","2","","prediction_trial","2","","true","","2","false","true","true","true","false","true","[2]","000","001","1","","","","","","",""
"","","","","","image-keyboard-response","301","459708","0.0-276.0","633e327052bcc8b44d6e0d2c","665500ab8938657b03fbdba8","665792e95b6c4b9ca099583a","367","stimuli/20000012.jpg"," ","","feedback_trial","2","","","","","","","","","","","","","","","","","","","","",""
"","","","","","image-keyboard-response","302","460340","0.0-277.0","633e327052bcc8b44d6e0d2c","665500ab8938657b03fbdba8","665792e95b6c4b9ca099583a","631","stimuli/0110000.jpg","0","","prediction_trial","0","","true","","0","true","true","false","false","false","false","[1,0]","110","000","1","","","","","","",""
"","","","","","image-keyboard-response","303","460741","0.0-278.0","633e327052bcc8b44d6e0d2c","665500ab8938657b03fbdba8","665792e95b6c4b9ca099583a","400","stimuli/01100000.jpg"," ","","feedback_trial","1","","","","","","","","","","","","","","","","","","","","",""
"","","","","","image-keyboard-response","304","461437","0.0-279.0","633e327052bcc8b44d6e0d2c","665500ab8938657b03fbdba8","665792e95b6c4b9ca099583a","695","stimuli/1100111.jpg","1","","prediction_trial","1","","true","","1","false","false","true","true","false","false","[1]","100","111","1","","","","","","",""
"","","","","","image-keyboard-response","305","461821","0.0-280.0","633e327052bcc8b44d6e0d2c","665500ab8938657b03fbdba8","665792e95b6c4b9ca099583a","384","stimuli/11001111.jpg"," ","","feedback_trial","1","","","","","","","","","","","","","","","","","","","","",""
"","","","","","image-keyboard-response","306","462661","0.0-281.0","633e327052bcc8b44d6e0d2c","665500ab8938657b03fbdba8","665792e95b6c4b9ca099583a","839","stimuli/2000011.jpg","1","","prediction_trial","2","","false","","2","false","false","true","true","false","false","[2]","000","011","0","","","","","","",""
"","","","","","image-keyboard-response","307","463245","0.0-282.0","633e327052bcc8b44d6e0d2c","665500ab8938657b03fbdba8","665792e95b6c4b9ca099583a","583","stimuli/20000112.jpg"," ","","feedback_trial","2","","","","","","","","","","","","","","","","","","","","",""
"","","","","","image-keyboard-response","308","463908","0.0-283.0","633e327052bcc8b44d6e0d2c","665500ab8938657b03fbdba8","665792e95b6c4b9ca099583a","663","stimuli/2101100.jpg","2","","prediction_trial","0","","false","","2","true","true","false","false","false","false","[2,0]","101","100","0","","","","","","",""
"","","","","","image-keyboard-response","309","464260","0.0-284.0","633e327052bcc8b44d6e0d2c","665500ab8938657b03fbdba8","665792e95b6c4b9ca099583a","352","stimuli/21011000.jpg"," ","","feedback_trial","2","","","","","","","","","","","","","","","","","","","","",""
"","","","","","image-keyboard-response","310","464925","0.0-285.0","633e327052bcc8b44d6e0d2c","665500ab8938657b03fbdba8","665792e95b6c4b9ca099583a","664","stimuli/1001010.jpg","1","","prediction_trial","1","","true","","1","false","true","true","true","false","true","[1]","001","010","1","","","","","","",""
"","","","","","image-keyboard-response","311","465365","0.0-286.0","633e327052bcc8b44d6e0d2c","665500ab8938657b03fbdba8","665792e95b6c4b9ca099583a","439","stimuli/10010101.jpg"," ","","feedback_trial","1","","","","","","","","","","","","","","","","","","","","",""
"","","","","","image-keyboard-response","312","465908","0.0-287.0","633e327052bcc8b44d6e0d2c","665500ab8938657b03fbdba8","665792e95b6c4b9ca099583a","543","stimuli/1101000.jpg","1","","prediction_trial","1","","true","","1","true","true","true","true","true","true","[1]","101","000","1","","","","","","",""
"","","","","","image-keyboard-response","313","466357","0.0-288.0","633e327052bcc8b44d6e0d2c","665500ab8938657b03fbdba8","665792e95b6c4b9ca099583a","448","stimuli/11010001.jpg"," ","","feedback_trial","1","","","","","","","","","","","","","","","","","","","","",""
"","","","","","image-keyboard-response","314","466933","0.0-289.0","633e327052bcc8b44d6e0d2c","665500ab8938657b03fbdba8","665792e95b6c4b9ca099583a","575","stimuli/2000110.jpg","2","","prediction_trial","2","","true","","2","true","true","true","true","true","true","[2]","000","110","1","","","","","","",""
"","","","","","image-keyboard-response","315","467349","0.0-290.0","633e327052bcc8b44d6e0d2c","665500ab8938657b03fbdba8","665792e95b6c4b9ca099583a","415","stimuli/20001102.jpg"," ","","feedback_trial","2","","","","","","","","","","","","","","","","","","","","",""
"","","","","","image-keyboard-response","316","467949","0.0-291.0","633e327052bcc8b44d6e0d2c","665500ab8938657b03fbdba8","665792e95b6c4b9ca099583a","599","stimuli/1100001.jpg","1","","prediction_trial","1","","true","","1","true","true","true","true","true","true","[1]","100","001","1","","","","","","",""
"","","","","","image-keyboard-response","317","468324","0.0-292.0","633e327052bcc8b44d6e0d2c","665500ab8938657b03fbdba8","665792e95b6c4b9ca099583a","375","stimuli/11000011.jpg"," ","","feedback_trial","1","","","","","","","","","","","","","","","","","","","","",""
"","","","","","survey-html-form","318","488293","0.0-293.0","633e327052bcc8b44d6e0d2c","665500ab8938657b03fbdba8","665792e95b6c4b9ca099583a","19968","","{""feedback"":""Interesting, different type of study."",""age"":""54"",""gender"":""Male"",""other_gender"":"""",""race"":""White"",""other_race"":"""",""ethnicity"":""Non-Hispanic""}","","exit_survey","","","","","","","","","","","","","","","","Interesting, different type of study.","54","Non-Hispanic","Male","White","0.6319444444444444","0.6319444444444444"
