"success","timeout","failed_images","failed_audio","failed_video","trial_type","trial_index","time_elapsed","internal_node_id","prolific_id","prolific_study_id","prolific_session_id","rt","stimulus","response","view_history","trial","character_choice","stimulus_dict","accuracy","correct_response","ball_pos","ego_ball_visible","ego_can_infer","alter_ball_visible","alter_can_infer","collective_ball_visible","collective_can_infer","search_locations","alter_occluders","ego_occluders","accuracy_bool","feedback","age","ethnicity","gender","race","overall_accuracy","bonus"
"true","false","[]","[]","[]","preload","0","19254","0.0-0.0","62854bc2a3bb1ddef989b6b7","665500ab8938657b03fbdba8","665792ae6c9e170b805a4e64","","","","","","","","","","","","","","","","","","","","","","","","","","",""
"true","","","","","fullscreen","1","23057","0.0-1.0","62854bc2a3bb1ddef989b6b7","665500ab8938657b03fbdba8","665792ae6c9e170b805a4e64","","","","","","","","","","","","","","","","","","","","","","","","","","",""
"","","","","","html-button-response","2","43684","0.0-2.0","62854bc2a3bb1ddef989b6b7","665500ab8938657b03fbdba8","665792ae6c9e170b805a4e64","20624","<p><b>Consent Form</b></p> <div style=""text-align:left;background-color:lightgrey; padding:20px; max-width:900px;""><p>Please consider this information carefully before deciding whether to participate in this research.</p> <p>The purpose of this research is to examine which factors influence social judgment and decision-making. You will be asked to make judgements about individuals and actions in social scenarios. We are simply interested in your judgement. The study will take less than 1 hour to complete, and you will receive less than $20 on Prolific. Your compensation and time commitment are specified in the study description. There are no anticipated risks associated with participating in this study. The effects of participating should be comparable to those you would ordinarily experience from viewing a computer monitor and using a mouse or keyboard for a similar amount of time. At the end of the study, we will provide an explanation of the questions that motivate this line of research and will describe the potential implications. </p><p> Your participation in this study is completely voluntary and you may refuse to participate or you may choose to withdraw at any time without penalty or loss of benefits to you which are otherwise entitled. Your participation in this study will remain confidential. No personally identifiable information will be associated with your data. Also, all analyses of the data will be averaged across all the participants, so your individual responses will never be specifically analyzed. </p><p> If you have questions or concerns about your participation or payment, or want to request a summary of research findings, please contact Dr. Jonathan Phillips at Jonathan.S.Phillips@dartmouth.edu. </p><p> Please save a copy of this form for your records. </p><p><b>Agreement: </b>The nature and purpose of this research have been sufficiently explained and I agree to participate in this study. I understand that I am free to withdraw at any time without incurring any penalty. Please consent by clicking the button below to continue. Otherwise, please exit the study at any time. </p>","0","","","","","","","","","","","","","","","","","","","","","","","",""
"","","","","","instructions","3","380902","0.0-3.0-0.0","62854bc2a3bb1ddef989b6b7","665500ab8938657b03fbdba8","665792ae6c9e170b805a4e64","337216","","","[{""page_index"":0,""viewing_time"":37959},{""page_index"":1,""viewing_time"":3285},{""page_index"":2,""viewing_time"":3273},{""page_index"":3,""viewing_time"":4684},{""page_index"":4,""viewing_time"":3132},{""page_index"":5,""viewing_time"":2899},{""page_index"":6,""viewing_time"":3732},{""page_index"":7,""viewing_time"":3408},{""page_index"":8,""viewing_time"":5125},{""page_index"":9,""viewing_time"":184279},{""page_index"":10,""viewing_time"":28026},{""page_index"":11,""viewing_time"":52003},{""page_index"":12,""viewing_time"":4059},{""page_index"":13,""viewing_time"":1351}]","intro","","","","","","","","","","","","","","","","","","","","","",""
"","","","","","image-keyboard-response","4","383120","0.0-3.0-1.0","62854bc2a3bb1ddef989b6b7","665500ab8938657b03fbdba8","665792ae6c9e170b805a4e64","2212","stimuli/2100111.jpg","1","","prediction_practice","2","{""filepath"":""stimuli/2100111.jpg"",""ball_pos"":2,""ego_ball_visible"":false,""ego_can_infer"":false,""alter_ball_visible"":true,""alter_can_infer"":true,""collective_ball_visible"":false,""collective_can_infer"":false,""search_locations"":[2],""alter_occluders"":""100"",""ego_occluders"":""111""}","false","","","","","","","","","","","","","","","","","","",""
"","","","","","image-keyboard-response","5","385084","0.0-3.0-2.0","62854bc2a3bb1ddef989b6b7","665500ab8938657b03fbdba8","665792ae6c9e170b805a4e64","1959","stimuli/21001112.jpg"," ","","practrice_feedback","2","","","","","","","","","","","","","","","","","","","","",""
"","","","","","image-keyboard-response","6","386316","0.0-3.0-3.0","62854bc2a3bb1ddef989b6b7","665500ab8938657b03fbdba8","665792ae6c9e170b805a4e64","1228","stimuli/0000110.jpg","2","","prediction_practice","0","{""filepath"":""stimuli/0000110.jpg"",""ball_pos"":0,""ego_ball_visible"":false,""ego_can_infer"":false,""alter_ball_visible"":true,""alter_can_infer"":true,""collective_ball_visible"":false,""collective_can_infer"":false,""search_locations"":[0],""alter_occluders"":""000"",""ego_occluders"":""110""}","false","","","","","","","","","","","","","","","","","","",""
"","","","","","image-keyboard-response","7","387627","0.0-3.0-4.0","62854bc2a3bb1ddef989b6b7","665500ab8938657b03fbdba8","665792ae6c9e170b805a4e64","1308","stimuli/00001100.jpg"," ","","practrice_feedback","0","","","","","","","","","","","","","","","","","","","","",""
"","","","","","image-keyboard-response","8","390057","0.0-3.0-5.0","62854bc2a3bb1ddef989b6b7","665500ab8938657b03fbdba8","665792ae6c9e170b805a4e64","2426","stimuli/0100100.jpg","0","","prediction_practice","0","{""filepath"":""stimuli/0100100.jpg"",""ball_pos"":0,""ego_ball_visible"":false,""ego_can_infer"":true,""alter_ball_visible"":false,""alter_can_infer"":true,""collective_ball_visible"":false,""collective_can_infer"":true,""search_locations"":[0],""alter_occluders"":""100"",""ego_occluders"":""100""}","true","","","","","","","","","","","","","","","","","","",""
"","","","","","image-keyboard-response","9","391312","0.0-3.0-6.0","62854bc2a3bb1ddef989b6b7","665500ab8938657b03fbdba8","665792ae6c9e170b805a4e64","1252","stimuli/01001000.jpg"," ","","practrice_feedback","0","","","","","","","","","","","","","","","","","","","","",""
"","","","","","image-keyboard-response","10","393431","0.0-3.0-7.0","62854bc2a3bb1ddef989b6b7","665500ab8938657b03fbdba8","665792ae6c9e170b805a4e64","2116","stimuli/2111000.jpg","1","","prediction_practice","2","{""filepath"":""stimuli/2111000.jpg"",""ball_pos"":2,""ego_ball_visible"":true,""ego_can_infer"":true,""alter_ball_visible"":false,""alter_can_infer"":false,""collective_ball_visible"":false,""collective_can_infer"":false,""search_locations"":[2,1,0],""alter_occluders"":""111"",""ego_occluders"":""000""}","false","","","","","","","","","","","","","","","","","","",""
"","","","","","image-keyboard-response","11","394760","0.0-3.0-8.0","62854bc2a3bb1ddef989b6b7","665500ab8938657b03fbdba8","665792ae6c9e170b805a4e64","1327","stimuli/21110002.jpg"," ","","practrice_feedback","2","","","","","","","","","","","","","","","","","","","","",""
"","","","","","image-keyboard-response","12","396161","0.0-3.0-9.0","62854bc2a3bb1ddef989b6b7","665500ab8938657b03fbdba8","665792ae6c9e170b805a4e64","1400","stimuli/0010001.jpg","0","","prediction_practice","0","{""filepath"":""stimuli/0010001.jpg"",""ball_pos"":0,""ego_ball_visible"":true,""ego_can_infer"":true,""alter_ball_visible"":true,""alter_can_infer"":true,""collective_ball_visible"":true,""collective_can_infer"":true,""search_locations"":[0],""alter_occluders"":""010"",""ego_occluders"":""001""}","true","","","","","","","","","","","","","","","","","","",""
"","","","","","image-keyboard-response","13","397004","0.0-3.0-10.0","62854bc2a3bb1ddef989b6b7","665500ab8938657b03fbdba8","665792ae6c9e170b805a4e64","841","stimuli/00100010.jpg"," ","","practrice_feedback","0","","","","","","","","","","","","","","","","","","","","",""
"","","","","","image-keyboard-response","14","397909","0.0-3.0-11.0","62854bc2a3bb1ddef989b6b7","665500ab8938657b03fbdba8","665792ae6c9e170b805a4e64","904","stimuli/1100000.jpg","1","","prediction_practice","1","{""filepath"":""stimuli/1100000.jpg"",""ball_pos"":1,""ego_ball_visible"":true,""ego_can_infer"":true,""alter_ball_visible"":true,""alter_can_infer"":true,""collective_ball_visible"":true,""collective_can_infer"":true,""search_locations"":[1],""alter_occluders"":""100"",""ego_occluders"":""000""}","true","","","","","","","","","","","","","","","","","","",""
"","","","","","image-keyboard-response","15","398470","0.0-3.0-12.0","62854bc2a3bb1ddef989b6b7","665500ab8938657b03fbdba8","665792ae6c9e170b805a4e64","559","stimuli/11000001.jpg"," ","","practrice_feedback","1","","","","","","","","","","","","","","","","","","","","",""
"","","","","","image-keyboard-response","16","400996","0.0-3.0-13.0","62854bc2a3bb1ddef989b6b7","665500ab8938657b03fbdba8","665792ae6c9e170b805a4e64","2523","stimuli/1010101.jpg","2","","prediction_practice","1","{""filepath"":""stimuli/1010101.jpg"",""ball_pos"":1,""ego_ball_visible"":true,""ego_can_infer"":true,""alter_ball_visible"":false,""alter_can_infer"":true,""collective_ball_visible"":false,""collective_can_infer"":true,""search_locations"":[1],""alter_occluders"":""010"",""ego_occluders"":""101""}","false","","","","","","","","","","","","","","","","","","",""
"","","","","","image-keyboard-response","17","401889","0.0-3.0-14.0","62854bc2a3bb1ddef989b6b7","665500ab8938657b03fbdba8","665792ae6c9e170b805a4e64","890","stimuli/10101011.jpg"," ","","practrice_feedback","1","","","","","","","","","","","","","","","","","","","","",""
"","","","","","image-keyboard-response","18","403210","0.0-3.0-15.0","62854bc2a3bb1ddef989b6b7","665500ab8938657b03fbdba8","665792ae6c9e170b805a4e64","1319","stimuli/2110111.jpg","1","","prediction_practice","2","{""filepath"":""stimuli/2110111.jpg"",""ball_pos"":2,""ego_ball_visible"":false,""ego_can_infer"":false,""alter_ball_visible"":true,""alter_can_infer"":true,""collective_ball_visible"":false,""collective_can_infer"":false,""search_locations"":[2],""alter_occluders"":""110"",""ego_occluders"":""111""}","false","","","","","","","","","","","","","","","","","","",""
"","","","","","image-keyboard-response","19","404924","0.0-3.0-16.0","62854bc2a3bb1ddef989b6b7","665500ab8938657b03fbdba8","665792ae6c9e170b805a4e64","1711","stimuli/21101112.jpg"," ","","practrice_feedback","2","","","","","","","","","","","","","","","","","","","","",""
"","","","","","image-keyboard-response","20","405881","0.0-3.0-17.0","62854bc2a3bb1ddef989b6b7","665500ab8938657b03fbdba8","665792ae6c9e170b805a4e64","955","stimuli/2001010.jpg","2","","prediction_practice","2","{""filepath"":""stimuli/2001010.jpg"",""ball_pos"":2,""ego_ball_visible"":true,""ego_can_infer"":true,""alter_ball_visible"":false,""alter_can_infer"":true,""collective_ball_visible"":false,""collective_can_infer"":true,""search_locations"":[2],""alter_occluders"":""001"",""ego_occluders"":""010""}","true","","","","","","","","","","","","","","","","","","",""
"","","","","","image-keyboard-response","21","411696","0.0-3.0-18.0","62854bc2a3bb1ddef989b6b7","665500ab8938657b03fbdba8","665792ae6c9e170b805a4e64","5812","stimuli/20010102.jpg"," ","","practrice_feedback","2","","","","","","","","","","","","","","","","","","","","",""
"","","","","","image-keyboard-response","22","412873","0.0-3.0-19.0","62854bc2a3bb1ddef989b6b7","665500ab8938657b03fbdba8","665792ae6c9e170b805a4e64","1174","stimuli/0110100.jpg","0","","prediction_practice","0","{""filepath"":""stimuli/0110100.jpg"",""ball_pos"":0,""ego_ball_visible"":false,""ego_can_infer"":true,""alter_ball_visible"":false,""alter_can_infer"":false,""collective_ball_visible"":false,""collective_can_infer"":false,""search_locations"":[0,1],""alter_occluders"":""110"",""ego_occluders"":""100""}","true","","","","","","","","","","","","","","","","","","",""
"","","","","","image-keyboard-response","23","413608","0.0-3.0-20.0","62854bc2a3bb1ddef989b6b7","665500ab8938657b03fbdba8","665792ae6c9e170b805a4e64","732","stimuli/01101000.jpg"," ","","practrice_feedback","0","","","","","","","","","","","","","","","","","","","","",""
"","","","","","html-button-response","24","418212","0.0-3.0-21.0","62854bc2a3bb1ddef989b6b7","665500ab8938657b03fbdba8","665792ae6c9e170b805a4e64","4602","Now that you've had some practice, you'll be tested with a couple of easy trials. If you correctly predict Sam's choice, you'll move on to complete the experiment!","0","","","","","","","","","","","","","","","","","","","","","","","",""
"","","","","","image-keyboard-response","25","420602","0.0-3.0-22.0-0.0","62854bc2a3bb1ddef989b6b7","665500ab8938657b03fbdba8","665792ae6c9e170b805a4e64","2388","stimuli/0000011.jpg","arrowleft","","comprehension_quiz","","","true","arrowleft","","","","","","","","","","","","","","","","","",""
"","","","","","image-keyboard-response","26","421492","0.0-3.0-22.0-1.0","62854bc2a3bb1ddef989b6b7","665500ab8938657b03fbdba8","665792ae6c9e170b805a4e64","888","stimuli/00000110.jpg"," ","","comprehension_quiz","","","true"," ","","","","","","","","","","","","","","","","","",""
"","","","","","image-keyboard-response","27","423631","0.0-3.0-22.0-2.0","62854bc2a3bb1ddef989b6b7","665500ab8938657b03fbdba8","665792ae6c9e170b805a4e64","2136","stimuli/1010010.jpg","arrowdown","","comprehension_quiz","","","true","arrowdown","","","","","","","","","","","","","","","","","",""
"","","","","","image-keyboard-response","28","424027","0.0-3.0-22.0-3.0","62854bc2a3bb1ddef989b6b7","665500ab8938657b03fbdba8","665792ae6c9e170b805a4e64","394","stimuli/10100101.jpg"," ","","comprehension_quiz","","","true"," ","","","","","","","","","","","","","","","","","",""
"","","","","","html-button-response","29","425935","0.0-4.0","62854bc2a3bb1ddef989b6b7","665500ab8938657b03fbdba8","665792ae6c9e170b805a4e64","1902","The experiment will now begin.","0","","","","","","","","","","","","","","","","","","","","","","","",""
"","","","","","image-keyboard-response","30","430458","0.0-5.0","62854bc2a3bb1ddef989b6b7","665500ab8938657b03fbdba8","665792ae6c9e170b805a4e64","4520","stimuli/0100010.jpg","0","","prediction_trial","0","","true","","0","true","true","false","true","false","true","[0]","100","010","1","","","","","","",""
"","","","","","image-keyboard-response","31","431137","0.0-6.0","62854bc2a3bb1ddef989b6b7","665500ab8938657b03fbdba8","665792ae6c9e170b805a4e64","675","stimuli/01000100.jpg"," ","","feedback_trial","0","","","","","","","","","","","","","","","","","","","","",""
"","","","","","image-keyboard-response","32","433363","0.0-7.0","62854bc2a3bb1ddef989b6b7","665500ab8938657b03fbdba8","665792ae6c9e170b805a4e64","2223","stimuli/0010111.jpg","1","","prediction_trial","0","","false","","0","false","false","true","true","false","false","[0]","010","111","0","","","","","","",""
"","","","","","image-keyboard-response","33","435620","0.0-8.0","62854bc2a3bb1ddef989b6b7","665500ab8938657b03fbdba8","665792ae6c9e170b805a4e64","2253","stimuli/00101110.jpg"," ","","feedback_trial","0","","","","","","","","","","","","","","","","","","","","",""
"","","","","","image-keyboard-response","34","436533","0.0-9.0","62854bc2a3bb1ddef989b6b7","665500ab8938657b03fbdba8","665792ae6c9e170b805a4e64","910","stimuli/1001100.jpg","1","","prediction_trial","1","","true","","1","true","true","true","true","true","true","[1]","001","100","1","","","","","","",""
"","","","","","image-keyboard-response","35","436855","0.0-10.0","62854bc2a3bb1ddef989b6b7","665500ab8938657b03fbdba8","665792ae6c9e170b805a4e64","319","stimuli/10011001.jpg"," ","","feedback_trial","1","","","","","","","","","","","","","","","","","","","","",""
"","","","","","image-keyboard-response","36","437922","0.0-11.0","62854bc2a3bb1ddef989b6b7","665500ab8938657b03fbdba8","665792ae6c9e170b805a4e64","1064","stimuli/0000100.jpg","0","","prediction_trial","0","","true","","0","false","true","true","true","false","true","[0]","000","100","1","","","","","","",""
"","","","","","image-keyboard-response","37","438373","0.0-12.0","62854bc2a3bb1ddef989b6b7","665500ab8938657b03fbdba8","665792ae6c9e170b805a4e64","448","stimuli/00001000.jpg"," ","","feedback_trial","0","","","","","","","","","","","","","","","","","","","","",""
"","","","","","image-keyboard-response","38","440035","0.0-13.0","62854bc2a3bb1ddef989b6b7","665500ab8938657b03fbdba8","665792ae6c9e170b805a4e64","1643","stimuli/2111000.jpg","1","","prediction_trial","2","","false","","2","true","true","false","false","false","false","[2,1,0]","111","000","0","","","","","","",""
"","","","","","image-keyboard-response","39","440820","0.0-14.0","62854bc2a3bb1ddef989b6b7","665500ab8938657b03fbdba8","665792ae6c9e170b805a4e64","781","stimuli/21110002.jpg"," ","","feedback_trial","2","","","","","","","","","","","","","","","","","","","","",""
"","","","","","image-keyboard-response","40","444635","0.0-15.0","62854bc2a3bb1ddef989b6b7","665500ab8938657b03fbdba8","665792ae6c9e170b805a4e64","3813","stimuli/0001111.jpg","2","","prediction_trial","0","","false","","0","false","false","true","true","false","false","[0]","001","111","0","","","","","","",""
"","","","","","image-keyboard-response","41","445313","0.0-16.0","62854bc2a3bb1ddef989b6b7","665500ab8938657b03fbdba8","665792ae6c9e170b805a4e64","676","stimuli/00011110.jpg"," ","","feedback_trial","0","","","","","","","","","","","","","","","","","","","","",""
"","","","","","image-keyboard-response","42","447319","0.0-17.0","62854bc2a3bb1ddef989b6b7","665500ab8938657b03fbdba8","665792ae6c9e170b805a4e64","2003","stimuli/1010001.jpg","1","","prediction_trial","1","","true","","1","true","true","false","true","false","true","[1]","010","001","1","","","","","","",""
"","","","","","image-keyboard-response","43","447964","0.0-18.0","62854bc2a3bb1ddef989b6b7","665500ab8938657b03fbdba8","665792ae6c9e170b805a4e64","642","stimuli/10100011.jpg"," ","","feedback_trial","1","","","","","","","","","","","","","","","","","","","","",""
"","","","","","image-keyboard-response","44","450156","0.0-19.0","62854bc2a3bb1ddef989b6b7","665500ab8938657b03fbdba8","665792ae6c9e170b805a4e64","2189","stimuli/1010110.jpg","1","","prediction_trial","1","","true","","1","false","false","false","true","false","false","[1]","010","110","1","","","","","","",""
"","","","","","image-keyboard-response","45","450707","0.0-20.0","62854bc2a3bb1ddef989b6b7","665500ab8938657b03fbdba8","665792ae6c9e170b805a4e64","548","stimuli/10101101.jpg"," ","","feedback_trial","1","","","","","","","","","","","","","","","","","","","","",""
"","","","","","image-keyboard-response","46","451728","0.0-21.0","62854bc2a3bb1ddef989b6b7","665500ab8938657b03fbdba8","665792ae6c9e170b805a4e64","1018","stimuli/0000011.jpg","0","","prediction_trial","0","","true","","0","true","true","true","true","true","true","[0]","000","011","1","","","","","","",""
"","","","","","image-keyboard-response","47","452127","0.0-22.0","62854bc2a3bb1ddef989b6b7","665500ab8938657b03fbdba8","665792ae6c9e170b805a4e64","397","stimuli/00000110.jpg"," ","","feedback_trial","0","","","","","","","","","","","","","","","","","","","","",""
"","","","","","image-keyboard-response","48","455762","0.0-23.0","62854bc2a3bb1ddef989b6b7","665500ab8938657b03fbdba8","665792ae6c9e170b805a4e64","3632","stimuli/2111011.jpg","1","","prediction_trial","0","","false","","2","false","false","false","false","false","false","[1,0,2]","111","011","0","","","","","","",""
"","","","","","image-keyboard-response","49","456364","0.0-24.0","62854bc2a3bb1ddef989b6b7","665500ab8938657b03fbdba8","665792ae6c9e170b805a4e64","601","stimuli/21110110.jpg"," ","","feedback_trial","1","","","","","","","","","","","","","","","","","","","","",""
"","","","","","image-keyboard-response","50","457677","0.0-25.0","62854bc2a3bb1ddef989b6b7","665500ab8938657b03fbdba8","665792ae6c9e170b805a4e64","1310","stimuli/0010011.jpg","0","","prediction_trial","0","","true","","0","true","true","true","true","true","true","[0]","010","011","1","","","","","","",""
"","","","","","image-keyboard-response","51","458093","0.0-26.0","62854bc2a3bb1ddef989b6b7","665500ab8938657b03fbdba8","665792ae6c9e170b805a4e64","415","stimuli/00100110.jpg"," ","","feedback_trial","0","","","","","","","","","","","","","","","","","","","","",""
"","","","","","image-keyboard-response","52","459691","0.0-27.0","62854bc2a3bb1ddef989b6b7","665500ab8938657b03fbdba8","665792ae6c9e170b805a4e64","1596","stimuli/0111110.jpg","1","","prediction_trial","2","","false","","0","false","false","false","false","false","false","[2,1,0]","111","110","0","","","","","","",""
"","","","","","image-keyboard-response","53","460266","0.0-28.0","62854bc2a3bb1ddef989b6b7","665500ab8938657b03fbdba8","665792ae6c9e170b805a4e64","572","stimuli/01111102.jpg"," ","","feedback_trial","2","","","","","","","","","","","","","","","","","","","","",""
"","","","","","image-keyboard-response","54","461864","0.0-29.0","62854bc2a3bb1ddef989b6b7","665500ab8938657b03fbdba8","665792ae6c9e170b805a4e64","1596","stimuli/1000111.jpg","1","","prediction_trial","1","","true","","1","false","false","true","true","false","false","[1]","000","111","1","","","","","","",""
"","","","","","image-keyboard-response","55","462302","0.0-30.0","62854bc2a3bb1ddef989b6b7","665500ab8938657b03fbdba8","665792ae6c9e170b805a4e64","437","stimuli/10001111.jpg"," ","","feedback_trial","1","","","","","","","","","","","","","","","","","","","","",""
"","","","","","image-keyboard-response","56","463491","0.0-31.0","62854bc2a3bb1ddef989b6b7","665500ab8938657b03fbdba8","665792ae6c9e170b805a4e64","1186","stimuli/2000000.jpg","2","","prediction_trial","2","","true","","2","true","true","true","true","true","true","[2]","000","000","1","","","","","","",""
"","","","","","image-keyboard-response","57","464002","0.0-32.0","62854bc2a3bb1ddef989b6b7","665500ab8938657b03fbdba8","665792ae6c9e170b805a4e64","508","stimuli/20000002.jpg"," ","","feedback_trial","2","","","","","","","","","","","","","","","","","","","","",""
"","","","","","image-keyboard-response","58","465752","0.0-33.0","62854bc2a3bb1ddef989b6b7","665500ab8938657b03fbdba8","665792ae6c9e170b805a4e64","1749","stimuli/2001100.jpg","2","","prediction_trial","2","","true","","2","true","true","false","true","false","true","[2]","001","100","1","","","","","","",""
"","","","","","image-keyboard-response","59","466370","0.0-34.0","62854bc2a3bb1ddef989b6b7","665500ab8938657b03fbdba8","665792ae6c9e170b805a4e64","617","stimuli/20011002.jpg"," ","","feedback_trial","2","","","","","","","","","","","","","","","","","","","","",""
"","","","","","image-keyboard-response","60","469943","0.0-35.0","62854bc2a3bb1ddef989b6b7","665500ab8938657b03fbdba8","665792ae6c9e170b805a4e64","3571","stimuli/0000101.jpg","2","","prediction_trial","0","","false","","0","false","false","true","true","false","false","[0]","000","101","0","","","","","","",""
"","","","","","image-keyboard-response","61","470512","0.0-36.0","62854bc2a3bb1ddef989b6b7","665500ab8938657b03fbdba8","665792ae6c9e170b805a4e64","568","stimuli/00001010.jpg"," ","","feedback_trial","0","","","","","","","","","","","","","","","","","","","","",""
"","","","","","image-keyboard-response","62","471392","0.0-37.0","62854bc2a3bb1ddef989b6b7","665500ab8938657b03fbdba8","665792ae6c9e170b805a4e64","878","stimuli/0011000.jpg","0","","prediction_trial","0","","true","","0","true","true","true","true","true","true","[0]","011","000","1","","","","","","",""
"","","","","","image-keyboard-response","63","471866","0.0-38.0","62854bc2a3bb1ddef989b6b7","665500ab8938657b03fbdba8","665792ae6c9e170b805a4e64","471","stimuli/00110000.jpg"," ","","feedback_trial","0","","","","","","","","","","","","","","","","","","","","",""
"","","","","","image-keyboard-response","64","472662","0.0-39.0","62854bc2a3bb1ddef989b6b7","665500ab8938657b03fbdba8","665792ae6c9e170b805a4e64","793","stimuli/1101000.jpg","1","","prediction_trial","1","","true","","1","true","true","true","true","true","true","[1]","101","000","1","","","","","","",""
"","","","","","image-keyboard-response","65","473218","0.0-40.0","62854bc2a3bb1ddef989b6b7","665500ab8938657b03fbdba8","665792ae6c9e170b805a4e64","555","stimuli/11010001.jpg"," ","","feedback_trial","1","","","","","","","","","","","","","","","","","","","","",""
"","","","","","image-keyboard-response","66","476021","0.0-41.0","62854bc2a3bb1ddef989b6b7","665500ab8938657b03fbdba8","665792ae6c9e170b805a4e64","2801","stimuli/2101110.jpg","2","","prediction_trial","0","","false","","2","true","true","false","false","false","false","[0,2]","101","110","0","","","","","","",""
"","","","","","image-keyboard-response","67","476443","0.0-42.0","62854bc2a3bb1ddef989b6b7","665500ab8938657b03fbdba8","665792ae6c9e170b805a4e64","420","stimuli/21011100.jpg"," ","","feedback_trial","0","","","","","","","","","","","","","","","","","","","","",""
"","","","","","image-keyboard-response","68","477512","0.0-43.0","62854bc2a3bb1ddef989b6b7","665500ab8938657b03fbdba8","665792ae6c9e170b805a4e64","1066","stimuli/2010110.jpg","2","","prediction_trial","2","","true","","2","true","true","true","true","true","true","[2]","010","110","1","","","","","","",""
"","","","","","image-keyboard-response","69","477880","0.0-44.0","62854bc2a3bb1ddef989b6b7","665500ab8938657b03fbdba8","665792ae6c9e170b805a4e64","365","stimuli/20101102.jpg"," ","","feedback_trial","2","","","","","","","","","","","","","","","","","","","","",""
"","","","","","image-keyboard-response","70","478713","0.0-45.0","62854bc2a3bb1ddef989b6b7","665500ab8938657b03fbdba8","665792ae6c9e170b805a4e64","829","stimuli/2001111.jpg","2","","prediction_trial","2","","true","","2","false","false","false","true","false","false","[2]","001","111","1","","","","","","",""
"","","","","","image-keyboard-response","71","479140","0.0-46.0","62854bc2a3bb1ddef989b6b7","665500ab8938657b03fbdba8","665792ae6c9e170b805a4e64","424","stimuli/20011112.jpg"," ","","feedback_trial","2","","","","","","","","","","","","","","","","","","","","",""
"","","","","","image-keyboard-response","72","480164","0.0-47.0","62854bc2a3bb1ddef989b6b7","665500ab8938657b03fbdba8","665792ae6c9e170b805a4e64","1021","stimuli/1100011.jpg","2","","prediction_trial","1","","false","","1","false","false","true","true","false","false","[1]","100","011","0","","","","","","",""
"","","","","","image-keyboard-response","73","483187","0.0-48.0","62854bc2a3bb1ddef989b6b7","665500ab8938657b03fbdba8","665792ae6c9e170b805a4e64","3020","stimuli/11000111.jpg"," ","","feedback_trial","1","","","","","","","","","","","","","","","","","","","","",""
"","","","","","image-keyboard-response","74","483924","0.0-49.0","62854bc2a3bb1ddef989b6b7","665500ab8938657b03fbdba8","665792ae6c9e170b805a4e64","734","stimuli/1101101.jpg","1","","prediction_trial","1","","true","","1","true","true","true","true","true","true","[1]","101","101","1","","","","","","",""
"","","","","","image-keyboard-response","75","484310","0.0-50.0","62854bc2a3bb1ddef989b6b7","665500ab8938657b03fbdba8","665792ae6c9e170b805a4e64","383","stimuli/11011011.jpg"," ","","feedback_trial","1","","","","","","","","","","","","","","","","","","","","",""
"","","","","","image-keyboard-response","76","486358","0.0-51.0","62854bc2a3bb1ddef989b6b7","665500ab8938657b03fbdba8","665792ae6c9e170b805a4e64","2046","stimuli/0101101.jpg","2","","prediction_trial","0","","false","","0","false","false","false","false","false","false","[2,0]","101","101","0","","","","","","",""
"","","","","","image-keyboard-response","77","486831","0.0-52.0","62854bc2a3bb1ddef989b6b7","665500ab8938657b03fbdba8","665792ae6c9e170b805a4e64","470","stimuli/01011010.jpg"," ","","feedback_trial","2","","","","","","","","","","","","","","","","","","","","",""
"","","","","","image-keyboard-response","78","487563","0.0-53.0","62854bc2a3bb1ddef989b6b7","665500ab8938657b03fbdba8","665792ae6c9e170b805a4e64","729","stimuli/2110000.jpg","2","","prediction_trial","2","","true","","2","true","true","true","true","true","true","[2]","110","000","1","","","","","","",""
"","","","","","image-keyboard-response","79","487982","0.0-54.0","62854bc2a3bb1ddef989b6b7","665500ab8938657b03fbdba8","665792ae6c9e170b805a4e64","416","stimuli/21100002.jpg"," ","","feedback_trial","2","","","","","","","","","","","","","","","","","","","","",""
"","","","","","image-keyboard-response","80","488614","0.0-55.0","62854bc2a3bb1ddef989b6b7","665500ab8938657b03fbdba8","665792ae6c9e170b805a4e64","629","stimuli/0000010.jpg","0","","prediction_trial","0","","true","","0","true","true","true","true","true","true","[0]","000","010","1","","","","","","",""
"","","","","","image-keyboard-response","81","489025","0.0-56.0","62854bc2a3bb1ddef989b6b7","665500ab8938657b03fbdba8","665792ae6c9e170b805a4e64","408","stimuli/00000100.jpg"," ","","feedback_trial","0","","","","","","","","","","","","","","","","","","","","",""
"","","","","","image-keyboard-response","82","490351","0.0-57.0","62854bc2a3bb1ddef989b6b7","665500ab8938657b03fbdba8","665792ae6c9e170b805a4e64","1307","stimuli/0111000.jpg","1","","prediction_trial","2","","false","","0","true","true","false","false","false","false","[0,2,1]","111","000","0","","","","","","",""
"","","","","","image-keyboard-response","83","490864","0.0-58.0","62854bc2a3bb1ddef989b6b7","665500ab8938657b03fbdba8","665792ae6c9e170b805a4e64","509","stimuli/01110002.jpg"," ","","feedback_trial","0","","","","","","","","","","","","","","","","","","","","",""
"","","","","","image-keyboard-response","84","492552","0.0-59.0","62854bc2a3bb1ddef989b6b7","665500ab8938657b03fbdba8","665792ae6c9e170b805a4e64","1686","stimuli/0001100.jpg","0","","prediction_trial","0","","true","","0","false","true","true","true","false","true","[0]","001","100","1","","","","","","",""
"","","","","","image-keyboard-response","85","493234","0.0-60.0","62854bc2a3bb1ddef989b6b7","665500ab8938657b03fbdba8","665792ae6c9e170b805a4e64","678","stimuli/00011000.jpg"," ","","feedback_trial","0","","","","","","","","","","","","","","","","","","","","",""
"","","","","","image-keyboard-response","86","494046","0.0-61.0","62854bc2a3bb1ddef989b6b7","665500ab8938657b03fbdba8","665792ae6c9e170b805a4e64","809","stimuli/0001001.jpg","0","","prediction_trial","0","","true","","0","true","true","true","true","true","true","[0]","001","001","1","","","","","","",""
"","","","","","image-keyboard-response","87","494447","0.0-62.0","62854bc2a3bb1ddef989b6b7","665500ab8938657b03fbdba8","665792ae6c9e170b805a4e64","397","stimuli/00010010.jpg"," ","","feedback_trial","0","","","","","","","","","","","","","","","","","","","","",""
"","","","","","image-keyboard-response","88","495150","0.0-63.0","62854bc2a3bb1ddef989b6b7","665500ab8938657b03fbdba8","665792ae6c9e170b805a4e64","701","stimuli/1001000.jpg","1","","prediction_trial","1","","true","","1","true","true","true","true","true","true","[1]","001","000","1","","","","","","",""
"","","","","","image-keyboard-response","89","495571","0.0-64.0","62854bc2a3bb1ddef989b6b7","665500ab8938657b03fbdba8","665792ae6c9e170b805a4e64","418","stimuli/10010001.jpg"," ","","feedback_trial","1","","","","","","","","","","","","","","","","","","","","",""
"","","","","","image-keyboard-response","90","496755","0.0-65.0","62854bc2a3bb1ddef989b6b7","665500ab8938657b03fbdba8","665792ae6c9e170b805a4e64","1181","stimuli/1010000.jpg","1","","prediction_trial","1","","true","","1","true","true","false","true","false","true","[1]","010","000","1","","","","","","",""
"","","","","","image-keyboard-response","91","497165","0.0-66.0","62854bc2a3bb1ddef989b6b7","665500ab8938657b03fbdba8","665792ae6c9e170b805a4e64","407","stimuli/10100001.jpg"," ","","feedback_trial","1","","","","","","","","","","","","","","","","","","","","",""
"","","","","","image-keyboard-response","92","497808","0.0-67.0","62854bc2a3bb1ddef989b6b7","665500ab8938657b03fbdba8","665792ae6c9e170b805a4e64","641","stimuli/1001101.jpg","1","","prediction_trial","1","","true","","1","true","true","true","true","true","true","[1]","001","101","1","","","","","","",""
"","","","","","image-keyboard-response","93","498158","0.0-68.0","62854bc2a3bb1ddef989b6b7","665500ab8938657b03fbdba8","665792ae6c9e170b805a4e64","346","stimuli/10011011.jpg"," ","","feedback_trial","1","","","","","","","","","","","","","","","","","","","","",""
"","","","","","image-keyboard-response","94","501145","0.0-69.0","62854bc2a3bb1ddef989b6b7","665500ab8938657b03fbdba8","665792ae6c9e170b805a4e64","2984","stimuli/0110010.jpg","0","","prediction_trial","1","","false","","0","true","true","false","false","false","false","[0,1]","110","010","0","","","","","","",""
"","","","","","image-keyboard-response","95","501629","0.0-70.0","62854bc2a3bb1ddef989b6b7","665500ab8938657b03fbdba8","665792ae6c9e170b805a4e64","482","stimuli/01100101.jpg"," ","","feedback_trial","0","","","","","","","","","","","","","","","","","","","","",""
"","","","","","image-keyboard-response","96","503404","0.0-71.0","62854bc2a3bb1ddef989b6b7","665500ab8938657b03fbdba8","665792ae6c9e170b805a4e64","1772","stimuli/1111001.jpg","2","","prediction_trial","1","","false","","1","true","true","false","false","false","false","[0,2,1]","111","001","0","","","","","","",""
"","","","","","image-keyboard-response","97","503897","0.0-72.0","62854bc2a3bb1ddef989b6b7","665500ab8938657b03fbdba8","665792ae6c9e170b805a4e64","490","stimuli/11110011.jpg"," ","","feedback_trial","0","","","","","","","","","","","","","","","","","","","","",""
"","","","","","image-keyboard-response","98","506030","0.0-73.0","62854bc2a3bb1ddef989b6b7","665500ab8938657b03fbdba8","665792ae6c9e170b805a4e64","2129","stimuli/2010001.jpg","2","","prediction_trial","2","","true","","2","false","true","true","true","false","true","[2]","010","001","1","","","","","","",""
"","","","","","image-keyboard-response","99","506781","0.0-74.0","62854bc2a3bb1ddef989b6b7","665500ab8938657b03fbdba8","665792ae6c9e170b805a4e64","748","stimuli/20100012.jpg"," ","","feedback_trial","2","","","","","","","","","","","","","","","","","","","","",""
"","","","","","image-keyboard-response","100","508349","0.0-75.0","62854bc2a3bb1ddef989b6b7","665500ab8938657b03fbdba8","665792ae6c9e170b805a4e64","1567","stimuli/2011111.jpg","0","","prediction_trial","1","","false","","2","false","false","false","false","false","false","[1,2]","011","111","0","","","","","","",""
"","","","","","image-keyboard-response","101","508819","0.0-76.0","62854bc2a3bb1ddef989b6b7","665500ab8938657b03fbdba8","665792ae6c9e170b805a4e64","467","stimuli/20111111.jpg"," ","","feedback_trial","1","","","","","","","","","","","","","","","","","","","","",""
"","","","","","image-keyboard-response","102","510464","0.0-77.0","62854bc2a3bb1ddef989b6b7","665500ab8938657b03fbdba8","665792ae6c9e170b805a4e64","1642","stimuli/2100001.jpg","2","","prediction_trial","2","","true","","2","false","true","true","true","false","true","[2]","100","001","1","","","","","","",""
"","","","","","image-keyboard-response","103","510995","0.0-78.0","62854bc2a3bb1ddef989b6b7","665500ab8938657b03fbdba8","665792ae6c9e170b805a4e64","529","stimuli/21000012.jpg"," ","","feedback_trial","2","","","","","","","","","","","","","","","","","","","","",""
"","","","","","image-keyboard-response","104","512145","0.0-79.0","62854bc2a3bb1ddef989b6b7","665500ab8938657b03fbdba8","665792ae6c9e170b805a4e64","1148","stimuli/1001010.jpg","1","","prediction_trial","1","","true","","1","false","true","true","true","false","true","[1]","001","010","1","","","","","","",""
"","","","","","image-keyboard-response","105","512554","0.0-80.0","62854bc2a3bb1ddef989b6b7","665500ab8938657b03fbdba8","665792ae6c9e170b805a4e64","408","stimuli/10010101.jpg"," ","","feedback_trial","1","","","","","","","","","","","","","","","","","","","","",""
"","","","","","image-keyboard-response","106","515081","0.0-81.0","62854bc2a3bb1ddef989b6b7","665500ab8938657b03fbdba8","665792ae6c9e170b805a4e64","2525","stimuli/2011001.jpg","1","","prediction_trial","1","","true","","2","false","true","false","false","false","false","[2,1]","011","001","1","","","","","","",""
"","","","","","image-keyboard-response","107","515953","0.0-82.0","62854bc2a3bb1ddef989b6b7","665500ab8938657b03fbdba8","665792ae6c9e170b805a4e64","871","stimuli/20110011.jpg"," ","","feedback_trial","2","","","","","","","","","","","","","","","","","","","","",""
"","","","","","image-keyboard-response","108","517967","0.0-83.0","62854bc2a3bb1ddef989b6b7","665500ab8938657b03fbdba8","665792ae6c9e170b805a4e64","2013","stimuli/2111010.jpg","1","","prediction_trial","2","","false","","2","true","true","false","false","false","false","[0,1,2]","111","010","0","","","","","","",""
"","","","","","image-keyboard-response","109","518448","0.0-84.0","62854bc2a3bb1ddef989b6b7","665500ab8938657b03fbdba8","665792ae6c9e170b805a4e64","479","stimuli/21110102.jpg"," ","","feedback_trial","0","","","","","","","","","","","","","","","","","","","","",""
"","","","","","image-keyboard-response","110","520613","0.0-85.0","62854bc2a3bb1ddef989b6b7","665500ab8938657b03fbdba8","665792ae6c9e170b805a4e64","2163","stimuli/2010111.jpg","1","","prediction_trial","2","","false","","2","false","false","true","true","false","false","[2]","010","111","0","","","","","","",""
"","","","","","image-keyboard-response","111","521033","0.0-86.0","62854bc2a3bb1ddef989b6b7","665500ab8938657b03fbdba8","665792ae6c9e170b805a4e64","418","stimuli/20101112.jpg"," ","","feedback_trial","2","","","","","","","","","","","","","","","","","","","","",""
"","","","","","image-keyboard-response","112","522943","0.0-87.0","62854bc2a3bb1ddef989b6b7","665500ab8938657b03fbdba8","665792ae6c9e170b805a4e64","1906","stimuli/1101110.jpg","1","","prediction_trial","1","","true","","1","false","false","true","true","false","false","[1]","101","110","1","","","","","","",""
"","","","","","image-keyboard-response","113","523520","0.0-88.0","62854bc2a3bb1ddef989b6b7","665500ab8938657b03fbdba8","665792ae6c9e170b805a4e64","574","stimuli/11011101.jpg"," ","","feedback_trial","1","","","","","","","","","","","","","","","","","","","","",""
"","","","","","image-keyboard-response","114","524160","0.0-89.0","62854bc2a3bb1ddef989b6b7","665500ab8938657b03fbdba8","665792ae6c9e170b805a4e64","637","stimuli/1100100.jpg","1","","prediction_trial","1","","true","","1","true","true","true","true","true","true","[1]","100","100","1","","","","","","",""
"","","","","","image-keyboard-response","115","524530","0.0-90.0","62854bc2a3bb1ddef989b6b7","665500ab8938657b03fbdba8","665792ae6c9e170b805a4e64","368","stimuli/11001001.jpg"," ","","feedback_trial","1","","","","","","","","","","","","","","","","","","","","",""
"","","","","","image-keyboard-response","116","525563","0.0-91.0","62854bc2a3bb1ddef989b6b7","665500ab8938657b03fbdba8","665792ae6c9e170b805a4e64","1031","stimuli/1010010.jpg","1","","prediction_trial","1","","true","","1","false","true","false","true","false","true","[1]","010","010","1","","","","","","",""
"","","","","","image-keyboard-response","117","525982","0.0-92.0","62854bc2a3bb1ddef989b6b7","665500ab8938657b03fbdba8","665792ae6c9e170b805a4e64","416","stimuli/10100101.jpg"," ","","feedback_trial","1","","","","","","","","","","","","","","","","","","","","",""
"","","","","","image-keyboard-response","118","527508","0.0-93.0","62854bc2a3bb1ddef989b6b7","665500ab8938657b03fbdba8","665792ae6c9e170b805a4e64","1523","stimuli/0101110.jpg","1","","prediction_trial","2","","false","","0","false","false","false","false","false","false","[0,2]","101","110","0","","","","","","",""
"","","","","","image-keyboard-response","119","528005","0.0-94.0","62854bc2a3bb1ddef989b6b7","665500ab8938657b03fbdba8","665792ae6c9e170b805a4e64","495","stimuli/01011102.jpg"," ","","feedback_trial","0","","","","","","","","","","","","","","","","","","","","",""
"","","","","","image-keyboard-response","120","530399","0.0-95.0","62854bc2a3bb1ddef989b6b7","665500ab8938657b03fbdba8","665792ae6c9e170b805a4e64","2392","stimuli/1100000.jpg","1","","prediction_trial","1","","true","","1","true","true","true","true","true","true","[1]","100","000","1","","","","","","",""
"","","","","","image-keyboard-response","121","530736","0.0-96.0","62854bc2a3bb1ddef989b6b7","665500ab8938657b03fbdba8","665792ae6c9e170b805a4e64","336","stimuli/11000001.jpg"," ","","feedback_trial","1","","","","","","","","","","","","","","","","","","","","",""
"","","","","","image-keyboard-response","122","531263","0.0-97.0","62854bc2a3bb1ddef989b6b7","665500ab8938657b03fbdba8","665792ae6c9e170b805a4e64","524","stimuli/1000000.jpg","1","","prediction_trial","1","","true","","1","true","true","true","true","true","true","[1]","000","000","1","","","","","","",""
"","","","","","image-keyboard-response","123","531645","0.0-98.0","62854bc2a3bb1ddef989b6b7","665500ab8938657b03fbdba8","665792ae6c9e170b805a4e64","380","stimuli/10000001.jpg"," ","","feedback_trial","1","","","","","","","","","","","","","","","","","","","","",""
"","","","","","image-keyboard-response","124","533332","0.0-99.0","62854bc2a3bb1ddef989b6b7","665500ab8938657b03fbdba8","665792ae6c9e170b805a4e64","1684","stimuli/2001001.jpg","2","","prediction_trial","2","","true","","2","false","true","false","true","false","true","[2]","001","001","1","","","","","","",""
"","","","","","image-keyboard-response","125","533750","0.0-100.0","62854bc2a3bb1ddef989b6b7","665500ab8938657b03fbdba8","665792ae6c9e170b805a4e64","415","stimuli/20010012.jpg"," ","","feedback_trial","2","","","","","","","","","","","","","","","","","","","","",""
"","","","","","image-keyboard-response","126","537862","0.0-101.0","62854bc2a3bb1ddef989b6b7","665500ab8938657b03fbdba8","665792ae6c9e170b805a4e64","4092","stimuli/0011110.jpg","0","","prediction_trial","0","","true","","0","false","false","true","true","false","false","[0]","011","110","1","","","","","","",""
"","","","","","image-keyboard-response","127","538264","0.0-102.0","62854bc2a3bb1ddef989b6b7","665500ab8938657b03fbdba8","665792ae6c9e170b805a4e64","400","stimuli/00111100.jpg"," ","","feedback_trial","0","","","","","","","","","","","","","","","","","","","","",""
"","","","","","image-keyboard-response","128","538957","0.0-103.0","62854bc2a3bb1ddef989b6b7","665500ab8938657b03fbdba8","665792ae6c9e170b805a4e64","692","stimuli/2110100.jpg","2","","prediction_trial","2","","true","","2","true","true","true","true","true","true","[2]","110","100","1","","","","","","",""
"","","","","","image-keyboard-response","129","539377","0.0-104.0","62854bc2a3bb1ddef989b6b7","665500ab8938657b03fbdba8","665792ae6c9e170b805a4e64","416","stimuli/21101002.jpg"," ","","feedback_trial","2","","","","","","","","","","","","","","","","","","","","",""
"","","","","","image-keyboard-response","130","540491","0.0-105.0","62854bc2a3bb1ddef989b6b7","665500ab8938657b03fbdba8","665792ae6c9e170b805a4e64","1111","stimuli/2111111.jpg","2","","prediction_trial","0","","false","","2","false","false","false","false","false","false","[0,1,2]","111","111","0","","","","","","",""
"","","","","","image-keyboard-response","131","540984","0.0-106.0","62854bc2a3bb1ddef989b6b7","665500ab8938657b03fbdba8","665792ae6c9e170b805a4e64","490","stimuli/21111110.jpg"," ","","feedback_trial","0","","","","","","","","","","","","","","","","","","","","",""
"","","","","","image-keyboard-response","132","541784","0.0-107.0","62854bc2a3bb1ddef989b6b7","665500ab8938657b03fbdba8","665792ae6c9e170b805a4e64","797","stimuli/1011101.jpg","1","","prediction_trial","1","","true","","1","true","true","false","false","false","false","[1,2]","011","101","1","","","","","","",""
"","","","","","image-keyboard-response","133","542357","0.0-108.0","62854bc2a3bb1ddef989b6b7","665500ab8938657b03fbdba8","665792ae6c9e170b805a4e64","570","stimuli/10111011.jpg"," ","","feedback_trial","1","","","","","","","","","","","","","","","","","","","","",""
"","","","","","image-keyboard-response","134","543010","0.0-109.0","62854bc2a3bb1ddef989b6b7","665500ab8938657b03fbdba8","665792ae6c9e170b805a4e64","651","stimuli/0000000.jpg","0","","prediction_trial","0","","true","","0","true","true","true","true","true","true","[0]","000","000","1","","","","","","",""
"","","","","","image-keyboard-response","135","543386","0.0-110.0","62854bc2a3bb1ddef989b6b7","665500ab8938657b03fbdba8","665792ae6c9e170b805a4e64","373","stimuli/00000000.jpg"," ","","feedback_trial","0","","","","","","","","","","","","","","","","","","","","",""
"","","","","","image-keyboard-response","136","544268","0.0-111.0","62854bc2a3bb1ddef989b6b7","665500ab8938657b03fbdba8","665792ae6c9e170b805a4e64","880","stimuli/0101001.jpg","0","","prediction_trial","2","","false","","0","true","true","false","false","false","false","[2,0]","101","001","0","","","","","","",""
"","","","","","image-keyboard-response","137","545036","0.0-112.0","62854bc2a3bb1ddef989b6b7","665500ab8938657b03fbdba8","665792ae6c9e170b805a4e64","765","stimuli/01010012.jpg"," ","","feedback_trial","2","","","","","","","","","","","","","","","","","","","","",""
"","","","","","image-keyboard-response","138","547533","0.0-113.0","62854bc2a3bb1ddef989b6b7","665500ab8938657b03fbdba8","665792ae6c9e170b805a4e64","2495","stimuli/0110000.jpg","0","","prediction_trial","1","","false","","0","true","true","false","false","false","false","[1,0]","110","000","0","","","","","","",""
"","","","","","image-keyboard-response","139","547954","0.0-114.0","62854bc2a3bb1ddef989b6b7","665500ab8938657b03fbdba8","665792ae6c9e170b805a4e64","417","stimuli/01100001.jpg"," ","","feedback_trial","1","","","","","","","","","","","","","","","","","","","","",""
"","","","","","image-keyboard-response","140","550154","0.0-115.0","62854bc2a3bb1ddef989b6b7","665500ab8938657b03fbdba8","665792ae6c9e170b805a4e64","2198","stimuli/1001111.jpg","1","","prediction_trial","1","","true","","1","false","false","true","true","false","false","[1]","001","111","1","","","","","","",""
"","","","","","image-keyboard-response","141","550747","0.0-116.0","62854bc2a3bb1ddef989b6b7","665500ab8938657b03fbdba8","665792ae6c9e170b805a4e64","591","stimuli/10011111.jpg"," ","","feedback_trial","1","","","","","","","","","","","","","","","","","","","","",""
"","","","","","image-keyboard-response","142","551367","0.0-117.0","62854bc2a3bb1ddef989b6b7","665500ab8938657b03fbdba8","665792ae6c9e170b805a4e64","619","stimuli/1000001.jpg","1","","prediction_trial","1","","true","","1","true","true","true","true","true","true","[1]","000","001","1","","","","","","",""
"","","","","","image-keyboard-response","143","551791","0.0-118.0","62854bc2a3bb1ddef989b6b7","665500ab8938657b03fbdba8","665792ae6c9e170b805a4e64","423","stimuli/10000011.jpg"," ","","feedback_trial","1","","","","","","","","","","","","","","","","","","","","",""
"","","","","","image-keyboard-response","144","553616","0.0-119.0","62854bc2a3bb1ddef989b6b7","665500ab8938657b03fbdba8","665792ae6c9e170b805a4e64","1822","stimuli/0010101.jpg","2","","prediction_trial","0","","false","","0","false","false","true","true","false","false","[0]","010","101","0","","","","","","",""
"","","","","","image-keyboard-response","145","554070","0.0-120.0","62854bc2a3bb1ddef989b6b7","665500ab8938657b03fbdba8","665792ae6c9e170b805a4e64","453","stimuli/00101010.jpg"," ","","feedback_trial","0","","","","","","","","","","","","","","","","","","","","",""
"","","","","","image-keyboard-response","146","555318","0.0-121.0","62854bc2a3bb1ddef989b6b7","665500ab8938657b03fbdba8","665792ae6c9e170b805a4e64","1244","stimuli/1010100.jpg","1","","prediction_trial","1","","true","","1","true","true","false","true","false","true","[1]","010","100","1","","","","","","",""
"","","","","","image-keyboard-response","147","555735","0.0-122.0","62854bc2a3bb1ddef989b6b7","665500ab8938657b03fbdba8","665792ae6c9e170b805a4e64","415","stimuli/10101001.jpg"," ","","feedback_trial","1","","","","","","","","","","","","","","","","","","","","",""
"","","","","","image-keyboard-response","148","556442","0.0-123.0","62854bc2a3bb1ddef989b6b7","665500ab8938657b03fbdba8","665792ae6c9e170b805a4e64","704","stimuli/2000100.jpg","2","","prediction_trial","2","","true","","2","true","true","true","true","true","true","[2]","000","100","1","","","","","","",""
"","","","","","image-keyboard-response","149","556768","0.0-124.0","62854bc2a3bb1ddef989b6b7","665500ab8938657b03fbdba8","665792ae6c9e170b805a4e64","323","stimuli/20001002.jpg"," ","","feedback_trial","2","","","","","","","","","","","","","","","","","","","","",""
"","","","","","image-keyboard-response","150","557436","0.0-125.0","62854bc2a3bb1ddef989b6b7","665500ab8938657b03fbdba8","665792ae6c9e170b805a4e64","667","stimuli/0010010.jpg","0","","prediction_trial","0","","true","","0","true","true","true","true","true","true","[0]","010","010","1","","","","","","",""
"","","","","","image-keyboard-response","151","557825","0.0-126.0","62854bc2a3bb1ddef989b6b7","665500ab8938657b03fbdba8","665792ae6c9e170b805a4e64","386","stimuli/00100100.jpg"," ","","feedback_trial","0","","","","","","","","","","","","","","","","","","","","",""
"","","","","","image-keyboard-response","152","559175","0.0-127.0","62854bc2a3bb1ddef989b6b7","665500ab8938657b03fbdba8","665792ae6c9e170b805a4e64","1346","stimuli/1110000.jpg","0","","prediction_trial","0","","true","","1","true","true","false","false","false","false","[0,1]","110","000","1","","","","","","",""
"","","","","","image-keyboard-response","153","559569","0.0-128.0","62854bc2a3bb1ddef989b6b7","665500ab8938657b03fbdba8","665792ae6c9e170b805a4e64","391","stimuli/11100000.jpg"," ","","feedback_trial","0","","","","","","","","","","","","","","","","","","","","",""
"","","","","","image-keyboard-response","154","560481","0.0-129.0","62854bc2a3bb1ddef989b6b7","665500ab8938657b03fbdba8","665792ae6c9e170b805a4e64","909","stimuli/1011011.jpg","2","","prediction_trial","1","","false","","1","false","false","false","false","false","false","[2,1]","011","011","0","","","","","","",""
"","","","","","image-keyboard-response","155","560964","0.0-130.0","62854bc2a3bb1ddef989b6b7","665500ab8938657b03fbdba8","665792ae6c9e170b805a4e64","481","stimuli/10110111.jpg"," ","","feedback_trial","2","","","","","","","","","","","","","","","","","","","","",""
"","","","","","image-keyboard-response","156","561734","0.0-131.0","62854bc2a3bb1ddef989b6b7","665500ab8938657b03fbdba8","665792ae6c9e170b805a4e64","768","stimuli/2111001.jpg","0","","prediction_trial","0","","true","","2","false","true","false","false","false","false","[0,1,2]","111","001","1","","","","","","",""
"","","","","","image-keyboard-response","157","562154","0.0-132.0","62854bc2a3bb1ddef989b6b7","665500ab8938657b03fbdba8","665792ae6c9e170b805a4e64","417","stimuli/21110010.jpg"," ","","feedback_trial","0","","","","","","","","","","","","","","","","","","","","",""
"","","","","","image-keyboard-response","158","562932","0.0-133.0","62854bc2a3bb1ddef989b6b7","665500ab8938657b03fbdba8","665792ae6c9e170b805a4e64","776","stimuli/0001010.jpg","0","","prediction_trial","0","","true","","0","true","true","true","true","true","true","[0]","001","010","1","","","","","","",""
"","","","","","image-keyboard-response","159","563276","0.0-134.0","62854bc2a3bb1ddef989b6b7","665500ab8938657b03fbdba8","665792ae6c9e170b805a4e64","342","stimuli/00010100.jpg"," ","","feedback_trial","0","","","","","","","","","","","","","","","","","","","","",""
"","","","","","image-keyboard-response","160","564158","0.0-135.0","62854bc2a3bb1ddef989b6b7","665500ab8938657b03fbdba8","665792ae6c9e170b805a4e64","879","stimuli/2011010.jpg","2","","prediction_trial","2","","true","","2","true","true","false","false","false","false","[2,1]","011","010","1","","","","","","",""
"","","","","","image-keyboard-response","161","564708","0.0-136.0","62854bc2a3bb1ddef989b6b7","665500ab8938657b03fbdba8","665792ae6c9e170b805a4e64","547","stimuli/20110102.jpg"," ","","feedback_trial","2","","","","","","","","","","","","","","","","","","","","",""
"","","","","","image-keyboard-response","162","565461","0.0-137.0","62854bc2a3bb1ddef989b6b7","665500ab8938657b03fbdba8","665792ae6c9e170b805a4e64","751","stimuli/2010100.jpg","2","","prediction_trial","2","","true","","2","true","true","true","true","true","true","[2]","010","100","1","","","","","","",""
"","","","","","image-keyboard-response","163","565860","0.0-138.0","62854bc2a3bb1ddef989b6b7","665500ab8938657b03fbdba8","665792ae6c9e170b805a4e64","397","stimuli/20101002.jpg"," ","","feedback_trial","2","","","","","","","","","","","","","","","","","","","","",""
"","","","","","image-keyboard-response","164","567218","0.0-139.0","62854bc2a3bb1ddef989b6b7","665500ab8938657b03fbdba8","665792ae6c9e170b805a4e64","1356","stimuli/1101011.jpg","1","","prediction_trial","1","","true","","1","false","false","true","true","false","false","[1]","101","011","1","","","","","","",""
"","","","","","image-keyboard-response","165","567692","0.0-140.0","62854bc2a3bb1ddef989b6b7","665500ab8938657b03fbdba8","665792ae6c9e170b805a4e64","473","stimuli/11010111.jpg"," ","","feedback_trial","1","","","","","","","","","","","","","","","","","","","","",""
"","","","","","image-keyboard-response","166","569887","0.0-141.0","62854bc2a3bb1ddef989b6b7","665500ab8938657b03fbdba8","665792ae6c9e170b805a4e64","2192","stimuli/0110110.jpg","0","","prediction_trial","0","","true","","0","false","false","false","false","false","false","[0,1]","110","110","1","","","","","","",""
"","","","","","image-keyboard-response","167","570488","0.0-142.0","62854bc2a3bb1ddef989b6b7","665500ab8938657b03fbdba8","665792ae6c9e170b805a4e64","599","stimuli/01101100.jpg"," ","","feedback_trial","0","","","","","","","","","","","","","","","","","","","","",""
"","","","","","image-keyboard-response","168","572578","0.0-143.0","62854bc2a3bb1ddef989b6b7","665500ab8938657b03fbdba8","665792ae6c9e170b805a4e64","2087","stimuli/2111110.jpg","2","","prediction_trial","0","","false","","2","true","true","false","false","false","false","[0,2,1]","111","110","0","","","","","","",""
"","","","","","image-keyboard-response","169","573087","0.0-144.0","62854bc2a3bb1ddef989b6b7","665500ab8938657b03fbdba8","665792ae6c9e170b805a4e64","506","stimuli/21111100.jpg"," ","","feedback_trial","0","","","","","","","","","","","","","","","","","","","","",""
"","","","","","image-keyboard-response","170","573685","0.0-145.0","62854bc2a3bb1ddef989b6b7","665500ab8938657b03fbdba8","665792ae6c9e170b805a4e64","595","stimuli/1101001.jpg","1","","prediction_trial","1","","true","","1","true","true","true","true","true","true","[1]","101","001","1","","","","","","",""
"","","","","","image-keyboard-response","171","574039","0.0-146.0","62854bc2a3bb1ddef989b6b7","665500ab8938657b03fbdba8","665792ae6c9e170b805a4e64","353","stimuli/11010011.jpg"," ","","feedback_trial","1","","","","","","","","","","","","","","","","","","","","",""
"","","","","","image-keyboard-response","172","575241","0.0-147.0","62854bc2a3bb1ddef989b6b7","665500ab8938657b03fbdba8","665792ae6c9e170b805a4e64","1198","stimuli/2011101.jpg","0","","prediction_trial","1","","false","","2","false","false","false","false","false","false","[1,2]","011","101","0","","","","","","",""
"","","","","","image-keyboard-response","173","575840","0.0-148.0","62854bc2a3bb1ddef989b6b7","665500ab8938657b03fbdba8","665792ae6c9e170b805a4e64","597","stimuli/20111011.jpg"," ","","feedback_trial","1","","","","","","","","","","","","","","","","","","","","",""
"","","","","","image-keyboard-response","174","577629","0.0-149.0","62854bc2a3bb1ddef989b6b7","665500ab8938657b03fbdba8","665792ae6c9e170b805a4e64","1786","stimuli/2011000.jpg","2","","prediction_trial","2","","true","","2","true","true","false","false","false","false","[2,1]","011","000","1","","","","","","",""
"","","","","","image-keyboard-response","175","578077","0.0-150.0","62854bc2a3bb1ddef989b6b7","665500ab8938657b03fbdba8","665792ae6c9e170b805a4e64","447","stimuli/20110002.jpg"," ","","feedback_trial","2","","","","","","","","","","","","","","","","","","","","",""
"","","","","","image-keyboard-response","176","579897","0.0-151.0","62854bc2a3bb1ddef989b6b7","665500ab8938657b03fbdba8","665792ae6c9e170b805a4e64","1817","stimuli/0010110.jpg","0","","prediction_trial","0","","true","","0","false","false","true","true","false","false","[0]","010","110","1","","","","","","",""
"","","","","","image-keyboard-response","177","580395","0.0-152.0","62854bc2a3bb1ddef989b6b7","665500ab8938657b03fbdba8","665792ae6c9e170b805a4e64","497","stimuli/00101100.jpg"," ","","feedback_trial","0","","","","","","","","","","","","","","","","","","","","",""
"","","","","","image-keyboard-response","178","583582","0.0-153.0","62854bc2a3bb1ddef989b6b7","665500ab8938657b03fbdba8","665792ae6c9e170b805a4e64","3184","stimuli/2010101.jpg","0","","prediction_trial","2","","false","","2","false","false","true","true","false","false","[2]","010","101","0","","","","","","",""
"","","","","","image-keyboard-response","179","584076","0.0-154.0","62854bc2a3bb1ddef989b6b7","665500ab8938657b03fbdba8","665792ae6c9e170b805a4e64","492","stimuli/20101012.jpg"," ","","feedback_trial","2","","","","","","","","","","","","","","","","","","","","",""
"","","","","","image-keyboard-response","180","586173","0.0-155.0","62854bc2a3bb1ddef989b6b7","665500ab8938657b03fbdba8","665792ae6c9e170b805a4e64","2094","stimuli/2101010.jpg","2","","prediction_trial","0","","false","","2","true","true","false","false","false","false","[2,0]","101","010","0","","","","","","",""
"","","","","","image-keyboard-response","181","586617","0.0-156.0","62854bc2a3bb1ddef989b6b7","665500ab8938657b03fbdba8","665792ae6c9e170b805a4e64","440","stimuli/21010100.jpg"," ","","feedback_trial","2","","","","","","","","","","","","","","","","","","","","",""
"","","","","","image-keyboard-response","182","587416","0.0-157.0","62854bc2a3bb1ddef989b6b7","665500ab8938657b03fbdba8","665792ae6c9e170b805a4e64","796","stimuli/0110001.jpg","0","","prediction_trial","0","","true","","0","true","true","false","false","false","false","[1,0]","110","001","1","","","","","","",""
"","","","","","image-keyboard-response","183","587985","0.0-158.0","62854bc2a3bb1ddef989b6b7","665500ab8938657b03fbdba8","665792ae6c9e170b805a4e64","566","stimuli/01100010.jpg"," ","","feedback_trial","1","","","","","","","","","","","","","","","","","","","","",""
"","","","","","image-keyboard-response","184","589035","0.0-159.0","62854bc2a3bb1ddef989b6b7","665500ab8938657b03fbdba8","665792ae6c9e170b805a4e64","1047","stimuli/0100100.jpg","0","","prediction_trial","0","","true","","0","false","true","false","true","false","true","[0]","100","100","1","","","","","","",""
"","","","","","image-keyboard-response","185","589421","0.0-160.0","62854bc2a3bb1ddef989b6b7","665500ab8938657b03fbdba8","665792ae6c9e170b805a4e64","384","stimuli/01001000.jpg"," ","","feedback_trial","0","","","","","","","","","","","","","","","","","","","","",""
"","","","","","image-keyboard-response","186","590397","0.0-161.0","62854bc2a3bb1ddef989b6b7","665500ab8938657b03fbdba8","665792ae6c9e170b805a4e64","975","stimuli/0011100.jpg","0","","prediction_trial","0","","true","","0","false","true","true","true","false","true","[0]","011","100","1","","","","","","",""
"","","","","","image-keyboard-response","187","590775","0.0-162.0","62854bc2a3bb1ddef989b6b7","665500ab8938657b03fbdba8","665792ae6c9e170b805a4e64","375","stimuli/00111000.jpg"," ","","feedback_trial","0","","","","","","","","","","","","","","","","","","","","",""
"","","","","","image-keyboard-response","188","592607","0.0-163.0","62854bc2a3bb1ddef989b6b7","665500ab8938657b03fbdba8","665792ae6c9e170b805a4e64","1829","stimuli/1000011.jpg","1","","prediction_trial","1","","true","","1","false","false","true","true","false","false","[1]","000","011","1","","","","","","",""
"","","","","","image-keyboard-response","189","593146","0.0-164.0","62854bc2a3bb1ddef989b6b7","665500ab8938657b03fbdba8","665792ae6c9e170b805a4e64","538","stimuli/10000111.jpg"," ","","feedback_trial","1","","","","","","","","","","","","","","","","","","","","",""
"","","","","","image-keyboard-response","190","594663","0.0-165.0","62854bc2a3bb1ddef989b6b7","665500ab8938657b03fbdba8","665792ae6c9e170b805a4e64","1516","stimuli/1110100.jpg","1","","prediction_trial","1","","true","","1","true","true","false","false","false","false","[0,1]","110","100","1","","","","","","",""
"","","","","","image-keyboard-response","191","595161","0.0-166.0","62854bc2a3bb1ddef989b6b7","665500ab8938657b03fbdba8","665792ae6c9e170b805a4e64","496","stimuli/11101001.jpg"," ","","feedback_trial","0","","","","","","","","","","","","","","","","","","","","",""
"","","","","","image-keyboard-response","192","596166","0.0-167.0","62854bc2a3bb1ddef989b6b7","665500ab8938657b03fbdba8","665792ae6c9e170b805a4e64","1004","stimuli/0111101.jpg","2","","prediction_trial","2","","true","","0","false","false","false","false","false","false","[2,1,0]","111","101","1","","","","","","",""
"","","","","","image-keyboard-response","193","596654","0.0-168.0","62854bc2a3bb1ddef989b6b7","665500ab8938657b03fbdba8","665792ae6c9e170b805a4e64","485","stimuli/01111012.jpg"," ","","feedback_trial","2","","","","","","","","","","","","","","","","","","","","",""
"","","","","","image-keyboard-response","194","597394","0.0-169.0","62854bc2a3bb1ddef989b6b7","665500ab8938657b03fbdba8","665792ae6c9e170b805a4e64","737","stimuli/1110111.jpg","0","","prediction_trial","0","","true","","1","false","false","false","false","false","false","[1,0]","110","111","1","","","","","","",""
"","","","","","image-keyboard-response","195","597889","0.0-170.0","62854bc2a3bb1ddef989b6b7","665500ab8938657b03fbdba8","665792ae6c9e170b805a4e64","492","stimuli/11101110.jpg"," ","","feedback_trial","1","","","","","","","","","","","","","","","","","","","","",""
"","","","","","image-keyboard-response","196","599141","0.0-171.0","62854bc2a3bb1ddef989b6b7","665500ab8938657b03fbdba8","665792ae6c9e170b805a4e64","1249","stimuli/2101011.jpg","2","","prediction_trial","2","","true","","2","false","false","false","false","false","false","[2,0]","101","011","1","","","","","","",""
"","","","","","image-keyboard-response","197","599608","0.0-172.0","62854bc2a3bb1ddef989b6b7","665500ab8938657b03fbdba8","665792ae6c9e170b805a4e64","464","stimuli/21010112.jpg"," ","","feedback_trial","2","","","","","","","","","","","","","","","","","","","","",""
"","","","","","image-keyboard-response","198","600427","0.0-173.0","62854bc2a3bb1ddef989b6b7","665500ab8938657b03fbdba8","665792ae6c9e170b805a4e64","816","stimuli/0000001.jpg","0","","prediction_trial","0","","true","","0","true","true","true","true","true","true","[0]","000","001","1","","","","","","",""
"","","","","","image-keyboard-response","199","600886","0.0-174.0","62854bc2a3bb1ddef989b6b7","665500ab8938657b03fbdba8","665792ae6c9e170b805a4e64","455","stimuli/00000010.jpg"," ","","feedback_trial","0","","","","","","","","","","","","","","","","","","","","",""
"","","","","","image-keyboard-response","200","601631","0.0-175.0","62854bc2a3bb1ddef989b6b7","665500ab8938657b03fbdba8","665792ae6c9e170b805a4e64","742","stimuli/1000101.jpg","1","","prediction_trial","1","","true","","1","true","true","true","true","true","true","[1]","000","101","1","","","","","","",""
"","","","","","image-keyboard-response","201","602064","0.0-176.0","62854bc2a3bb1ddef989b6b7","665500ab8938657b03fbdba8","665792ae6c9e170b805a4e64","431","stimuli/10001011.jpg"," ","","feedback_trial","1","","","","","","","","","","","","","","","","","","","","",""
"","","","","","image-keyboard-response","202","602664","0.0-177.0","62854bc2a3bb1ddef989b6b7","665500ab8938657b03fbdba8","665792ae6c9e170b805a4e64","596","stimuli/1101100.jpg","1","","prediction_trial","1","","true","","1","true","true","true","true","true","true","[1]","101","100","1","","","","","","",""
"","","","","","image-keyboard-response","203","602991","0.0-178.0","62854bc2a3bb1ddef989b6b7","665500ab8938657b03fbdba8","665792ae6c9e170b805a4e64","324","stimuli/11011001.jpg"," ","","feedback_trial","1","","","","","","","","","","","","","","","","","","","","",""
"","","","","","image-keyboard-response","204","604348","0.0-179.0","62854bc2a3bb1ddef989b6b7","665500ab8938657b03fbdba8","665792ae6c9e170b805a4e64","1354","stimuli/0110011.jpg","1","","prediction_trial","1","","true","","0","true","true","false","false","false","false","[0,1]","110","011","1","","","","","","",""
"","","","","","image-keyboard-response","205","604877","0.0-180.0","62854bc2a3bb1ddef989b6b7","665500ab8938657b03fbdba8","665792ae6c9e170b805a4e64","526","stimuli/01100111.jpg"," ","","feedback_trial","0","","","","","","","","","","","","","","","","","","","","",""
"","","","","","image-keyboard-response","206","607961","0.0-181.0","62854bc2a3bb1ddef989b6b7","665500ab8938657b03fbdba8","665792ae6c9e170b805a4e64","3081","stimuli/0111010.jpg","0","","prediction_trial","2","","false","","0","true","true","false","false","false","false","[1,0,2]","111","010","0","","","","","","",""
"","","","","","image-keyboard-response","207","608518","0.0-182.0","62854bc2a3bb1ddef989b6b7","665500ab8938657b03fbdba8","665792ae6c9e170b805a4e64","556","stimuli/01110102.jpg"," ","","feedback_trial","1","","","","","","","","","","","","","","","","","","","","",""
"","","","","","image-keyboard-response","208","609337","0.0-183.0","62854bc2a3bb1ddef989b6b7","665500ab8938657b03fbdba8","665792ae6c9e170b805a4e64","816","stimuli/2000001.jpg","2","","prediction_trial","2","","true","","2","false","true","true","true","false","true","[2]","000","001","1","","","","","","",""
"","","","","","image-keyboard-response","209","609636","0.0-184.0","62854bc2a3bb1ddef989b6b7","665500ab8938657b03fbdba8","665792ae6c9e170b805a4e64","296","stimuli/20000012.jpg"," ","","feedback_trial","2","","","","","","","","","","","","","","","","","","","","",""
"","","","","","image-keyboard-response","210","610910","0.0-185.0","62854bc2a3bb1ddef989b6b7","665500ab8938657b03fbdba8","665792ae6c9e170b805a4e64","1271","stimuli/2010011.jpg","1","","prediction_trial","2","","false","","2","false","false","true","true","false","false","[2]","010","011","0","","","","","","",""
"","","","","","image-keyboard-response","211","611376","0.0-186.0","62854bc2a3bb1ddef989b6b7","665500ab8938657b03fbdba8","665792ae6c9e170b805a4e64","465","stimuli/20100112.jpg"," ","","feedback_trial","2","","","","","","","","","","","","","","","","","","","","",""
"","","","","","image-keyboard-response","212","612815","0.0-187.0","62854bc2a3bb1ddef989b6b7","665500ab8938657b03fbdba8","665792ae6c9e170b805a4e64","1438","stimuli/0101000.jpg","0","","prediction_trial","2","","false","","0","true","true","false","false","false","false","[2,0]","101","000","0","","","","","","",""
"","","","","","image-keyboard-response","213","613262","0.0-188.0","62854bc2a3bb1ddef989b6b7","665500ab8938657b03fbdba8","665792ae6c9e170b805a4e64","444","stimuli/01010002.jpg"," ","","feedback_trial","2","","","","","","","","","","","","","","","","","","","","",""
"","","","","","image-keyboard-response","214","614032","0.0-189.0","62854bc2a3bb1ddef989b6b7","665500ab8938657b03fbdba8","665792ae6c9e170b805a4e64","767","stimuli/2010010.jpg","2","","prediction_trial","2","","true","","2","true","true","true","true","true","true","[2]","010","010","1","","","","","","",""
"","","","","","image-keyboard-response","215","614406","0.0-190.0","62854bc2a3bb1ddef989b6b7","665500ab8938657b03fbdba8","665792ae6c9e170b805a4e64","371","stimuli/20100102.jpg"," ","","feedback_trial","2","","","","","","","","","","","","","","","","","","","","",""
"","","","","","image-keyboard-response","216","615318","0.0-191.0","62854bc2a3bb1ddef989b6b7","665500ab8938657b03fbdba8","665792ae6c9e170b805a4e64","909","stimuli/0100000.jpg","0","","prediction_trial","0","","true","","0","true","true","false","true","false","true","[0]","100","000","1","","","","","","",""
"","","","","","image-keyboard-response","217","615660","0.0-192.0","62854bc2a3bb1ddef989b6b7","665500ab8938657b03fbdba8","665792ae6c9e170b805a4e64","340","stimuli/01000000.jpg"," ","","feedback_trial","0","","","","","","","","","","","","","","","","","","","","",""
"","","","","","image-keyboard-response","218","616734","0.0-193.0","62854bc2a3bb1ddef989b6b7","665500ab8938657b03fbdba8","665792ae6c9e170b805a4e64","1072","stimuli/0010100.jpg","0","","prediction_trial","0","","true","","0","false","true","true","true","false","true","[0]","010","100","1","","","","","","",""
"","","","","","image-keyboard-response","219","617100","0.0-194.0","62854bc2a3bb1ddef989b6b7","665500ab8938657b03fbdba8","665792ae6c9e170b805a4e64","363","stimuli/00101000.jpg"," ","","feedback_trial","0","","","","","","","","","","","","","","","","","","","","",""
"","","","","","image-keyboard-response","220","617779","0.0-195.0","62854bc2a3bb1ddef989b6b7","665500ab8938657b03fbdba8","665792ae6c9e170b805a4e64","676","stimuli/2100100.jpg","2","","prediction_trial","2","","true","","2","true","true","true","true","true","true","[2]","100","100","1","","","","","","",""
"","","","","","image-keyboard-response","221","618122","0.0-196.0","62854bc2a3bb1ddef989b6b7","665500ab8938657b03fbdba8","665792ae6c9e170b805a4e64","339","stimuli/21001002.jpg"," ","","feedback_trial","2","","","","","","","","","","","","","","","","","","","","",""
"","","","","","image-keyboard-response","222","619033","0.0-197.0","62854bc2a3bb1ddef989b6b7","665500ab8938657b03fbdba8","665792ae6c9e170b805a4e64","909","stimuli/0110100.jpg","0","","prediction_trial","1","","false","","0","false","true","false","false","false","false","[0,1]","110","100","0","","","","","","",""
"","","","","","image-keyboard-response","223","619494","0.0-198.0","62854bc2a3bb1ddef989b6b7","665500ab8938657b03fbdba8","665792ae6c9e170b805a4e64","459","stimuli/01101001.jpg"," ","","feedback_trial","0","","","","","","","","","","","","","","","","","","","","",""
"","","","","","image-keyboard-response","224","620103","0.0-199.0","62854bc2a3bb1ddef989b6b7","665500ab8938657b03fbdba8","665792ae6c9e170b805a4e64","606","stimuli/2001010.jpg","2","","prediction_trial","2","","true","","2","true","true","false","true","false","true","[2]","001","010","1","","","","","","",""
"","","","","","image-keyboard-response","225","620558","0.0-200.0","62854bc2a3bb1ddef989b6b7","665500ab8938657b03fbdba8","665792ae6c9e170b805a4e64","452","stimuli/20010102.jpg"," ","","feedback_trial","2","","","","","","","","","","","","","","","","","","","","",""
"","","","","","image-keyboard-response","226","622277","0.0-201.0","62854bc2a3bb1ddef989b6b7","665500ab8938657b03fbdba8","665792ae6c9e170b805a4e64","1716","stimuli/0100101.jpg","2","","prediction_trial","0","","false","","0","false","false","false","true","false","false","[0]","100","101","0","","","","","","",""
"","","","","","image-keyboard-response","227","622680","0.0-202.0","62854bc2a3bb1ddef989b6b7","665500ab8938657b03fbdba8","665792ae6c9e170b805a4e64","401","stimuli/01001010.jpg"," ","","feedback_trial","0","","","","","","","","","","","","","","","","","","","","",""
"","","","","","image-keyboard-response","228","623887","0.0-203.0","62854bc2a3bb1ddef989b6b7","665500ab8938657b03fbdba8","665792ae6c9e170b805a4e64","1204","stimuli/0011111.jpg","0","","prediction_trial","0","","true","","0","false","false","true","true","false","false","[0]","011","111","1","","","","","","",""
"","","","","","image-keyboard-response","229","624397","0.0-204.0","62854bc2a3bb1ddef989b6b7","665500ab8938657b03fbdba8","665792ae6c9e170b805a4e64","508","stimuli/00111110.jpg"," ","","feedback_trial","0","","","","","","","","","","","","","","","","","","","","",""
"","","","","","image-keyboard-response","230","625045","0.0-205.0","62854bc2a3bb1ddef989b6b7","665500ab8938657b03fbdba8","665792ae6c9e170b805a4e64","646","stimuli/0011010.jpg","0","","prediction_trial","0","","true","","0","true","true","true","true","true","true","[0]","011","010","1","","","","","","",""
"","","","","","image-keyboard-response","231","625387","0.0-206.0","62854bc2a3bb1ddef989b6b7","665500ab8938657b03fbdba8","665792ae6c9e170b805a4e64","339","stimuli/00110100.jpg"," ","","feedback_trial","0","","","","","","","","","","","","","","","","","","","","",""
"","","","","","image-keyboard-response","232","626014","0.0-207.0","62854bc2a3bb1ddef989b6b7","665500ab8938657b03fbdba8","665792ae6c9e170b805a4e64","625","stimuli/0111001.jpg","0","","prediction_trial","0","","true","","0","true","true","false","false","false","false","[1,0,2]","111","001","1","","","","","","",""
"","","","","","image-keyboard-response","233","626498","0.0-208.0","62854bc2a3bb1ddef989b6b7","665500ab8938657b03fbdba8","665792ae6c9e170b805a4e64","481","stimuli/01110010.jpg"," ","","feedback_trial","1","","","","","","","","","","","","","","","","","","","","",""
"","","","","","image-keyboard-response","234","627531","0.0-209.0","62854bc2a3bb1ddef989b6b7","665500ab8938657b03fbdba8","665792ae6c9e170b805a4e64","1030","stimuli/1111011.jpg","1","","prediction_trial","2","","false","","1","false","false","false","false","false","false","[1,0,2]","111","011","0","","","","","","",""
"","","","","","image-keyboard-response","235","628021","0.0-210.0","62854bc2a3bb1ddef989b6b7","665500ab8938657b03fbdba8","665792ae6c9e170b805a4e64","487","stimuli/11110112.jpg"," ","","feedback_trial","1","","","","","","","","","","","","","","","","","","","","",""
"","","","","","image-keyboard-response","236","630620","0.0-211.0","62854bc2a3bb1ddef989b6b7","665500ab8938657b03fbdba8","665792ae6c9e170b805a4e64","2584","stimuli/2100101.jpg","0","","prediction_trial","2","","false","","2","false","false","true","true","false","false","[2]","100","101","0","","","","","","",""
"","","","","","image-keyboard-response","237","631104","0.0-212.0","62854bc2a3bb1ddef989b6b7","665500ab8938657b03fbdba8","665792ae6c9e170b805a4e64","482","stimuli/21001012.jpg"," ","","feedback_trial","2","","","","","","","","","","","","","","","","","","","","",""
"","","","","","image-keyboard-response","238","633086","0.0-213.0","62854bc2a3bb1ddef989b6b7","665500ab8938657b03fbdba8","665792ae6c9e170b805a4e64","1979","stimuli/1101111.jpg","1","","prediction_trial","1","","true","","1","false","false","true","true","false","false","[1]","101","111","1","","","","","","",""
"","","","","","image-keyboard-response","239","633672","0.0-214.0","62854bc2a3bb1ddef989b6b7","665500ab8938657b03fbdba8","665792ae6c9e170b805a4e64","583","stimuli/11011111.jpg"," ","","feedback_trial","1","","","","","","","","","","","","","","","","","","","","",""
"","","","","","image-keyboard-response","240","635412","0.0-215.0","62854bc2a3bb1ddef989b6b7","665500ab8938657b03fbdba8","665792ae6c9e170b805a4e64","1737","stimuli/1011110.jpg","2","","prediction_trial","1","","false","","1","false","false","false","false","false","false","[1,2]","011","110","0","","","","","","",""
"","","","","","image-keyboard-response","241","635892","0.0-216.0","62854bc2a3bb1ddef989b6b7","665500ab8938657b03fbdba8","665792ae6c9e170b805a4e64","477","stimuli/10111101.jpg"," ","","feedback_trial","1","","","","","","","","","","","","","","","","","","","","",""
"","","","","","image-keyboard-response","242","636837","0.0-217.0","62854bc2a3bb1ddef989b6b7","665500ab8938657b03fbdba8","665792ae6c9e170b805a4e64","942","stimuli/0100001.jpg","0","","prediction_trial","0","","true","","0","true","true","false","true","false","true","[0]","100","001","1","","","","","","",""
"","","","","","image-keyboard-response","243","637355","0.0-218.0","62854bc2a3bb1ddef989b6b7","665500ab8938657b03fbdba8","665792ae6c9e170b805a4e64","515","stimuli/01000010.jpg"," ","","feedback_trial","0","","","","","","","","","","","","","","","","","","","","",""
"","","","","","image-keyboard-response","244","638289","0.0-219.0","62854bc2a3bb1ddef989b6b7","665500ab8938657b03fbdba8","665792ae6c9e170b805a4e64","931","stimuli/0011001.jpg","0","","prediction_trial","0","","true","","0","true","true","true","true","true","true","[0]","011","001","1","","","","","","",""
"","","","","","image-keyboard-response","245","638672","0.0-220.0","62854bc2a3bb1ddef989b6b7","665500ab8938657b03fbdba8","665792ae6c9e170b805a4e64","380","stimuli/00110010.jpg"," ","","feedback_trial","0","","","","","","","","","","","","","","","","","","","","",""
"","","","","","image-keyboard-response","246","639739","0.0-221.0","62854bc2a3bb1ddef989b6b7","665500ab8938657b03fbdba8","665792ae6c9e170b805a4e64","1064","stimuli/1010101.jpg","1","","prediction_trial","1","","true","","1","true","true","false","true","false","true","[1]","010","101","1","","","","","","",""
"","","","","","image-keyboard-response","247","640117","0.0-222.0","62854bc2a3bb1ddef989b6b7","665500ab8938657b03fbdba8","665792ae6c9e170b805a4e64","375","stimuli/10101011.jpg"," ","","feedback_trial","1","","","","","","","","","","","","","","","","","","","","",""
"","","","","","image-keyboard-response","248","647558","0.0-223.0","62854bc2a3bb1ddef989b6b7","665500ab8938657b03fbdba8","665792ae6c9e170b805a4e64","7436","stimuli/1110110.jpg","1","","prediction_trial","1","","true","","1","false","false","false","false","false","false","[0,1]","110","110","1","","","","","","",""
"","","","","","image-keyboard-response","249","648192","0.0-224.0","62854bc2a3bb1ddef989b6b7","665500ab8938657b03fbdba8","665792ae6c9e170b805a4e64","631","stimuli/11101101.jpg"," ","","feedback_trial","0","","","","","","","","","","","","","","","","","","","","",""
"","","","","","image-keyboard-response","250","648986","0.0-225.0","62854bc2a3bb1ddef989b6b7","665500ab8938657b03fbdba8","665792ae6c9e170b805a4e64","791","stimuli/2101000.jpg","2","","prediction_trial","2","","true","","2","true","true","false","false","false","false","[0,2]","101","000","1","","","","","","",""
"","","","","","image-keyboard-response","251","649510","0.0-226.0","62854bc2a3bb1ddef989b6b7","665500ab8938657b03fbdba8","665792ae6c9e170b805a4e64","520","stimuli/21010002.jpg"," ","","feedback_trial","0","","","","","","","","","","","","","","","","","","","","",""
"","","","","","image-keyboard-response","252","650305","0.0-227.0","62854bc2a3bb1ddef989b6b7","665500ab8938657b03fbdba8","665792ae6c9e170b805a4e64","792","stimuli/0110101.jpg","0","","prediction_trial","1","","false","","0","false","false","false","false","false","false","[1,0]","110","101","0","","","","","","",""
"","","","","","image-keyboard-response","253","650864","0.0-228.0","62854bc2a3bb1ddef989b6b7","665500ab8938657b03fbdba8","665792ae6c9e170b805a4e64","558","stimuli/01101011.jpg"," ","","feedback_trial","1","","","","","","","","","","","","","","","","","","","","",""
"","","","","","image-keyboard-response","254","651834","0.0-229.0","62854bc2a3bb1ddef989b6b7","665500ab8938657b03fbdba8","665792ae6c9e170b805a4e64","968","stimuli/2110001.jpg","2","","prediction_trial","2","","true","","2","false","true","true","true","false","true","[2]","110","001","1","","","","","","",""
"","","","","","image-keyboard-response","255","652442","0.0-230.0","62854bc2a3bb1ddef989b6b7","665500ab8938657b03fbdba8","665792ae6c9e170b805a4e64","604","stimuli/21100012.jpg"," ","","feedback_trial","2","","","","","","","","","","","","","","","","","","","","",""
"","","","","","image-keyboard-response","256","653672","0.0-231.0","62854bc2a3bb1ddef989b6b7","665500ab8938657b03fbdba8","665792ae6c9e170b805a4e64","1227","stimuli/2111101.jpg","2","","prediction_trial","0","","false","","2","false","false","false","false","false","false","[0,2,1]","111","101","0","","","","","","",""
"","","","","","image-keyboard-response","257","654693","0.0-232.0","62854bc2a3bb1ddef989b6b7","665500ab8938657b03fbdba8","665792ae6c9e170b805a4e64","1020","stimuli/21111010.jpg"," ","","feedback_trial","0","","","","","","","","","","","","","","","","","","","","",""
"","","","","","image-keyboard-response","258","658905","0.0-233.0","62854bc2a3bb1ddef989b6b7","665500ab8938657b03fbdba8","665792ae6c9e170b805a4e64","4208","stimuli/0001101.jpg","2","","prediction_trial","0","","false","","0","false","false","true","true","false","false","[0]","001","101","0","","","","","","",""
"","","","","","image-keyboard-response","259","659696","0.0-234.0","62854bc2a3bb1ddef989b6b7","665500ab8938657b03fbdba8","665792ae6c9e170b805a4e64","788","stimuli/00011010.jpg"," ","","feedback_trial","0","","","","","","","","","","","","","","","","","","","","",""
"","","","","","image-keyboard-response","260","660961","0.0-235.0","62854bc2a3bb1ddef989b6b7","665500ab8938657b03fbdba8","665792ae6c9e170b805a4e64","1261","stimuli/1100010.jpg","1","","prediction_trial","1","","true","","1","false","true","true","true","false","true","[1]","100","010","1","","","","","","",""
"","","","","","image-keyboard-response","261","661463","0.0-236.0","62854bc2a3bb1ddef989b6b7","665500ab8938657b03fbdba8","665792ae6c9e170b805a4e64","499","stimuli/11000101.jpg"," ","","feedback_trial","1","","","","","","","","","","","","","","","","","","","","",""
"","","","","","image-keyboard-response","262","662249","0.0-237.0","62854bc2a3bb1ddef989b6b7","665500ab8938657b03fbdba8","665792ae6c9e170b805a4e64","785","stimuli/0000110.jpg","1","","prediction_trial","0","","false","","0","false","false","true","true","false","false","[0]","000","110","0","","","","","","",""
"","","","","","image-keyboard-response","263","662861","0.0-238.0","62854bc2a3bb1ddef989b6b7","665500ab8938657b03fbdba8","665792ae6c9e170b805a4e64","610","stimuli/00001100.jpg"," ","","feedback_trial","0","","","","","","","","","","","","","","","","","","","","",""
"","","","","","image-keyboard-response","264","663528","0.0-239.0","62854bc2a3bb1ddef989b6b7","665500ab8938657b03fbdba8","665792ae6c9e170b805a4e64","666","stimuli/2110010.jpg","2","","prediction_trial","2","","true","","2","true","true","true","true","true","true","[2]","110","010","1","","","","","","",""
"","","","","","image-keyboard-response","265","663954","0.0-240.0","62854bc2a3bb1ddef989b6b7","665500ab8938657b03fbdba8","665792ae6c9e170b805a4e64","423","stimuli/21100102.jpg"," ","","feedback_trial","2","","","","","","","","","","","","","","","","","","","","",""
"","","","","","image-keyboard-response","266","664806","0.0-241.0","62854bc2a3bb1ddef989b6b7","665500ab8938657b03fbdba8","665792ae6c9e170b805a4e64","850","stimuli/0000111.jpg","1","","prediction_trial","0","","false","","0","false","false","true","true","false","false","[0]","000","111","0","","","","","","",""
"","","","","","image-keyboard-response","267","665350","0.0-242.0","62854bc2a3bb1ddef989b6b7","665500ab8938657b03fbdba8","665792ae6c9e170b805a4e64","541","stimuli/00001110.jpg"," ","","feedback_trial","0","","","","","","","","","","","","","","","","","","","","",""
"","","","","","image-keyboard-response","268","666362","0.0-243.0","62854bc2a3bb1ddef989b6b7","665500ab8938657b03fbdba8","665792ae6c9e170b805a4e64","1008","stimuli/2111100.jpg","2","","prediction_trial","2","","true","","2","true","true","false","false","false","false","[0,2,1]","111","100","1","","","","","","",""
"","","","","","image-keyboard-response","269","666844","0.0-244.0","62854bc2a3bb1ddef989b6b7","665500ab8938657b03fbdba8","665792ae6c9e170b805a4e64","479","stimuli/21111002.jpg"," ","","feedback_trial","0","","","","","","","","","","","","","","","","","","","","",""
"","","","","","image-keyboard-response","270","667842","0.0-245.0","62854bc2a3bb1ddef989b6b7","665500ab8938657b03fbdba8","665792ae6c9e170b805a4e64","995","stimuli/2001000.jpg","2","","prediction_trial","2","","true","","2","true","true","false","true","false","true","[2]","001","000","1","","","","","","",""
"","","","","","image-keyboard-response","271","668282","0.0-246.0","62854bc2a3bb1ddef989b6b7","665500ab8938657b03fbdba8","665792ae6c9e170b805a4e64","437","stimuli/20010002.jpg"," ","","feedback_trial","2","","","","","","","","","","","","","","","","","","","","",""
"","","","","","image-keyboard-response","272","669147","0.0-247.0","62854bc2a3bb1ddef989b6b7","665500ab8938657b03fbdba8","665792ae6c9e170b805a4e64","863","stimuli/1110001.jpg","1","","prediction_trial","0","","false","","1","true","true","false","false","false","false","[1,0]","110","001","0","","","","","","",""
"","","","","","image-keyboard-response","273","669706","0.0-248.0","62854bc2a3bb1ddef989b6b7","665500ab8938657b03fbdba8","665792ae6c9e170b805a4e64","556","stimuli/11100010.jpg"," ","","feedback_trial","1","","","","","","","","","","","","","","","","","","","","",""
"","","","","","image-keyboard-response","274","670820","0.0-249.0","62854bc2a3bb1ddef989b6b7","665500ab8938657b03fbdba8","665792ae6c9e170b805a4e64","1112","stimuli/2000101.jpg","2","","prediction_trial","2","","true","","2","false","false","true","true","false","false","[2]","000","101","1","","","","","","",""
"","","","","","image-keyboard-response","275","671346","0.0-250.0","62854bc2a3bb1ddef989b6b7","665500ab8938657b03fbdba8","665792ae6c9e170b805a4e64","523","stimuli/20001012.jpg"," ","","feedback_trial","2","","","","","","","","","","","","","","","","","","","","",""
"","","","","","image-keyboard-response","276","672043","0.0-251.0","62854bc2a3bb1ddef989b6b7","665500ab8938657b03fbdba8","665792ae6c9e170b805a4e64","694","stimuli/0001011.jpg","0","","prediction_trial","0","","true","","0","true","true","true","true","true","true","[0]","001","011","1","","","","","","",""
"","","","","","image-keyboard-response","277","672590","0.0-252.0","62854bc2a3bb1ddef989b6b7","665500ab8938657b03fbdba8","665792ae6c9e170b805a4e64","545","stimuli/00010110.jpg"," ","","feedback_trial","0","","","","","","","","","","","","","","","","","","","","",""
"","","","","","image-keyboard-response","278","673180","0.0-253.0","62854bc2a3bb1ddef989b6b7","665500ab8938657b03fbdba8","665792ae6c9e170b805a4e64","587","stimuli/2100000.jpg","2","","prediction_trial","2","","true","","2","true","true","true","true","true","true","[2]","100","000","1","","","","","","",""
"","","","","","image-keyboard-response","279","673689","0.0-254.0","62854bc2a3bb1ddef989b6b7","665500ab8938657b03fbdba8","665792ae6c9e170b805a4e64","508","stimuli/21000002.jpg"," ","","feedback_trial","2","","","","","","","","","","","","","","","","","","","","",""
"","","","","","image-keyboard-response","280","675013","0.0-255.0","62854bc2a3bb1ddef989b6b7","665500ab8938657b03fbdba8","665792ae6c9e170b805a4e64","1305","stimuli/0100110.jpg","0","","prediction_trial","0","","true","","0","false","false","false","true","false","false","[0]","100","110","1","","","","","","",""
"","","","","","image-keyboard-response","281","675511","0.0-256.0","62854bc2a3bb1ddef989b6b7","665500ab8938657b03fbdba8","665792ae6c9e170b805a4e64","496","stimuli/01001100.jpg"," ","","feedback_trial","0","","","","","","","","","","","","","","","","","","","","",""
"","","","","","image-keyboard-response","282","676168","0.0-257.0","62854bc2a3bb1ddef989b6b7","665500ab8938657b03fbdba8","665792ae6c9e170b805a4e64","655","stimuli/2100110.jpg","2","","prediction_trial","2","","true","","2","true","true","true","true","true","true","[2]","100","110","1","","","","","","",""
"","","","","","image-keyboard-response","283","676971","0.0-258.0","62854bc2a3bb1ddef989b6b7","665500ab8938657b03fbdba8","665792ae6c9e170b805a4e64","799","stimuli/21001102.jpg"," ","","feedback_trial","2","","","","","","","","","","","","","","","","","","","","",""
"","","","","","image-keyboard-response","284","677756","0.0-259.0","62854bc2a3bb1ddef989b6b7","665500ab8938657b03fbdba8","665792ae6c9e170b805a4e64","782","stimuli/2110110.jpg","2","","prediction_trial","2","","true","","2","true","true","true","true","true","true","[2]","110","110","1","","","","","","",""
"","","","","","image-keyboard-response","285","678191","0.0-260.0","62854bc2a3bb1ddef989b6b7","665500ab8938657b03fbdba8","665792ae6c9e170b805a4e64","433","stimuli/21101102.jpg"," ","","feedback_trial","2","","","","","","","","","","","","","","","","","","","","",""
"","","","","","image-keyboard-response","286","679546","0.0-261.0","62854bc2a3bb1ddef989b6b7","665500ab8938657b03fbdba8","665792ae6c9e170b805a4e64","1354","stimuli/1111111.jpg","1","","prediction_trial","0","","false","","1","false","false","false","false","false","false","[0,2,1]","111","111","0","","","","","","",""
"","","","","","image-keyboard-response","287","680088","0.0-262.0","62854bc2a3bb1ddef989b6b7","665500ab8938657b03fbdba8","665792ae6c9e170b805a4e64","539","stimuli/11111110.jpg"," ","","feedback_trial","0","","","","","","","","","","","","","","","","","","","","",""
"","","","","","image-keyboard-response","288","686178","0.0-263.0","62854bc2a3bb1ddef989b6b7","665500ab8938657b03fbdba8","665792ae6c9e170b805a4e64","6086","stimuli/1001011.jpg","2","","prediction_trial","1","","false","","1","false","false","true","true","false","false","[1]","001","011","0","","","","","","",""
"","","","","","image-keyboard-response","289","687271","0.0-264.0","62854bc2a3bb1ddef989b6b7","665500ab8938657b03fbdba8","665792ae6c9e170b805a4e64","1090","stimuli/10010111.jpg"," ","","feedback_trial","1","","","","","","","","","","","","","","","","","","","","",""
"","","","","","image-keyboard-response","290","688175","0.0-265.0","62854bc2a3bb1ddef989b6b7","665500ab8938657b03fbdba8","665792ae6c9e170b805a4e64","902","stimuli/1100110.jpg","1","","prediction_trial","1","","true","","1","false","false","true","true","false","false","[1]","100","110","1","","","","","","",""
"","","","","","image-keyboard-response","291","688595","0.0-266.0","62854bc2a3bb1ddef989b6b7","665500ab8938657b03fbdba8","665792ae6c9e170b805a4e64","416","stimuli/11001101.jpg"," ","","feedback_trial","1","","","","","","","","","","","","","","","","","","","","",""
"","","","","","image-keyboard-response","292","689389","0.0-267.0","62854bc2a3bb1ddef989b6b7","665500ab8938657b03fbdba8","665792ae6c9e170b805a4e64","791","stimuli/0101010.jpg","0","","prediction_trial","0","","true","","0","true","true","false","false","false","false","[2,0]","101","010","1","","","","","","",""
"","","","","","image-keyboard-response","293","689784","0.0-268.0","62854bc2a3bb1ddef989b6b7","665500ab8938657b03fbdba8","665792ae6c9e170b805a4e64","392","stimuli/01010100.jpg"," ","","feedback_trial","2","","","","","","","","","","","","","","","","","","","","",""
"","","","","","image-keyboard-response","294","690357","0.0-269.0","62854bc2a3bb1ddef989b6b7","665500ab8938657b03fbdba8","665792ae6c9e170b805a4e64","570","stimuli/2100010.jpg","2","","prediction_trial","2","","true","","2","true","true","true","true","true","true","[2]","100","010","1","","","","","","",""
"","","","","","image-keyboard-response","295","690752","0.0-270.0","62854bc2a3bb1ddef989b6b7","665500ab8938657b03fbdba8","665792ae6c9e170b805a4e64","393","stimuli/21000102.jpg"," ","","feedback_trial","2","","","","","","","","","","","","","","","","","","","","",""
"","","","","","image-keyboard-response","296","692157","0.0-271.0","62854bc2a3bb1ddef989b6b7","665500ab8938657b03fbdba8","665792ae6c9e170b805a4e64","1401","stimuli/1010111.jpg","1","","prediction_trial","1","","true","","1","false","false","false","true","false","false","[1]","010","111","1","","","","","","",""
"","","","","","image-keyboard-response","297","692574","0.0-272.0","62854bc2a3bb1ddef989b6b7","665500ab8938657b03fbdba8","665792ae6c9e170b805a4e64","414","stimuli/10101111.jpg"," ","","feedback_trial","1","","","","","","","","","","","","","","","","","","","","",""
"","","","","","image-keyboard-response","298","694189","0.0-273.0","62854bc2a3bb1ddef989b6b7","665500ab8938657b03fbdba8","665792ae6c9e170b805a4e64","1613","stimuli/2011011.jpg","1","","prediction_trial","2","","false","","2","false","false","false","false","false","false","[1,2]","011","011","0","","","","","","",""
"","","","","","image-keyboard-response","299","694644","0.0-274.0","62854bc2a3bb1ddef989b6b7","665500ab8938657b03fbdba8","665792ae6c9e170b805a4e64","451","stimuli/20110112.jpg"," ","","feedback_trial","1","","","","","","","","","","","","","","","","","","","","",""
"","","","","","image-keyboard-response","300","695469","0.0-275.0","62854bc2a3bb1ddef989b6b7","665500ab8938657b03fbdba8","665792ae6c9e170b805a4e64","822","stimuli/1110010.jpg","1","","prediction_trial","0","","false","","1","false","true","false","false","false","false","[0,1]","110","010","0","","","","","","",""
"","","","","","image-keyboard-response","301","695913","0.0-276.0","62854bc2a3bb1ddef989b6b7","665500ab8938657b03fbdba8","665792ae6c9e170b805a4e64","441","stimuli/11100100.jpg"," ","","feedback_trial","0","","","","","","","","","","","","","","","","","","","","",""
"","","","","","image-keyboard-response","302","698108","0.0-277.0","62854bc2a3bb1ddef989b6b7","665500ab8938657b03fbdba8","665792ae6c9e170b805a4e64","2191","stimuli/0100111.jpg","1","","prediction_trial","0","","false","","0","false","false","false","true","false","false","[0]","100","111","0","","","","","","",""
"","","","","","image-keyboard-response","303","698559","0.0-278.0","62854bc2a3bb1ddef989b6b7","665500ab8938657b03fbdba8","665792ae6c9e170b805a4e64","448","stimuli/01001110.jpg"," ","","feedback_trial","0","","","","","","","","","","","","","","","","","","","","",""
"","","","","","image-keyboard-response","304","700797","0.0-279.0","62854bc2a3bb1ddef989b6b7","665500ab8938657b03fbdba8","665792ae6c9e170b805a4e64","2235","stimuli/1011111.jpg","1","","prediction_trial","1","","true","","1","false","false","false","false","false","false","[2,1]","011","111","1","","","","","","",""
"","","","","","image-keyboard-response","305","701374","0.0-280.0","62854bc2a3bb1ddef989b6b7","665500ab8938657b03fbdba8","665792ae6c9e170b805a4e64","574","stimuli/10111111.jpg"," ","","feedback_trial","2","","","","","","","","","","","","","","","","","","","","",""
"","","","","","image-keyboard-response","306","703765","0.0-281.0","62854bc2a3bb1ddef989b6b7","665500ab8938657b03fbdba8","665792ae6c9e170b805a4e64","2388","stimuli/2101001.jpg","2","","prediction_trial","2","","true","","2","false","true","false","false","false","false","[2,0]","101","001","1","","","","","","",""
"","","","","","image-keyboard-response","307","704237","0.0-282.0","62854bc2a3bb1ddef989b6b7","665500ab8938657b03fbdba8","665792ae6c9e170b805a4e64","469","stimuli/21010012.jpg"," ","","feedback_trial","2","","","","","","","","","","","","","","","","","","","","",""
"","","","","","image-keyboard-response","308","704998","0.0-283.0","62854bc2a3bb1ddef989b6b7","665500ab8938657b03fbdba8","665792ae6c9e170b805a4e64","759","stimuli/1001001.jpg","1","","prediction_trial","1","","true","","1","true","true","true","true","true","true","[1]","001","001","1","","","","","","",""
"","","","","","image-keyboard-response","309","705358","0.0-284.0","62854bc2a3bb1ddef989b6b7","665500ab8938657b03fbdba8","665792ae6c9e170b805a4e64","356","stimuli/10010011.jpg"," ","","feedback_trial","1","","","","","","","","","","","","","","","","","","","","",""
"","","","","","image-keyboard-response","310","706858","0.0-285.0","62854bc2a3bb1ddef989b6b7","665500ab8938657b03fbdba8","665792ae6c9e170b805a4e64","1498","stimuli/2001011.jpg","2","","prediction_trial","2","","true","","2","false","false","false","true","false","false","[2]","001","011","1","","","","","","",""
"","","","","","image-keyboard-response","311","707352","0.0-286.0","62854bc2a3bb1ddef989b6b7","665500ab8938657b03fbdba8","665792ae6c9e170b805a4e64","491","stimuli/20010112.jpg"," ","","feedback_trial","2","","","","","","","","","","","","","","","","","","","","",""
"","","","","","image-keyboard-response","312","708146","0.0-287.0","62854bc2a3bb1ddef989b6b7","665500ab8938657b03fbdba8","665792ae6c9e170b805a4e64","791","stimuli/2000010.jpg","2","","prediction_trial","2","","true","","2","true","true","true","true","true","true","[2]","000","010","1","","","","","","",""
"","","","","","image-keyboard-response","313","708506","0.0-288.0","62854bc2a3bb1ddef989b6b7","665500ab8938657b03fbdba8","665792ae6c9e170b805a4e64","356","stimuli/20000102.jpg"," ","","feedback_trial","2","","","","","","","","","","","","","","","","","","","","",""
"","","","","","image-keyboard-response","314","710645","0.0-289.0","62854bc2a3bb1ddef989b6b7","665500ab8938657b03fbdba8","665792ae6c9e170b805a4e64","2136","stimuli/0111100.jpg","1","","prediction_trial","1","","true","","0","false","true","false","false","false","false","[0,1,2]","111","100","1","","","","","","",""
"","","","","","image-keyboard-response","315","711107","0.0-290.0","62854bc2a3bb1ddef989b6b7","665500ab8938657b03fbdba8","665792ae6c9e170b805a4e64","459","stimuli/01111001.jpg"," ","","feedback_trial","0","","","","","","","","","","","","","","","","","","","","",""
"","","","","","image-keyboard-response","316","713077","0.0-291.0","62854bc2a3bb1ddef989b6b7","665500ab8938657b03fbdba8","665792ae6c9e170b805a4e64","1967","stimuli/2101111.jpg","0","","prediction_trial","0","","true","","2","false","false","false","false","false","false","[2,0]","101","111","1","","","","","","",""
"","","","","","image-keyboard-response","317","713623","0.0-292.0","62854bc2a3bb1ddef989b6b7","665500ab8938657b03fbdba8","665792ae6c9e170b805a4e64","543","stimuli/21011110.jpg"," ","","feedback_trial","2","","","","","","","","","","","","","","","","","","","","",""
"","","","","","survey-html-form","318","839860","0.0-293.0","62854bc2a3bb1ddef989b6b7","665500ab8938657b03fbdba8","665792ae6c9e170b805a4e64","126232","","{""feedback"":""If I didn't have much information to go on then I just guessed."",""age"":""33"",""gender"":""Male"",""other_gender"":"""",""race"":""White"",""other_race"":"""",""ethnicity"":""Non-Hispanic""}","","exit_survey","","","","","","","","","","","","","","","","If I didn't have much information to go on then I just guessed.","33","Non-Hispanic","Male","White","0.6944444444444444","0.6944444444444444"
