"success","timeout","failed_images","failed_audio","failed_video","trial_type","trial_index","time_elapsed","internal_node_id","prolific_id","prolific_study_id","prolific_session_id","rt","stimulus","response","view_history","trial","character_choice","stimulus_dict","accuracy","correct_response","ball_pos","ego_ball_visible","ego_can_infer","alter_ball_visible","alter_can_infer","collective_ball_visible","collective_can_infer","search_locations","alter_occluders","ego_occluders","accuracy_bool","feedback","age","ethnicity","gender","race","overall_accuracy","bonus"
"true","false","[]","[]","[]","preload","0","1353","0.0-0.0","60b54dde7e4ce8de0f1f24be","665500ab8938657b03fbdba8","665793041f5820de30e93e71","","","","","","","","","","","","","","","","","","","","","","","","","","",""
"true","","","","","fullscreen","1","4744","0.0-1.0","60b54dde7e4ce8de0f1f24be","665500ab8938657b03fbdba8","665793041f5820de30e93e71","","","","","","","","","","","","","","","","","","","","","","","","","","",""
"","","","","","html-button-response","2","22873","0.0-2.0","60b54dde7e4ce8de0f1f24be","665500ab8938657b03fbdba8","665793041f5820de30e93e71","18125","<p><b>Consent Form</b></p> <div style=""text-align:left;background-color:lightgrey; padding:20px; max-width:900px;""><p>Please consider this information carefully before deciding whether to participate in this research.</p> <p>The purpose of this research is to examine which factors influence social judgment and decision-making. You will be asked to make judgements about individuals and actions in social scenarios. We are simply interested in your judgement. The study will take less than 1 hour to complete, and you will receive less than $20 on Prolific. Your compensation and time commitment are specified in the study description. There are no anticipated risks associated with participating in this study. The effects of participating should be comparable to those you would ordinarily experience from viewing a computer monitor and using a mouse or keyboard for a similar amount of time. At the end of the study, we will provide an explanation of the questions that motivate this line of research and will describe the potential implications. </p><p> Your participation in this study is completely voluntary and you may refuse to participate or you may choose to withdraw at any time without penalty or loss of benefits to you which are otherwise entitled. Your participation in this study will remain confidential. No personally identifiable information will be associated with your data. Also, all analyses of the data will be averaged across all the participants, so your individual responses will never be specifically analyzed. </p><p> If you have questions or concerns about your participation or payment, or want to request a summary of research findings, please contact Dr. Jonathan Phillips at Jonathan.S.Phillips@dartmouth.edu. </p><p> Please save a copy of this form for your records. </p><p><b>Agreement: </b>The nature and purpose of this research have been sufficiently explained and I agree to participate in this study. I understand that I am free to withdraw at any time without incurring any penalty. Please consent by clicking the button below to continue. Otherwise, please exit the study at any time. </p>","0","","","","","","","","","","","","","","","","","","","","","","","",""
"","","","","","instructions","3","90673","0.0-3.0-0.0","60b54dde7e4ce8de0f1f24be","665500ab8938657b03fbdba8","665793041f5820de30e93e71","67797","","","[{""page_index"":0,""viewing_time"":1337},{""page_index"":1,""viewing_time"":1727},{""page_index"":2,""viewing_time"":1994},{""page_index"":3,""viewing_time"":4748},{""page_index"":4,""viewing_time"":3426},{""page_index"":5,""viewing_time"":2663},{""page_index"":6,""viewing_time"":3197},{""page_index"":7,""viewing_time"":2513},{""page_index"":8,""viewing_time"":2187},{""page_index"":9,""viewing_time"":2491},{""page_index"":10,""viewing_time"":32319},{""page_index"":11,""viewing_time"":5501},{""page_index"":12,""viewing_time"":2533},{""page_index"":13,""viewing_time"":1162}]","intro","","","","","","","","","","","","","","","","","","","","","",""
"","","","","","image-keyboard-response","4","94262","0.0-3.0-1.0","60b54dde7e4ce8de0f1f24be","665500ab8938657b03fbdba8","665793041f5820de30e93e71","3583","stimuli/1111001.jpg","1","","prediction_practice","0","{""filepath"":""stimuli/1111001.jpg"",""ball_pos"":1,""ego_ball_visible"":true,""ego_can_infer"":true,""alter_ball_visible"":false,""alter_can_infer"":false,""collective_ball_visible"":false,""collective_can_infer"":false,""search_locations"":[1,0,2],""alter_occluders"":""111"",""ego_occluders"":""001""}","false","","","","","","","","","","","","","","","","","","",""
"","","","","","image-keyboard-response","5","100210","0.0-3.0-2.0","60b54dde7e4ce8de0f1f24be","665500ab8938657b03fbdba8","665793041f5820de30e93e71","5946","stimuli/11110010.jpg"," ","","practrice_feedback","1","","","","","","","","","","","","","","","","","","","","",""
"","","","","","image-keyboard-response","6","105302","0.0-3.0-3.0","60b54dde7e4ce8de0f1f24be","665500ab8938657b03fbdba8","665793041f5820de30e93e71","5090","stimuli/1110000.jpg","2","","prediction_practice","0","{""filepath"":""stimuli/1110000.jpg"",""ball_pos"":1,""ego_ball_visible"":true,""ego_can_infer"":true,""alter_ball_visible"":false,""alter_can_infer"":false,""collective_ball_visible"":false,""collective_can_infer"":false,""search_locations"":[0,1],""alter_occluders"":""110"",""ego_occluders"":""000""}","false","","","","","","","","","","","","","","","","","","",""
"","","","","","image-keyboard-response","7","115087","0.0-3.0-4.0","60b54dde7e4ce8de0f1f24be","665500ab8938657b03fbdba8","665793041f5820de30e93e71","9784","stimuli/11100000.jpg"," ","","practrice_feedback","0","","","","","","","","","","","","","","","","","","","","",""
"","","","","","image-keyboard-response","8","119814","0.0-3.0-5.0","60b54dde7e4ce8de0f1f24be","665500ab8938657b03fbdba8","665793041f5820de30e93e71","4725","stimuli/0100111.jpg","1","","prediction_practice","0","{""filepath"":""stimuli/0100111.jpg"",""ball_pos"":0,""ego_ball_visible"":false,""ego_can_infer"":false,""alter_ball_visible"":false,""alter_can_infer"":true,""collective_ball_visible"":false,""collective_can_infer"":false,""search_locations"":[0],""alter_occluders"":""100"",""ego_occluders"":""111""}","false","","","","","","","","","","","","","","","","","","",""
"","","","","","image-keyboard-response","9","122423","0.0-3.0-6.0","60b54dde7e4ce8de0f1f24be","665500ab8938657b03fbdba8","665793041f5820de30e93e71","2607","stimuli/01001110.jpg"," ","","practrice_feedback","0","","","","","","","","","","","","","","","","","","","","",""
"","","","","","image-keyboard-response","10","126365","0.0-3.0-7.0","60b54dde7e4ce8de0f1f24be","665500ab8938657b03fbdba8","665793041f5820de30e93e71","3941","stimuli/0100110.jpg","0","","prediction_practice","0","{""filepath"":""stimuli/0100110.jpg"",""ball_pos"":0,""ego_ball_visible"":false,""ego_can_infer"":false,""alter_ball_visible"":false,""alter_can_infer"":true,""collective_ball_visible"":false,""collective_can_infer"":false,""search_locations"":[0],""alter_occluders"":""100"",""ego_occluders"":""110""}","true","","","","","","","","","","","","","","","","","","",""
"","","","","","image-keyboard-response","11","127452","0.0-3.0-8.0","60b54dde7e4ce8de0f1f24be","665500ab8938657b03fbdba8","665793041f5820de30e93e71","1085","stimuli/01001100.jpg"," ","","practrice_feedback","0","","","","","","","","","","","","","","","","","","","","",""
"","","","","","image-keyboard-response","12","129011","0.0-3.0-9.0","60b54dde7e4ce8de0f1f24be","665500ab8938657b03fbdba8","665793041f5820de30e93e71","1557","stimuli/0111001.jpg","0","","prediction_practice","0","{""filepath"":""stimuli/0111001.jpg"",""ball_pos"":0,""ego_ball_visible"":true,""ego_can_infer"":true,""alter_ball_visible"":false,""alter_can_infer"":false,""collective_ball_visible"":false,""collective_can_infer"":false,""search_locations"":[2,0,1],""alter_occluders"":""111"",""ego_occluders"":""001""}","true","","","","","","","","","","","","","","","","","","",""
"","","","","","image-keyboard-response","13","130177","0.0-3.0-10.0","60b54dde7e4ce8de0f1f24be","665500ab8938657b03fbdba8","665793041f5820de30e93e71","1164","stimuli/01110010.jpg"," ","","practrice_feedback","2","","","","","","","","","","","","","","","","","","","","",""
"","","","","","image-keyboard-response","14","132524","0.0-3.0-11.0","60b54dde7e4ce8de0f1f24be","665500ab8938657b03fbdba8","665793041f5820de30e93e71","2346","stimuli/2101100.jpg","2","","prediction_practice","2","{""filepath"":""stimuli/2101100.jpg"",""ball_pos"":2,""ego_ball_visible"":true,""ego_can_infer"":true,""alter_ball_visible"":false,""alter_can_infer"":false,""collective_ball_visible"":false,""collective_can_infer"":false,""search_locations"":[0,2],""alter_occluders"":""101"",""ego_occluders"":""100""}","true","","","","","","","","","","","","","","","","","","",""
"","","","","","image-keyboard-response","15","132760","0.0-3.0-12.0","60b54dde7e4ce8de0f1f24be","665500ab8938657b03fbdba8","665793041f5820de30e93e71","234","stimuli/21011002.jpg"," ","","practrice_feedback","0","","","","","","","","","","","","","","","","","","","","",""
"","","","","","image-keyboard-response","16","134403","0.0-3.0-13.0","60b54dde7e4ce8de0f1f24be","665500ab8938657b03fbdba8","665793041f5820de30e93e71","1631","stimuli/0110001.jpg","0","","prediction_practice","1","{""filepath"":""stimuli/0110001.jpg"",""ball_pos"":0,""ego_ball_visible"":true,""ego_can_infer"":true,""alter_ball_visible"":false,""alter_can_infer"":false,""collective_ball_visible"":false,""collective_can_infer"":false,""search_locations"":[0,1],""alter_occluders"":""110"",""ego_occluders"":""001""}","false","","","","","","","","","","","","","","","","","","",""
"","","","","","image-keyboard-response","17","134629","0.0-3.0-14.0","60b54dde7e4ce8de0f1f24be","665500ab8938657b03fbdba8","665793041f5820de30e93e71","225","stimuli/01100011.jpg"," ","","practrice_feedback","0","","","","","","","","","","","","","","","","","","","","",""
"","","","","","image-keyboard-response","18","136847","0.0-3.0-15.0","60b54dde7e4ce8de0f1f24be","665500ab8938657b03fbdba8","665793041f5820de30e93e71","2216","stimuli/0100010.jpg","0","","prediction_practice","0","{""filepath"":""stimuli/0100010.jpg"",""ball_pos"":0,""ego_ball_visible"":true,""ego_can_infer"":true,""alter_ball_visible"":false,""alter_can_infer"":true,""collective_ball_visible"":false,""collective_can_infer"":true,""search_locations"":[0],""alter_occluders"":""100"",""ego_occluders"":""010""}","true","","","","","","","","","","","","","","","","","","",""
"","","","","","image-keyboard-response","19","137950","0.0-3.0-16.0","60b54dde7e4ce8de0f1f24be","665500ab8938657b03fbdba8","665793041f5820de30e93e71","1101","stimuli/01000100.jpg"," ","","practrice_feedback","0","","","","","","","","","","","","","","","","","","","","",""
"","","","","","image-keyboard-response","20","140001","0.0-3.0-17.0","60b54dde7e4ce8de0f1f24be","665500ab8938657b03fbdba8","665793041f5820de30e93e71","2049","stimuli/2100101.jpg","0","","prediction_practice","2","{""filepath"":""stimuli/2100101.jpg"",""ball_pos"":2,""ego_ball_visible"":false,""ego_can_infer"":false,""alter_ball_visible"":true,""alter_can_infer"":true,""collective_ball_visible"":false,""collective_can_infer"":false,""search_locations"":[2],""alter_occluders"":""100"",""ego_occluders"":""101""}","false","","","","","","","","","","","","","","","","","","",""
"","","","","","image-keyboard-response","21","140961","0.0-3.0-18.0","60b54dde7e4ce8de0f1f24be","665500ab8938657b03fbdba8","665793041f5820de30e93e71","959","stimuli/21001012.jpg"," ","","practrice_feedback","2","","","","","","","","","","","","","","","","","","","","",""
"","","","","","image-keyboard-response","22","142271","0.0-3.0-19.0","60b54dde7e4ce8de0f1f24be","665500ab8938657b03fbdba8","665793041f5820de30e93e71","1308","stimuli/0011111.jpg","0","","prediction_practice","0","{""filepath"":""stimuli/0011111.jpg"",""ball_pos"":0,""ego_ball_visible"":false,""ego_can_infer"":false,""alter_ball_visible"":true,""alter_can_infer"":true,""collective_ball_visible"":false,""collective_can_infer"":false,""search_locations"":[0],""alter_occluders"":""011"",""ego_occluders"":""111""}","true","","","","","","","","","","","","","","","","","","",""
"","","","","","image-keyboard-response","23","143078","0.0-3.0-20.0","60b54dde7e4ce8de0f1f24be","665500ab8938657b03fbdba8","665793041f5820de30e93e71","806","stimuli/00111110.jpg"," ","","practrice_feedback","0","","","","","","","","","","","","","","","","","","","","",""
"","","","","","html-button-response","24","145049","0.0-3.0-21.0","60b54dde7e4ce8de0f1f24be","665500ab8938657b03fbdba8","665793041f5820de30e93e71","1970","Now that you've had some practice, you'll be tested with a couple of easy trials. If you correctly predict Sam's choice, you'll move on to complete the experiment!","0","","","","","","","","","","","","","","","","","","","","","","","",""
"","","","","","image-keyboard-response","25","146401","0.0-3.0-22.0-0.0","60b54dde7e4ce8de0f1f24be","665500ab8938657b03fbdba8","665793041f5820de30e93e71","1350","stimuli/0000011.jpg","arrowleft","","comprehension_quiz","","","true","arrowleft","","","","","","","","","","","","","","","","","",""
"","","","","","image-keyboard-response","26","147263","0.0-3.0-22.0-1.0","60b54dde7e4ce8de0f1f24be","665500ab8938657b03fbdba8","665793041f5820de30e93e71","859","stimuli/00000110.jpg"," ","","comprehension_quiz","","","true"," ","","","","","","","","","","","","","","","","","",""
"","","","","","image-keyboard-response","27","151736","0.0-3.0-22.0-2.0","60b54dde7e4ce8de0f1f24be","665500ab8938657b03fbdba8","665793041f5820de30e93e71","4471","stimuli/1010010.jpg","arrowdown","","comprehension_quiz","","","true","arrowdown","","","","","","","","","","","","","","","","","",""
"","","","","","image-keyboard-response","28","152766","0.0-3.0-22.0-3.0","60b54dde7e4ce8de0f1f24be","665500ab8938657b03fbdba8","665793041f5820de30e93e71","1028","stimuli/10100101.jpg"," ","","comprehension_quiz","","","true"," ","","","","","","","","","","","","","","","","","",""
"","","","","","html-button-response","29","154274","0.0-4.0","60b54dde7e4ce8de0f1f24be","665500ab8938657b03fbdba8","665793041f5820de30e93e71","1505","The experiment will now begin.","0","","","","","","","","","","","","","","","","","","","","","","","",""
"","","","","","image-keyboard-response","30","156168","0.0-5.0","60b54dde7e4ce8de0f1f24be","665500ab8938657b03fbdba8","665793041f5820de30e93e71","1892","stimuli/2111101.jpg","2","","prediction_trial","1","","false","","2","false","false","false","false","false","false","[2,1,0]","111","101","0","","","","","","",""
"","","","","","image-keyboard-response","31","156999","0.0-6.0","60b54dde7e4ce8de0f1f24be","665500ab8938657b03fbdba8","665793041f5820de30e93e71","828","stimuli/21111011.jpg"," ","","feedback_trial","2","","","","","","","","","","","","","","","","","","","","",""
"","","","","","image-keyboard-response","32","157823","0.0-7.0","60b54dde7e4ce8de0f1f24be","665500ab8938657b03fbdba8","665793041f5820de30e93e71","823","stimuli/2110101.jpg","0","","prediction_trial","2","","false","","2","false","false","true","true","false","false","[2]","110","101","0","","","","","","",""
"","","","","","image-keyboard-response","33","158525","0.0-8.0","60b54dde7e4ce8de0f1f24be","665500ab8938657b03fbdba8","665793041f5820de30e93e71","700","stimuli/21101012.jpg"," ","","feedback_trial","2","","","","","","","","","","","","","","","","","","","","",""
"","","","","","image-keyboard-response","34","159916","0.0-9.0","60b54dde7e4ce8de0f1f24be","665500ab8938657b03fbdba8","665793041f5820de30e93e71","1389","stimuli/1101111.jpg","0","","prediction_trial","1","","false","","1","false","false","true","true","false","false","[1]","101","111","0","","","","","","",""
"","","","","","image-keyboard-response","35","160533","0.0-10.0","60b54dde7e4ce8de0f1f24be","665500ab8938657b03fbdba8","665793041f5820de30e93e71","614","stimuli/11011111.jpg"," ","","feedback_trial","1","","","","","","","","","","","","","","","","","","","","",""
"","","","","","image-keyboard-response","36","161207","0.0-11.0","60b54dde7e4ce8de0f1f24be","665500ab8938657b03fbdba8","665793041f5820de30e93e71","672","stimuli/0111000.jpg","0","","prediction_trial","2","","false","","0","true","true","false","false","false","false","[2,1,0]","111","000","0","","","","","","",""
"","","","","","image-keyboard-response","37","161685","0.0-12.0","60b54dde7e4ce8de0f1f24be","665500ab8938657b03fbdba8","665793041f5820de30e93e71","476","stimuli/01110002.jpg"," ","","feedback_trial","2","","","","","","","","","","","","","","","","","","","","",""
"","","","","","image-keyboard-response","38","162833","0.0-13.0","60b54dde7e4ce8de0f1f24be","665500ab8938657b03fbdba8","665793041f5820de30e93e71","1147","stimuli/0101100.jpg","0","","prediction_trial","0","","true","","0","false","true","false","false","false","false","[2,0]","101","100","1","","","","","","",""
"","","","","","image-keyboard-response","39","163635","0.0-14.0","60b54dde7e4ce8de0f1f24be","665500ab8938657b03fbdba8","665793041f5820de30e93e71","800","stimuli/01011000.jpg"," ","","feedback_trial","2","","","","","","","","","","","","","","","","","","","","",""
"","","","","","image-keyboard-response","40","164933","0.0-15.0","60b54dde7e4ce8de0f1f24be","665500ab8938657b03fbdba8","665793041f5820de30e93e71","1296","stimuli/1001110.jpg","0","","prediction_trial","1","","false","","1","false","false","true","true","false","false","[1]","001","110","0","","","","","","",""
"","","","","","image-keyboard-response","41","165402","0.0-16.0","60b54dde7e4ce8de0f1f24be","665500ab8938657b03fbdba8","665793041f5820de30e93e71","467","stimuli/10011101.jpg"," ","","feedback_trial","1","","","","","","","","","","","","","","","","","","","","",""
"","","","","","image-keyboard-response","42","166043","0.0-17.0","60b54dde7e4ce8de0f1f24be","665500ab8938657b03fbdba8","665793041f5820de30e93e71","639","stimuli/0111100.jpg","0","","prediction_trial","2","","false","","0","false","true","false","false","false","false","[0,2,1]","111","100","0","","","","","","",""
"","","","","","image-keyboard-response","43","166483","0.0-18.0","60b54dde7e4ce8de0f1f24be","665500ab8938657b03fbdba8","665793041f5820de30e93e71","438","stimuli/01111002.jpg"," ","","feedback_trial","0","","","","","","","","","","","","","","","","","","","","",""
"","","","","","image-keyboard-response","44","167741","0.0-19.0","60b54dde7e4ce8de0f1f24be","665500ab8938657b03fbdba8","665793041f5820de30e93e71","1256","stimuli/0011111.jpg","0","","prediction_trial","0","","true","","0","false","false","true","true","false","false","[0]","011","111","1","","","","","","",""
"","","","","","image-keyboard-response","45","168135","0.0-20.0","60b54dde7e4ce8de0f1f24be","665500ab8938657b03fbdba8","665793041f5820de30e93e71","393","stimuli/00111110.jpg"," ","","feedback_trial","0","","","","","","","","","","","","","","","","","","","","",""
"","","","","","image-keyboard-response","46","169846","0.0-21.0","60b54dde7e4ce8de0f1f24be","665500ab8938657b03fbdba8","665793041f5820de30e93e71","1709","stimuli/2000000.jpg","2","","prediction_trial","2","","true","","2","true","true","true","true","true","true","[2]","000","000","1","","","","","","",""
"","","","","","image-keyboard-response","47","170560","0.0-22.0","60b54dde7e4ce8de0f1f24be","665500ab8938657b03fbdba8","665793041f5820de30e93e71","712","stimuli/20000002.jpg"," ","","feedback_trial","2","","","","","","","","","","","","","","","","","","","","",""
"","","","","","image-keyboard-response","48","171351","0.0-23.0","60b54dde7e4ce8de0f1f24be","665500ab8938657b03fbdba8","665793041f5820de30e93e71","790","stimuli/2101100.jpg","2","","prediction_trial","0","","false","","2","true","true","false","false","false","false","[0,2]","101","100","0","","","","","","",""
"","","","","","image-keyboard-response","49","171810","0.0-24.0","60b54dde7e4ce8de0f1f24be","665500ab8938657b03fbdba8","665793041f5820de30e93e71","457","stimuli/21011000.jpg"," ","","feedback_trial","0","","","","","","","","","","","","","","","","","","","","",""
"","","","","","image-keyboard-response","50","175346","0.0-25.0","60b54dde7e4ce8de0f1f24be","665500ab8938657b03fbdba8","665793041f5820de30e93e71","3534","stimuli/1100110.jpg","1","","prediction_trial","1","","true","","1","false","false","true","true","false","false","[1]","100","110","1","","","","","","",""
"","","","","","image-keyboard-response","51","176063","0.0-26.0","60b54dde7e4ce8de0f1f24be","665500ab8938657b03fbdba8","665793041f5820de30e93e71","717","stimuli/11001101.jpg"," ","","feedback_trial","1","","","","","","","","","","","","","","","","","","","","",""
"","","","","","image-keyboard-response","52","178067","0.0-27.0","60b54dde7e4ce8de0f1f24be","665500ab8938657b03fbdba8","665793041f5820de30e93e71","2002","stimuli/0001111.jpg","1","","prediction_trial","0","","false","","0","false","false","true","true","false","false","[0]","001","111","0","","","","","","",""
"","","","","","image-keyboard-response","53","178538","0.0-28.0","60b54dde7e4ce8de0f1f24be","665500ab8938657b03fbdba8","665793041f5820de30e93e71","470","stimuli/00011110.jpg"," ","","feedback_trial","0","","","","","","","","","","","","","","","","","","","","",""
"","","","","","image-keyboard-response","54","179157","0.0-29.0","60b54dde7e4ce8de0f1f24be","665500ab8938657b03fbdba8","665793041f5820de30e93e71","618","stimuli/0000001.jpg","0","","prediction_trial","0","","true","","0","true","true","true","true","true","true","[0]","000","001","1","","","","","","",""
"","","","","","image-keyboard-response","55","179665","0.0-30.0","60b54dde7e4ce8de0f1f24be","665500ab8938657b03fbdba8","665793041f5820de30e93e71","506","stimuli/00000010.jpg"," ","","feedback_trial","0","","","","","","","","","","","","","","","","","","","","",""
"","","","","","image-keyboard-response","56","180335","0.0-31.0","60b54dde7e4ce8de0f1f24be","665500ab8938657b03fbdba8","665793041f5820de30e93e71","669","stimuli/0000110.jpg","0","","prediction_trial","0","","true","","0","false","false","true","true","false","false","[0]","000","110","1","","","","","","",""
"","","","","","image-keyboard-response","57","180892","0.0-32.0","60b54dde7e4ce8de0f1f24be","665500ab8938657b03fbdba8","665793041f5820de30e93e71","555","stimuli/00001100.jpg"," ","","feedback_trial","0","","","","","","","","","","","","","","","","","","","","",""
"","","","","","image-keyboard-response","58","181674","0.0-33.0","60b54dde7e4ce8de0f1f24be","665500ab8938657b03fbdba8","665793041f5820de30e93e71","780","stimuli/0010001.jpg","0","","prediction_trial","0","","true","","0","true","true","true","true","true","true","[0]","010","001","1","","","","","","",""
"","","","","","image-keyboard-response","59","182104","0.0-34.0","60b54dde7e4ce8de0f1f24be","665500ab8938657b03fbdba8","665793041f5820de30e93e71","430","stimuli/00100010.jpg"," ","","feedback_trial","0","","","","","","","","","","","","","","","","","","","","",""
"","","","","","image-keyboard-response","60","182901","0.0-35.0","60b54dde7e4ce8de0f1f24be","665500ab8938657b03fbdba8","665793041f5820de30e93e71","795","stimuli/2010000.jpg","2","","prediction_trial","2","","true","","2","true","true","true","true","true","true","[2]","010","000","1","","","","","","",""
"","","","","","image-keyboard-response","61","183284","0.0-36.0","60b54dde7e4ce8de0f1f24be","665500ab8938657b03fbdba8","665793041f5820de30e93e71","381","stimuli/20100002.jpg"," ","","feedback_trial","2","","","","","","","","","","","","","","","","","","","","",""
"","","","","","image-keyboard-response","62","184620","0.0-37.0","60b54dde7e4ce8de0f1f24be","665500ab8938657b03fbdba8","665793041f5820de30e93e71","1336","stimuli/1111011.jpg","2","","prediction_trial","0","","false","","1","false","false","false","false","false","false","[0,1,2]","111","011","0","","","","","","",""
"","","","","","image-keyboard-response","63","185274","0.0-38.0","60b54dde7e4ce8de0f1f24be","665500ab8938657b03fbdba8","665793041f5820de30e93e71","652","stimuli/11110110.jpg"," ","","feedback_trial","0","","","","","","","","","","","","","","","","","","","","",""
"","","","","","image-keyboard-response","64","186079","0.0-39.0","60b54dde7e4ce8de0f1f24be","665500ab8938657b03fbdba8","665793041f5820de30e93e71","805","stimuli/2110001.jpg","2","","prediction_trial","2","","true","","2","false","true","true","true","false","true","[2]","110","001","1","","","","","","",""
"","","","","","image-keyboard-response","65","186590","0.0-40.0","60b54dde7e4ce8de0f1f24be","665500ab8938657b03fbdba8","665793041f5820de30e93e71","509","stimuli/21100012.jpg"," ","","feedback_trial","2","","","","","","","","","","","","","","","","","","","","",""
"","","","","","image-keyboard-response","66","187217","0.0-41.0","60b54dde7e4ce8de0f1f24be","665500ab8938657b03fbdba8","665793041f5820de30e93e71","626","stimuli/0110011.jpg","0","","prediction_trial","0","","true","","0","true","true","false","false","false","false","[0,1]","110","011","1","","","","","","",""
"","","","","","image-keyboard-response","67","187682","0.0-42.0","60b54dde7e4ce8de0f1f24be","665500ab8938657b03fbdba8","665793041f5820de30e93e71","464","stimuli/01100110.jpg"," ","","feedback_trial","0","","","","","","","","","","","","","","","","","","","","",""
"","","","","","image-keyboard-response","68","190653","0.0-43.0","60b54dde7e4ce8de0f1f24be","665500ab8938657b03fbdba8","665793041f5820de30e93e71","2970","stimuli/1011011.jpg","1","","prediction_trial","1","","true","","1","false","false","false","false","false","false","[2,1]","011","011","1","","","","","","",""
"","","","","","image-keyboard-response","69","191160","0.0-44.0","60b54dde7e4ce8de0f1f24be","665500ab8938657b03fbdba8","665793041f5820de30e93e71","505","stimuli/10110111.jpg"," ","","feedback_trial","2","","","","","","","","","","","","","","","","","","","","",""
"","","","","","image-keyboard-response","70","191917","0.0-45.0","60b54dde7e4ce8de0f1f24be","665500ab8938657b03fbdba8","665793041f5820de30e93e71","756","stimuli/0011011.jpg","0","","prediction_trial","0","","true","","0","true","true","true","true","true","true","[0]","011","011","1","","","","","","",""
"","","","","","image-keyboard-response","71","192304","0.0-46.0","60b54dde7e4ce8de0f1f24be","665500ab8938657b03fbdba8","665793041f5820de30e93e71","386","stimuli/00110110.jpg"," ","","feedback_trial","0","","","","","","","","","","","","","","","","","","","","",""
"","","","","","image-keyboard-response","72","193148","0.0-47.0","60b54dde7e4ce8de0f1f24be","665500ab8938657b03fbdba8","665793041f5820de30e93e71","842","stimuli/1001101.jpg","2","","prediction_trial","1","","false","","1","true","true","true","true","true","true","[1]","001","101","0","","","","","","",""
"","","","","","image-keyboard-response","73","193629","0.0-48.0","60b54dde7e4ce8de0f1f24be","665500ab8938657b03fbdba8","665793041f5820de30e93e71","480","stimuli/10011011.jpg"," ","","feedback_trial","1","","","","","","","","","","","","","","","","","","","","",""
"","","","","","image-keyboard-response","74","194278","0.0-49.0","60b54dde7e4ce8de0f1f24be","665500ab8938657b03fbdba8","665793041f5820de30e93e71","648","stimuli/0001011.jpg","0","","prediction_trial","0","","true","","0","true","true","true","true","true","true","[0]","001","011","1","","","","","","",""
"","","","","","image-keyboard-response","75","194628","0.0-50.0","60b54dde7e4ce8de0f1f24be","665500ab8938657b03fbdba8","665793041f5820de30e93e71","349","stimuli/00010110.jpg"," ","","feedback_trial","0","","","","","","","","","","","","","","","","","","","","",""
"","","","","","image-keyboard-response","76","195717","0.0-51.0","60b54dde7e4ce8de0f1f24be","665500ab8938657b03fbdba8","665793041f5820de30e93e71","1087","stimuli/1101001.jpg","1","","prediction_trial","1","","true","","1","true","true","true","true","true","true","[1]","101","001","1","","","","","","",""
"","","","","","image-keyboard-response","77","196104","0.0-52.0","60b54dde7e4ce8de0f1f24be","665500ab8938657b03fbdba8","665793041f5820de30e93e71","386","stimuli/11010011.jpg"," ","","feedback_trial","1","","","","","","","","","","","","","","","","","","","","",""
"","","","","","image-keyboard-response","78","196754","0.0-53.0","60b54dde7e4ce8de0f1f24be","665500ab8938657b03fbdba8","665793041f5820de30e93e71","648","stimuli/1101101.jpg","1","","prediction_trial","1","","true","","1","true","true","true","true","true","true","[1]","101","101","1","","","","","","",""
"","","","","","image-keyboard-response","79","197065","0.0-54.0","60b54dde7e4ce8de0f1f24be","665500ab8938657b03fbdba8","665793041f5820de30e93e71","310","stimuli/11011011.jpg"," ","","feedback_trial","1","","","","","","","","","","","","","","","","","","","","",""
"","","","","","image-keyboard-response","80","197953","0.0-55.0","60b54dde7e4ce8de0f1f24be","665500ab8938657b03fbdba8","665793041f5820de30e93e71","887","stimuli/2011001.jpg","2","","prediction_trial","2","","true","","2","false","true","false","false","false","false","[1,2]","011","001","1","","","","","","",""
"","","","","","image-keyboard-response","81","198271","0.0-56.0","60b54dde7e4ce8de0f1f24be","665500ab8938657b03fbdba8","665793041f5820de30e93e71","316","stimuli/20110012.jpg"," ","","feedback_trial","1","","","","","","","","","","","","","","","","","","","","",""
"","","","","","image-keyboard-response","82","199134","0.0-57.0","60b54dde7e4ce8de0f1f24be","665500ab8938657b03fbdba8","665793041f5820de30e93e71","862","stimuli/1010101.jpg","1","","prediction_trial","1","","true","","1","true","true","false","true","false","true","[1]","010","101","1","","","","","","",""
"","","","","","image-keyboard-response","83","199374","0.0-58.0","60b54dde7e4ce8de0f1f24be","665500ab8938657b03fbdba8","665793041f5820de30e93e71","239","stimuli/10101011.jpg"," ","","feedback_trial","1","","","","","","","","","","","","","","","","","","","","",""
"","","","","","image-keyboard-response","84","200064","0.0-59.0","60b54dde7e4ce8de0f1f24be","665500ab8938657b03fbdba8","665793041f5820de30e93e71","689","stimuli/2011110.jpg","2","","prediction_trial","2","","true","","2","true","true","false","false","false","false","[1,2]","011","110","1","","","","","","",""
"","","","","","image-keyboard-response","85","200261","0.0-60.0","60b54dde7e4ce8de0f1f24be","665500ab8938657b03fbdba8","665793041f5820de30e93e71","196","stimuli/20111102.jpg"," ","","feedback_trial","1","","","","","","","","","","","","","","","","","","","","",""
"","","","","","image-keyboard-response","86","201206","0.0-61.0","60b54dde7e4ce8de0f1f24be","665500ab8938657b03fbdba8","665793041f5820de30e93e71","943","stimuli/0001100.jpg","0","","prediction_trial","0","","true","","0","false","true","true","true","false","true","[0]","001","100","1","","","","","","",""
"","","","","","image-keyboard-response","87","201416","0.0-62.0","60b54dde7e4ce8de0f1f24be","665500ab8938657b03fbdba8","665793041f5820de30e93e71","209","stimuli/00011000.jpg"," ","","feedback_trial","0","","","","","","","","","","","","","","","","","","","","",""
"","","","","","image-keyboard-response","88","202843","0.0-63.0","60b54dde7e4ce8de0f1f24be","665500ab8938657b03fbdba8","665793041f5820de30e93e71","1427","stimuli/0100101.jpg","0","","prediction_trial","0","","true","","0","false","false","false","true","false","false","[0]","100","101","1","","","","","","",""
"","","","","","image-keyboard-response","89","203045","0.0-64.0","60b54dde7e4ce8de0f1f24be","665500ab8938657b03fbdba8","665793041f5820de30e93e71","200","stimuli/01001010.jpg"," ","","feedback_trial","0","","","","","","","","","","","","","","","","","","","","",""
"","","","","","image-keyboard-response","90","204552","0.0-65.0","60b54dde7e4ce8de0f1f24be","665500ab8938657b03fbdba8","665793041f5820de30e93e71","1505","stimuli/1011111.jpg","0","","prediction_trial","2","","false","","1","false","false","false","false","false","false","[1,2]","011","111","0","","","","","","",""
"","","","","","image-keyboard-response","91","206341","0.0-66.0","60b54dde7e4ce8de0f1f24be","665500ab8938657b03fbdba8","665793041f5820de30e93e71","1788","stimuli/10111112.jpg"," ","","feedback_trial","1","","","","","","","","","","","","","","","","","","","","",""
"","","","","","image-keyboard-response","92","207592","0.0-67.0","60b54dde7e4ce8de0f1f24be","665500ab8938657b03fbdba8","665793041f5820de30e93e71","1250","stimuli/1001010.jpg","1","","prediction_trial","1","","true","","1","false","true","true","true","false","true","[1]","001","010","1","","","","","","",""
"","","","","","image-keyboard-response","93","207999","0.0-68.0","60b54dde7e4ce8de0f1f24be","665500ab8938657b03fbdba8","665793041f5820de30e93e71","405","stimuli/10010101.jpg"," ","","feedback_trial","1","","","","","","","","","","","","","","","","","","","","",""
"","","","","","image-keyboard-response","94","208948","0.0-69.0","60b54dde7e4ce8de0f1f24be","665500ab8938657b03fbdba8","665793041f5820de30e93e71","948","stimuli/1001111.jpg","1","","prediction_trial","1","","true","","1","false","false","true","true","false","false","[1]","001","111","1","","","","","","",""
"","","","","","image-keyboard-response","95","209242","0.0-70.0","60b54dde7e4ce8de0f1f24be","665500ab8938657b03fbdba8","665793041f5820de30e93e71","293","stimuli/10011111.jpg"," ","","feedback_trial","1","","","","","","","","","","","","","","","","","","","","",""
"","","","","","image-keyboard-response","96","210099","0.0-71.0","60b54dde7e4ce8de0f1f24be","665500ab8938657b03fbdba8","665793041f5820de30e93e71","855","stimuli/2001110.jpg","2","","prediction_trial","2","","true","","2","true","true","false","true","false","true","[2]","001","110","1","","","","","","",""
"","","","","","image-keyboard-response","97","210293","0.0-72.0","60b54dde7e4ce8de0f1f24be","665500ab8938657b03fbdba8","665793041f5820de30e93e71","193","stimuli/20011102.jpg"," ","","feedback_trial","2","","","","","","","","","","","","","","","","","","","","",""
"","","","","","image-keyboard-response","98","211212","0.0-73.0","60b54dde7e4ce8de0f1f24be","665500ab8938657b03fbdba8","665793041f5820de30e93e71","918","stimuli/2001111.jpg","2","","prediction_trial","2","","true","","2","false","false","false","true","false","false","[2]","001","111","1","","","","","","",""
"","","","","","image-keyboard-response","99","211393","0.0-74.0","60b54dde7e4ce8de0f1f24be","665500ab8938657b03fbdba8","665793041f5820de30e93e71","180","stimuli/20011112.jpg"," ","","feedback_trial","2","","","","","","","","","","","","","","","","","","","","",""
"","","","","","image-keyboard-response","100","212228","0.0-75.0","60b54dde7e4ce8de0f1f24be","665500ab8938657b03fbdba8","665793041f5820de30e93e71","834","stimuli/2110110.jpg","2","","prediction_trial","2","","true","","2","true","true","true","true","true","true","[2]","110","110","1","","","","","","",""
"","","","","","image-keyboard-response","101","212455","0.0-76.0","60b54dde7e4ce8de0f1f24be","665500ab8938657b03fbdba8","665793041f5820de30e93e71","226","stimuli/21101102.jpg"," ","","feedback_trial","2","","","","","","","","","","","","","","","","","","","","",""
"","","","","","image-keyboard-response","102","213195","0.0-77.0","60b54dde7e4ce8de0f1f24be","665500ab8938657b03fbdba8","665793041f5820de30e93e71","740","stimuli/0010000.jpg","0","","prediction_trial","0","","true","","0","true","true","true","true","true","true","[0]","010","000","1","","","","","","",""
"","","","","","image-keyboard-response","103","213389","0.0-78.0","60b54dde7e4ce8de0f1f24be","665500ab8938657b03fbdba8","665793041f5820de30e93e71","193","stimuli/00100000.jpg"," ","","feedback_trial","0","","","","","","","","","","","","","","","","","","","","",""
"","","","","","image-keyboard-response","104","214171","0.0-79.0","60b54dde7e4ce8de0f1f24be","665500ab8938657b03fbdba8","665793041f5820de30e93e71","780","stimuli/0100000.jpg","0","","prediction_trial","0","","true","","0","true","true","false","true","false","true","[0]","100","000","1","","","","","","",""
"","","","","","image-keyboard-response","105","214330","0.0-80.0","60b54dde7e4ce8de0f1f24be","665500ab8938657b03fbdba8","665793041f5820de30e93e71","158","stimuli/01000000.jpg"," ","","feedback_trial","0","","","","","","","","","","","","","","","","","","","","",""
"","","","","","image-keyboard-response","106","215521","0.0-81.0","60b54dde7e4ce8de0f1f24be","665500ab8938657b03fbdba8","665793041f5820de30e93e71","1190","stimuli/1100011.jpg","1","","prediction_trial","1","","true","","1","false","false","true","true","false","false","[1]","100","011","1","","","","","","",""
"","","","","","image-keyboard-response","107","215713","0.0-82.0","60b54dde7e4ce8de0f1f24be","665500ab8938657b03fbdba8","665793041f5820de30e93e71","191","stimuli/11000111.jpg"," ","","feedback_trial","1","","","","","","","","","","","","","","","","","","","","",""
"","","","","","image-keyboard-response","108","216440","0.0-83.0","60b54dde7e4ce8de0f1f24be","665500ab8938657b03fbdba8","665793041f5820de30e93e71","725","stimuli/0100011.jpg","0","","prediction_trial","0","","true","","0","true","true","false","true","false","true","[0]","100","011","1","","","","","","",""
"","","","","","image-keyboard-response","109","216606","0.0-84.0","60b54dde7e4ce8de0f1f24be","665500ab8938657b03fbdba8","665793041f5820de30e93e71","165","stimuli/01000110.jpg"," ","","feedback_trial","0","","","","","","","","","","","","","","","","","","","","",""
"","","","","","image-keyboard-response","110","217339","0.0-85.0","60b54dde7e4ce8de0f1f24be","665500ab8938657b03fbdba8","665793041f5820de30e93e71","731","stimuli/2011010.jpg","2","","prediction_trial","1","","false","","2","true","true","false","false","false","false","[2,1]","011","010","0","","","","","","",""
"","","","","","image-keyboard-response","111","217530","0.0-86.0","60b54dde7e4ce8de0f1f24be","665500ab8938657b03fbdba8","665793041f5820de30e93e71","190","stimuli/20110101.jpg"," ","","feedback_trial","2","","","","","","","","","","","","","","","","","","","","",""
"","","","","","image-keyboard-response","112","218927","0.0-87.0","60b54dde7e4ce8de0f1f24be","665500ab8938657b03fbdba8","665793041f5820de30e93e71","1396","stimuli/2101011.jpg","2","","prediction_trial","0","","false","","2","false","false","false","false","false","false","[0,2]","101","011","0","","","","","","",""
"","","","","","image-keyboard-response","113","219270","0.0-88.0","60b54dde7e4ce8de0f1f24be","665500ab8938657b03fbdba8","665793041f5820de30e93e71","342","stimuli/21010110.jpg"," ","","feedback_trial","0","","","","","","","","","","","","","","","","","","","","",""
"","","","","","image-keyboard-response","114","219921","0.0-89.0","60b54dde7e4ce8de0f1f24be","665500ab8938657b03fbdba8","665793041f5820de30e93e71","650","stimuli/1111000.jpg","1","","prediction_trial","0","","false","","1","true","true","false","false","false","false","[2,0,1]","111","000","0","","","","","","",""
"","","","","","image-keyboard-response","115","220140","0.0-90.0","60b54dde7e4ce8de0f1f24be","665500ab8938657b03fbdba8","665793041f5820de30e93e71","218","stimuli/11110000.jpg"," ","","feedback_trial","2","","","","","","","","","","","","","","","","","","","","",""
"","","","","","image-keyboard-response","116","221017","0.0-91.0","60b54dde7e4ce8de0f1f24be","665500ab8938657b03fbdba8","665793041f5820de30e93e71","876","stimuli/1110001.jpg","1","","prediction_trial","0","","false","","1","true","true","false","false","false","false","[0,1]","110","001","0","","","","","","",""
"","","","","","image-keyboard-response","117","221790","0.0-92.0","60b54dde7e4ce8de0f1f24be","665500ab8938657b03fbdba8","665793041f5820de30e93e71","771","stimuli/11100010.jpg"," ","","feedback_trial","0","","","","","","","","","","","","","","","","","","","","",""
"","","","","","image-keyboard-response","118","222951","0.0-93.0","60b54dde7e4ce8de0f1f24be","665500ab8938657b03fbdba8","665793041f5820de30e93e71","1160","stimuli/0010100.jpg","0","","prediction_trial","0","","true","","0","false","true","true","true","false","true","[0]","010","100","1","","","","","","",""
"","","","","","image-keyboard-response","119","223359","0.0-94.0","60b54dde7e4ce8de0f1f24be","665500ab8938657b03fbdba8","665793041f5820de30e93e71","407","stimuli/00101000.jpg"," ","","feedback_trial","0","","","","","","","","","","","","","","","","","","","","",""
"","","","","","image-keyboard-response","120","224048","0.0-95.0","60b54dde7e4ce8de0f1f24be","665500ab8938657b03fbdba8","665793041f5820de30e93e71","688","stimuli/1001000.jpg","1","","prediction_trial","1","","true","","1","true","true","true","true","true","true","[1]","001","000","1","","","","","","",""
"","","","","","image-keyboard-response","121","224464","0.0-96.0","60b54dde7e4ce8de0f1f24be","665500ab8938657b03fbdba8","665793041f5820de30e93e71","414","stimuli/10010001.jpg"," ","","feedback_trial","1","","","","","","","","","","","","","","","","","","","","",""
"","","","","","image-keyboard-response","122","225144","0.0-97.0","60b54dde7e4ce8de0f1f24be","665500ab8938657b03fbdba8","665793041f5820de30e93e71","679","stimuli/2100000.jpg","2","","prediction_trial","2","","true","","2","true","true","true","true","true","true","[2]","100","000","1","","","","","","",""
"","","","","","image-keyboard-response","123","225395","0.0-98.0","60b54dde7e4ce8de0f1f24be","665500ab8938657b03fbdba8","665793041f5820de30e93e71","250","stimuli/21000002.jpg"," ","","feedback_trial","2","","","","","","","","","","","","","","","","","","","","",""
"","","","","","image-keyboard-response","124","226241","0.0-99.0","60b54dde7e4ce8de0f1f24be","665500ab8938657b03fbdba8","665793041f5820de30e93e71","845","stimuli/0000101.jpg","0","","prediction_trial","0","","true","","0","false","false","true","true","false","false","[0]","000","101","1","","","","","","",""
"","","","","","image-keyboard-response","125","226616","0.0-100.0","60b54dde7e4ce8de0f1f24be","665500ab8938657b03fbdba8","665793041f5820de30e93e71","373","stimuli/00001010.jpg"," ","","feedback_trial","0","","","","","","","","","","","","","","","","","","","","",""
"","","","","","image-keyboard-response","126","227218","0.0-101.0","60b54dde7e4ce8de0f1f24be","665500ab8938657b03fbdba8","665793041f5820de30e93e71","600","stimuli/0101001.jpg","0","","prediction_trial","0","","true","","0","true","true","false","false","false","false","[0,2]","101","001","1","","","","","","",""
"","","","","","image-keyboard-response","127","227463","0.0-102.0","60b54dde7e4ce8de0f1f24be","665500ab8938657b03fbdba8","665793041f5820de30e93e71","244","stimuli/01010010.jpg"," ","","feedback_trial","0","","","","","","","","","","","","","","","","","","","","",""
"","","","","","image-keyboard-response","128","228350","0.0-103.0","60b54dde7e4ce8de0f1f24be","665500ab8938657b03fbdba8","665793041f5820de30e93e71","886","stimuli/2111001.jpg","2","","prediction_trial","0","","false","","2","false","true","false","false","false","false","[1,2,0]","111","001","0","","","","","","",""
"","","","","","image-keyboard-response","129","228611","0.0-104.0","60b54dde7e4ce8de0f1f24be","665500ab8938657b03fbdba8","665793041f5820de30e93e71","259","stimuli/21110010.jpg"," ","","feedback_trial","1","","","","","","","","","","","","","","","","","","","","",""
"","","","","","image-keyboard-response","130","229528","0.0-105.0","60b54dde7e4ce8de0f1f24be","665500ab8938657b03fbdba8","665793041f5820de30e93e71","916","stimuli/1100101.jpg","1","","prediction_trial","1","","true","","1","true","true","true","true","true","true","[1]","100","101","1","","","","","","",""
"","","","","","image-keyboard-response","131","229759","0.0-106.0","60b54dde7e4ce8de0f1f24be","665500ab8938657b03fbdba8","665793041f5820de30e93e71","229","stimuli/11001011.jpg"," ","","feedback_trial","1","","","","","","","","","","","","","","","","","","","","",""
"","","","","","image-keyboard-response","132","230807","0.0-107.0","60b54dde7e4ce8de0f1f24be","665500ab8938657b03fbdba8","665793041f5820de30e93e71","1047","stimuli/2001100.jpg","2","","prediction_trial","2","","true","","2","true","true","false","true","false","true","[2]","001","100","1","","","","","","",""
"","","","","","image-keyboard-response","133","231103","0.0-108.0","60b54dde7e4ce8de0f1f24be","665500ab8938657b03fbdba8","665793041f5820de30e93e71","295","stimuli/20011002.jpg"," ","","feedback_trial","2","","","","","","","","","","","","","","","","","","","","",""
"","","","","","image-keyboard-response","134","232111","0.0-109.0","60b54dde7e4ce8de0f1f24be","665500ab8938657b03fbdba8","665793041f5820de30e93e71","1007","stimuli/2100111.jpg","2","","prediction_trial","2","","true","","2","false","false","true","true","false","false","[2]","100","111","1","","","","","","",""
"","","","","","image-keyboard-response","135","232639","0.0-110.0","60b54dde7e4ce8de0f1f24be","665500ab8938657b03fbdba8","665793041f5820de30e93e71","528","stimuli/21001112.jpg"," ","","feedback_trial","2","","","","","","","","","","","","","","","","","","","","",""
"","","","","","image-keyboard-response","136","235075","0.0-111.0","60b54dde7e4ce8de0f1f24be","665500ab8938657b03fbdba8","665793041f5820de30e93e71","2435","stimuli/0110101.jpg","0","","prediction_trial","1","","false","","0","false","false","false","false","false","false","[1,0]","110","101","0","","","","","","",""
"","","","","","image-keyboard-response","137","235284","0.0-112.0","60b54dde7e4ce8de0f1f24be","665500ab8938657b03fbdba8","665793041f5820de30e93e71","207","stimuli/01101011.jpg"," ","","feedback_trial","1","","","","","","","","","","","","","","","","","","","","",""
"","","","","","image-keyboard-response","138","235897","0.0-113.0","60b54dde7e4ce8de0f1f24be","665500ab8938657b03fbdba8","665793041f5820de30e93e71","612","stimuli/1111111.jpg","0","","prediction_trial","2","","false","","1","false","false","false","false","false","false","[2,1,0]","111","111","0","","","","","","",""
"","","","","","image-keyboard-response","139","236521","0.0-114.0","60b54dde7e4ce8de0f1f24be","665500ab8938657b03fbdba8","665793041f5820de30e93e71","623","stimuli/11111112.jpg"," ","","feedback_trial","2","","","","","","","","","","","","","","","","","","","","",""
"","","","","","image-keyboard-response","140","237156","0.0-115.0","60b54dde7e4ce8de0f1f24be","665500ab8938657b03fbdba8","665793041f5820de30e93e71","633","stimuli/1010110.jpg","2","","prediction_trial","1","","false","","1","false","false","false","true","false","false","[1]","010","110","0","","","","","","",""
"","","","","","image-keyboard-response","141","237676","0.0-116.0","60b54dde7e4ce8de0f1f24be","665500ab8938657b03fbdba8","665793041f5820de30e93e71","519","stimuli/10101101.jpg"," ","","feedback_trial","1","","","","","","","","","","","","","","","","","","","","",""
"","","","","","image-keyboard-response","142","238403","0.0-117.0","60b54dde7e4ce8de0f1f24be","665500ab8938657b03fbdba8","665793041f5820de30e93e71","726","stimuli/2010100.jpg","2","","prediction_trial","2","","true","","2","true","true","true","true","true","true","[2]","010","100","1","","","","","","",""
"","","","","","image-keyboard-response","143","238721","0.0-118.0","60b54dde7e4ce8de0f1f24be","665500ab8938657b03fbdba8","665793041f5820de30e93e71","317","stimuli/20101002.jpg"," ","","feedback_trial","2","","","","","","","","","","","","","","","","","","","","",""
"","","","","","image-keyboard-response","144","239356","0.0-119.0","60b54dde7e4ce8de0f1f24be","665500ab8938657b03fbdba8","665793041f5820de30e93e71","633","stimuli/0111001.jpg","0","","prediction_trial","1","","false","","0","true","true","false","false","false","false","[2,0,1]","111","001","0","","","","","","",""
"","","","","","image-keyboard-response","145","239596","0.0-120.0","60b54dde7e4ce8de0f1f24be","665500ab8938657b03fbdba8","665793041f5820de30e93e71","239","stimuli/01110011.jpg"," ","","feedback_trial","2","","","","","","","","","","","","","","","","","","","","",""
"","","","","","image-keyboard-response","146","241100","0.0-121.0","60b54dde7e4ce8de0f1f24be","665500ab8938657b03fbdba8","665793041f5820de30e93e71","1503","stimuli/1000110.jpg","0","","prediction_trial","1","","false","","1","false","false","true","true","false","false","[1]","000","110","0","","","","","","",""
"","","","","","image-keyboard-response","147","241626","0.0-122.0","60b54dde7e4ce8de0f1f24be","665500ab8938657b03fbdba8","665793041f5820de30e93e71","525","stimuli/10001101.jpg"," ","","feedback_trial","1","","","","","","","","","","","","","","","","","","","","",""
"","","","","","image-keyboard-response","148","242076","0.0-123.0","60b54dde7e4ce8de0f1f24be","665500ab8938657b03fbdba8","665793041f5820de30e93e71","448","stimuli/1000111.jpg","2","","prediction_trial","1","","false","","1","false","false","true","true","false","false","[1]","000","111","0","","","","","","",""
"","","","","","image-keyboard-response","149","242545","0.0-124.0","60b54dde7e4ce8de0f1f24be","665500ab8938657b03fbdba8","665793041f5820de30e93e71","468","stimuli/10001111.jpg"," ","","feedback_trial","1","","","","","","","","","","","","","","","","","","","","",""
"","","","","","image-keyboard-response","150","243349","0.0-125.0","60b54dde7e4ce8de0f1f24be","665500ab8938657b03fbdba8","665793041f5820de30e93e71","803","stimuli/0011101.jpg","2","","prediction_trial","0","","false","","0","false","false","true","true","false","false","[0]","011","101","0","","","","","","",""
"","","","","","image-keyboard-response","151","243638","0.0-126.0","60b54dde7e4ce8de0f1f24be","665500ab8938657b03fbdba8","665793041f5820de30e93e71","287","stimuli/00111010.jpg"," ","","feedback_trial","0","","","","","","","","","","","","","","","","","","","","",""
"","","","","","image-keyboard-response","152","244794","0.0-127.0","60b54dde7e4ce8de0f1f24be","665500ab8938657b03fbdba8","665793041f5820de30e93e71","1156","stimuli/0000111.jpg","1","","prediction_trial","0","","false","","0","false","false","true","true","false","false","[0]","000","111","0","","","","","","",""
"","","","","","image-keyboard-response","153","245073","0.0-128.0","60b54dde7e4ce8de0f1f24be","665500ab8938657b03fbdba8","665793041f5820de30e93e71","276","stimuli/00001110.jpg"," ","","feedback_trial","0","","","","","","","","","","","","","","","","","","","","",""
"","","","","","image-keyboard-response","154","245590","0.0-129.0","60b54dde7e4ce8de0f1f24be","665500ab8938657b03fbdba8","665793041f5820de30e93e71","516","stimuli/0001010.jpg","0","","prediction_trial","0","","true","","0","true","true","true","true","true","true","[0]","001","010","1","","","","","","",""
"","","","","","image-keyboard-response","155","246091","0.0-130.0","60b54dde7e4ce8de0f1f24be","665500ab8938657b03fbdba8","665793041f5820de30e93e71","498","stimuli/00010100.jpg"," ","","feedback_trial","0","","","","","","","","","","","","","","","","","","","","",""
"","","","","","image-keyboard-response","156","246996","0.0-131.0","60b54dde7e4ce8de0f1f24be","665500ab8938657b03fbdba8","665793041f5820de30e93e71","903","stimuli/1000011.jpg","1","","prediction_trial","1","","true","","1","false","false","true","true","false","false","[1]","000","011","1","","","","","","",""
"","","","","","image-keyboard-response","157","247443","0.0-132.0","60b54dde7e4ce8de0f1f24be","665500ab8938657b03fbdba8","665793041f5820de30e93e71","444","stimuli/10000111.jpg"," ","","feedback_trial","1","","","","","","","","","","","","","","","","","","","","",""
"","","","","","image-keyboard-response","158","248072","0.0-133.0","60b54dde7e4ce8de0f1f24be","665500ab8938657b03fbdba8","665793041f5820de30e93e71","628","stimuli/0011010.jpg","0","","prediction_trial","0","","true","","0","true","true","true","true","true","true","[0]","011","010","1","","","","","","",""
"","","","","","image-keyboard-response","159","248406","0.0-134.0","60b54dde7e4ce8de0f1f24be","665500ab8938657b03fbdba8","665793041f5820de30e93e71","333","stimuli/00110100.jpg"," ","","feedback_trial","0","","","","","","","","","","","","","","","","","","","","",""
"","","","","","image-keyboard-response","160","248930","0.0-135.0","60b54dde7e4ce8de0f1f24be","665500ab8938657b03fbdba8","665793041f5820de30e93e71","522","stimuli/1011001.jpg","0","","prediction_trial","1","","false","","1","true","true","false","false","false","false","[1,2]","011","001","0","","","","","","",""
"","","","","","image-keyboard-response","161","249308","0.0-136.0","60b54dde7e4ce8de0f1f24be","665500ab8938657b03fbdba8","665793041f5820de30e93e71","377","stimuli/10110011.jpg"," ","","feedback_trial","1","","","","","","","","","","","","","","","","","","","","",""
"","","","","","image-keyboard-response","162","249794","0.0-137.0","60b54dde7e4ce8de0f1f24be","665500ab8938657b03fbdba8","665793041f5820de30e93e71","485","stimuli/2000010.jpg","2","","prediction_trial","2","","true","","2","true","true","true","true","true","true","[2]","000","010","1","","","","","","",""
"","","","","","image-keyboard-response","163","250292","0.0-138.0","60b54dde7e4ce8de0f1f24be","665500ab8938657b03fbdba8","665793041f5820de30e93e71","497","stimuli/20000102.jpg"," ","","feedback_trial","2","","","","","","","","","","","","","","","","","","","","",""
"","","","","","image-keyboard-response","164","251196","0.0-139.0","60b54dde7e4ce8de0f1f24be","665500ab8938657b03fbdba8","665793041f5820de30e93e71","904","stimuli/1000010.jpg","1","","prediction_trial","1","","true","","1","false","true","true","true","false","true","[1]","000","010","1","","","","","","",""
"","","","","","image-keyboard-response","165","251456","0.0-140.0","60b54dde7e4ce8de0f1f24be","665500ab8938657b03fbdba8","665793041f5820de30e93e71","258","stimuli/10000101.jpg"," ","","feedback_trial","1","","","","","","","","","","","","","","","","","","","","",""
"","","","","","image-keyboard-response","166","252145","0.0-141.0","60b54dde7e4ce8de0f1f24be","665500ab8938657b03fbdba8","665793041f5820de30e93e71","687","stimuli/2100110.jpg","2","","prediction_trial","2","","true","","2","true","true","true","true","true","true","[2]","100","110","1","","","","","","",""
"","","","","","image-keyboard-response","167","252537","0.0-142.0","60b54dde7e4ce8de0f1f24be","665500ab8938657b03fbdba8","665793041f5820de30e93e71","390","stimuli/21001102.jpg"," ","","feedback_trial","2","","","","","","","","","","","","","","","","","","","","",""
"","","","","","image-keyboard-response","168","253126","0.0-143.0","60b54dde7e4ce8de0f1f24be","665500ab8938657b03fbdba8","665793041f5820de30e93e71","588","stimuli/2111011.jpg","2","","prediction_trial","2","","true","","2","false","false","false","false","false","false","[1,2,0]","111","011","1","","","","","","",""
"","","","","","image-keyboard-response","169","253417","0.0-144.0","60b54dde7e4ce8de0f1f24be","665500ab8938657b03fbdba8","665793041f5820de30e93e71","289","stimuli/21110112.jpg"," ","","feedback_trial","1","","","","","","","","","","","","","","","","","","","","",""
"","","","","","image-keyboard-response","170","253906","0.0-145.0","60b54dde7e4ce8de0f1f24be","665500ab8938657b03fbdba8","665793041f5820de30e93e71","488","stimuli/2101001.jpg","2","","prediction_trial","0","","false","","2","false","true","false","false","false","false","[0,2]","101","001","0","","","","","","",""
"","","","","","image-keyboard-response","171","254371","0.0-146.0","60b54dde7e4ce8de0f1f24be","665500ab8938657b03fbdba8","665793041f5820de30e93e71","464","stimuli/21010010.jpg"," ","","feedback_trial","0","","","","","","","","","","","","","","","","","","","","",""
"","","","","","image-keyboard-response","172","254945","0.0-147.0","60b54dde7e4ce8de0f1f24be","665500ab8938657b03fbdba8","665793041f5820de30e93e71","573","stimuli/2010010.jpg","0","","prediction_trial","2","","false","","2","true","true","true","true","true","true","[2]","010","010","0","","","","","","",""
"","","","","","image-keyboard-response","173","255321","0.0-148.0","60b54dde7e4ce8de0f1f24be","665500ab8938657b03fbdba8","665793041f5820de30e93e71","374","stimuli/20100102.jpg"," ","","feedback_trial","2","","","","","","","","","","","","","","","","","","","","",""
"","","","","","image-keyboard-response","174","255890","0.0-149.0","60b54dde7e4ce8de0f1f24be","665500ab8938657b03fbdba8","665793041f5820de30e93e71","568","stimuli/0110010.jpg","2","","prediction_trial","0","","false","","0","true","true","false","false","false","false","[0,1]","110","010","0","","","","","","",""
"","","","","","image-keyboard-response","175","256298","0.0-150.0","60b54dde7e4ce8de0f1f24be","665500ab8938657b03fbdba8","665793041f5820de30e93e71","407","stimuli/01100100.jpg"," ","","feedback_trial","0","","","","","","","","","","","","","","","","","","","","",""
"","","","","","image-keyboard-response","176","256875","0.0-151.0","60b54dde7e4ce8de0f1f24be","665500ab8938657b03fbdba8","665793041f5820de30e93e71","576","stimuli/2101010.jpg","2","","prediction_trial","2","","true","","2","true","true","false","false","false","false","[0,2]","101","010","1","","","","","","",""
"","","","","","image-keyboard-response","177","257456","0.0-152.0","60b54dde7e4ce8de0f1f24be","665500ab8938657b03fbdba8","665793041f5820de30e93e71","580","stimuli/21010102.jpg"," ","","feedback_trial","0","","","","","","","","","","","","","","","","","","","","",""
"","","","","","image-keyboard-response","178","258031","0.0-153.0","60b54dde7e4ce8de0f1f24be","665500ab8938657b03fbdba8","665793041f5820de30e93e71","574","stimuli/2001101.jpg","0","","prediction_trial","2","","false","","2","false","false","false","true","false","false","[2]","001","101","0","","","","","","",""
"","","","","","image-keyboard-response","179","258221","0.0-154.0","60b54dde7e4ce8de0f1f24be","665500ab8938657b03fbdba8","665793041f5820de30e93e71","188","stimuli/20011012.jpg"," ","","feedback_trial","2","","","","","","","","","","","","","","","","","","","","",""
"","","","","","image-keyboard-response","180","258629","0.0-155.0","60b54dde7e4ce8de0f1f24be","665500ab8938657b03fbdba8","665793041f5820de30e93e71","407","stimuli/1010000.jpg","2","","prediction_trial","1","","false","","1","true","true","false","true","false","true","[1]","010","000","0","","","","","","",""
"","","","","","image-keyboard-response","181","259032","0.0-156.0","60b54dde7e4ce8de0f1f24be","665500ab8938657b03fbdba8","665793041f5820de30e93e71","402","stimuli/10100001.jpg"," ","","feedback_trial","1","","","","","","","","","","","","","","","","","","","","",""
"","","","","","image-keyboard-response","182","259580","0.0-157.0","60b54dde7e4ce8de0f1f24be","665500ab8938657b03fbdba8","665793041f5820de30e93e71","546","stimuli/1011110.jpg","0","","prediction_trial","1","","false","","1","false","false","false","false","false","false","[1,2]","011","110","0","","","","","","",""
"","","","","","image-keyboard-response","183","259938","0.0-158.0","60b54dde7e4ce8de0f1f24be","665500ab8938657b03fbdba8","665793041f5820de30e93e71","357","stimuli/10111101.jpg"," ","","feedback_trial","1","","","","","","","","","","","","","","","","","","","","",""
"","","","","","image-keyboard-response","184","260337","0.0-159.0","60b54dde7e4ce8de0f1f24be","665500ab8938657b03fbdba8","665793041f5820de30e93e71","398","stimuli/0010101.jpg","2","","prediction_trial","0","","false","","0","false","false","true","true","false","false","[0]","010","101","0","","","","","","",""
"","","","","","image-keyboard-response","185","261796","0.0-160.0","60b54dde7e4ce8de0f1f24be","665500ab8938657b03fbdba8","665793041f5820de30e93e71","1457","stimuli/00101010.jpg"," ","","feedback_trial","0","","","","","","","","","","","","","","","","","","","","",""
"","","","","","image-keyboard-response","186","262286","0.0-161.0","60b54dde7e4ce8de0f1f24be","665500ab8938657b03fbdba8","665793041f5820de30e93e71","489","stimuli/1101011.jpg","0","","prediction_trial","1","","false","","1","false","false","true","true","false","false","[1]","101","011","0","","","","","","",""
"","","","","","image-keyboard-response","187","262572","0.0-162.0","60b54dde7e4ce8de0f1f24be","665500ab8938657b03fbdba8","665793041f5820de30e93e71","285","stimuli/11010111.jpg"," ","","feedback_trial","1","","","","","","","","","","","","","","","","","","","","",""
"","","","","","image-keyboard-response","188","262997","0.0-163.0","60b54dde7e4ce8de0f1f24be","665500ab8938657b03fbdba8","665793041f5820de30e93e71","424","stimuli/2000101.jpg","2","","prediction_trial","2","","true","","2","false","false","true","true","false","false","[2]","000","101","1","","","","","","",""
"","","","","","image-keyboard-response","189","263622","0.0-164.0","60b54dde7e4ce8de0f1f24be","665500ab8938657b03fbdba8","665793041f5820de30e93e71","623","stimuli/20001012.jpg"," ","","feedback_trial","2","","","","","","","","","","","","","","","","","","","","",""
"","","","","","image-keyboard-response","190","264384","0.0-165.0","60b54dde7e4ce8de0f1f24be","665500ab8938657b03fbdba8","665793041f5820de30e93e71","761","stimuli/1101000.jpg","0","","prediction_trial","1","","false","","1","true","true","true","true","true","true","[1]","101","000","0","","","","","","",""
"","","","","","image-keyboard-response","191","264980","0.0-166.0","60b54dde7e4ce8de0f1f24be","665500ab8938657b03fbdba8","665793041f5820de30e93e71","595","stimuli/11010001.jpg"," ","","feedback_trial","1","","","","","","","","","","","","","","","","","","","","",""
"","","","","","image-keyboard-response","192","265450","0.0-167.0","60b54dde7e4ce8de0f1f24be","665500ab8938657b03fbdba8","665793041f5820de30e93e71","469","stimuli/1000000.jpg","1","","prediction_trial","1","","true","","1","true","true","true","true","true","true","[1]","000","000","1","","","","","","",""
"","","","","","image-keyboard-response","193","265895","0.0-168.0","60b54dde7e4ce8de0f1f24be","665500ab8938657b03fbdba8","665793041f5820de30e93e71","443","stimuli/10000001.jpg"," ","","feedback_trial","1","","","","","","","","","","","","","","","","","","","","",""
"","","","","","image-keyboard-response","194","266615","0.0-169.0","60b54dde7e4ce8de0f1f24be","665500ab8938657b03fbdba8","665793041f5820de30e93e71","719","stimuli/1011100.jpg","0","","prediction_trial","2","","false","","1","true","true","false","false","false","false","[1,2]","011","100","0","","","","","","",""
"","","","","","image-keyboard-response","195","267273","0.0-170.0","60b54dde7e4ce8de0f1f24be","665500ab8938657b03fbdba8","665793041f5820de30e93e71","657","stimuli/10111002.jpg"," ","","feedback_trial","1","","","","","","","","","","","","","","","","","","","","",""
"","","","","","image-keyboard-response","196","267915","0.0-171.0","60b54dde7e4ce8de0f1f24be","665500ab8938657b03fbdba8","665793041f5820de30e93e71","640","stimuli/0101011.jpg","1","","prediction_trial","0","","false","","0","true","true","false","false","false","false","[2,0]","101","011","0","","","","","","",""
"","","","","","image-keyboard-response","197","268209","0.0-172.0","60b54dde7e4ce8de0f1f24be","665500ab8938657b03fbdba8","665793041f5820de30e93e71","293","stimuli/01010110.jpg"," ","","feedback_trial","2","","","","","","","","","","","","","","","","","","","","",""
"","","","","","image-keyboard-response","198","268714","0.0-173.0","60b54dde7e4ce8de0f1f24be","665500ab8938657b03fbdba8","665793041f5820de30e93e71","504","stimuli/2111111.jpg","0","","prediction_trial","2","","false","","2","false","false","false","false","false","false","[1,2,0]","111","111","0","","","","","","",""
"","","","","","image-keyboard-response","199","269123","0.0-174.0","60b54dde7e4ce8de0f1f24be","665500ab8938657b03fbdba8","665793041f5820de30e93e71","407","stimuli/21111112.jpg"," ","","feedback_trial","1","","","","","","","","","","","","","","","","","","","","",""
"","","","","","image-keyboard-response","200","269901","0.0-175.0","60b54dde7e4ce8de0f1f24be","665500ab8938657b03fbdba8","665793041f5820de30e93e71","777","stimuli/1001100.jpg","1","","prediction_trial","1","","true","","1","true","true","true","true","true","true","[1]","001","100","1","","","","","","",""
"","","","","","image-keyboard-response","201","270203","0.0-176.0","60b54dde7e4ce8de0f1f24be","665500ab8938657b03fbdba8","665793041f5820de30e93e71","301","stimuli/10011001.jpg"," ","","feedback_trial","1","","","","","","","","","","","","","","","","","","","","",""
"","","","","","image-keyboard-response","202","270707","0.0-177.0","60b54dde7e4ce8de0f1f24be","665500ab8938657b03fbdba8","665793041f5820de30e93e71","503","stimuli/1110101.jpg","1","","prediction_trial","0","","false","","1","true","true","false","false","false","false","[0,1]","110","101","0","","","","","","",""
"","","","","","image-keyboard-response","203","271061","0.0-178.0","60b54dde7e4ce8de0f1f24be","665500ab8938657b03fbdba8","665793041f5820de30e93e71","352","stimuli/11101010.jpg"," ","","feedback_trial","0","","","","","","","","","","","","","","","","","","","","",""
"","","","","","image-keyboard-response","204","272019","0.0-179.0","60b54dde7e4ce8de0f1f24be","665500ab8938657b03fbdba8","665793041f5820de30e93e71","958","stimuli/0000100.jpg","0","","prediction_trial","0","","true","","0","false","true","true","true","false","true","[0]","000","100","1","","","","","","",""
"","","","","","image-keyboard-response","205","272409","0.0-180.0","60b54dde7e4ce8de0f1f24be","665500ab8938657b03fbdba8","665793041f5820de30e93e71","387","stimuli/00001000.jpg"," ","","feedback_trial","0","","","","","","","","","","","","","","","","","","","","",""
"","","","","","image-keyboard-response","206","273228","0.0-181.0","60b54dde7e4ce8de0f1f24be","665500ab8938657b03fbdba8","665793041f5820de30e93e71","818","stimuli/1110011.jpg","0","","prediction_trial","0","","true","","1","false","false","false","false","false","false","[0,1]","110","011","1","","","","","","",""
"","","","","","image-keyboard-response","207","273678","0.0-182.0","60b54dde7e4ce8de0f1f24be","665500ab8938657b03fbdba8","665793041f5820de30e93e71","449","stimuli/11100110.jpg"," ","","feedback_trial","0","","","","","","","","","","","","","","","","","","","","",""
"","","","","","image-keyboard-response","208","274770","0.0-183.0","60b54dde7e4ce8de0f1f24be","665500ab8938657b03fbdba8","665793041f5820de30e93e71","1090","stimuli/1100111.jpg","0","","prediction_trial","1","","false","","1","false","false","true","true","false","false","[1]","100","111","0","","","","","","",""
"","","","","","image-keyboard-response","209","274923","0.0-184.0","60b54dde7e4ce8de0f1f24be","665500ab8938657b03fbdba8","665793041f5820de30e93e71","152","stimuli/11001111.jpg"," ","","feedback_trial","1","","","","","","","","","","","","","","","","","","","","",""
"","","","","","image-keyboard-response","210","275620","0.0-185.0","60b54dde7e4ce8de0f1f24be","665500ab8938657b03fbdba8","665793041f5820de30e93e71","696","stimuli/2111000.jpg","2","","prediction_trial","1","","false","","2","true","true","false","false","false","false","[1,2,0]","111","000","0","","","","","","",""
"","","","","","image-keyboard-response","211","275909","0.0-186.0","60b54dde7e4ce8de0f1f24be","665500ab8938657b03fbdba8","665793041f5820de30e93e71","288","stimuli/21110001.jpg"," ","","feedback_trial","1","","","","","","","","","","","","","","","","","","","","",""
"","","","","","image-keyboard-response","212","276716","0.0-187.0","60b54dde7e4ce8de0f1f24be","665500ab8938657b03fbdba8","665793041f5820de30e93e71","806","stimuli/2101000.jpg","2","","prediction_trial","2","","true","","2","true","true","false","false","false","false","[2,0]","101","000","1","","","","","","",""
"","","","","","image-keyboard-response","213","277068","0.0-188.0","60b54dde7e4ce8de0f1f24be","665500ab8938657b03fbdba8","665793041f5820de30e93e71","350","stimuli/21010002.jpg"," ","","feedback_trial","2","","","","","","","","","","","","","","","","","","","","",""
"","","","","","image-keyboard-response","214","277951","0.0-189.0","60b54dde7e4ce8de0f1f24be","665500ab8938657b03fbdba8","665793041f5820de30e93e71","882","stimuli/1100000.jpg","1","","prediction_trial","1","","true","","1","true","true","true","true","true","true","[1]","100","000","1","","","","","","",""
"","","","","","image-keyboard-response","215","278285","0.0-190.0","60b54dde7e4ce8de0f1f24be","665500ab8938657b03fbdba8","665793041f5820de30e93e71","333","stimuli/11000001.jpg"," ","","feedback_trial","1","","","","","","","","","","","","","","","","","","","","",""
"","","","","","image-keyboard-response","216","279111","0.0-191.0","60b54dde7e4ce8de0f1f24be","665500ab8938657b03fbdba8","665793041f5820de30e93e71","825","stimuli/0101110.jpg","1","","prediction_trial","2","","false","","0","false","false","false","false","false","false","[0,2]","101","110","0","","","","","","",""
"","","","","","image-keyboard-response","217","279356","0.0-192.0","60b54dde7e4ce8de0f1f24be","665500ab8938657b03fbdba8","665793041f5820de30e93e71","244","stimuli/01011102.jpg"," ","","feedback_trial","0","","","","","","","","","","","","","","","","","","","","",""
"","","","","","image-keyboard-response","218","279902","0.0-193.0","60b54dde7e4ce8de0f1f24be","665500ab8938657b03fbdba8","665793041f5820de30e93e71","545","stimuli/2010001.jpg","0","","prediction_trial","2","","false","","2","false","true","true","true","false","true","[2]","010","001","0","","","","","","",""
"","","","","","image-keyboard-response","219","280392","0.0-194.0","60b54dde7e4ce8de0f1f24be","665500ab8938657b03fbdba8","665793041f5820de30e93e71","488","stimuli/20100012.jpg"," ","","feedback_trial","2","","","","","","","","","","","","","","","","","","","","",""
"","","","","","image-keyboard-response","220","281019","0.0-195.0","60b54dde7e4ce8de0f1f24be","665500ab8938657b03fbdba8","665793041f5820de30e93e71","627","stimuli/2111100.jpg","2","","prediction_trial","2","","true","","2","true","true","false","false","false","false","[2,0,1]","111","100","1","","","","","","",""
"","","","","","image-keyboard-response","221","281339","0.0-196.0","60b54dde7e4ce8de0f1f24be","665500ab8938657b03fbdba8","665793041f5820de30e93e71","318","stimuli/21111002.jpg"," ","","feedback_trial","2","","","","","","","","","","","","","","","","","","","","",""
"","","","","","image-keyboard-response","222","282019","0.0-197.0","60b54dde7e4ce8de0f1f24be","665500ab8938657b03fbdba8","665793041f5820de30e93e71","679","stimuli/2001010.jpg","2","","prediction_trial","2","","true","","2","true","true","false","true","false","true","[2]","001","010","1","","","","","","",""
"","","","","","image-keyboard-response","223","282198","0.0-198.0","60b54dde7e4ce8de0f1f24be","665500ab8938657b03fbdba8","665793041f5820de30e93e71","178","stimuli/20010102.jpg"," ","","feedback_trial","2","","","","","","","","","","","","","","","","","","","","",""
"","","","","","image-keyboard-response","224","283121","0.0-199.0","60b54dde7e4ce8de0f1f24be","665500ab8938657b03fbdba8","665793041f5820de30e93e71","921","stimuli/2001001.jpg","2","","prediction_trial","2","","true","","2","false","true","false","true","false","true","[2]","001","001","1","","","","","","",""
"","","","","","image-keyboard-response","225","283227","0.0-200.0","60b54dde7e4ce8de0f1f24be","665500ab8938657b03fbdba8","665793041f5820de30e93e71","105","stimuli/20010012.jpg"," ","","feedback_trial","2","","","","","","","","","","","","","","","","","","","","",""
"","","","","","image-keyboard-response","226","284022","0.0-201.0","60b54dde7e4ce8de0f1f24be","665500ab8938657b03fbdba8","665793041f5820de30e93e71","794","stimuli/0010010.jpg","0","","prediction_trial","0","","true","","0","true","true","true","true","true","true","[0]","010","010","1","","","","","","",""
"","","","","","image-keyboard-response","227","284112","0.0-202.0","60b54dde7e4ce8de0f1f24be","665500ab8938657b03fbdba8","665793041f5820de30e93e71","89","stimuli/00100100.jpg"," ","","feedback_trial","0","","","","","","","","","","","","","","","","","","","","",""
"","","","","","image-keyboard-response","228","285027","0.0-203.0","60b54dde7e4ce8de0f1f24be","665500ab8938657b03fbdba8","665793041f5820de30e93e71","915","stimuli/1011101.jpg","1","","prediction_trial","1","","true","","1","true","true","false","false","false","false","[1,2]","011","101","1","","","","","","",""
"","","","","","image-keyboard-response","229","285246","0.0-204.0","60b54dde7e4ce8de0f1f24be","665500ab8938657b03fbdba8","665793041f5820de30e93e71","218","stimuli/10111011.jpg"," ","","feedback_trial","1","","","","","","","","","","","","","","","","","","","","",""
"","","","","","image-keyboard-response","230","286463","0.0-205.0","60b54dde7e4ce8de0f1f24be","665500ab8938657b03fbdba8","665793041f5820de30e93e71","1216","stimuli/2011101.jpg","2","","prediction_trial","1","","false","","2","false","false","false","false","false","false","[2,1]","011","101","0","","","","","","",""
"","","","","","image-keyboard-response","231","286633","0.0-206.0","60b54dde7e4ce8de0f1f24be","665500ab8938657b03fbdba8","665793041f5820de30e93e71","169","stimuli/20111011.jpg"," ","","feedback_trial","2","","","","","","","","","","","","","","","","","","","","",""
"","","","","","image-keyboard-response","232","287612","0.0-207.0","60b54dde7e4ce8de0f1f24be","665500ab8938657b03fbdba8","665793041f5820de30e93e71","978","stimuli/1100010.jpg","0","","prediction_trial","1","","false","","1","false","true","true","true","false","true","[1]","100","010","0","","","","","","",""
"","","","","","image-keyboard-response","233","287801","0.0-208.0","60b54dde7e4ce8de0f1f24be","665500ab8938657b03fbdba8","665793041f5820de30e93e71","188","stimuli/11000101.jpg"," ","","feedback_trial","1","","","","","","","","","","","","","","","","","","","","",""
"","","","","","image-keyboard-response","234","288975","0.0-209.0","60b54dde7e4ce8de0f1f24be","665500ab8938657b03fbdba8","665793041f5820de30e93e71","1173","stimuli/2110010.jpg","2","","prediction_trial","2","","true","","2","true","true","true","true","true","true","[2]","110","010","1","","","","","","",""
"","","","","","image-keyboard-response","235","289144","0.0-210.0","60b54dde7e4ce8de0f1f24be","665500ab8938657b03fbdba8","665793041f5820de30e93e71","168","stimuli/21100102.jpg"," ","","feedback_trial","2","","","","","","","","","","","","","","","","","","","","",""
"","","","","","image-keyboard-response","236","290121","0.0-211.0","60b54dde7e4ce8de0f1f24be","665500ab8938657b03fbdba8","665793041f5820de30e93e71","975","stimuli/2110011.jpg","1","","prediction_trial","2","","false","","2","false","false","true","true","false","false","[2]","110","011","0","","","","","","",""
"","","","","","image-keyboard-response","237","290250","0.0-212.0","60b54dde7e4ce8de0f1f24be","665500ab8938657b03fbdba8","665793041f5820de30e93e71","128","stimuli/21100112.jpg"," ","","feedback_trial","2","","","","","","","","","","","","","","","","","","","","",""
"","","","","","image-keyboard-response","238","291189","0.0-213.0","60b54dde7e4ce8de0f1f24be","665500ab8938657b03fbdba8","665793041f5820de30e93e71","939","stimuli/1000101.jpg","1","","prediction_trial","1","","true","","1","true","true","true","true","true","true","[1]","000","101","1","","","","","","",""
"","","","","","image-keyboard-response","239","291395","0.0-214.0","60b54dde7e4ce8de0f1f24be","665500ab8938657b03fbdba8","665793041f5820de30e93e71","204","stimuli/10001011.jpg"," ","","feedback_trial","1","","","","","","","","","","","","","","","","","","","","",""
"","","","","","image-keyboard-response","240","292316","0.0-215.0","60b54dde7e4ce8de0f1f24be","665500ab8938657b03fbdba8","665793041f5820de30e93e71","921","stimuli/2100001.jpg","2","","prediction_trial","2","","true","","2","false","true","true","true","false","true","[2]","100","001","1","","","","","","",""
"","","","","","image-keyboard-response","241","292547","0.0-216.0","60b54dde7e4ce8de0f1f24be","665500ab8938657b03fbdba8","665793041f5820de30e93e71","230","stimuli/21000012.jpg"," ","","feedback_trial","2","","","","","","","","","","","","","","","","","","","","",""
"","","","","","image-keyboard-response","242","293615","0.0-217.0","60b54dde7e4ce8de0f1f24be","665500ab8938657b03fbdba8","665793041f5820de30e93e71","1068","stimuli/1010011.jpg","2","","prediction_trial","1","","false","","1","false","false","false","true","false","false","[1]","010","011","0","","","","","","",""
"","","","","","image-keyboard-response","243","293741","0.0-218.0","60b54dde7e4ce8de0f1f24be","665500ab8938657b03fbdba8","665793041f5820de30e93e71","125","stimuli/10100111.jpg"," ","","feedback_trial","1","","","","","","","","","","","","","","","","","","","","",""
"","","","","","image-keyboard-response","244","294896","0.0-219.0","60b54dde7e4ce8de0f1f24be","665500ab8938657b03fbdba8","665793041f5820de30e93e71","1154","stimuli/2010101.jpg","0","","prediction_trial","2","","false","","2","false","false","true","true","false","false","[2]","010","101","0","","","","","","",""
"","","","","","image-keyboard-response","245","294993","0.0-220.0","60b54dde7e4ce8de0f1f24be","665500ab8938657b03fbdba8","665793041f5820de30e93e71","96","stimuli/20101012.jpg"," ","","feedback_trial","2","","","","","","","","","","","","","","","","","","","","",""
"","","","","","image-keyboard-response","246","295950","0.0-221.0","60b54dde7e4ce8de0f1f24be","665500ab8938657b03fbdba8","665793041f5820de30e93e71","957","stimuli/0010011.jpg","0","","prediction_trial","0","","true","","0","true","true","true","true","true","true","[0]","010","011","1","","","","","","",""
"","","","","","image-keyboard-response","247","296172","0.0-222.0","60b54dde7e4ce8de0f1f24be","665500ab8938657b03fbdba8","665793041f5820de30e93e71","221","stimuli/00100110.jpg"," ","","feedback_trial","0","","","","","","","","","","","","","","","","","","","","",""
"","","","","","image-keyboard-response","248","297183","0.0-223.0","60b54dde7e4ce8de0f1f24be","665500ab8938657b03fbdba8","665793041f5820de30e93e71","1010","stimuli/1100001.jpg","1","","prediction_trial","1","","true","","1","true","true","true","true","true","true","[1]","100","001","1","","","","","","",""
"","","","","","image-keyboard-response","249","297521","0.0-224.0","60b54dde7e4ce8de0f1f24be","665500ab8938657b03fbdba8","665793041f5820de30e93e71","337","stimuli/11000011.jpg"," ","","feedback_trial","1","","","","","","","","","","","","","","","","","","","","",""
"","","","","","image-keyboard-response","250","298387","0.0-225.0","60b54dde7e4ce8de0f1f24be","665500ab8938657b03fbdba8","665793041f5820de30e93e71","864","stimuli/1111101.jpg","1","","prediction_trial","2","","false","","1","true","true","false","false","false","false","[2,0,1]","111","101","0","","","","","","",""
"","","","","","image-keyboard-response","251","298659","0.0-226.0","60b54dde7e4ce8de0f1f24be","665500ab8938657b03fbdba8","665793041f5820de30e93e71","270","stimuli/11111012.jpg"," ","","feedback_trial","2","","","","","","","","","","","","","","","","","","","","",""
"","","","","","image-keyboard-response","252","299858","0.0-227.0","60b54dde7e4ce8de0f1f24be","665500ab8938657b03fbdba8","665793041f5820de30e93e71","1199","stimuli/2000001.jpg","1","","prediction_trial","2","","false","","2","false","true","true","true","false","true","[2]","000","001","0","","","","","","",""
"","","","","","image-keyboard-response","253","300286","0.0-228.0","60b54dde7e4ce8de0f1f24be","665500ab8938657b03fbdba8","665793041f5820de30e93e71","426","stimuli/20000012.jpg"," ","","feedback_trial","2","","","","","","","","","","","","","","","","","","","","",""
"","","","","","image-keyboard-response","254","300966","0.0-229.0","60b54dde7e4ce8de0f1f24be","665500ab8938657b03fbdba8","665793041f5820de30e93e71","679","stimuli/0101000.jpg","0","","prediction_trial","2","","false","","0","true","true","false","false","false","false","[2,0]","101","000","0","","","","","","",""
"","","","","","image-keyboard-response","255","301150","0.0-230.0","60b54dde7e4ce8de0f1f24be","665500ab8938657b03fbdba8","665793041f5820de30e93e71","182","stimuli/01010002.jpg"," ","","feedback_trial","2","","","","","","","","","","","","","","","","","","","","",""
"","","","","","image-keyboard-response","256","302110","0.0-231.0","60b54dde7e4ce8de0f1f24be","665500ab8938657b03fbdba8","665793041f5820de30e93e71","959","stimuli/0100100.jpg","0","","prediction_trial","0","","true","","0","false","true","false","true","false","true","[0]","100","100","1","","","","","","",""
"","","","","","image-keyboard-response","257","302389","0.0-232.0","60b54dde7e4ce8de0f1f24be","665500ab8938657b03fbdba8","665793041f5820de30e93e71","279","stimuli/01001000.jpg"," ","","feedback_trial","0","","","","","","","","","","","","","","","","","","","","",""
"","","","","","image-keyboard-response","258","303348","0.0-233.0","60b54dde7e4ce8de0f1f24be","665500ab8938657b03fbdba8","665793041f5820de30e93e71","958","stimuli/1000001.jpg","1","","prediction_trial","1","","true","","1","true","true","true","true","true","true","[1]","000","001","1","","","","","","",""
"","","","","","image-keyboard-response","259","303583","0.0-234.0","60b54dde7e4ce8de0f1f24be","665500ab8938657b03fbdba8","665793041f5820de30e93e71","233","stimuli/10000011.jpg"," ","","feedback_trial","1","","","","","","","","","","","","","","","","","","","","",""
"","","","","","image-keyboard-response","260","304403","0.0-235.0","60b54dde7e4ce8de0f1f24be","665500ab8938657b03fbdba8","665793041f5820de30e93e71","819","stimuli/0000000.jpg","0","","prediction_trial","0","","true","","0","true","true","true","true","true","true","[0]","000","000","1","","","","","","",""
"","","","","","image-keyboard-response","261","304619","0.0-236.0","60b54dde7e4ce8de0f1f24be","665500ab8938657b03fbdba8","665793041f5820de30e93e71","215","stimuli/00000000.jpg"," ","","feedback_trial","0","","","","","","","","","","","","","","","","","","","","",""
"","","","","","image-keyboard-response","262","305318","0.0-237.0","60b54dde7e4ce8de0f1f24be","665500ab8938657b03fbdba8","665793041f5820de30e93e71","698","stimuli/0100001.jpg","0","","prediction_trial","0","","true","","0","true","true","false","true","false","true","[0]","100","001","1","","","","","","",""
"","","","","","image-keyboard-response","263","305572","0.0-238.0","60b54dde7e4ce8de0f1f24be","665500ab8938657b03fbdba8","665793041f5820de30e93e71","253","stimuli/01000010.jpg"," ","","feedback_trial","0","","","","","","","","","","","","","","","","","","","","",""
"","","","","","image-keyboard-response","264","306314","0.0-239.0","60b54dde7e4ce8de0f1f24be","665500ab8938657b03fbdba8","665793041f5820de30e93e71","740","stimuli/0000011.jpg","0","","prediction_trial","0","","true","","0","true","true","true","true","true","true","[0]","000","011","1","","","","","","",""
"","","","","","image-keyboard-response","265","306608","0.0-240.0","60b54dde7e4ce8de0f1f24be","665500ab8938657b03fbdba8","665793041f5820de30e93e71","293","stimuli/00000110.jpg"," ","","feedback_trial","0","","","","","","","","","","","","","","","","","","","","",""
"","","","","","image-keyboard-response","266","307350","0.0-241.0","60b54dde7e4ce8de0f1f24be","665500ab8938657b03fbdba8","665793041f5820de30e93e71","740","stimuli/2110100.jpg","2","","prediction_trial","2","","true","","2","true","true","true","true","true","true","[2]","110","100","1","","","","","","",""
"","","","","","image-keyboard-response","267","307580","0.0-242.0","60b54dde7e4ce8de0f1f24be","665500ab8938657b03fbdba8","665793041f5820de30e93e71","229","stimuli/21101002.jpg"," ","","feedback_trial","2","","","","","","","","","","","","","","","","","","","","",""
"","","","","","image-keyboard-response","268","308363","0.0-243.0","60b54dde7e4ce8de0f1f24be","665500ab8938657b03fbdba8","665793041f5820de30e93e71","782","stimuli/2001000.jpg","2","","prediction_trial","2","","true","","2","true","true","false","true","false","true","[2]","001","000","1","","","","","","",""
"","","","","","image-keyboard-response","269","308530","0.0-244.0","60b54dde7e4ce8de0f1f24be","665500ab8938657b03fbdba8","665793041f5820de30e93e71","165","stimuli/20010002.jpg"," ","","feedback_trial","2","","","","","","","","","","","","","","","","","","","","",""
"","","","","","image-keyboard-response","270","309551","0.0-245.0","60b54dde7e4ce8de0f1f24be","665500ab8938657b03fbdba8","665793041f5820de30e93e71","1020","stimuli/2010110.jpg","2","","prediction_trial","2","","true","","2","true","true","true","true","true","true","[2]","010","110","1","","","","","","",""
"","","","","","image-keyboard-response","271","309758","0.0-246.0","60b54dde7e4ce8de0f1f24be","665500ab8938657b03fbdba8","665793041f5820de30e93e71","206","stimuli/20101102.jpg"," ","","feedback_trial","2","","","","","","","","","","","","","","","","","","","","",""
"","","","","","image-keyboard-response","272","310636","0.0-247.0","60b54dde7e4ce8de0f1f24be","665500ab8938657b03fbdba8","665793041f5820de30e93e71","877","stimuli/1011000.jpg","1","","prediction_trial","2","","false","","1","true","true","false","false","false","false","[1,2]","011","000","0","","","","","","",""
"","","","","","image-keyboard-response","273","310975","0.0-248.0","60b54dde7e4ce8de0f1f24be","665500ab8938657b03fbdba8","665793041f5820de30e93e71","337","stimuli/10110002.jpg"," ","","feedback_trial","1","","","","","","","","","","","","","","","","","","","","",""
"","","","","","image-keyboard-response","274","311653","0.0-249.0","60b54dde7e4ce8de0f1f24be","665500ab8938657b03fbdba8","665793041f5820de30e93e71","677","stimuli/0011000.jpg","0","","prediction_trial","0","","true","","0","true","true","true","true","true","true","[0]","011","000","1","","","","","","",""
"","","","","","image-keyboard-response","275","311958","0.0-250.0","60b54dde7e4ce8de0f1f24be","665500ab8938657b03fbdba8","665793041f5820de30e93e71","304","stimuli/00110000.jpg"," ","","feedback_trial","0","","","","","","","","","","","","","","","","","","","","",""
"","","","","","image-keyboard-response","276","313135","0.0-251.0","60b54dde7e4ce8de0f1f24be","665500ab8938657b03fbdba8","665793041f5820de30e93e71","1176","stimuli/1110010.jpg","1","","prediction_trial","1","","true","","1","false","true","false","false","false","false","[1,0]","110","010","1","","","","","","",""
"","","","","","image-keyboard-response","277","313448","0.0-252.0","60b54dde7e4ce8de0f1f24be","665500ab8938657b03fbdba8","665793041f5820de30e93e71","312","stimuli/11100101.jpg"," ","","feedback_trial","1","","","","","","","","","","","","","","","","","","","","",""
"","","","","","image-keyboard-response","278","314191","0.0-253.0","60b54dde7e4ce8de0f1f24be","665500ab8938657b03fbdba8","665793041f5820de30e93e71","742","stimuli/2011111.jpg","1","","prediction_trial","1","","true","","2","false","false","false","false","false","false","[1,2]","011","111","1","","","","","","",""
"","","","","","image-keyboard-response","279","314416","0.0-254.0","60b54dde7e4ce8de0f1f24be","665500ab8938657b03fbdba8","665793041f5820de30e93e71","223","stimuli/20111111.jpg"," ","","feedback_trial","1","","","","","","","","","","","","","","","","","","","","",""
"","","","","","image-keyboard-response","280","315142","0.0-255.0","60b54dde7e4ce8de0f1f24be","665500ab8938657b03fbdba8","665793041f5820de30e93e71","725","stimuli/0000010.jpg","0","","prediction_trial","0","","true","","0","true","true","true","true","true","true","[0]","000","010","1","","","","","","",""
"","","","","","image-keyboard-response","281","315336","0.0-256.0","60b54dde7e4ce8de0f1f24be","665500ab8938657b03fbdba8","665793041f5820de30e93e71","193","stimuli/00000100.jpg"," ","","feedback_trial","0","","","","","","","","","","","","","","","","","","","","",""
"","","","","","image-keyboard-response","282","316068","0.0-257.0","60b54dde7e4ce8de0f1f24be","665500ab8938657b03fbdba8","665793041f5820de30e93e71","731","stimuli/2100101.jpg","0","","prediction_trial","2","","false","","2","false","false","true","true","false","false","[2]","100","101","0","","","","","","",""
"","","","","","image-keyboard-response","283","316244","0.0-258.0","60b54dde7e4ce8de0f1f24be","665500ab8938657b03fbdba8","665793041f5820de30e93e71","174","stimuli/21001012.jpg"," ","","feedback_trial","2","","","","","","","","","","","","","","","","","","","","",""
"","","","","","image-keyboard-response","284","316720","0.0-259.0","60b54dde7e4ce8de0f1f24be","665500ab8938657b03fbdba8","665793041f5820de30e93e71","475","stimuli/2011011.jpg","2","","prediction_trial","2","","true","","2","false","false","false","false","false","false","[2,1]","011","011","1","","","","","","",""
"","","","","","image-keyboard-response","285","317092","0.0-260.0","60b54dde7e4ce8de0f1f24be","665500ab8938657b03fbdba8","665793041f5820de30e93e71","371","stimuli/20110112.jpg"," ","","feedback_trial","2","","","","","","","","","","","","","","","","","","","","",""
"","","","","","image-keyboard-response","286","318319","0.0-261.0","60b54dde7e4ce8de0f1f24be","665500ab8938657b03fbdba8","665793041f5820de30e93e71","1226","stimuli/1111110.jpg","1","","prediction_trial","1","","true","","1","false","false","false","false","false","false","[0,1,2]","111","110","1","","","","","","",""
"","","","","","image-keyboard-response","287","318485","0.0-262.0","60b54dde7e4ce8de0f1f24be","665500ab8938657b03fbdba8","665793041f5820de30e93e71","164","stimuli/11111101.jpg"," ","","feedback_trial","0","","","","","","","","","","","","","","","","","","","","",""
"","","","","","image-keyboard-response","288","319351","0.0-263.0","60b54dde7e4ce8de0f1f24be","665500ab8938657b03fbdba8","665793041f5820de30e93e71","865","stimuli/2000011.jpg","1","","prediction_trial","2","","false","","2","false","false","true","true","false","false","[2]","000","011","0","","","","","","",""
"","","","","","image-keyboard-response","289","319447","0.0-264.0","60b54dde7e4ce8de0f1f24be","665500ab8938657b03fbdba8","665793041f5820de30e93e71","94","stimuli/20000112.jpg"," ","","feedback_trial","2","","","","","","","","","","","","","","","","","","","","",""
"","","","","","image-keyboard-response","290","320019","0.0-265.0","60b54dde7e4ce8de0f1f24be","665500ab8938657b03fbdba8","665793041f5820de30e93e71","571","stimuli/2001011.jpg","2","","prediction_trial","2","","true","","2","false","false","false","true","false","false","[2]","001","011","1","","","","","","",""
"","","","","","image-keyboard-response","291","320274","0.0-266.0","60b54dde7e4ce8de0f1f24be","665500ab8938657b03fbdba8","665793041f5820de30e93e71","254","stimuli/20010112.jpg"," ","","feedback_trial","2","","","","","","","","","","","","","","","","","","","","",""
"","","","","","image-keyboard-response","292","320960","0.0-267.0","60b54dde7e4ce8de0f1f24be","665500ab8938657b03fbdba8","665793041f5820de30e93e71","685","stimuli/1110000.jpg","1","","prediction_trial","1","","true","","1","true","true","false","false","false","false","[0,1]","110","000","1","","","","","","",""
"","","","","","image-keyboard-response","293","321078","0.0-268.0","60b54dde7e4ce8de0f1f24be","665500ab8938657b03fbdba8","665793041f5820de30e93e71","116","stimuli/11100001.jpg"," ","","feedback_trial","0","","","","","","","","","","","","","","","","","","","","",""
"","","","","","image-keyboard-response","294","321980","0.0-269.0","60b54dde7e4ce8de0f1f24be","665500ab8938657b03fbdba8","665793041f5820de30e93e71","901","stimuli/0111101.jpg","0","","prediction_trial","1","","false","","0","false","false","false","false","false","false","[0,2,1]","111","101","0","","","","","","",""
"","","","","","image-keyboard-response","295","322545","0.0-270.0","60b54dde7e4ce8de0f1f24be","665500ab8938657b03fbdba8","665793041f5820de30e93e71","563","stimuli/01111011.jpg"," ","","feedback_trial","0","","","","","","","","","","","","","","","","","","","","",""
"","","","","","image-keyboard-response","296","323217","0.0-271.0","60b54dde7e4ce8de0f1f24be","665500ab8938657b03fbdba8","665793041f5820de30e93e71","672","stimuli/1010111.jpg","2","","prediction_trial","1","","false","","1","false","false","false","true","false","false","[1]","010","111","0","","","","","","",""
"","","","","","image-keyboard-response","297","323568","0.0-272.0","60b54dde7e4ce8de0f1f24be","665500ab8938657b03fbdba8","665793041f5820de30e93e71","349","stimuli/10101111.jpg"," ","","feedback_trial","1","","","","","","","","","","","","","","","","","","","","",""
"","","","","","image-keyboard-response","298","324132","0.0-273.0","60b54dde7e4ce8de0f1f24be","665500ab8938657b03fbdba8","665793041f5820de30e93e71","564","stimuli/0111110.jpg","0","","prediction_trial","2","","false","","0","false","false","false","false","false","false","[0,2,1]","111","110","0","","","","","","",""
"","","","","","image-keyboard-response","299","324332","0.0-274.0","60b54dde7e4ce8de0f1f24be","665500ab8938657b03fbdba8","665793041f5820de30e93e71","199","stimuli/01111102.jpg"," ","","feedback_trial","0","","","","","","","","","","","","","","","","","","","","",""
"","","","","","image-keyboard-response","300","324796","0.0-275.0","60b54dde7e4ce8de0f1f24be","665500ab8938657b03fbdba8","665793041f5820de30e93e71","463","stimuli/2100010.jpg","1","","prediction_trial","2","","false","","2","true","true","true","true","true","true","[2]","100","010","0","","","","","","",""
"","","","","","image-keyboard-response","301","324971","0.0-276.0","60b54dde7e4ce8de0f1f24be","665500ab8938657b03fbdba8","665793041f5820de30e93e71","174","stimuli/21000102.jpg"," ","","feedback_trial","2","","","","","","","","","","","","","","","","","","","","",""
"","","","","","image-keyboard-response","302","325516","0.0-277.0","60b54dde7e4ce8de0f1f24be","665500ab8938657b03fbdba8","665793041f5820de30e93e71","544","stimuli/2000110.jpg","0","","prediction_trial","2","","false","","2","true","true","true","true","true","true","[2]","000","110","0","","","","","","",""
"","","","","","image-keyboard-response","303","325778","0.0-278.0","60b54dde7e4ce8de0f1f24be","665500ab8938657b03fbdba8","665793041f5820de30e93e71","261","stimuli/20001102.jpg"," ","","feedback_trial","2","","","","","","","","","","","","","","","","","","","","",""
"","","","","","image-keyboard-response","304","326309","0.0-279.0","60b54dde7e4ce8de0f1f24be","665500ab8938657b03fbdba8","665793041f5820de30e93e71","530","stimuli/2101111.jpg","0","","prediction_trial","0","","true","","2","false","false","false","false","false","false","[0,2]","101","111","1","","","","","","",""
"","","","","","image-keyboard-response","305","326556","0.0-280.0","60b54dde7e4ce8de0f1f24be","665500ab8938657b03fbdba8","665793041f5820de30e93e71","246","stimuli/21011110.jpg"," ","","feedback_trial","0","","","","","","","","","","","","","","","","","","","","",""
"","","","","","image-keyboard-response","306","327475","0.0-281.0","60b54dde7e4ce8de0f1f24be","665500ab8938657b03fbdba8","665793041f5820de30e93e71","926","stimuli/1111100.jpg","1","","prediction_trial","1","","true","","1","true","true","false","false","false","false","[2,0,1]","111","100","1","","","","","","",""
"","","","","","image-keyboard-response","307","327639","0.0-282.0","60b54dde7e4ce8de0f1f24be","665500ab8938657b03fbdba8","665793041f5820de30e93e71","162","stimuli/11111001.jpg"," ","","feedback_trial","2","","","","","","","","","","","","","","","","","","","","",""
"","","","","","image-keyboard-response","308","328526","0.0-283.0","60b54dde7e4ce8de0f1f24be","665500ab8938657b03fbdba8","665793041f5820de30e93e71","887","stimuli/2100100.jpg","0","","prediction_trial","2","","false","","2","true","true","true","true","true","true","[2]","100","100","0","","","","","","",""
"","","","","","image-keyboard-response","309","328735","0.0-284.0","60b54dde7e4ce8de0f1f24be","665500ab8938657b03fbdba8","665793041f5820de30e93e71","207","stimuli/21001002.jpg"," ","","feedback_trial","2","","","","","","","","","","","","","","","","","","","","",""
"","","","","","image-keyboard-response","310","329351","0.0-285.0","60b54dde7e4ce8de0f1f24be","665500ab8938657b03fbdba8","665793041f5820de30e93e71","615","stimuli/0011110.jpg","1","","prediction_trial","0","","false","","0","false","false","true","true","false","false","[0]","011","110","0","","","","","","",""
"","","","","","image-keyboard-response","311","329583","0.0-286.0","60b54dde7e4ce8de0f1f24be","665500ab8938657b03fbdba8","665793041f5820de30e93e71","230","stimuli/00111100.jpg"," ","","feedback_trial","0","","","","","","","","","","","","","","","","","","","","",""
"","","","","","image-keyboard-response","312","330199","0.0-287.0","60b54dde7e4ce8de0f1f24be","665500ab8938657b03fbdba8","665793041f5820de30e93e71","615","stimuli/0001101.jpg","2","","prediction_trial","0","","false","","0","false","false","true","true","false","false","[0]","001","101","0","","","","","","",""
"","","","","","image-keyboard-response","313","330379","0.0-288.0","60b54dde7e4ce8de0f1f24be","665500ab8938657b03fbdba8","665793041f5820de30e93e71","179","stimuli/00011010.jpg"," ","","feedback_trial","0","","","","","","","","","","","","","","","","","","","","",""
"","","","","","image-keyboard-response","314","330930","0.0-289.0","60b54dde7e4ce8de0f1f24be","665500ab8938657b03fbdba8","665793041f5820de30e93e71","550","stimuli/0110111.jpg","0","","prediction_trial","1","","false","","0","false","false","false","false","false","false","[1,0]","110","111","0","","","","","","",""
"","","","","","image-keyboard-response","315","331367","0.0-290.0","60b54dde7e4ce8de0f1f24be","665500ab8938657b03fbdba8","665793041f5820de30e93e71","436","stimuli/01101111.jpg"," ","","feedback_trial","1","","","","","","","","","","","","","","","","","","","","",""
"","","","","","image-keyboard-response","316","332119","0.0-291.0","60b54dde7e4ce8de0f1f24be","665500ab8938657b03fbdba8","665793041f5820de30e93e71","751","stimuli/2011100.jpg","2","","prediction_trial","1","","false","","2","true","true","false","false","false","false","[2,1]","011","100","0","","","","","","",""
"","","","","","image-keyboard-response","317","332231","0.0-292.0","60b54dde7e4ce8de0f1f24be","665500ab8938657b03fbdba8","665793041f5820de30e93e71","111","stimuli/20111001.jpg"," ","","feedback_trial","2","","","","","","","","","","","","","","","","","","","","",""
"","","","","","survey-html-form","318","385936","0.0-293.0","60b54dde7e4ce8de0f1f24be","665500ab8938657b03fbdba8","665793041f5820de30e93e71","53701","","{""feedback"":""I generally selected the basket with the ball if visible. Otherwise I used process of elimination where available. Otherwise I guessed."",""age"":""41"",""gender"":""Female"",""other_gender"":"""",""race"":""White"",""other_race"":"""",""ethnicity"":""Non-Hispanic""}","","exit_survey","","","","","","","","","","","","","","","","I generally selected the basket with the ball if visible. Otherwise I used process of elimination where available. Otherwise I guessed.","41","Non-Hispanic","Female","White","0.5625","0.5625"
