workerid,proliferate.condition,accuracy,accuracy_bool,alter_ball_visible,alter_can_infer,alter_occluders,ball_pos,character_choice,collective_ball_visible,collective_can_infer,ego_ball_visible,ego_can_infer,ego_occluders,internal_node_id,response,rt,search_locations,stimulus,time_elapsed,trial,trial_index,trial_type,error
2,Pilot (test data collection),True,1,False,False,101,2,2,False,False,True,True,100,0.0-5.0,2,885,"[2, 0]",stimuli/2101100.jpg,33631,prediction_trial,36,image-keyboard-response,
2,Pilot (test data collection),True,1,False,False,111,1,1,False,False,False,True,010,0.0-7.0,1,523,"[2, 0, 1]",stimuli/1111010.jpg,34461,prediction_trial,38,image-keyboard-response,
2,Pilot (test data collection),False,0,False,False,111,2,1,False,False,True,True,110,0.0-9.0,2,616,"[0, 1, 2]",stimuli/2111110.jpg,35430,prediction_trial,40,image-keyboard-response,
2,Pilot (test data collection),True,1,True,True,000,1,1,True,True,True,True,001,0.0-11.0,1,624,[1],stimuli/1000001.jpg,36373,prediction_trial,42,image-keyboard-response,
2,Pilot (test data collection),True,1,False,False,111,0,1,False,False,False,False,110,0.0-13.0,1,745,"[1, 0, 2]",stimuli/0111110.jpg,37508,prediction_trial,44,image-keyboard-response,
2,Pilot (test data collection),True,1,True,True,000,2,2,False,False,False,False,101,0.0-15.0,2,934,[2],stimuli/2000101.jpg,38782,prediction_trial,46,image-keyboard-response,
2,Pilot (test data collection),False,0,False,False,111,1,0,False,False,False,True,010,0.0-17.0,1,1030,"[2, 0, 1]",stimuli/1111010.jpg,40131,prediction_trial,48,image-keyboard-response,
2,Pilot (test data collection),False,0,False,False,011,1,2,False,False,False,False,111,0.0-19.0,1,779,"[2, 1]",stimuli/1011111.jpg,41198,prediction_trial,50,image-keyboard-response,
2,Pilot (test data collection),True,1,False,False,110,0,0,False,False,True,True,000,0.0-21.0,0,787,"[0, 1]",stimuli/0110000.jpg,42367,prediction_trial,52,image-keyboard-response,
2,Pilot (test data collection),True,1,True,True,101,1,1,False,False,False,False,110,0.0-23.0,1,1784,[1],stimuli/1101110.jpg,44463,prediction_trial,54,image-keyboard-response,
2,Pilot (test data collection),False,0,True,True,001,0,0,False,False,False,False,110,0.0-25.0,1,811,[0],stimuli/0001110.jpg,45605,prediction_trial,56,image-keyboard-response,
2,Pilot (test data collection),False,0,False,False,111,0,0,False,False,False,False,111,0.0-27.0,1,662,"[0, 1, 2]",stimuli/0111111.jpg,46565,prediction_trial,58,image-keyboard-response,
2,Pilot (test data collection),True,1,False,False,111,1,1,False,False,False,True,010,0.0-29.0,1,743,"[2, 0, 1]",stimuli/1111010.jpg,47574,prediction_trial,60,image-keyboard-response,
2,Pilot (test data collection),False,0,True,True,000,2,2,False,False,False,False,111,0.0-31.0,1,572,[2],stimuli/2000111.jpg,48404,prediction_trial,62,image-keyboard-response,
2,Pilot (test data collection),False,0,False,False,111,0,2,False,False,True,True,011,0.0-33.0,0,788,"[2, 1, 0]",stimuli/0111011.jpg,49462,prediction_trial,64,image-keyboard-response,
2,Pilot (test data collection),True,1,True,True,001,0,0,True,True,True,True,000,0.0-35.0,0,822,[0],stimuli/0001000.jpg,50666,prediction_trial,66,image-keyboard-response,
2,Pilot (test data collection),True,1,True,True,000,1,1,True,True,True,True,000,0.0-37.0,1,593,[1],stimuli/1000000.jpg,51587,prediction_trial,68,image-keyboard-response,
2,Pilot (test data collection),False,0,False,False,111,1,0,False,False,False,False,111,0.0-39.0,2,714,"[1, 2, 0]",stimuli/1111111.jpg,52613,prediction_trial,70,image-keyboard-response,
2,Pilot (test data collection),False,0,False,False,111,1,2,False,False,True,True,000,0.0-41.0,1,912,"[2, 0, 1]",stimuli/1111000.jpg,53831,prediction_trial,72,image-keyboard-response,
2,Pilot (test data collection),True,1,False,False,111,0,1,False,False,False,False,110,0.0-43.0,1,733,"[1, 0, 2]",stimuli/0111110.jpg,54882,prediction_trial,74,image-keyboard-response,
2,Pilot (test data collection),True,1,False,False,011,2,2,False,False,True,True,100,0.0-45.0,2,697,"[2, 1]",stimuli/2011100.jpg,55871,prediction_trial,76,image-keyboard-response,
2,Pilot (test data collection),True,1,False,False,110,0,1,False,False,False,False,111,0.0-47.0,1,733,"[1, 0]",stimuli/0110111.jpg,56935,prediction_trial,78,image-keyboard-response,
2,Pilot (test data collection),True,1,False,False,111,1,1,False,False,False,False,110,0.0-49.0,1,556,"[0, 2, 1]",stimuli/1111110.jpg,57786,prediction_trial,80,image-keyboard-response,
2,Pilot (test data collection),True,1,True,True,101,1,1,True,True,True,True,000,0.0-51.0,1,725,[1],stimuli/1101000.jpg,58798,prediction_trial,82,image-keyboard-response,
2,Pilot (test data collection),True,1,False,False,111,1,1,False,False,True,True,001,0.0-53.0,1,550,"[2, 1, 0]",stimuli/1111001.jpg,59672,prediction_trial,84,image-keyboard-response,
2,Pilot (test data collection),True,1,True,True,001,1,1,False,False,False,False,111,0.0-55.0,1,647,[1],stimuli/1001111.jpg,60618,prediction_trial,86,image-keyboard-response,
2,Pilot (test data collection),True,1,False,False,011,1,1,False,False,True,True,100,0.0-57.0,1,1045,"[2, 1]",stimuli/1011100.jpg,61948,prediction_trial,88,image-keyboard-response,
2,Pilot (test data collection),False,0,False,False,111,1,2,False,False,False,False,111,0.0-59.0,1,1005,"[1, 2, 0]",stimuli/1111111.jpg,63276,prediction_trial,90,image-keyboard-response,
2,Pilot (test data collection),False,0,False,False,111,1,0,False,False,True,True,000,0.0-61.0,1,668,"[2, 0, 1]",stimuli/1111000.jpg,64267,prediction_trial,92,image-keyboard-response,
2,Pilot (test data collection),False,0,False,False,111,2,0,False,False,False,True,001,0.0-63.0,2,815,"[0, 2, 1]",stimuli/2111001.jpg,65381,prediction_trial,94,image-keyboard-response,
2,Pilot (test data collection),True,1,False,False,111,1,2,False,False,False,False,011,0.0-65.0,2,568,"[1, 2, 0]",stimuli/1111011.jpg,66296,prediction_trial,96,image-keyboard-response,
2,Pilot (test data collection),True,1,True,True,100,1,1,False,False,False,False,111,0.0-67.0,1,611,[1],stimuli/1100111.jpg,67218,prediction_trial,98,image-keyboard-response,
2,Pilot (test data collection),False,0,True,True,010,2,2,False,False,False,False,101,0.0-69.0,1,665,[2],stimuli/2010101.jpg,68152,prediction_trial,100,image-keyboard-response,
2,Pilot (test data collection),True,1,False,True,001,2,2,False,False,False,False,101,0.0-71.0,2,760,[2],stimuli/2001101.jpg,69676,prediction_trial,102,image-keyboard-response,
2,Pilot (test data collection),False,0,False,False,111,2,2,False,False,False,True,001,0.0-73.0,1,750,"[0, 2, 1]",stimuli/2111001.jpg,70690,prediction_trial,104,image-keyboard-response,
2,Pilot (test data collection),False,0,False,False,111,0,2,False,False,True,True,010,0.0-75.0,0,755,"[0, 2, 1]",stimuli/0111010.jpg,71765,prediction_trial,106,image-keyboard-response,
2,Pilot (test data collection),False,0,False,False,111,2,1,False,False,True,True,100,0.0-77.0,2,972,"[0, 2, 1]",stimuli/2111100.jpg,73149,prediction_trial,108,image-keyboard-response,
2,Pilot (test data collection),True,1,False,False,011,2,2,False,False,False,False,101,0.0-79.0,2,1050,"[2, 1]",stimuli/2011101.jpg,74753,prediction_trial,110,image-keyboard-response,
2,Pilot (test data collection),True,1,False,False,111,0,1,False,False,False,False,110,0.0-81.0,1,499,"[1, 0, 2]",stimuli/0111110.jpg,75590,prediction_trial,112,image-keyboard-response,
2,Pilot (test data collection),False,0,False,False,110,1,0,False,False,False,False,011,0.0-83.0,1,584,"[0, 1]",stimuli/1110011.jpg,76493,prediction_trial,114,image-keyboard-response,
2,Pilot (test data collection),False,0,False,False,111,0,1,False,False,False,True,100,0.0-85.0,0,819,"[2, 1, 0]",stimuli/0111100.jpg,77628,prediction_trial,116,image-keyboard-response,
2,Pilot (test data collection),True,1,True,True,011,0,0,False,True,False,True,100,0.0-87.0,0,1529,[0],stimuli/0011100.jpg,79453,prediction_trial,118,image-keyboard-response,
2,Pilot (test data collection),False,0,False,False,111,0,0,False,False,True,True,000,0.0-89.0,2,2823,"[0, 1, 2]",stimuli/0111000.jpg,82597,prediction_trial,120,image-keyboard-response,
2,Pilot (test data collection),False,0,True,True,010,2,2,False,False,False,False,111,0.0-91.0,1,783,[2],stimuli/2010111.jpg,83918,prediction_trial,122,image-keyboard-response,
2,Pilot (test data collection),True,1,False,False,111,0,1,False,False,True,True,010,0.0-93.0,1,876,"[0, 2, 1]",stimuli/0111010.jpg,85097,prediction_trial,124,image-keyboard-response,
2,Pilot (test data collection),True,1,False,True,010,1,1,False,True,True,True,101,0.0-95.0,1,1785,[1],stimuli/1010101.jpg,87165,prediction_trial,126,image-keyboard-response,
2,Pilot (test data collection),False,0,False,False,111,2,0,False,False,False,False,111,0.0-97.0,1,516,"[2, 0, 1]",stimuli/2111111.jpg,88017,prediction_trial,128,image-keyboard-response,
2,Pilot (test data collection),True,1,False,True,010,1,1,False,False,False,False,011,0.0-99.0,1,564,[1],stimuli/1010011.jpg,88855,prediction_trial,130,image-keyboard-response,
2,Pilot (test data collection),True,1,True,True,110,2,2,True,True,True,True,010,0.0-101.0,2,657,[2],stimuli/2110010.jpg,89839,prediction_trial,132,image-keyboard-response,
2,Pilot (test data collection),True,1,False,False,110,0,0,False,False,True,True,010,0.0-103.0,0,618,"[1, 0]",stimuli/0110010.jpg,90776,prediction_trial,134,image-keyboard-response,
2,Pilot (test data collection),True,1,True,True,100,1,1,True,True,True,True,001,0.0-105.0,1,936,[1],stimuli/1100001.jpg,92042,prediction_trial,136,image-keyboard-response,
2,Pilot (test data collection),False,0,False,False,111,0,1,False,False,True,True,001,0.0-107.0,0,801,"[0, 1, 2]",stimuli/0111001.jpg,93227,prediction_trial,138,image-keyboard-response,
2,Pilot (test data collection),True,1,False,True,010,1,1,False,True,True,True,001,0.0-109.0,1,579,[1],stimuli/1010001.jpg,94116,prediction_trial,140,image-keyboard-response,
2,Pilot (test data collection),False,0,False,False,110,0,1,False,False,True,True,011,0.0-111.0,0,630,"[0, 1]",stimuli/0110011.jpg,95054,prediction_trial,142,image-keyboard-response,
2,Pilot (test data collection),False,0,False,False,111,0,2,False,False,True,True,001,0.0-113.0,0,577,"[0, 1, 2]",stimuli/0111001.jpg,95976,prediction_trial,144,image-keyboard-response,
2,Pilot (test data collection),True,1,False,False,110,1,1,False,False,True,True,101,0.0-115.0,1,585,"[1, 0]",stimuli/1110101.jpg,96938,prediction_trial,146,image-keyboard-response,
2,Pilot (test data collection),False,0,False,False,111,2,0,False,False,True,True,010,0.0-117.0,2,635,"[1, 2, 0]",stimuli/2111010.jpg,97892,prediction_trial,148,image-keyboard-response,
2,Pilot (test data collection),False,0,False,False,111,0,2,False,False,True,True,011,0.0-119.0,0,795,"[2, 1, 0]",stimuli/0111011.jpg,99060,prediction_trial,150,image-keyboard-response,
2,Pilot (test data collection),True,1,False,False,111,2,2,False,False,True,True,100,0.0-121.0,2,619,"[0, 2, 1]",stimuli/2111100.jpg,100007,prediction_trial,152,image-keyboard-response,
2,Pilot (test data collection),True,1,True,True,001,1,1,True,True,True,True,101,0.0-123.0,1,1132,[1],stimuli/1001101.jpg,101503,prediction_trial,154,image-keyboard-response,
2,Pilot (test data collection),False,0,False,True,001,2,2,False,False,False,False,111,0.0-125.0,1,536,[2],stimuli/2001111.jpg,102378,prediction_trial,156,image-keyboard-response,
2,Pilot (test data collection),False,0,True,True,101,1,1,True,True,True,True,100,0.0-127.0,0,886,[1],stimuli/1101100.jpg,103595,prediction_trial,158,image-keyboard-response,
2,Pilot (test data collection),True,1,False,True,001,2,2,False,True,False,True,001,0.0-129.0,2,961,[2],stimuli/2001001.jpg,104901,prediction_trial,160,image-keyboard-response,
2,Pilot (test data collection),True,1,True,True,000,1,1,False,False,False,False,011,0.0-131.0,1,610,[1],stimuli/1000011.jpg,105877,prediction_trial,162,image-keyboard-response,
2,Pilot (test data collection),False,0,False,False,111,2,1,False,False,False,True,001,0.0-133.0,2,1570,"[0, 2, 1]",stimuli/2111001.jpg,107824,prediction_trial,164,image-keyboard-response,
2,Pilot (test data collection),False,0,False,False,111,2,0,False,False,False,False,011,0.0-135.0,1,3434,"[0, 1, 2]",stimuli/2111011.jpg,120656,prediction_trial,166,image-keyboard-response,
2,Pilot (test data collection),False,0,False,False,101,2,0,False,False,True,True,000,0.0-137.0,2,2760,"[0, 2]",stimuli/2101000.jpg,125682,prediction_trial,168,image-keyboard-response,
2,Pilot (test data collection),False,0,False,False,111,0,2,False,False,False,False,101,0.0-139.0,0,513,"[0, 2, 1]",stimuli/0111101.jpg,129993,prediction_trial,170,image-keyboard-response,
2,Pilot (test data collection),False,0,False,False,111,1,1,False,False,False,False,110,0.0-141.0,0,480,"[0, 2, 1]",stimuli/1111110.jpg,130800,prediction_trial,172,image-keyboard-response,
2,Pilot (test data collection),True,1,False,False,011,2,2,False,False,True,True,010,0.0-143.0,2,692,"[1, 2]",stimuli/2011010.jpg,131780,prediction_trial,174,image-keyboard-response,
2,Pilot (test data collection),False,0,False,False,111,1,0,False,False,True,True,001,0.0-145.0,1,603,"[2, 1, 0]",stimuli/1111001.jpg,132710,prediction_trial,176,image-keyboard-response,
2,Pilot (test data collection),True,1,False,False,111,0,1,False,False,True,True,010,0.0-147.0,1,828,"[0, 2, 1]",stimuli/0111010.jpg,133847,prediction_trial,178,image-keyboard-response,
2,Pilot (test data collection),True,1,True,True,100,2,2,True,True,True,True,110,0.0-149.0,2,1156,[2],stimuli/2100110.jpg,135363,prediction_trial,180,image-keyboard-response,
2,Pilot (test data collection),True,1,False,False,111,0,1,False,False,True,True,000,0.0-151.0,1,2563,"[0, 1, 2]",stimuli/0111000.jpg,138206,prediction_trial,182,image-keyboard-response,
2,Pilot (test data collection),False,0,False,False,111,2,0,False,False,True,True,010,0.0-153.0,1,4163,"[1, 2, 0]",stimuli/2111010.jpg,142712,prediction_trial,184,image-keyboard-response,
2,Pilot (test data collection),False,0,False,False,011,1,1,False,False,True,True,000,0.0-155.0,2,765,"[1, 2]",stimuli/1011000.jpg,143796,prediction_trial,186,image-keyboard-response,
2,Pilot (test data collection),True,1,False,False,111,2,0,False,False,True,True,000,0.0-157.0,0,748,"[0, 2, 1]",stimuli/2111000.jpg,144912,prediction_trial,188,image-keyboard-response,
2,Pilot (test data collection),False,0,False,False,111,2,2,False,False,True,True,100,0.0-159.0,1,739,"[0, 2, 1]",stimuli/2111100.jpg,145975,prediction_trial,190,image-keyboard-response,
2,Pilot (test data collection),False,0,True,True,010,0,0,True,True,True,True,000,0.0-161.0,1,805,[0],stimuli/0010000.jpg,147114,prediction_trial,192,image-keyboard-response,
2,Pilot (test data collection),False,0,False,False,101,2,0,False,False,True,True,110,0.0-163.0,2,881,"[0, 2]",stimuli/2101110.jpg,148288,prediction_trial,194,image-keyboard-response,
2,Pilot (test data collection),True,1,False,False,111,0,1,False,False,False,False,101,0.0-165.0,1,998,"[0, 2, 1]",stimuli/0111101.jpg,149621,prediction_trial,196,image-keyboard-response,
2,Pilot (test data collection),False,0,False,False,111,2,2,False,False,True,True,010,0.0-167.0,0,959,"[1, 2, 0]",stimuli/2111010.jpg,150822,prediction_trial,198,image-keyboard-response,
2,Pilot (test data collection),False,0,False,False,111,1,1,False,False,True,True,100,0.0-169.0,2,855,"[2, 1, 0]",stimuli/1111100.jpg,152089,prediction_trial,200,image-keyboard-response,
2,Pilot (test data collection),False,0,True,True,001,0,0,False,False,False,False,111,0.0-171.0,2,982,[0],stimuli/0001111.jpg,153481,prediction_trial,202,image-keyboard-response,
2,Pilot (test data collection),True,1,False,False,111,0,0,False,False,False,False,101,0.0-173.0,0,1282,"[0, 2, 1]",stimuli/0111101.jpg,155109,prediction_trial,204,image-keyboard-response,
2,Pilot (test data collection),False,0,False,False,111,0,0,False,False,False,True,100,0.0-175.0,1,1295,"[2, 1, 0]",stimuli/0111100.jpg,156680,prediction_trial,206,image-keyboard-response,
2,Pilot (test data collection),False,0,True,True,110,2,2,True,True,True,True,100,0.0-177.0,1,194,[2],stimuli/2110100.jpg,157171,prediction_trial,208,image-keyboard-response,
2,Pilot (test data collection),True,1,True,True,000,0,0,False,False,False,False,110,0.0-179.0,0,582,[0],stimuli/0000110.jpg,157883,prediction_trial,210,image-keyboard-response,
2,Pilot (test data collection),True,1,False,False,111,2,2,False,False,True,True,110,0.0-181.0,2,160,"[0, 1, 2]",stimuli/2111110.jpg,158431,prediction_trial,212,image-keyboard-response,
2,Pilot (test data collection),True,1,False,False,011,2,2,False,False,True,True,000,0.0-183.0,2,126,"[2, 1]",stimuli/2011000.jpg,158745,prediction_trial,214,image-keyboard-response,
2,Pilot (test data collection),False,0,True,True,000,1,1,False,False,False,False,111,0.0-185.0,0,71,[1],stimuli/1000111.jpg,158981,prediction_trial,216,image-keyboard-response,
2,Pilot (test data collection),True,1,True,True,000,1,1,False,False,False,False,110,0.0-187.0,1,24,[1],stimuli/1000110.jpg,159203,prediction_trial,218,image-keyboard-response,
2,Pilot (test data collection),True,1,True,True,001,1,1,True,True,True,True,001,0.0-189.0,1,47,[1],stimuli/1001001.jpg,159425,prediction_trial,220,image-keyboard-response,
2,Pilot (test data collection),False,0,False,False,111,1,1,False,False,True,True,000,0.0-191.0,0,9,"[2, 0, 1]",stimuli/1111000.jpg,159586,prediction_trial,222,image-keyboard-response,
2,Pilot (test data collection),False,0,False,True,100,0,0,False,False,False,False,110,0.0-193.0,2,79,[0],stimuli/0100110.jpg,159840,prediction_trial,224,image-keyboard-response,
2,Pilot (test data collection),False,0,False,False,111,2,2,False,False,False,False,011,0.0-195.0,0,4,"[0, 1, 2]",stimuli/2111011.jpg,159962,prediction_trial,226,image-keyboard-response,
2,Pilot (test data collection),True,1,True,True,011,0,0,False,False,False,False,111,0.0-197.0,0,32,[0],stimuli/0011111.jpg,160174,prediction_trial,228,image-keyboard-response,
2,Pilot (test data collection),True,1,False,False,111,0,0,False,False,False,False,111,0.0-199.0,0,87,"[0, 1, 2]",stimuli/0111111.jpg,160417,prediction_trial,230,image-keyboard-response,
2,Pilot (test data collection),False,0,False,False,101,0,0,False,False,False,False,111,0.0-201.0,2,4,"[2, 0]",stimuli/0101111.jpg,160529,prediction_trial,232,image-keyboard-response,
2,Pilot (test data collection),True,1,False,False,011,1,2,False,False,True,True,001,0.0-203.0,2,47,"[1, 2]",stimuli/1011001.jpg,160753,prediction_trial,234,image-keyboard-response,
2,Pilot (test data collection),False,0,False,False,111,2,0,False,False,False,False,101,0.0-205.0,2,82,"[0, 1, 2]",stimuli/2111101.jpg,160984,prediction_trial,236,image-keyboard-response,
2,Pilot (test data collection),True,1,False,False,101,2,2,False,False,False,False,101,0.0-207.0,2,99,"[0, 2]",stimuli/2101101.jpg,161234,prediction_trial,238,image-keyboard-response,
2,Pilot (test data collection),True,1,True,True,001,0,0,True,True,True,True,011,0.0-209.0,0,60,[0],stimuli/0001011.jpg,161379,prediction_trial,240,image-keyboard-response,
2,Pilot (test data collection),True,1,False,False,111,1,0,False,False,False,False,111,0.0-211.0,0,91,"[1, 2, 0]",stimuli/1111111.jpg,161614,prediction_trial,242,image-keyboard-response,
2,Pilot (test data collection),True,1,True,True,000,0,0,True,True,True,True,001,0.0-213.0,0,120,[0],stimuli/0000001.jpg,161855,prediction_trial,244,image-keyboard-response,
2,Pilot (test data collection),False,0,False,False,111,1,1,False,False,False,False,011,0.0-215.0,2,63,"[1, 2, 0]",stimuli/1111011.jpg,162007,prediction_trial,246,image-keyboard-response,
2,Pilot (test data collection),False,0,False,False,111,1,1,False,False,True,True,101,0.0-217.0,2,74,"[0, 2, 1]",stimuli/1111101.jpg,162245,prediction_trial,248,image-keyboard-response,
2,Pilot (test data collection),True,1,False,False,111,0,2,False,False,True,True,000,0.0-219.0,2,111,"[0, 1, 2]",stimuli/0111000.jpg,162457,prediction_trial,250,image-keyboard-response,
2,Pilot (test data collection),False,0,False,False,110,1,1,False,False,True,True,100,0.0-221.0,0,34,"[0, 1]",stimuli/1110100.jpg,162571,prediction_trial,252,image-keyboard-response,
2,Pilot (test data collection),False,0,False,False,111,0,1,False,False,False,False,111,0.0-223.0,0,76,"[0, 1, 2]",stimuli/0111111.jpg,162817,prediction_trial,254,image-keyboard-response,
2,Pilot (test data collection),True,1,False,False,111,2,2,False,False,True,True,000,0.0-225.0,2,5,"[0, 2, 1]",stimuli/2111000.jpg,162956,prediction_trial,256,image-keyboard-response,
2,Pilot (test data collection),False,0,False,False,111,0,1,False,False,True,True,001,0.0-227.0,2,67,"[0, 1, 2]",stimuli/0111001.jpg,163187,prediction_trial,258,image-keyboard-response,
2,Pilot (test data collection),False,0,False,True,001,2,2,False,True,True,True,000,0.0-229.0,0,12,[2],stimuli/2001000.jpg,163296,prediction_trial,260,image-keyboard-response,
2,Pilot (test data collection),False,0,True,True,010,2,2,True,True,True,True,000,0.0-231.0,0,31,[2],stimuli/2010000.jpg,163511,prediction_trial,262,image-keyboard-response,
2,Pilot (test data collection),False,0,False,False,111,2,1,False,False,False,False,101,0.0-233.0,0,93,"[0, 1, 2]",stimuli/2111101.jpg,163761,prediction_trial,264,image-keyboard-response,
2,Pilot (test data collection),False,0,True,True,100,1,1,True,True,True,True,101,0.0-235.0,2,53,[1],stimuli/1100101.jpg,163897,prediction_trial,266,image-keyboard-response,
2,Pilot (test data collection),True,1,False,False,111,2,2,False,False,False,False,111,0.0-237.0,2,125,"[2, 0, 1]",stimuli/2111111.jpg,164135,prediction_trial,268,image-keyboard-response,
2,Pilot (test data collection),True,1,False,False,111,1,0,False,False,True,True,001,0.0-239.0,0,55,"[2, 1, 0]",stimuli/1111001.jpg,164245,prediction_trial,270,image-keyboard-response,
2,Pilot (test data collection),True,1,False,False,111,2,2,False,False,False,False,011,0.0-241.0,2,0,"[0, 1, 2]",stimuli/2111011.jpg,164384,prediction_trial,272,image-keyboard-response,
2,Pilot (test data collection),False,0,False,False,111,1,1,False,False,True,True,101,0.0-243.0,2,60,"[0, 2, 1]",stimuli/1111101.jpg,164616,prediction_trial,274,image-keyboard-response,
2,Pilot (test data collection),True,1,False,False,101,0,2,False,False,True,True,010,0.0-245.0,2,115,"[2, 0]",stimuli/0101010.jpg,164850,prediction_trial,276,image-keyboard-response,
2,Pilot (test data collection),False,0,True,True,000,2,2,True,True,True,True,100,0.0-247.0,0,42,[2],stimuli/2000100.jpg,164959,prediction_trial,278,image-keyboard-response,
2,Pilot (test data collection),True,1,False,False,111,1,0,False,False,True,True,101,0.0-249.0,0,100,"[0, 2, 1]",stimuli/1111101.jpg,165203,prediction_trial,280,image-keyboard-response,
2,Pilot (test data collection),False,0,False,False,011,1,1,False,False,False,False,110,0.0-251.0,2,67,"[2, 1]",stimuli/1011110.jpg,165338,prediction_trial,282,image-keyboard-response,
2,Pilot (test data collection),False,0,False,False,111,2,0,False,False,True,True,000,0.0-253.0,2,144,"[0, 2, 1]",stimuli/2111000.jpg,165606,prediction_trial,284,image-keyboard-response,
2,Pilot (test data collection),False,0,False,False,111,1,1,False,False,True,True,100,0.0-255.0,0,79,"[2, 1, 0]",stimuli/1111100.jpg,165718,prediction_trial,286,image-keyboard-response,
2,Pilot (test data collection),False,0,False,False,011,1,1,False,False,True,True,101,0.0-257.0,2,35,"[2, 1]",stimuli/1011101.jpg,165850,prediction_trial,288,image-keyboard-response,
2,Pilot (test data collection),True,1,True,True,110,2,2,True,True,True,True,110,0.0-259.0,2,113,[2],stimuli/2110110.jpg,166116,prediction_trial,290,image-keyboard-response,
2,Pilot (test data collection),True,1,False,False,111,1,0,False,False,True,True,100,0.0-261.0,0,51,"[2, 1, 0]",stimuli/1111100.jpg,166228,prediction_trial,292,image-keyboard-response,
2,Pilot (test data collection),False,0,True,True,000,2,2,False,True,False,True,001,0.0-263.0,0,111,[2],stimuli/2000001.jpg,166467,prediction_trial,294,image-keyboard-response,
2,Pilot (test data collection),False,0,False,False,111,2,1,False,False,False,False,111,0.0-265.0,2,62,"[2, 0, 1]",stimuli/2111111.jpg,166595,prediction_trial,296,image-keyboard-response,
2,Pilot (test data collection),True,1,False,False,111,2,0,False,False,True,True,110,0.0-267.0,0,9,"[0, 1, 2]",stimuli/2111110.jpg,166726,prediction_trial,298,image-keyboard-response,
2,Pilot (test data collection),True,1,False,False,111,2,0,False,False,False,False,101,0.0-269.0,0,81,"[0, 1, 2]",stimuli/2111101.jpg,166984,prediction_trial,300,image-keyboard-response,
2,Pilot (test data collection),True,1,True,True,100,2,2,True,True,True,True,100,0.0-271.0,2,33,[2],stimuli/2100100.jpg,167121,prediction_trial,302,image-keyboard-response,
2,Pilot (test data collection),False,0,False,False,111,1,0,False,False,False,False,011,0.0-273.0,2,75,"[1, 2, 0]",stimuli/1111011.jpg,167344,prediction_trial,304,image-keyboard-response,
2,Pilot (test data collection),False,0,False,False,111,1,1,False,False,False,False,110,0.0-275.0,0,2,"[0, 2, 1]",stimuli/1111110.jpg,167452,prediction_trial,306,image-keyboard-response,
2,Pilot (test data collection),True,1,False,False,111,0,0,False,False,True,True,011,0.0-277.0,0,62,"[2, 1, 0]",stimuli/0111011.jpg,167700,prediction_trial,308,image-keyboard-response,
2,Pilot (test data collection),False,0,True,True,010,2,2,True,True,True,True,110,0.0-279.0,0,114,[2],stimuli/2010110.jpg,167941,prediction_trial,310,image-keyboard-response,
2,Pilot (test data collection),True,1,True,True,000,0,0,True,True,True,True,011,0.0-281.0,0,198,[0],stimuli/0000011.jpg,168217,prediction_trial,312,image-keyboard-response,
2,Pilot (test data collection),True,1,True,True,011,0,0,True,True,True,True,001,0.0-283.0,0,188,[0],stimuli/0011001.jpg,168412,prediction_trial,314,image-keyboard-response,
2,Pilot (test data collection),False,0,False,False,101,2,2,False,False,False,True,001,0.0-285.0,0,204,"[2, 0]",stimuli/2101001.jpg,168623,prediction_trial,316,image-keyboard-response,
2,Pilot (test data collection),False,0,False,False,111,0,1,False,False,False,True,100,0.0-287.0,0,34,"[2, 1, 0]",stimuli/0111100.jpg,168858,prediction_trial,318,image-keyboard-response,
2,Pilot (test data collection),False,0,True,True,000,1,1,False,True,False,True,010,0.0-289.0,0,83,[1],stimuli/1000010.jpg,169110,prediction_trial,320,image-keyboard-response,
2,Pilot (test data collection),True,1,True,True,101,1,1,False,False,False,False,011,0.0-291.0,1,2,[1],stimuli/1101011.jpg,169245,prediction_trial,322,image-keyboard-response,
1,Pilot (test data collection),False,0,False,False,111,2,1,False,False,False,True,101,0.0-3.0,2,1362,"[0, 2, 1]",stimuli/2111101.jpg,17919,prediction_trial,28,image-keyboard-response,
1,Pilot (test data collection),True,1,False,False,011,2,2,False,False,False,True,101,0.0-5.0,2,141,"[2, 1]",stimuli/2011101.jpg,18365,prediction_trial,30,image-keyboard-response,
1,Pilot (test data collection),True,1,False,False,111,1,2,False,False,True,True,100,0.0-7.0,2,68,"[2, 1, 0]",stimuli/1111100.jpg,18571,prediction_trial,32,image-keyboard-response,
1,Pilot (test data collection),True,1,True,True,000,2,2,True,True,True,True,010,0.0-9.0,2,51,[2],stimuli/2000010.jpg,18762,prediction_trial,34,image-keyboard-response,
1,Pilot (test data collection),False,0,True,True,010,0,0,False,True,False,True,100,0.0-11.0,2,35,[0],stimuli/0010100.jpg,18936,prediction_trial,36,image-keyboard-response,
1,Pilot (test data collection),False,0,False,False,111,1,1,False,False,True,True,000,0.0-13.0,2,19,"[0, 2, 1]",stimuli/1111000.jpg,19100,prediction_trial,38,image-keyboard-response,
1,Pilot (test data collection),False,0,False,False,111,2,0,False,False,True,True,000,0.0-15.0,2,159,"[0, 2, 1]",stimuli/2111000.jpg,19435,prediction_trial,40,image-keyboard-response,
1,Pilot (test data collection),False,0,False,True,100,0,0,False,True,True,True,000,0.0-17.0,2,137,[0],stimuli/0100000.jpg,19594,prediction_trial,42,image-keyboard-response,
1,Pilot (test data collection),False,0,False,False,111,2,0,False,False,True,True,010,0.0-19.0,2,140,"[1, 0, 2]",stimuli/2111010.jpg,19778,prediction_trial,44,image-keyboard-response,
1,Pilot (test data collection),True,1,True,True,000,2,2,True,True,True,True,110,0.0-21.0,2,111,[2],stimuli/2000110.jpg,19947,prediction_trial,46,image-keyboard-response,
1,Pilot (test data collection),True,1,False,False,111,0,2,False,False,False,True,100,0.0-23.0,2,108,"[1, 2, 0]",stimuli/0111100.jpg,20133,prediction_trial,48,image-keyboard-response,
1,Pilot (test data collection),True,1,False,True,001,2,2,False,True,True,True,100,0.0-25.0,2,105,[2],stimuli/2001100.jpg,20316,prediction_trial,50,image-keyboard-response,
1,Pilot (test data collection),False,0,False,False,111,2,0,False,False,True,True,010,0.0-27.0,2,109,"[1, 0, 2]",stimuli/2111010.jpg,20518,prediction_trial,52,image-keyboard-response,
1,Pilot (test data collection),False,0,True,True,001,1,1,False,True,False,True,011,0.0-29.0,2,93,[1],stimuli/1001011.jpg,20684,prediction_trial,54,image-keyboard-response,
1,Pilot (test data collection),False,0,False,False,111,1,1,False,False,True,True,001,0.0-31.0,2,82,"[1, 0, 2]",stimuli/1111001.jpg,20867,prediction_trial,56,image-keyboard-response,
1,Pilot (test data collection),True,1,True,True,010,2,2,True,True,True,True,100,0.0-33.0,2,78,[2],stimuli/2010100.jpg,21048,prediction_trial,58,image-keyboard-response,
1,Pilot (test data collection),True,1,False,False,111,1,2,False,False,True,True,001,0.0-35.0,2,75,"[1, 0, 2]",stimuli/1111001.jpg,21236,prediction_trial,60,image-keyboard-response,
1,Pilot (test data collection),True,1,False,False,111,1,2,False,False,False,True,010,0.0-37.0,2,68,"[2, 0, 1]",stimuli/1111010.jpg,21413,prediction_trial,62,image-keyboard-response,
1,Pilot (test data collection),True,1,False,False,111,1,2,False,False,True,True,101,0.0-39.0,2,76,"[1, 0, 2]",stimuli/1111101.jpg,21598,prediction_trial,64,image-keyboard-response,
1,Pilot (test data collection),True,1,False,False,011,1,2,False,False,False,True,011,0.0-41.0,2,47,"[2, 1]",stimuli/1011011.jpg,21774,prediction_trial,66,image-keyboard-response,
1,Pilot (test data collection),False,0,False,True,100,0,0,False,True,False,True,101,0.0-43.0,2,64,[0],stimuli/0100101.jpg,21968,prediction_trial,68,image-keyboard-response,
1,Pilot (test data collection),False,0,False,False,111,0,1,False,False,False,True,101,0.0-45.0,2,44,"[0, 2, 1]",stimuli/0111101.jpg,22144,prediction_trial,70,image-keyboard-response,
1,Pilot (test data collection),True,1,False,False,111,1,2,False,False,True,True,101,0.0-47.0,2,64,"[1, 0, 2]",stimuli/1111101.jpg,22337,prediction_trial,72,image-keyboard-response,
1,Pilot (test data collection),False,0,False,False,011,1,1,False,False,True,True,100,0.0-49.0,2,74,"[2, 1]",stimuli/1011100.jpg,22537,prediction_trial,74,image-keyboard-response,
1,Pilot (test data collection),False,0,True,True,011,0,0,True,True,True,True,000,0.0-51.0,2,69,[0],stimuli/0011000.jpg,22720,prediction_trial,76,image-keyboard-response,
1,Pilot (test data collection),False,0,False,False,111,0,1,False,False,False,True,101,0.0-53.0,2,55,"[0, 2, 1]",stimuli/0111101.jpg,22895,prediction_trial,78,image-keyboard-response,
1,Pilot (test data collection),True,1,False,False,111,2,2,False,False,False,True,001,0.0-55.0,2,67,"[0, 1, 2]",stimuli/2111001.jpg,23089,prediction_trial,80,image-keyboard-response,
1,Pilot (test data collection),False,0,False,False,111,0,1,False,False,False,True,111,0.0-57.0,2,72,"[0, 2, 1]",stimuli/0111111.jpg,23276,prediction_trial,82,image-keyboard-response,
1,Pilot (test data collection),False,0,False,False,111,2,0,False,False,True,True,100,0.0-59.0,2,86,"[1, 2, 0]",stimuli/2111100.jpg,23479,prediction_trial,84,image-keyboard-response,
1,Pilot (test data collection),True,1,False,False,111,0,2,False,False,False,True,111,0.0-61.0,2,72,"[0, 2, 1]",stimuli/0111111.jpg,23666,prediction_trial,86,image-keyboard-response,
1,Pilot (test data collection),False,0,False,True,100,0,0,False,True,True,True,001,0.0-63.0,2,66,[0],stimuli/0100001.jpg,23847,prediction_trial,88,image-keyboard-response,
1,Pilot (test data collection),False,0,True,True,011,0,0,True,True,True,True,010,0.0-65.0,2,49,[0],stimuli/0011010.jpg,24035,prediction_trial,90,image-keyboard-response,
1,Pilot (test data collection),True,1,False,False,111,1,2,False,False,True,True,000,0.0-67.0,2,45,"[0, 2, 1]",stimuli/1111000.jpg,24233,prediction_trial,92,image-keyboard-response,
1,Pilot (test data collection),False,0,False,False,110,1,1,False,False,True,True,101,0.0-69.0,2,35,"[1, 0]",stimuli/1110101.jpg,24406,prediction_trial,94,image-keyboard-response,
1,Pilot (test data collection),True,1,False,False,111,2,2,False,False,False,True,011,0.0-71.0,2,26,"[2, 1, 0]",stimuli/2111011.jpg,24592,prediction_trial,96,image-keyboard-response,
1,Pilot (test data collection),False,0,False,False,111,0,1,False,False,True,True,000,0.0-73.0,2,6,"[0, 2, 1]",stimuli/0111000.jpg,24770,prediction_trial,98,image-keyboard-response,
1,Pilot (test data collection),False,0,True,True,000,1,1,True,True,True,True,100,0.0-75.0,2,178,[1],stimuli/1000100.jpg,25152,prediction_trial,100,image-keyboard-response,
1,Pilot (test data collection),True,1,False,False,111,0,2,False,False,True,True,010,0.0-77.0,2,164,"[0, 1, 2]",stimuli/0111010.jpg,25353,prediction_trial,102,image-keyboard-response,
1,Pilot (test data collection),True,1,False,False,111,0,2,False,False,True,True,001,0.0-79.0,2,144,"[0, 2, 1]",stimuli/0111001.jpg,25544,prediction_trial,104,image-keyboard-response,
1,Pilot (test data collection),True,1,True,True,000,2,2,False,True,False,True,111,0.0-81.0,2,154,[2],stimuli/2000111.jpg,25734,prediction_trial,106,image-keyboard-response,
1,Pilot (test data collection),True,1,False,False,111,0,2,False,False,False,True,100,0.0-83.0,2,131,"[1, 2, 0]",stimuli/0111100.jpg,25926,prediction_trial,108,image-keyboard-response,
1,Pilot (test data collection),False,0,False,False,110,1,1,False,False,True,True,100,0.0-85.0,2,110,"[0, 1]",stimuli/1110100.jpg,26129,prediction_trial,110,image-keyboard-response,
1,Pilot (test data collection),True,1,True,True,100,2,2,False,True,False,True,001,0.0-87.0,2,113,[2],stimuli/2100001.jpg,26321,prediction_trial,112,image-keyboard-response,
1,Pilot (test data collection),False,0,False,False,011,1,1,False,False,True,True,001,0.0-89.0,2,94,"[1, 2]",stimuli/1011001.jpg,26509,prediction_trial,114,image-keyboard-response,
1,Pilot (test data collection),False,0,False,False,101,0,0,False,False,False,True,100,0.0-91.0,2,76,"[0, 2]",stimuli/0101100.jpg,26690,prediction_trial,116,image-keyboard-response,
1,Pilot (test data collection),False,0,True,True,010,0,0,False,True,False,True,111,0.0-93.0,2,75,[0],stimuli/0010111.jpg,26888,prediction_trial,118,image-keyboard-response,
1,Pilot (test data collection),False,0,False,False,110,0,0,False,False,True,True,001,0.0-95.0,2,68,"[1, 0]",stimuli/0110001.jpg,27082,prediction_trial,120,image-keyboard-response,
1,Pilot (test data collection),False,0,False,False,111,0,1,False,False,True,True,011,0.0-97.0,2,89,"[2, 1, 0]",stimuli/0111011.jpg,27277,prediction_trial,122,image-keyboard-response,
1,Pilot (test data collection),False,0,True,True,011,0,0,True,True,True,True,011,0.0-99.0,2,79,[0],stimuli/0011011.jpg,27470,prediction_trial,124,image-keyboard-response,
1,Pilot (test data collection),False,0,False,False,111,2,0,False,False,True,True,100,0.0-101.0,2,60,"[1, 2, 0]",stimuli/2111100.jpg,27651,prediction_trial,126,image-keyboard-response,
1,Pilot (test data collection),True,1,False,False,111,1,2,False,False,False,True,110,0.0-103.0,2,69,"[2, 0, 1]",stimuli/1111110.jpg,27850,prediction_trial,128,image-keyboard-response,
1,Pilot (test data collection),False,0,False,False,111,2,0,False,False,False,True,101,0.0-105.0,2,63,"[0, 2, 1]",stimuli/2111101.jpg,28049,prediction_trial,130,image-keyboard-response,
1,Pilot (test data collection),False,0,False,False,111,1,0,False,False,False,True,010,0.0-107.0,2,46,"[2, 0, 1]",stimuli/1111010.jpg,28234,prediction_trial,132,image-keyboard-response,
1,Pilot (test data collection),False,0,False,True,100,0,0,False,True,False,True,110,0.0-109.0,2,32,[0],stimuli/0100110.jpg,28421,prediction_trial,134,image-keyboard-response,
1,Pilot (test data collection),False,0,True,True,011,0,0,True,True,True,True,001,0.0-111.0,2,7,[0],stimuli/0011001.jpg,28599,prediction_trial,136,image-keyboard-response,
1,Pilot (test data collection),True,1,False,False,111,2,2,False,False,False,True,001,0.0-113.0,2,154,"[0, 1, 2]",stimuli/2111001.jpg,28975,prediction_trial,138,image-keyboard-response,
1,Pilot (test data collection),False,0,False,False,111,0,1,False,False,False,True,110,0.0-115.0,2,124,"[0, 2, 1]",stimuli/0111110.jpg,29172,prediction_trial,140,image-keyboard-response,
1,Pilot (test data collection),False,0,True,True,001,1,1,False,True,False,True,110,0.0-117.0,2,504,[1],stimuli/1001110.jpg,29741,prediction_trial,142,image-keyboard-response,
1,Pilot (test data collection),True,1,False,False,011,1,2,False,False,False,True,111,0.0-119.0,2,31,"[2, 1]",stimuli/1011111.jpg,29910,prediction_trial,144,image-keyboard-response,
1,Pilot (test data collection),False,0,False,False,111,1,0,False,False,True,True,100,0.0-121.0,2,50,"[2, 1, 0]",stimuli/1111100.jpg,30115,prediction_trial,146,image-keyboard-response,
1,Pilot (test data collection),False,0,False,True,010,1,1,False,True,True,True,101,0.0-123.0,2,936,[1],stimuli/1010101.jpg,31221,prediction_trial,148,image-keyboard-response,
1,Pilot (test data collection),False,0,True,True,101,1,1,False,True,False,True,111,0.0-125.0,2,35,[1],stimuli/1101111.jpg,31413,prediction_trial,150,image-keyboard-response,
1,Pilot (test data collection),False,0,True,True,101,1,1,True,True,True,True,000,0.0-127.0,2,165,[1],stimuli/1101000.jpg,31768,prediction_trial,152,image-keyboard-response,
1,Pilot (test data collection),True,1,False,False,101,2,2,False,False,True,True,010,0.0-129.0,2,138,"[2, 0]",stimuli/2101010.jpg,31941,prediction_trial,154,image-keyboard-response,
1,Pilot (test data collection),False,0,False,False,111,1,0,False,False,True,True,000,0.0-131.0,2,115,"[0, 2, 1]",stimuli/1111000.jpg,32128,prediction_trial,156,image-keyboard-response,
1,Pilot (test data collection),True,1,False,False,111,1,2,False,False,False,True,010,0.0-133.0,2,114,"[2, 0, 1]",stimuli/1111010.jpg,32320,prediction_trial,158,image-keyboard-response,
1,Pilot (test data collection),False,0,False,False,101,2,0,False,False,False,True,011,0.0-135.0,2,103,"[0, 2]",stimuli/2101011.jpg,32504,prediction_trial,160,image-keyboard-response,
1,Pilot (test data collection),False,0,True,True,000,1,1,True,True,True,True,101,0.0-137.0,2,99,[1],stimuli/1000101.jpg,32688,prediction_trial,162,image-keyboard-response,
1,Pilot (test data collection),False,0,True,True,001,0,0,False,True,False,True,110,0.0-139.0,2,90,[0],stimuli/0001110.jpg,32873,prediction_trial,164,image-keyboard-response,
1,Pilot (test data collection),False,0,False,False,111,2,1,False,False,True,True,100,0.0-141.0,2,78,"[1, 2, 0]",stimuli/2111100.jpg,33066,prediction_trial,166,image-keyboard-response,
1,Pilot (test data collection),False,0,False,False,110,1,1,False,False,False,True,110,0.0-143.0,2,68,"[0, 1]",stimuli/1110110.jpg,33270,prediction_trial,168,image-keyboard-response,
1,Pilot (test data collection),False,0,False,False,111,1,0,False,False,False,True,111,0.0-145.0,2,37,"[2, 1, 0]",stimuli/1111111.jpg,33441,prediction_trial,170,image-keyboard-response,
1,Pilot (test data collection),True,1,False,False,111,1,2,False,False,False,True,011,0.0-147.0,2,10,"[0, 1, 2]",stimuli/1111011.jpg,33616,prediction_trial,172,image-keyboard-response,
1,Pilot (test data collection),True,1,True,True,100,2,2,False,True,False,True,011,0.0-149.0,2,160,[2],stimuli/2100011.jpg,33980,prediction_trial,174,image-keyboard-response,
1,Pilot (test data collection),False,0,False,False,111,2,0,False,False,True,True,000,0.0-151.0,2,123,"[0, 2, 1]",stimuli/2111000.jpg,34174,prediction_trial,176,image-keyboard-response,
1,Pilot (test data collection),False,0,False,False,111,0,1,False,False,False,True,110,0.0-153.0,2,105,"[0, 2, 1]",stimuli/0111110.jpg,34354,prediction_trial,178,image-keyboard-response,
1,Pilot (test data collection),False,0,True,True,101,1,1,False,True,False,True,010,0.0-155.0,2,88,[1],stimuli/1101010.jpg,34544,prediction_trial,180,image-keyboard-response,
1,Pilot (test data collection),False,0,False,False,110,0,1,False,False,False,True,100,0.0-157.0,2,35,"[1, 0]",stimuli/0110100.jpg,34704,prediction_trial,182,image-keyboard-response,
1,Pilot (test data collection),False,0,False,False,111,0,2,False,False,True,True,010,0.0-159.0,0,150,"[0, 1, 2]",stimuli/0111010.jpg,35166,prediction_trial,184,image-keyboard-response,
1,Pilot (test data collection),False,0,False,False,111,2,1,False,False,False,True,001,0.0-161.0,0,127,"[0, 1, 2]",stimuli/2111001.jpg,35350,prediction_trial,186,image-keyboard-response,
1,Pilot (test data collection),True,1,False,False,111,0,0,False,False,False,True,100,0.0-163.0,0,78,"[1, 2, 0]",stimuli/0111100.jpg,35534,prediction_trial,188,image-keyboard-response,
1,Pilot (test data collection),False,0,False,False,111,0,2,False,False,True,True,011,0.0-165.0,0,55,"[2, 1, 0]",stimuli/0111011.jpg,35706,prediction_trial,190,image-keyboard-response,
1,Pilot (test data collection),True,1,False,False,110,1,0,False,False,True,True,001,0.0-167.0,0,23,"[0, 1]",stimuli/1110001.jpg,35866,prediction_trial,192,image-keyboard-response,
1,Pilot (test data collection),False,0,True,True,000,2,2,False,True,False,True,011,0.0-169.0,0,149,[2],stimuli/2000011.jpg,36195,prediction_trial,194,image-keyboard-response,
1,Pilot (test data collection),False,0,False,False,101,0,2,False,False,True,True,001,0.0-171.0,0,138,"[2, 0]",stimuli/0101001.jpg,36360,prediction_trial,196,image-keyboard-response,
1,Pilot (test data collection),True,1,False,False,111,2,0,False,False,False,True,011,0.0-173.0,0,101,"[2, 1, 0]",stimuli/2111011.jpg,36511,prediction_trial,198,image-keyboard-response,
1,Pilot (test data collection),True,1,True,True,011,0,0,False,True,False,True,100,0.0-175.0,0,117,[0],stimuli/0011100.jpg,36691,prediction_trial,200,image-keyboard-response,
1,Pilot (test data collection),False,0,False,False,111,1,1,False,False,False,True,011,0.0-177.0,0,117,"[0, 1, 2]",stimuli/1111011.jpg,36874,prediction_trial,202,image-keyboard-response,
1,Pilot (test data collection),False,0,True,True,000,1,1,False,True,False,True,011,0.0-179.0,0,110,[1],stimuli/1000011.jpg,37050,prediction_trial,204,image-keyboard-response,
1,Pilot (test data collection),False,0,False,True,001,2,2,False,True,True,True,110,0.0-181.0,0,78,[2],stimuli/2001110.jpg,37227,prediction_trial,206,image-keyboard-response,
1,Pilot (test data collection),False,0,False,False,111,1,1,False,False,True,True,001,0.0-183.0,0,59,"[1, 0, 2]",stimuli/1111001.jpg,37400,prediction_trial,208,image-keyboard-response,
1,Pilot (test data collection),True,1,False,False,111,2,0,False,False,False,True,011,0.0-185.0,0,22,"[2, 1, 0]",stimuli/2111011.jpg,37575,prediction_trial,210,image-keyboard-response,
1,Pilot (test data collection),False,0,False,False,111,2,1,False,False,True,True,010,0.0-187.0,0,138,"[1, 0, 2]",stimuli/2111010.jpg,37915,prediction_trial,212,image-keyboard-response,
1,Pilot (test data collection),False,0,False,False,011,1,2,False,False,True,True,101,0.0-189.0,0,117,"[2, 1]",stimuli/1011101.jpg,38101,prediction_trial,214,image-keyboard-response,
1,Pilot (test data collection),False,0,False,False,111,2,1,False,False,True,True,110,0.0-191.0,0,109,"[0, 2, 1]",stimuli/2111110.jpg,38281,prediction_trial,216,image-keyboard-response,
1,Pilot (test data collection),True,1,True,True,001,0,0,True,True,True,True,011,0.0-193.0,0,102,[0],stimuli/0001011.jpg,38461,prediction_trial,218,image-keyboard-response,
1,Pilot (test data collection),False,0,False,False,111,1,2,False,False,False,True,110,0.0-195.0,0,87,"[2, 0, 1]",stimuli/1111110.jpg,38654,prediction_trial,220,image-keyboard-response,
1,Pilot (test data collection),True,1,True,True,000,0,0,False,True,False,True,101,0.0-197.0,0,39,[0],stimuli/0000101.jpg,39012,prediction_trial,222,image-keyboard-response,
1,Pilot (test data collection),False,0,False,False,111,2,1,False,False,True,True,110,0.0-199.0,0,12,"[0, 2, 1]",stimuli/2111110.jpg,39185,prediction_trial,224,image-keyboard-response,
1,Pilot (test data collection),False,0,False,False,111,1,1,False,False,False,True,011,0.0-201.0,0,1,"[0, 1, 2]",stimuli/1111011.jpg,39372,prediction_trial,226,image-keyboard-response,
1,Pilot (test data collection),False,0,True,True,000,2,2,False,True,False,True,001,0.0-203.0,0,187,[2],stimuli/2000001.jpg,39760,prediction_trial,228,image-keyboard-response,
1,Pilot (test data collection),False,0,False,False,111,2,2,False,False,False,True,111,0.0-205.0,0,170,"[2, 0, 1]",stimuli/2111111.jpg,39971,prediction_trial,230,image-keyboard-response,
1,Pilot (test data collection),True,1,True,True,010,0,0,False,True,False,True,101,0.0-207.0,0,153,[0],stimuli/0010101.jpg,40157,prediction_trial,232,image-keyboard-response,
1,Pilot (test data collection),True,1,False,False,110,0,0,False,False,False,True,111,0.0-209.0,0,142,"[1, 0]",stimuli/0110111.jpg,40354,prediction_trial,234,image-keyboard-response,
1,Pilot (test data collection),True,1,False,False,111,2,0,False,False,True,True,110,0.0-211.0,0,153,"[0, 2, 1]",stimuli/2111110.jpg,40554,prediction_trial,236,image-keyboard-response,
1,Pilot (test data collection),False,0,False,False,111,0,2,False,False,True,True,000,0.0-213.0,0,122,"[0, 2, 1]",stimuli/0111000.jpg,40736,prediction_trial,238,image-keyboard-response,
1,Pilot (test data collection),False,0,False,False,111,1,1,False,False,False,True,111,0.0-215.0,0,129,"[2, 1, 0]",stimuli/1111111.jpg,40949,prediction_trial,240,image-keyboard-response,
1,Pilot (test data collection),False,0,False,False,111,0,2,False,False,False,True,101,0.0-217.0,0,87,"[0, 2, 1]",stimuli/0111101.jpg,41120,prediction_trial,242,image-keyboard-response,
1,Pilot (test data collection),False,0,True,True,100,1,1,False,True,False,True,111,0.0-219.0,0,56,[1],stimuli/1100111.jpg,41309,prediction_trial,244,image-keyboard-response,
1,Pilot (test data collection),True,1,True,True,011,0,0,False,True,False,True,101,0.0-221.0,0,12,[0],stimuli/0011101.jpg,41500,prediction_trial,246,image-keyboard-response,
1,Pilot (test data collection),False,0,False,False,011,2,1,False,False,True,True,010,0.0-223.0,0,156,"[1, 2]",stimuli/2011010.jpg,41871,prediction_trial,248,image-keyboard-response,
1,Pilot (test data collection),True,1,True,True,010,0,0,True,True,True,True,011,0.0-225.0,0,129,[0],stimuli/0010011.jpg,42056,prediction_trial,250,image-keyboard-response,
1,Pilot (test data collection),True,1,True,True,001,0,0,False,True,False,True,111,0.0-227.0,0,123,[0],stimuli/0001111.jpg,42263,prediction_trial,252,image-keyboard-response,
1,Pilot (test data collection),False,0,True,True,100,1,1,True,True,True,True,000,0.0-229.0,0,37,[1],stimuli/1100000.jpg,42452,prediction_trial,254,image-keyboard-response,
1,Pilot (test data collection),True,1,False,True,100,0,0,False,True,True,True,011,0.0-231.0,0,40,[0],stimuli/0100011.jpg,42656,prediction_trial,256,image-keyboard-response,
1,Pilot (test data collection),False,0,False,False,111,1,1,False,False,True,True,101,0.0-233.0,0,18,"[1, 0, 2]",stimuli/1111101.jpg,42826,prediction_trial,258,image-keyboard-response,
1,Pilot (test data collection),True,1,True,True,001,0,0,False,True,False,True,101,0.0-235.0,0,147,[0],stimuli/0001101.jpg,43406,prediction_trial,260,image-keyboard-response,
1,Pilot (test data collection),True,1,False,False,101,0,0,False,False,False,True,111,0.0-237.0,0,129,"[0, 2]",stimuli/0101111.jpg,43593,prediction_trial,262,image-keyboard-response,
1,Pilot (test data collection),False,0,False,False,110,1,1,False,False,False,True,111,0.0-239.0,0,95,"[0, 1]",stimuli/1110111.jpg,43774,prediction_trial,264,image-keyboard-response,
1,Pilot (test data collection),False,0,False,False,111,1,1,False,False,True,True,100,0.0-241.0,0,100,"[2, 1, 0]",stimuli/1111100.jpg,43977,prediction_trial,266,image-keyboard-response,
1,Pilot (test data collection),False,0,False,False,111,0,2,False,False,False,True,110,0.0-243.0,0,43,"[0, 2, 1]",stimuli/0111110.jpg,44160,prediction_trial,268,image-keyboard-response,
1,Pilot (test data collection),True,1,True,True,000,0,0,True,True,True,True,000,0.0-245.0,0,22,[0],stimuli/0000000.jpg,44360,prediction_trial,270,image-keyboard-response,
1,Pilot (test data collection),True,1,False,True,100,0,0,False,True,False,True,100,0.0-247.0,0,139,[0],stimuli/0100100.jpg,44719,prediction_trial,272,image-keyboard-response,
1,Pilot (test data collection),False,0,True,True,101,1,1,True,True,True,True,101,0.0-249.0,0,121,[1],stimuli/1101101.jpg,44904,prediction_trial,274,image-keyboard-response,
1,Pilot (test data collection),False,0,True,True,000,2,2,False,True,False,True,101,0.0-251.0,0,53,[2],stimuli/2000101.jpg,45079,prediction_trial,276,image-keyboard-response,
1,Pilot (test data collection),False,0,False,False,111,2,2,False,False,False,True,111,0.0-253.0,0,41,"[2, 0, 1]",stimuli/2111111.jpg,45264,prediction_trial,278,image-keyboard-response,
1,Pilot (test data collection),False,0,False,False,111,0,2,False,False,True,True,011,0.0-255.0,0,163,"[2, 1, 0]",stimuli/0111011.jpg,45614,prediction_trial,280,image-keyboard-response,
1,Pilot (test data collection),False,0,False,False,011,1,2,False,False,True,True,000,0.0-257.0,0,127,"[1, 2]",stimuli/1011000.jpg,45806,prediction_trial,282,image-keyboard-response,
1,Pilot (test data collection),True,1,False,False,111,0,0,False,False,True,True,000,0.0-259.0,0,55,"[0, 2, 1]",stimuli/0111000.jpg,45995,prediction_trial,284,image-keyboard-response,
1,Pilot (test data collection),True,1,False,False,111,2,0,False,False,False,True,111,0.0-261.0,0,63,"[2, 0, 1]",stimuli/2111111.jpg,46201,prediction_trial,286,image-keyboard-response,
1,Pilot (test data collection),False,0,False,False,110,0,1,False,False,True,True,000,0.0-263.0,0,60,"[0, 1]",stimuli/0110000.jpg,46401,prediction_trial,288,image-keyboard-response,
1,Pilot (test data collection),False,0,True,True,010,2,2,False,True,False,True,101,0.0-265.0,0,55,[2],stimuli/2010101.jpg,46598,prediction_trial,290,image-keyboard-response,
1,Pilot (test data collection),False,0,False,False,111,0,1,False,False,True,True,001,0.0-267.0,0,43,"[0, 2, 1]",stimuli/0111001.jpg,46794,prediction_trial,292,image-keyboard-response,
1,Pilot (test data collection),True,1,True,True,010,0,0,True,True,True,True,010,0.0-269.0,0,7,[0],stimuli/0010010.jpg,46998,prediction_trial,294,image-keyboard-response,
1,Pilot (test data collection),True,1,False,False,110,1,0,False,False,False,True,010,0.0-271.0,0,10,"[1, 0]",stimuli/1110010.jpg,47194,prediction_trial,296,image-keyboard-response,
1,Pilot (test data collection),True,1,False,False,111,0,0,False,False,True,True,001,0.0-273.0,0,1,"[0, 2, 1]",stimuli/0111001.jpg,47397,prediction_trial,298,image-keyboard-response,
1,Pilot (test data collection),True,1,False,False,111,2,0,False,False,True,True,000,0.0-275.0,0,3,"[0, 2, 1]",stimuli/2111000.jpg,47614,prediction_trial,300,image-keyboard-response,
1,Pilot (test data collection),False,0,False,False,011,2,2,False,False,True,True,110,0.0-277.0,0,156,"[1, 2]",stimuli/2011110.jpg,48022,prediction_trial,302,image-keyboard-response,
1,Pilot (test data collection),True,1,False,False,111,2,0,False,False,False,True,101,0.0-279.0,0,137,"[0, 2, 1]",stimuli/2111101.jpg,48228,prediction_trial,304,image-keyboard-response,
1,Pilot (test data collection),False,0,False,False,111,0,2,False,False,True,True,010,0.0-281.0,0,116,"[0, 1, 2]",stimuli/0111010.jpg,48433,prediction_trial,306,image-keyboard-response,
1,Pilot (test data collection),True,1,False,False,111,1,0,False,False,False,True,110,0.0-283.0,0,99,"[2, 0, 1]",stimuli/1111110.jpg,48629,prediction_trial,308,image-keyboard-response,
1,Pilot (test data collection),False,0,False,False,111,0,2,False,False,False,True,111,0.0-285.0,0,91,"[0, 2, 1]",stimuli/0111111.jpg,48837,prediction_trial,310,image-keyboard-response,
1,Pilot (test data collection),True,1,False,False,111,1,0,False,False,False,True,111,0.0-287.0,0,79,"[2, 1, 0]",stimuli/1111111.jpg,49037,prediction_trial,312,image-keyboard-response,
1,Pilot (test data collection),False,0,False,True,010,1,1,False,True,True,True,000,0.0-289.0,0,53,[1],stimuli/1010000.jpg,49234,prediction_trial,314,image-keyboard-response,
9,Pilot (test data collection),True,1,False,False,111,1,0,False,False,True,True,001,0.0-5.0,0,1440,"[1, 2, 0]",stimuli/1111001.jpg,117175,prediction_trial,36,image-keyboard-response,
9,Pilot (test data collection),False,0,False,False,111,1,1,False,False,True,True,000,0.0-7.0,2,1482,"[1, 2, 0]",stimuli/1111000.jpg,119330,prediction_trial,38,image-keyboard-response,
9,Pilot (test data collection),True,1,True,True,011,0,0,True,True,True,True,000,0.0-9.0,0,746,[0],stimuli/0011000.jpg,121241,prediction_trial,40,image-keyboard-response,
9,Pilot (test data collection),True,1,False,True,001,2,2,False,True,True,True,100,0.0-11.0,2,1893,[2],stimuli/2001100.jpg,123769,prediction_trial,42,image-keyboard-response,
9,Pilot (test data collection),True,1,True,True,010,0,0,True,True,True,True,000,0.0-13.0,0,728,[0],stimuli/0010000.jpg,124998,prediction_trial,44,image-keyboard-response,
9,Pilot (test data collection),True,1,True,True,010,2,2,True,True,True,True,110,0.0-15.0,2,676,[2],stimuli/2010110.jpg,126233,prediction_trial,46,image-keyboard-response,
9,Pilot (test data collection),False,0,False,False,111,2,0,False,False,True,True,100,0.0-17.0,2,1781,"[1, 0, 2]",stimuli/2111100.jpg,128603,prediction_trial,48,image-keyboard-response,
9,Pilot (test data collection),True,1,True,True,000,2,2,True,True,True,True,110,0.0-19.0,2,1314,[2],stimuli/2000110.jpg,130723,prediction_trial,50,image-keyboard-response,
9,Pilot (test data collection),False,0,True,True,010,2,2,False,False,False,False,101,0.0-21.0,0,1068,[2],stimuli/2010101.jpg,132457,prediction_trial,52,image-keyboard-response,
9,Pilot (test data collection),False,0,False,False,111,1,2,False,False,False,False,110,0.0-23.0,1,1495,"[1, 2, 0]",stimuli/1111110.jpg,134768,prediction_trial,54,image-keyboard-response,
9,Pilot (test data collection),True,1,False,False,101,0,0,False,False,True,True,011,0.0-25.0,0,1560,"[2, 0]",stimuli/0101011.jpg,136965,prediction_trial,56,image-keyboard-response,
9,Pilot (test data collection),False,0,False,False,111,1,0,False,False,True,True,101,0.0-27.0,1,2077,"[1, 0, 2]",stimuli/1111101.jpg,139951,prediction_trial,58,image-keyboard-response,
9,Pilot (test data collection),False,0,True,True,100,1,1,False,False,False,False,011,0.0-29.0,2,1111,[1],stimuli/1100011.jpg,141675,prediction_trial,60,image-keyboard-response,
9,Pilot (test data collection),True,1,True,True,010,0,0,False,True,False,True,100,0.0-31.0,0,1107,[0],stimuli/0010100.jpg,143572,prediction_trial,62,image-keyboard-response,
9,Pilot (test data collection),True,1,True,True,001,0,0,True,True,True,True,010,0.0-33.0,0,774,[0],stimuli/0001010.jpg,144888,prediction_trial,64,image-keyboard-response,
9,Pilot (test data collection),False,0,False,False,111,2,2,False,False,True,True,010,0.0-35.0,1,1369,"[1, 0, 2]",stimuli/2111010.jpg,146657,prediction_trial,66,image-keyboard-response,
9,Pilot (test data collection),True,1,False,False,111,0,0,False,False,True,True,001,0.0-37.0,0,1292,"[2, 1, 0]",stimuli/0111001.jpg,148690,prediction_trial,68,image-keyboard-response,
9,Pilot (test data collection),False,0,False,False,111,1,0,False,False,False,True,010,0.0-39.0,1,1279,"[1, 2, 0]",stimuli/1111010.jpg,150576,prediction_trial,70,image-keyboard-response,
9,Pilot (test data collection),True,1,False,True,001,2,2,False,True,True,True,010,0.0-41.0,2,1005,[2],stimuli/2001010.jpg,152340,prediction_trial,72,image-keyboard-response,
9,Pilot (test data collection),False,0,False,False,111,0,2,False,False,False,False,101,0.0-43.0,0,1297,"[2, 1, 0]",stimuli/0111101.jpg,155018,prediction_trial,74,image-keyboard-response,
9,Pilot (test data collection),False,0,False,False,111,2,2,False,False,True,True,010,0.0-45.0,0,1212,"[1, 0, 2]",stimuli/2111010.jpg,156638,prediction_trial,76,image-keyboard-response,
9,Pilot (test data collection),False,0,False,False,111,2,2,False,False,False,False,011,0.0-47.0,1,1143,"[1, 0, 2]",stimuli/2111011.jpg,158307,prediction_trial,78,image-keyboard-response,
9,Pilot (test data collection),True,1,False,False,111,2,2,False,False,True,True,000,0.0-49.0,2,1733,"[0, 2, 1]",stimuli/2111000.jpg,160643,prediction_trial,80,image-keyboard-response,
9,Pilot (test data collection),True,1,False,False,111,2,1,False,False,False,False,111,0.0-51.0,1,753,"[1, 2, 0]",stimuli/2111111.jpg,161973,prediction_trial,82,image-keyboard-response,
9,Pilot (test data collection),False,0,False,False,111,1,0,False,False,True,True,100,0.0-53.0,1,911,"[2, 0, 1]",stimuli/1111100.jpg,163541,prediction_trial,84,image-keyboard-response,
9,Pilot (test data collection),True,1,True,True,001,1,1,False,False,False,False,110,0.0-55.0,1,1590,[1],stimuli/1001110.jpg,165681,prediction_trial,86,image-keyboard-response,
9,Pilot (test data collection),False,0,True,True,100,2,2,False,False,False,False,111,0.0-57.0,1,979,[2],stimuli/2100111.jpg,167123,prediction_trial,88,image-keyboard-response,
9,Pilot (test data collection),False,0,False,False,111,1,0,False,False,False,False,011,0.0-59.0,1,1053,"[0, 2, 1]",stimuli/1111011.jpg,168702,prediction_trial,90,image-keyboard-response,
9,Pilot (test data collection),False,0,False,False,111,2,2,False,False,False,False,101,0.0-61.0,1,828,"[0, 1, 2]",stimuli/2111101.jpg,170026,prediction_trial,92,image-keyboard-response,
9,Pilot (test data collection),True,1,True,True,010,2,2,False,False,False,False,011,0.0-63.0,2,1845,[2],stimuli/2010011.jpg,172765,prediction_trial,94,image-keyboard-response,
9,Pilot (test data collection),False,0,False,False,110,1,1,False,False,False,False,111,0.0-65.0,2,1315,"[0, 1]",stimuli/1110111.jpg,175051,prediction_trial,96,image-keyboard-response,
9,Pilot (test data collection),True,1,True,True,100,1,1,True,True,True,True,100,0.0-67.0,1,858,[1],stimuli/1100100.jpg,176320,prediction_trial,98,image-keyboard-response,
9,Pilot (test data collection),False,0,False,True,001,2,2,False,False,False,False,111,0.0-69.0,1,1108,[2],stimuli/2001111.jpg,177731,prediction_trial,100,image-keyboard-response,
9,Pilot (test data collection),False,0,False,False,111,0,0,False,False,True,True,000,0.0-71.0,1,1360,"[0, 1, 2]",stimuli/0111000.jpg,179551,prediction_trial,102,image-keyboard-response,
9,Pilot (test data collection),False,0,False,False,111,0,2,False,False,False,False,111,0.0-73.0,1,608,"[1, 2, 0]",stimuli/0111111.jpg,180557,prediction_trial,104,image-keyboard-response,
9,Pilot (test data collection),False,0,False,False,111,0,2,False,False,True,True,010,0.0-75.0,1,742,"[0, 2, 1]",stimuli/0111010.jpg,181761,prediction_trial,106,image-keyboard-response,
9,Pilot (test data collection),True,1,False,False,111,2,2,False,False,True,True,000,0.0-77.0,2,1623,"[0, 2, 1]",stimuli/2111000.jpg,184240,prediction_trial,108,image-keyboard-response,
9,Pilot (test data collection),False,0,False,True,100,0,0,False,False,False,False,111,0.0-79.0,1,1027,[0],stimuli/0100111.jpg,185825,prediction_trial,110,image-keyboard-response,
9,Pilot (test data collection),False,0,False,False,111,1,0,False,False,True,True,101,0.0-81.0,1,995,"[1, 0, 2]",stimuli/1111101.jpg,187312,prediction_trial,112,image-keyboard-response,
9,Pilot (test data collection),False,0,False,False,111,0,1,False,False,True,True,001,0.0-83.0,0,1012,"[2, 1, 0]",stimuli/0111001.jpg,188780,prediction_trial,114,image-keyboard-response,
9,Pilot (test data collection),True,1,True,True,100,2,2,False,True,False,True,001,0.0-85.0,2,2002,[2],stimuli/2100001.jpg,191342,prediction_trial,116,image-keyboard-response,
9,Pilot (test data collection),True,1,True,True,000,0,0,True,True,True,True,001,0.0-87.0,0,777,[0],stimuli/0000001.jpg,192721,prediction_trial,118,image-keyboard-response,
9,Pilot (test data collection),True,1,True,True,100,1,1,True,True,True,True,000,0.0-89.0,1,673,[1],stimuli/1100000.jpg,194000,prediction_trial,120,image-keyboard-response,
9,Pilot (test data collection),True,1,False,False,111,1,1,False,False,False,False,011,0.0-91.0,1,877,"[0, 2, 1]",stimuli/1111011.jpg,195359,prediction_trial,122,image-keyboard-response,
9,Pilot (test data collection),False,0,False,False,101,2,2,False,False,False,False,011,0.0-93.0,1,1047,"[2, 0]",stimuli/2101011.jpg,196865,prediction_trial,124,image-keyboard-response,
9,Pilot (test data collection),False,0,False,False,110,0,1,False,False,False,True,100,0.0-95.0,0,1349,"[1, 0]",stimuli/0110100.jpg,198815,prediction_trial,126,image-keyboard-response,
9,Pilot (test data collection),False,0,False,False,111,2,0,False,False,False,False,111,0.0-97.0,1,608,"[1, 2, 0]",stimuli/2111111.jpg,199851,prediction_trial,128,image-keyboard-response,
9,Pilot (test data collection),True,1,True,True,110,2,2,False,False,False,False,011,0.0-99.0,2,1008,[2],stimuli/2110011.jpg,201396,prediction_trial,130,image-keyboard-response,
9,Pilot (test data collection),False,0,False,False,111,0,2,False,False,False,False,110,0.0-101.0,1,787,"[0, 1, 2]",stimuli/0111110.jpg,202609,prediction_trial,132,image-keyboard-response,
9,Pilot (test data collection),False,0,False,False,110,1,0,False,False,True,True,000,0.0-103.0,2,804,"[0, 1]",stimuli/1110000.jpg,203911,prediction_trial,134,image-keyboard-response,
9,Pilot (test data collection),False,0,False,False,111,2,0,False,False,False,True,001,0.0-105.0,1,718,"[1, 2, 0]",stimuli/2111001.jpg,205375,prediction_trial,136,image-keyboard-response,
9,Pilot (test data collection),True,1,True,True,100,1,1,True,True,True,True,101,0.0-107.0,1,981,[1],stimuli/1100101.jpg,206898,prediction_trial,138,image-keyboard-response,
9,Pilot (test data collection),True,1,False,False,110,0,1,False,False,False,False,110,0.0-109.0,1,774,"[1, 0]",stimuli/0110110.jpg,208162,prediction_trial,140,image-keyboard-response,
9,Pilot (test data collection),True,1,False,False,111,0,1,False,False,True,True,011,0.0-111.0,1,948,"[1, 2, 0]",stimuli/0111011.jpg,209875,prediction_trial,142,image-keyboard-response,
9,Pilot (test data collection),False,0,True,True,000,1,1,False,False,False,False,110,0.0-113.0,0,2292,[1],stimuli/1000110.jpg,212804,prediction_trial,144,image-keyboard-response,
9,Pilot (test data collection),True,1,False,False,111,2,1,False,False,True,True,010,0.0-115.0,1,782,"[1, 0, 2]",stimuli/2111010.jpg,214422,prediction_trial,146,image-keyboard-response,
9,Pilot (test data collection),False,0,False,False,111,0,0,False,False,False,True,100,0.0-117.0,1,1004,"[1, 2, 0]",stimuli/0111100.jpg,216120,prediction_trial,148,image-keyboard-response,
9,Pilot (test data collection),True,1,False,False,111,2,1,False,False,True,True,100,0.0-119.0,1,1188,"[1, 0, 2]",stimuli/2111100.jpg,217638,prediction_trial,150,image-keyboard-response,
9,Pilot (test data collection),True,1,True,True,101,1,1,False,True,False,True,010,0.0-121.0,1,1083,[1],stimuli/1101010.jpg,219094,prediction_trial,152,image-keyboard-response,
9,Pilot (test data collection),True,1,False,False,111,1,1,False,False,True,True,101,0.0-123.0,1,824,"[1, 0, 2]",stimuli/1111101.jpg,220277,prediction_trial,154,image-keyboard-response,
9,Pilot (test data collection),True,1,False,False,111,2,1,False,False,False,False,101,0.0-125.0,1,1036,"[0, 1, 2]",stimuli/2111101.jpg,221932,prediction_trial,156,image-keyboard-response,
9,Pilot (test data collection),True,1,True,True,000,1,1,True,True,True,True,000,0.0-127.0,1,843,[1],stimuli/1000000.jpg,223453,prediction_trial,158,image-keyboard-response,
9,Pilot (test data collection),False,0,False,True,100,0,0,False,False,False,False,110,0.0-129.0,1,1437,[0],stimuli/0100110.jpg,225318,prediction_trial,160,image-keyboard-response,
9,Pilot (test data collection),True,1,False,False,111,1,1,False,False,False,False,111,0.0-131.0,1,611,"[0, 1, 2]",stimuli/1111111.jpg,226407,prediction_trial,162,image-keyboard-response,
9,Pilot (test data collection),True,1,True,True,001,0,0,True,True,True,True,001,0.0-133.0,0,754,[0],stimuli/0001001.jpg,227531,prediction_trial,164,image-keyboard-response,
9,Pilot (test data collection),True,1,False,False,111,0,1,False,False,False,False,111,0.0-135.0,1,618,"[1, 2, 0]",stimuli/0111111.jpg,228362,prediction_trial,166,image-keyboard-response,
9,Pilot (test data collection),True,1,False,False,111,0,1,False,False,False,False,101,0.0-137.0,1,886,"[2, 1, 0]",stimuli/0111101.jpg,229838,prediction_trial,168,image-keyboard-response,
9,Pilot (test data collection),True,1,True,True,010,0,0,True,True,True,True,010,0.0-139.0,0,848,[0],stimuli/0010010.jpg,231226,prediction_trial,170,image-keyboard-response,
9,Pilot (test data collection),False,0,False,False,111,1,2,False,False,False,True,010,0.0-141.0,1,1134,"[1, 2, 0]",stimuli/1111010.jpg,232695,prediction_trial,172,image-keyboard-response,
9,Pilot (test data collection),True,1,True,True,100,2,2,True,True,True,True,100,0.0-143.0,2,677,[2],stimuli/2100100.jpg,233835,prediction_trial,174,image-keyboard-response,
9,Pilot (test data collection),True,1,False,False,111,1,1,False,False,True,True,001,0.0-145.0,1,630,"[1, 2, 0]",stimuli/1111001.jpg,234832,prediction_trial,176,image-keyboard-response,
9,Pilot (test data collection),True,1,False,False,110,0,0,False,False,True,True,011,0.0-147.0,0,563,"[1, 0]",stimuli/0110011.jpg,235943,prediction_trial,178,image-keyboard-response,
9,Pilot (test data collection),False,0,False,False,111,1,2,False,False,False,False,111,0.0-149.0,1,833,"[0, 1, 2]",stimuli/1111111.jpg,237723,prediction_trial,180,image-keyboard-response,
9,Pilot (test data collection),False,0,False,False,111,0,2,False,False,True,True,011,0.0-151.0,1,1390,"[1, 2, 0]",stimuli/0111011.jpg,239738,prediction_trial,182,image-keyboard-response,
9,Pilot (test data collection),True,1,False,True,100,0,0,False,True,True,True,000,0.0-153.0,0,954,[0],stimuli/0100000.jpg,241009,prediction_trial,184,image-keyboard-response,
9,Pilot (test data collection),False,0,False,False,111,0,1,False,False,True,True,000,0.0-155.0,0,798,"[0, 1, 2]",stimuli/0111000.jpg,242151,prediction_trial,186,image-keyboard-response,
9,Pilot (test data collection),True,1,False,False,111,2,1,False,False,False,False,111,0.0-157.0,1,758,"[1, 2, 0]",stimuli/2111111.jpg,243604,prediction_trial,188,image-keyboard-response,
9,Pilot (test data collection),False,0,False,False,101,2,0,False,False,True,True,100,0.0-159.0,2,762,"[0, 2]",stimuli/2101100.jpg,244792,prediction_trial,190,image-keyboard-response,
9,Pilot (test data collection),False,0,False,False,111,2,0,False,False,False,True,001,0.0-161.0,1,684,"[1, 2, 0]",stimuli/2111001.jpg,246090,prediction_trial,192,image-keyboard-response,
9,Pilot (test data collection),False,0,True,True,100,2,2,False,False,False,False,011,0.0-163.0,1,1284,[2],stimuli/2100011.jpg,247812,prediction_trial,194,image-keyboard-response,
9,Pilot (test data collection),True,1,True,True,011,0,0,False,True,False,True,100,0.0-165.0,0,910,[0],stimuli/0011100.jpg,249135,prediction_trial,196,image-keyboard-response,
9,Pilot (test data collection),True,1,False,True,100,0,0,False,True,True,True,001,0.0-167.0,0,977,[0],stimuli/0100001.jpg,250733,prediction_trial,198,image-keyboard-response,
9,Pilot (test data collection),False,0,False,True,100,0,0,False,True,False,True,100,0.0-169.0,1,641,[0],stimuli/0100100.jpg,251757,prediction_trial,200,image-keyboard-response,
9,Pilot (test data collection),False,0,False,False,111,0,1,False,False,True,True,000,0.0-171.0,0,770,"[0, 1, 2]",stimuli/0111000.jpg,254313,prediction_trial,202,image-keyboard-response,
9,Pilot (test data collection),True,1,False,False,111,1,0,False,False,False,False,011,0.0-173.0,0,1166,"[0, 2, 1]",stimuli/1111011.jpg,256806,prediction_trial,204,image-keyboard-response,
9,Pilot (test data collection),True,1,True,True,101,1,1,True,True,True,True,000,0.0-175.0,1,714,[1],stimuli/1101000.jpg,258099,prediction_trial,206,image-keyboard-response,
9,Pilot (test data collection),False,0,False,False,111,0,1,False,False,True,True,011,0.0-177.0,0,849,"[1, 2, 0]",stimuli/0111011.jpg,259310,prediction_trial,208,image-keyboard-response,
9,Pilot (test data collection),False,0,False,False,111,1,2,False,False,True,True,100,0.0-179.0,1,810,"[2, 0, 1]",stimuli/1111100.jpg,260668,prediction_trial,210,image-keyboard-response,
9,Pilot (test data collection),False,0,False,False,110,0,1,False,False,True,True,010,0.0-181.0,0,1318,"[0, 1]",stimuli/0110010.jpg,262548,prediction_trial,212,image-keyboard-response,
9,Pilot (test data collection),True,1,False,False,111,1,1,False,False,False,False,110,0.0-183.0,1,778,"[1, 2, 0]",stimuli/1111110.jpg,263903,prediction_trial,214,image-keyboard-response,
9,Pilot (test data collection),False,0,False,False,011,2,1,False,False,True,True,100,0.0-185.0,2,1436,"[1, 2]",stimuli/2011100.jpg,266330,prediction_trial,216,image-keyboard-response,
9,Pilot (test data collection),False,0,False,False,111,2,0,False,False,True,True,110,0.0-187.0,1,902,"[0, 1, 2]",stimuli/2111110.jpg,267577,prediction_trial,218,image-keyboard-response,
9,Pilot (test data collection),False,0,False,False,110,1,0,False,False,True,True,001,0.0-189.0,1,1209,"[1, 0]",stimuli/1110001.jpg,269133,prediction_trial,220,image-keyboard-response,
9,Pilot (test data collection),False,0,False,True,001,2,2,False,True,True,True,110,0.0-191.0,1,1536,[2],stimuli/2001110.jpg,271135,prediction_trial,222,image-keyboard-response,
9,Pilot (test data collection),False,0,False,False,111,0,2,False,False,True,True,010,0.0-193.0,1,845,"[0, 2, 1]",stimuli/0111010.jpg,273673,prediction_trial,224,image-keyboard-response,
9,Pilot (test data collection),False,0,False,True,100,0,0,False,False,False,False,101,0.0-195.0,2,1745,[0],stimuli/0100101.jpg,275929,prediction_trial,226,image-keyboard-response,
9,Pilot (test data collection),True,1,False,True,100,0,0,False,True,True,True,010,0.0-197.0,0,1744,[0],stimuli/0100010.jpg,278706,prediction_trial,228,image-keyboard-response,
9,Pilot (test data collection),False,0,False,False,111,2,0,False,False,False,False,101,0.0-199.0,1,693,"[0, 1, 2]",stimuli/2111101.jpg,280089,prediction_trial,230,image-keyboard-response,
9,Pilot (test data collection),True,1,True,True,001,0,0,True,True,True,True,011,0.0-201.0,0,841,[0],stimuli/0001011.jpg,281659,prediction_trial,232,image-keyboard-response,
9,Pilot (test data collection),False,0,False,True,010,1,1,False,False,False,False,111,0.0-203.0,2,798,[1],stimuli/1010111.jpg,283015,prediction_trial,234,image-keyboard-response,
9,Pilot (test data collection),False,0,False,False,111,0,2,False,False,False,False,110,0.0-205.0,1,1451,"[0, 1, 2]",stimuli/0111110.jpg,284878,prediction_trial,236,image-keyboard-response,
9,Pilot (test data collection),True,1,False,True,010,1,1,False,True,True,True,000,0.0-207.0,1,1020,[1],stimuli/1010000.jpg,286283,prediction_trial,238,image-keyboard-response,
9,Pilot (test data collection),False,0,False,False,011,2,2,False,False,True,True,110,0.0-209.0,1,892,"[1, 2]",stimuli/2011110.jpg,287542,prediction_trial,240,image-keyboard-response,
9,Pilot (test data collection),True,1,False,False,111,0,1,False,False,False,False,101,0.0-211.0,1,892,"[2, 1, 0]",stimuli/0111101.jpg,288841,prediction_trial,242,image-keyboard-response,
9,Pilot (test data collection),False,0,False,False,111,2,1,False,False,True,True,110,0.0-213.0,2,800,"[0, 1, 2]",stimuli/2111110.jpg,289988,prediction_trial,244,image-keyboard-response,
9,Pilot (test data collection),False,0,False,False,111,0,0,False,False,False,False,110,0.0-215.0,2,610,"[0, 1, 2]",stimuli/0111110.jpg,291305,prediction_trial,246,image-keyboard-response,
9,Pilot (test data collection),False,0,False,False,111,2,2,False,False,False,False,011,0.0-217.0,1,1182,"[1, 0, 2]",stimuli/2111011.jpg,293335,prediction_trial,248,image-keyboard-response,
9,Pilot (test data collection),True,1,True,True,010,2,2,True,True,True,True,000,0.0-219.0,2,635,[2],stimuli/2010000.jpg,294323,prediction_trial,250,image-keyboard-response,
9,Pilot (test data collection),True,1,False,False,111,2,2,False,False,True,True,110,0.0-221.0,2,943,"[0, 1, 2]",stimuli/2111110.jpg,295606,prediction_trial,252,image-keyboard-response,
9,Pilot (test data collection),True,1,True,True,010,0,0,True,True,True,True,001,0.0-223.0,0,590,[0],stimuli/0010001.jpg,296597,prediction_trial,254,image-keyboard-response,
9,Pilot (test data collection),False,0,True,True,000,2,2,False,False,False,False,011,0.0-225.0,1,925,[2],stimuli/2000011.jpg,297894,prediction_trial,256,image-keyboard-response,
9,Pilot (test data collection),False,0,False,False,101,0,0,False,False,False,False,110,0.0-227.0,1,822,"[2, 0]",stimuli/0101110.jpg,299148,prediction_trial,258,image-keyboard-response,
9,Pilot (test data collection),True,1,False,False,111,1,1,False,False,False,False,110,0.0-229.0,1,736,"[1, 2, 0]",stimuli/1111110.jpg,301293,prediction_trial,260,image-keyboard-response,
9,Pilot (test data collection),True,1,True,True,000,2,2,True,True,True,True,010,0.0-231.0,2,607,[2],stimuli/2000010.jpg,302421,prediction_trial,262,image-keyboard-response,
9,Pilot (test data collection),True,1,False,False,111,2,1,False,False,False,False,011,0.0-233.0,1,827,"[1, 0, 2]",stimuli/2111011.jpg,303616,prediction_trial,264,image-keyboard-response,
9,Pilot (test data collection),False,0,True,True,000,2,2,False,False,False,False,101,0.0-235.0,0,1252,[2],stimuli/2000101.jpg,305338,prediction_trial,266,image-keyboard-response,
9,Pilot (test data collection),True,1,False,False,111,1,1,False,False,True,True,000,0.0-237.0,1,665,"[1, 2, 0]",stimuli/1111000.jpg,306555,prediction_trial,268,image-keyboard-response,
9,Pilot (test data collection),True,1,False,False,111,2,2,False,False,True,True,000,0.0-239.0,2,643,"[0, 2, 1]",stimuli/2111000.jpg,307671,prediction_trial,270,image-keyboard-response,
9,Pilot (test data collection),True,1,True,True,001,1,1,True,True,True,True,100,0.0-241.0,1,726,[1],stimuli/1001100.jpg,308938,prediction_trial,272,image-keyboard-response,
9,Pilot (test data collection),False,0,False,False,111,1,2,False,False,False,False,111,0.0-243.0,1,572,"[0, 1, 2]",stimuli/1111111.jpg,309992,prediction_trial,274,image-keyboard-response,
9,Pilot (test data collection),False,0,True,True,001,1,1,False,False,False,False,011,0.0-245.0,2,1808,[1],stimuli/1001011.jpg,312438,prediction_trial,276,image-keyboard-response,
9,Pilot (test data collection),False,0,False,False,111,1,0,False,False,True,True,100,0.0-247.0,1,722,"[2, 0, 1]",stimuli/1111100.jpg,313742,prediction_trial,278,image-keyboard-response,
9,Pilot (test data collection),False,0,False,False,111,0,2,False,False,True,True,001,0.0-249.0,0,757,"[2, 1, 0]",stimuli/0111001.jpg,314985,prediction_trial,280,image-keyboard-response,
9,Pilot (test data collection),True,1,False,False,110,0,0,False,False,True,True,000,0.0-251.0,0,769,"[1, 0]",stimuli/0110000.jpg,316321,prediction_trial,282,image-keyboard-response,
9,Pilot (test data collection),True,1,True,True,001,0,0,True,True,True,True,000,0.0-253.0,0,698,[0],stimuli/0001000.jpg,317873,prediction_trial,284,image-keyboard-response,
9,Pilot (test data collection),True,1,True,True,000,2,2,True,True,True,True,100,0.0-255.0,2,570,[2],stimuli/2000100.jpg,318936,prediction_trial,286,image-keyboard-response,
9,Pilot (test data collection),True,1,True,True,001,1,1,False,False,False,False,111,0.0-257.0,1,944,[1],stimuli/1001111.jpg,320220,prediction_trial,288,image-keyboard-response,
9,Pilot (test data collection),True,1,False,False,111,1,1,False,False,False,True,010,0.0-259.0,1,1513,"[1, 2, 0]",stimuli/1111010.jpg,322127,prediction_trial,290,image-keyboard-response,
9,Pilot (test data collection),True,1,True,True,011,0,0,False,False,False,False,110,0.0-261.0,0,684,[0],stimuli/0011110.jpg,323079,prediction_trial,292,image-keyboard-response,
9,Pilot (test data collection),False,0,False,False,111,0,0,False,False,False,True,100,0.0-263.0,1,528,"[1, 2, 0]",stimuli/0111100.jpg,324251,prediction_trial,294,image-keyboard-response,
9,Pilot (test data collection),True,1,True,True,000,0,0,True,True,True,True,010,0.0-265.0,0,625,[0],stimuli/0000010.jpg,325736,prediction_trial,296,image-keyboard-response,
9,Pilot (test data collection),False,0,False,False,111,2,1,False,False,True,True,100,0.0-267.0,2,720,"[1, 0, 2]",stimuli/2111100.jpg,326861,prediction_trial,298,image-keyboard-response,
9,Pilot (test data collection),False,0,False,False,111,1,0,False,False,True,True,001,0.0-269.0,1,551,"[1, 2, 0]",stimuli/1111001.jpg,327856,prediction_trial,300,image-keyboard-response,
9,Pilot (test data collection),False,0,True,True,100,2,2,False,False,False,False,101,0.0-271.0,0,1300,[2],stimuli/2100101.jpg,329655,prediction_trial,302,image-keyboard-response,
9,Pilot (test data collection),True,1,False,True,010,1,1,False,True,True,True,001,0.0-273.0,1,710,[1],stimuli/1010001.jpg,331106,prediction_trial,304,image-keyboard-response,
9,Pilot (test data collection),False,0,False,False,111,2,1,False,False,False,True,001,0.0-275.0,2,1411,"[1, 2, 0]",stimuli/2111001.jpg,333076,prediction_trial,306,image-keyboard-response,
9,Pilot (test data collection),True,1,True,True,001,1,1,False,True,False,True,010,0.0-277.0,1,907,[1],stimuli/1001010.jpg,334362,prediction_trial,308,image-keyboard-response,
9,Pilot (test data collection),True,1,True,True,100,2,2,True,True,True,True,000,0.0-279.0,2,624,[2],stimuli/2100000.jpg,335444,prediction_trial,310,image-keyboard-response,
9,Pilot (test data collection),True,1,True,True,010,2,2,True,True,True,True,010,0.0-281.0,2,744,[2],stimuli/2010010.jpg,336691,prediction_trial,312,image-keyboard-response,
9,Pilot (test data collection),False,0,False,False,111,0,2,False,False,False,True,100,0.0-283.0,0,803,"[1, 2, 0]",stimuli/0111100.jpg,338002,prediction_trial,314,image-keyboard-response,
9,Pilot (test data collection),False,0,False,False,111,1,0,False,False,True,True,000,0.0-285.0,1,610,"[1, 2, 0]",stimuli/1111000.jpg,339152,prediction_trial,316,image-keyboard-response,
9,Pilot (test data collection),True,1,False,False,011,2,2,False,False,False,True,001,0.0-287.0,2,953,"[2, 1]",stimuli/2011001.jpg,340751,prediction_trial,318,image-keyboard-response,
9,Pilot (test data collection),False,0,False,False,111,0,1,False,False,True,True,010,0.0-289.0,0,592,"[0, 2, 1]",stimuli/0111010.jpg,341824,prediction_trial,320,image-keyboard-response,
9,Pilot (test data collection),False,0,False,False,111,0,0,False,False,False,False,111,0.0-291.0,1,756,"[1, 2, 0]",stimuli/0111111.jpg,343030,prediction_trial,322,image-keyboard-response,
6,Pilot (test data collection),True,1,False,False,111,0,1,False,False,False,False,101,0.0-5.0,1,4809,"[0, 1, 2]",stimuli/0111101.jpg,511956,prediction_trial,36,image-keyboard-response,
6,Pilot (test data collection),True,1,False,False,011,1,1,False,False,True,True,100,0.0-7.0,1,6298,"[2, 1]",stimuli/1011100.jpg,520167,prediction_trial,38,image-keyboard-response,
6,Pilot (test data collection),True,1,True,True,000,2,2,True,True,True,True,110,0.0-9.0,2,3397,[2],stimuli/2000110.jpg,524377,prediction_trial,40,image-keyboard-response,
6,Pilot (test data collection),True,1,True,True,100,1,1,True,True,True,True,100,0.0-11.0,1,2361,[1],stimuli/1100100.jpg,528876,prediction_trial,42,image-keyboard-response,
6,Pilot (test data collection),True,1,False,False,111,1,1,False,False,False,False,111,0.0-13.0,1,1528,"[0, 2, 1]",stimuli/1111111.jpg,531756,prediction_trial,44,image-keyboard-response,
6,Pilot (test data collection),False,0,False,False,111,2,2,False,False,False,False,011,0.0-15.0,1,4544,"[2, 0, 1]",stimuli/2111011.jpg,537179,prediction_trial,46,image-keyboard-response,
6,Pilot (test data collection),False,0,False,False,111,1,2,False,False,True,True,001,0.0-17.0,1,7943,"[0, 2, 1]",stimuli/1111001.jpg,547688,prediction_trial,48,image-keyboard-response,
6,Pilot (test data collection),True,1,False,True,001,2,2,False,True,True,True,100,0.0-19.0,2,3542,[2],stimuli/2001100.jpg,563201,prediction_trial,50,image-keyboard-response,
6,Pilot (test data collection),False,0,False,False,111,2,0,False,False,True,True,110,0.0-21.0,2,1980,"[1, 2, 0]",stimuli/2111110.jpg,565969,prediction_trial,52,image-keyboard-response,
6,Pilot (test data collection),True,1,True,True,011,0,0,True,True,True,True,000,0.0-23.0,0,2384,[0],stimuli/0011000.jpg,569208,prediction_trial,54,image-keyboard-response,
6,Pilot (test data collection),False,0,False,False,111,1,1,False,False,False,False,111,0.0-25.0,0,1698,"[0, 2, 1]",stimuli/1111111.jpg,571459,prediction_trial,56,image-keyboard-response,
6,Pilot (test data collection),False,0,True,True,000,1,1,False,False,False,False,110,0.0-27.0,0,3487,[1],stimuli/1000110.jpg,575711,prediction_trial,58,image-keyboard-response,
6,Pilot (test data collection),True,1,True,True,011,0,0,False,False,False,False,111,0.0-29.0,0,2992,[0],stimuli/0011111.jpg,579964,prediction_trial,60,image-keyboard-response,
6,Pilot (test data collection),False,0,True,True,000,2,2,False,False,False,False,011,0.0-31.0,1,4298,[2],stimuli/2000011.jpg,586287,prediction_trial,62,image-keyboard-response,
6,Pilot (test data collection),True,1,False,True,100,0,0,False,True,True,True,010,0.0-33.0,0,2315,[0],stimuli/0100010.jpg,589412,prediction_trial,64,image-keyboard-response,
6,Pilot (test data collection),False,0,False,False,111,0,1,False,False,True,True,011,0.0-35.0,0,2316,"[0, 2, 1]",stimuli/0111011.jpg,592542,prediction_trial,66,image-keyboard-response,
6,Pilot (test data collection),True,1,False,False,111,2,1,False,False,True,True,100,0.0-37.0,1,4612,"[1, 0, 2]",stimuli/2111100.jpg,597874,prediction_trial,68,image-keyboard-response,
6,Pilot (test data collection),True,1,True,True,011,0,0,True,True,True,True,001,0.0-39.0,0,1776,[0],stimuli/0011001.jpg,600236,prediction_trial,70,image-keyboard-response,
6,Pilot (test data collection),True,1,False,False,111,1,0,False,False,False,False,110,0.0-41.0,0,2294,"[1, 0, 2]",stimuli/1111110.jpg,603814,prediction_trial,72,image-keyboard-response,
6,Pilot (test data collection),True,1,False,False,111,0,0,False,False,False,True,100,0.0-43.0,0,2227,"[1, 0, 2]",stimuli/0111100.jpg,606942,prediction_trial,74,image-keyboard-response,
6,Pilot (test data collection),True,1,False,False,110,0,0,False,False,False,True,100,0.0-45.0,0,3781,"[1, 0]",stimuli/0110100.jpg,611600,prediction_trial,76,image-keyboard-response,
6,Pilot (test data collection),False,0,False,False,111,0,1,False,False,False,False,111,0.0-47.0,0,2182,"[0, 1, 2]",stimuli/0111111.jpg,614502,prediction_trial,78,image-keyboard-response,
6,Pilot (test data collection),False,0,False,True,001,2,2,False,False,False,False,011,0.0-49.0,1,2857,[2],stimuli/2001011.jpg,618237,prediction_trial,80,image-keyboard-response,
6,Pilot (test data collection),True,1,False,True,010,1,1,False,True,False,True,010,0.0-51.0,1,2697,[1],stimuli/1010010.jpg,621948,prediction_trial,82,image-keyboard-response,
6,Pilot (test data collection),True,1,True,True,000,0,0,True,True,True,True,010,0.0-53.0,0,1305,[0],stimuli/0000010.jpg,624290,prediction_trial,84,image-keyboard-response,
6,Pilot (test data collection),True,1,False,False,101,0,0,False,False,True,True,010,0.0-55.0,0,5410,"[0, 2]",stimuli/0101010.jpg,630095,prediction_trial,86,image-keyboard-response,
6,Pilot (test data collection),True,1,False,False,111,2,0,False,False,False,False,101,0.0-57.0,0,6288,"[0, 2, 1]",stimuli/2111101.jpg,637171,prediction_trial,88,image-keyboard-response,
6,Pilot (test data collection),False,0,False,False,111,2,2,False,False,False,False,111,0.0-59.0,0,1890,"[1, 2, 0]",stimuli/2111111.jpg,639849,prediction_trial,90,image-keyboard-response,
6,Pilot (test data collection),True,1,False,False,111,2,0,False,False,False,True,001,0.0-61.0,0,3555,"[0, 1, 2]",stimuli/2111001.jpg,644034,prediction_trial,92,image-keyboard-response,
6,Pilot (test data collection),True,1,True,True,110,2,2,False,True,False,True,001,0.0-63.0,2,5242,[2],stimuli/2110001.jpg,650019,prediction_trial,94,image-keyboard-response,
6,Pilot (test data collection),True,1,True,True,100,2,2,True,True,True,True,110,0.0-65.0,2,5276,[2],stimuli/2100110.jpg,656398,prediction_trial,96,image-keyboard-response,
6,Pilot (test data collection),False,0,False,False,111,0,0,False,False,False,False,111,0.0-67.0,2,7537,"[0, 1, 2]",stimuli/0111111.jpg,664318,prediction_trial,98,image-keyboard-response,
6,Pilot (test data collection),False,0,False,False,111,1,1,False,False,True,True,100,0.0-69.0,0,7582,"[2, 0, 1]",stimuli/1111100.jpg,672733,prediction_trial,100,image-keyboard-response,
6,Pilot (test data collection),True,1,False,True,010,1,1,False,True,True,True,100,0.0-71.0,1,2834,[1],stimuli/1010100.jpg,676446,prediction_trial,102,image-keyboard-response,
6,Pilot (test data collection),True,1,True,True,000,1,1,True,True,True,True,100,0.0-73.0,1,1732,[1],stimuli/1000100.jpg,678583,prediction_trial,104,image-keyboard-response,
6,Pilot (test data collection),False,0,False,False,011,2,2,False,False,False,False,011,0.0-75.0,1,2204,"[2, 1]",stimuli/2011011.jpg,681981,prediction_trial,106,image-keyboard-response,
6,Pilot (test data collection),True,1,True,True,000,1,1,False,False,False,False,111,0.0-77.0,1,4366,[1],stimuli/1000111.jpg,686998,prediction_trial,108,image-keyboard-response,
6,Pilot (test data collection),True,1,False,False,011,1,1,False,False,True,True,101,0.0-79.0,1,4792,"[1, 2]",stimuli/1011101.jpg,692556,prediction_trial,110,image-keyboard-response,
6,Pilot (test data collection),False,0,False,False,111,1,0,False,False,True,True,101,0.0-81.0,1,1327,"[0, 1, 2]",stimuli/1111101.jpg,694671,prediction_trial,112,image-keyboard-response,
6,Pilot (test data collection),True,1,False,False,101,2,0,False,False,False,True,001,0.0-83.0,0,6210,"[0, 2]",stimuli/2101001.jpg,701736,prediction_trial,114,image-keyboard-response,
6,Pilot (test data collection),True,1,False,False,111,0,0,False,False,False,False,111,0.0-85.0,0,2272,"[0, 1, 2]",stimuli/0111111.jpg,704819,prediction_trial,116,image-keyboard-response,
6,Pilot (test data collection),False,0,True,True,000,2,2,False,False,False,False,111,0.0-87.0,1,4162,[2],stimuli/2000111.jpg,710275,prediction_trial,118,image-keyboard-response,
6,Pilot (test data collection),False,0,False,False,111,0,1,False,False,True,True,000,0.0-89.0,0,2496,"[1, 2, 0]",stimuli/0111000.jpg,714887,prediction_trial,120,image-keyboard-response,
6,Pilot (test data collection),False,0,False,False,111,2,2,False,False,False,True,001,0.0-91.0,1,9112,"[0, 1, 2]",stimuli/2111001.jpg,725058,prediction_trial,122,image-keyboard-response,
6,Pilot (test data collection),True,1,False,False,110,0,1,False,False,False,False,110,0.0-93.0,1,3510,"[1, 0]",stimuli/0110110.jpg,729378,prediction_trial,124,image-keyboard-response,
6,Pilot (test data collection),True,1,False,False,110,0,1,False,False,True,True,010,0.0-95.0,1,4633,"[0, 1]",stimuli/0110010.jpg,734686,prediction_trial,126,image-keyboard-response,
6,Pilot (test data collection),True,1,False,False,111,0,1,False,False,False,False,110,0.0-97.0,1,9944,"[2, 0, 1]",stimuli/0111110.jpg,745308,prediction_trial,128,image-keyboard-response,
6,Pilot (test data collection),True,1,True,True,000,0,0,False,False,False,False,101,0.0-99.0,0,59616,[0],stimuli/0000101.jpg,805756,prediction_trial,130,image-keyboard-response,
6,Pilot (test data collection),False,0,False,False,111,2,1,False,False,True,True,100,0.0-101.0,0,3590,"[1, 0, 2]",stimuli/2111100.jpg,809895,prediction_trial,132,image-keyboard-response,
6,Pilot (test data collection),True,1,True,True,101,1,1,False,False,False,False,110,0.0-103.0,1,13117,[1],stimuli/1101110.jpg,823869,prediction_trial,134,image-keyboard-response,
6,Pilot (test data collection),True,1,False,False,111,0,1,False,False,False,False,110,0.0-105.0,1,2454,"[2, 0, 1]",stimuli/0111110.jpg,827153,prediction_trial,136,image-keyboard-response,
6,Pilot (test data collection),False,0,False,False,111,2,0,False,False,False,False,011,0.0-107.0,1,3801,"[2, 0, 1]",stimuli/2111011.jpg,832081,prediction_trial,138,image-keyboard-response,
6,Pilot (test data collection),False,0,False,False,111,0,1,False,False,False,True,100,0.0-109.0,2,5715,"[1, 0, 2]",stimuli/0111100.jpg,838944,prediction_trial,140,image-keyboard-response,
6,Pilot (test data collection),False,0,False,False,111,2,2,False,False,True,True,000,0.0-111.0,1,5602,"[0, 1, 2]",stimuli/2111000.jpg,845199,prediction_trial,142,image-keyboard-response,
6,Pilot (test data collection),True,1,False,False,111,2,2,False,False,False,False,111,0.0-113.0,2,7222,"[1, 2, 0]",stimuli/2111111.jpg,853164,prediction_trial,144,image-keyboard-response,
6,Pilot (test data collection),False,0,False,False,111,0,1,False,False,True,True,011,0.0-115.0,2,3261,"[0, 2, 1]",stimuli/0111011.jpg,857258,prediction_trial,146,image-keyboard-response,
6,Pilot (test data collection),True,1,False,False,111,1,0,False,False,False,False,111,0.0-117.0,0,8169,"[0, 2, 1]",stimuli/1111111.jpg,866417,prediction_trial,148,image-keyboard-response,
6,Pilot (test data collection),True,1,True,True,010,2,2,False,False,False,False,011,0.0-119.0,2,10000,[2],stimuli/2010011.jpg,877812,prediction_trial,150,image-keyboard-response,
6,Pilot (test data collection),True,1,True,True,010,0,0,True,True,True,True,011,0.0-121.0,0,1619,[0],stimuli/0010011.jpg,880400,prediction_trial,152,image-keyboard-response,
6,Pilot (test data collection),True,1,True,True,001,1,1,True,True,True,True,001,0.0-123.0,1,1124,[1],stimuli/1001001.jpg,883348,prediction_trial,154,image-keyboard-response,
6,Pilot (test data collection),False,0,False,False,110,1,0,False,False,True,True,001,0.0-125.0,1,2924,"[1, 0]",stimuli/1110001.jpg,886610,prediction_trial,156,image-keyboard-response,
6,Pilot (test data collection),False,0,False,False,111,1,2,False,False,True,True,000,0.0-127.0,0,7282,"[1, 0, 2]",stimuli/1111000.jpg,894734,prediction_trial,158,image-keyboard-response,
6,Pilot (test data collection),False,0,False,False,111,2,0,False,False,True,True,010,0.0-129.0,2,6164,"[2, 1, 0]",stimuli/2111010.jpg,901911,prediction_trial,160,image-keyboard-response,
6,Pilot (test data collection),True,1,False,False,111,2,2,False,False,True,True,100,0.0-131.0,2,6198,"[1, 0, 2]",stimuli/2111100.jpg,908751,prediction_trial,162,image-keyboard-response,
6,Pilot (test data collection),False,0,False,False,111,0,2,False,False,True,True,001,0.0-133.0,1,9607,"[1, 0, 2]",stimuli/0111001.jpg,919574,prediction_trial,164,image-keyboard-response,
6,Pilot (test data collection),True,1,False,False,011,1,1,False,False,False,False,110,0.0-135.0,1,7919,"[2, 1]",stimuli/1011110.jpg,928641,prediction_trial,166,image-keyboard-response,
6,Pilot (test data collection),True,1,True,True,110,2,2,False,False,False,False,101,0.0-137.0,2,3723,[2],stimuli/2110101.jpg,935403,prediction_trial,168,image-keyboard-response,
6,Pilot (test data collection),False,0,False,False,111,0,0,False,False,False,True,100,0.0-139.0,2,7335,"[1, 0, 2]",stimuli/0111100.jpg,943751,prediction_trial,170,image-keyboard-response,
6,Pilot (test data collection),False,0,False,False,111,2,1,False,False,False,True,001,0.0-141.0,0,6279,"[0, 1, 2]",stimuli/2111001.jpg,951198,prediction_trial,172,image-keyboard-response,
6,Pilot (test data collection),False,0,False,False,111,0,2,False,False,True,True,010,0.0-143.0,0,4027,"[1, 2, 0]",stimuli/0111010.jpg,956148,prediction_trial,174,image-keyboard-response,
6,Pilot (test data collection),True,1,False,False,111,1,1,False,False,False,False,011,0.0-145.0,1,12589,"[1, 2, 0]",stimuli/1111011.jpg,969548,prediction_trial,176,image-keyboard-response,
6,Pilot (test data collection),False,0,False,False,111,2,2,False,False,True,True,010,0.0-147.0,1,3554,"[2, 1, 0]",stimuli/2111010.jpg,974103,prediction_trial,178,image-keyboard-response,
6,Pilot (test data collection),False,0,False,False,111,2,0,False,False,False,False,111,0.0-149.0,2,4207,"[1, 2, 0]",stimuli/2111111.jpg,980381,prediction_trial,180,image-keyboard-response,
6,Pilot (test data collection),False,0,True,True,000,0,0,False,False,False,False,110,0.0-151.0,1,5174,[0],stimuli/0000110.jpg,987446,prediction_trial,182,image-keyboard-response,
6,Pilot (test data collection),True,1,True,True,100,1,1,False,False,False,False,110,0.0-153.0,1,7155,[1],stimuli/1100110.jpg,995479,prediction_trial,184,image-keyboard-response,
6,Pilot (test data collection),False,0,False,False,111,0,2,False,False,False,False,101,0.0-155.0,1,7199,"[0, 1, 2]",stimuli/0111101.jpg,1003489,prediction_trial,186,image-keyboard-response,
6,Pilot (test data collection),True,1,False,False,111,0,2,False,False,True,True,001,0.0-157.0,2,5805,"[1, 0, 2]",stimuli/0111001.jpg,1010149,prediction_trial,188,image-keyboard-response,
6,Pilot (test data collection),False,0,False,False,111,0,1,False,False,True,True,010,0.0-159.0,0,8439,"[1, 2, 0]",stimuli/0111010.jpg,1019217,prediction_trial,190,image-keyboard-response,
6,Pilot (test data collection),True,1,True,True,011,0,0,True,True,True,True,010,0.0-161.0,0,1913,[0],stimuli/0011010.jpg,1021985,prediction_trial,192,image-keyboard-response,
6,Pilot (test data collection),True,1,True,True,000,1,1,True,True,True,True,101,0.0-163.0,1,922,[1],stimuli/1000101.jpg,1023244,prediction_trial,194,image-keyboard-response,
6,Pilot (test data collection),True,1,True,True,001,0,0,True,True,True,True,011,0.0-165.0,0,1158,[0],stimuli/0001011.jpg,1024752,prediction_trial,196,image-keyboard-response,
6,Pilot (test data collection),False,0,True,True,010,2,2,False,False,False,False,111,0.0-167.0,0,2935,[2],stimuli/2010111.jpg,1027946,prediction_trial,198,image-keyboard-response,
6,Pilot (test data collection),True,1,False,False,111,0,0,False,False,False,False,110,0.0-169.0,0,4825,"[2, 0, 1]",stimuli/0111110.jpg,1033459,prediction_trial,200,image-keyboard-response,
6,Pilot (test data collection),True,1,True,True,101,1,1,True,True,True,True,000,0.0-171.0,1,3352,[1],stimuli/1101000.jpg,1037690,prediction_trial,202,image-keyboard-response,
6,Pilot (test data collection),True,1,True,True,010,2,2,False,False,False,False,101,0.0-173.0,2,2939,[2],stimuli/2010101.jpg,1040907,prediction_trial,204,image-keyboard-response,
6,Pilot (test data collection),True,1,True,True,101,1,1,True,True,True,True,101,0.0-175.0,1,1158,[1],stimuli/1101101.jpg,1042730,prediction_trial,206,image-keyboard-response,
6,Pilot (test data collection),False,0,False,False,110,1,0,False,False,False,False,011,0.0-177.0,1,2025,"[1, 0]",stimuli/1110011.jpg,1044980,prediction_trial,208,image-keyboard-response,
6,Pilot (test data collection),True,1,False,False,111,0,0,False,False,True,True,000,0.0-179.0,0,2114,"[1, 2, 0]",stimuli/0111000.jpg,1047725,prediction_trial,210,image-keyboard-response,
6,Pilot (test data collection),False,0,False,False,111,1,1,False,False,True,True,000,0.0-181.0,0,2444,"[1, 0, 2]",stimuli/1111000.jpg,1050920,prediction_trial,212,image-keyboard-response,
6,Pilot (test data collection),False,0,False,True,001,2,2,False,False,False,False,111,0.0-183.0,1,2114,[2],stimuli/2001111.jpg,1053642,prediction_trial,214,image-keyboard-response,
6,Pilot (test data collection),False,0,False,False,111,2,1,False,False,False,False,011,0.0-185.0,0,6210,"[2, 0, 1]",stimuli/2111011.jpg,1060416,prediction_trial,216,image-keyboard-response,
6,Pilot (test data collection),False,0,False,False,111,2,0,False,False,True,True,110,0.0-187.0,2,4487,"[1, 2, 0]",stimuli/2111110.jpg,1065522,prediction_trial,218,image-keyboard-response,
6,Pilot (test data collection),True,1,False,True,001,2,2,False,True,True,True,000,0.0-189.0,2,1760,[2],stimuli/2001000.jpg,1067840,prediction_trial,220,image-keyboard-response,
6,Pilot (test data collection),True,1,False,False,111,0,0,False,False,True,True,001,0.0-191.0,0,5591,"[1, 0, 2]",stimuli/0111001.jpg,1073646,prediction_trial,222,image-keyboard-response,
6,Pilot (test data collection),True,1,True,True,110,2,2,True,True,True,True,100,0.0-193.0,2,2474,[2],stimuli/2110100.jpg,1076862,prediction_trial,224,image-keyboard-response,
6,Pilot (test data collection),True,1,False,True,100,0,0,False,True,True,True,000,0.0-195.0,0,2429,[0],stimuli/0100000.jpg,1080868,prediction_trial,226,image-keyboard-response,
6,Pilot (test data collection),True,1,False,False,110,0,1,False,False,True,True,001,0.0-197.0,1,3982,"[1, 0]",stimuli/0110001.jpg,1085616,prediction_trial,228,image-keyboard-response,
6,Pilot (test data collection),False,0,False,False,111,1,0,False,False,True,True,100,0.0-199.0,2,3418,"[2, 0, 1]",stimuli/1111100.jpg,1089800,prediction_trial,230,image-keyboard-response,
6,Pilot (test data collection),False,0,False,False,111,0,2,False,False,True,True,010,0.0-201.0,0,4589,"[1, 2, 0]",stimuli/0111010.jpg,1095268,prediction_trial,232,image-keyboard-response,
6,Pilot (test data collection),False,0,False,False,111,1,0,False,False,True,True,001,0.0-203.0,1,2881,"[0, 2, 1]",stimuli/1111001.jpg,1099116,prediction_trial,234,image-keyboard-response,
6,Pilot (test data collection),False,0,False,False,111,1,2,False,False,False,False,110,0.0-205.0,1,3396,"[1, 0, 2]",stimuli/1111110.jpg,1103344,prediction_trial,236,image-keyboard-response,
6,Pilot (test data collection),False,0,False,False,111,0,1,False,False,True,True,011,0.0-207.0,0,3960,"[0, 2, 1]",stimuli/0111011.jpg,1107980,prediction_trial,238,image-keyboard-response,
6,Pilot (test data collection),False,0,False,False,111,1,2,False,False,False,True,010,0.0-209.0,1,3937,"[2, 1, 0]",stimuli/1111010.jpg,1112569,prediction_trial,240,image-keyboard-response,
6,Pilot (test data collection),True,1,True,True,010,2,2,True,True,True,True,110,0.0-211.0,2,1394,[2],stimuli/2010110.jpg,1114751,prediction_trial,242,image-keyboard-response,
6,Pilot (test data collection),False,0,False,False,111,1,1,False,False,True,True,101,0.0-213.0,2,2699,"[0, 1, 2]",stimuli/1111101.jpg,1117811,prediction_trial,244,image-keyboard-response,
6,Pilot (test data collection),True,1,False,False,111,1,0,False,False,True,True,000,0.0-215.0,0,3633,"[1, 0, 2]",stimuli/1111000.jpg,1122007,prediction_trial,246,image-keyboard-response,
6,Pilot (test data collection),True,1,False,False,011,1,1,False,False,True,True,001,0.0-217.0,1,4353,"[2, 1]",stimuli/1011001.jpg,1127024,prediction_trial,248,image-keyboard-response,
6,Pilot (test data collection),False,0,False,False,111,2,1,False,False,True,True,000,0.0-219.0,2,1508,"[0, 1, 2]",stimuli/2111000.jpg,1129275,prediction_trial,250,image-keyboard-response,
6,Pilot (test data collection),False,0,False,False,111,0,0,False,False,False,False,101,0.0-221.0,1,5692,"[0, 1, 2]",stimuli/0111101.jpg,1135889,prediction_trial,252,image-keyboard-response,
6,Pilot (test data collection),False,0,False,False,111,1,2,False,False,False,False,011,0.0-223.0,0,4478,"[1, 2, 0]",stimuli/1111011.jpg,1141019,prediction_trial,254,image-keyboard-response,
6,Pilot (test data collection),False,0,False,False,101,2,0,False,False,True,True,010,0.0-225.0,2,3824,"[0, 2]",stimuli/2101010.jpg,1145969,prediction_trial,256,image-keyboard-response,
6,Pilot (test data collection),False,0,False,False,111,1,0,False,False,True,True,001,0.0-227.0,1,9259,"[0, 2, 1]",stimuli/1111001.jpg,1155712,prediction_trial,258,image-keyboard-response,
6,Pilot (test data collection),False,0,False,False,110,1,0,False,False,False,True,010,0.0-229.0,1,7593,"[0, 1]",stimuli/1110010.jpg,1163857,prediction_trial,260,image-keyboard-response,
6,Pilot (test data collection),True,1,False,False,110,1,1,False,False,False,False,110,0.0-231.0,1,2904,"[1, 0]",stimuli/1110110.jpg,1167356,prediction_trial,262,image-keyboard-response,
6,Pilot (test data collection),False,0,False,False,101,2,0,False,False,False,False,111,0.0-233.0,1,3059,"[2, 0]",stimuli/2101111.jpg,1171135,prediction_trial,264,image-keyboard-response,
