"","success","timeout","failed_images","failed_audio","failed_video","trial_type","trial_index","time_elapsed","internal_node_id","prolific_id","prolific_study_id","prolific_session_id","rt","stimulus","response","view_history","trial","character_choice","stimulus_dict","accuracy","correct_response","ball_pos","ego_ball_visible","ego_can_infer","alter_ball_visible","alter_can_infer","collective_ball_visible","collective_can_infer","search_locations","alter_occluders","ego_occluders","accuracy_bool","feedback","age","ethnicity","gender","race","overall_accuracy","bonus","workerid"
"1",NA,NA,NA,NA,NA,"survey-html-form","318","599024","0.0-293.0","5c209d9b10677f0001da5e38","665500ab8938657b03fbdba8","665792a0cf3a5161175719a2","13425",NA,"{""feedback"":"""",""age"":""56"",""gender"":""Female"",""other_gender"":"""",""race"":""White"",""other_race"":"""",""ethnicity"":""Non-Hispanic""}",NA,"exit_survey",NA,NA,NA,NA,NA,NA,NA,NA,NA,NA,NA,NA,NA,NA,NA,NA,"56","Non-Hispanic","Female","White","0.6944444444444444","0.6944444444444444","09ce7m84v7"
"2",NA,NA,NA,NA,NA,"survey-html-form","318","472608","0.0-293.0","5b9dd322f074140001050095","665500ab8938657b03fbdba8","66579577cffc7b15f963d041","70055",NA,"{""feedback"":""When it was not visible to them I tried to just select the correct answer or use intuition to try to guess which one they would pick if it was not clear to me.\n\nNo specific comments but it was enjoyable."",""age"":""36"",""gender"":""Female"",""other_gender"":"""",""race"":""White"",""other_race"":"""",""ethnicity"":""Non-Hispanic""}",NA,"exit_survey",NA,NA,NA,NA,NA,NA,NA,NA,NA,NA,NA,NA,NA,NA,NA,"When it was not visible to them I tried to just select the correct answer or use intuition to try to guess which one they would pick if it was not clear to me.

No specific comments but it was enjoyable.","36","Non-Hispanic","Female","White","0.7013888888888888","0.7013888888888888","0p54mu6bod"
"3",NA,NA,NA,NA,NA,"survey-html-form","318","468221","0.0-293.0","641361951f32a46c07479b33","665500ab8938657b03fbdba8","6657926189971b4f6cbee2d1","15410",NA,"{""feedback"":""whether he could see it and whether or not i could see it"",""age"":""37"",""gender"":""Female"",""other_gender"":"""",""race"":""White"",""other_race"":"""",""ethnicity"":""Non-Hispanic""}",NA,"exit_survey",NA,NA,NA,NA,NA,NA,NA,NA,NA,NA,NA,NA,NA,NA,NA,"whether he could see it and whether or not i could see it","37","Non-Hispanic","Female","White","0.6666666666666666","0.6666666666666666","0w3ydtnvee"
"4",NA,NA,NA,NA,NA,"survey-html-form","318","481868","0.0-293.0","62959d1553cc14e98f4b8d78","665500ab8938657b03fbdba8","6657922a9d4a78e937890937","18632",NA,"{""feedback"":""None. Trusted my gut"",""age"":""28"",""gender"":""Male"",""other_gender"":"""",""race"":""Asian"",""other_race"":"""",""ethnicity"":""Non-Hispanic""}",NA,"exit_survey",NA,NA,NA,NA,NA,NA,NA,NA,NA,NA,NA,NA,NA,NA,NA,"None. Trusted my gut","28","Non-Hispanic","Male","Asian","0.6527777777777778","0.6527777777777778","17dk1wv29n"
"5",NA,NA,NA,NA,NA,"survey-html-form","318","690007","0.0-293.0","5e9fc65dee2ccf178f0e413f","665500ab8938657b03fbdba8","66577f24ae3119b9eaf985eb","41156",NA,"{""feedback"":""guess estimate"",""age"":""55"",""gender"":""Female"",""other_gender"":"""",""race"":""White"",""other_race"":""""}",NA,"exit_survey",NA,NA,NA,NA,NA,NA,NA,NA,NA,NA,NA,NA,NA,NA,NA,"guess estimate","55",NA,"Female","White","0.6666666666666666","0.6666666666666666","1a5ocduvmr"
"6",NA,NA,NA,NA,NA,"survey-html-form","318","541913","0.0-293.0","64135e3d9cd5e3f16290d29c","665500ab8938657b03fbdba8","66579312c24bcd454bfb28b4","95710",NA,"{""feedback"":""I mostly choose where the red ball would probably be vs where he would pick where the ball would be. I have no comments or questions."",""age"":""26"",""gender"":""Male"",""other_gender"":"""",""race"":""Asian"",""other_race"":"""",""ethnicity"":""Non-Hispanic""}",NA,"exit_survey",NA,NA,NA,NA,NA,NA,NA,NA,NA,NA,NA,NA,NA,NA,NA,"I mostly choose where the red ball would probably be vs where he would pick where the ball would be. I have no comments or questions.","26","Non-Hispanic","Male","Asian","0.6111111111111112","0.6111111111111112","1bs8ozqk4z"
"7",NA,NA,NA,NA,NA,"survey-html-form","318","949484","0.0-293.0","632b9d9bc38454f47019295c","665500ab8938657b03fbdba8","6657922d74a8e5165543c8ef","40863",NA,"{""feedback"":""I have none."",""age"":""45"",""gender"":""Male"",""other_gender"":"""",""race"":""White"",""other_race"":"""",""ethnicity"":""Non-Hispanic""}",NA,"exit_survey",NA,NA,NA,NA,NA,NA,NA,NA,NA,NA,NA,NA,NA,NA,NA,"I have none.","45","Non-Hispanic","Male","White","0.6458333333333334","0.6458333333333334","1gabon1ypa"
"8",NA,NA,NA,NA,NA,"survey-html-form","318","591736","0.0-293.0","62869a1b7fff9c9a48fe6087","665500ab8938657b03fbdba8","66577b1040d04186628e32d6","15742",NA,"{""feedback"":"""",""age"":""59"",""gender"":""Female"",""other_gender"":"""",""race"":""White"",""other_race"":"""",""ethnicity"":""Non-Hispanic""}",NA,"exit_survey",NA,NA,NA,NA,NA,NA,NA,NA,NA,NA,NA,NA,NA,NA,NA,NA,"59","Non-Hispanic","Female","White","0.6736111111111112","0.6736111111111112","1go3ulc8ke"
"9",NA,NA,NA,NA,NA,"survey-html-form","318","481663","0.0-293.0","6506f9e821e92759b20c2be6","665500ab8938657b03fbdba8","66579374480d7e783d0b7be5","39787",NA,"{""feedback"":""Tried to see if it was obvious and if not, went with my gut."",""age"":""39"",""gender"":""Female"",""other_gender"":"""",""race"":""Multiracial"",""other_race"":"""",""ethnicity"":""Hispanic""}",NA,"exit_survey",NA,NA,NA,NA,NA,NA,NA,NA,NA,NA,NA,NA,NA,NA,NA,"Tried to see if it was obvious and if not, went with my gut.","39","Hispanic","Female","Multiracial","0.6458333333333334","0.6458333333333334","1gw8q7scsh"
"10",NA,NA,NA,NA,NA,"survey-html-form","318","448707","0.0-293.0","6400eea126c44543bb49dc75","665500ab8938657b03fbdba8","66578186bd7671fa41307188","32246",NA,"{""feedback"":""I tried to pay attention to what Sam could see to determine where he would guess."",""age"":""40"",""gender"":""Male"",""other_gender"":"""",""race"":""White"",""other_race"":"""",""ethnicity"":""Non-Hispanic""}",NA,"exit_survey",NA,NA,NA,NA,NA,NA,NA,NA,NA,NA,NA,NA,NA,NA,NA,"I tried to pay attention to what Sam could see to determine where he would guess.","40","Non-Hispanic","Male","White","0.6388888888888888","0.6388888888888888","1lbg5j919v"
"11",NA,NA,NA,NA,NA,"survey-html-form","318","634585","0.0-293.0","6402682f1a17d6c87f4f3a89","665500ab8938657b03fbdba8","6657925993aac0c4805dc949","45670",NA,"{""feedback"":""I tried to stick to one basket when I was making a random guess. "",""age"":""40"",""gender"":""Male"",""other_gender"":"""",""race"":""White"",""other_race"":"""",""ethnicity"":""Non-Hispanic""}",NA,"exit_survey",NA,NA,NA,NA,NA,NA,NA,NA,NA,NA,NA,NA,NA,NA,NA,"I tried to stick to one basket when I was making a random guess.","40","Non-Hispanic","Male","White","0.6041666666666666","0.6041666666666666","1n95x7os0r"
"12",NA,NA,NA,NA,NA,"survey-html-form","318","558905","0.0-293.0","59f22a9fd6380600018b2929","665500ab8938657b03fbdba8","665792b0b9254b075ddfeebf","45549",NA,"{""feedback"":""Some were random (if I knew he couldn't see), some were based on knowing he could see the ball "",""age"":""28"",""gender"":""Female"",""other_gender"":"""",""race"":""White"",""other_race"":"""",""ethnicity"":""Non-Hispanic""}",NA,"exit_survey",NA,NA,NA,NA,NA,NA,NA,NA,NA,NA,NA,NA,NA,NA,NA,"Some were random (if I knew he couldn't see), some were based on knowing he could see the ball","28","Non-Hispanic","Female","White","0.5833333333333334","0.5833333333333334","1osyxxnlsp"
"13",NA,NA,NA,NA,NA,"survey-html-form","318","521699","0.0-293.0","5e8601d90126b207e8c7a2aa","665500ab8938657b03fbdba8","6657927974a8e5165543c8fd","11206",NA,"{""feedback"":"""",""age"":""43"",""gender"":""Female"",""other_gender"":"""",""race"":""White"",""other_race"":""""}",NA,"exit_survey",NA,NA,NA,NA,NA,NA,NA,NA,NA,NA,NA,NA,NA,NA,NA,NA,"43",NA,"Female","White","0.6388888888888888","0.6388888888888888","285ekswh75"
"14",NA,NA,NA,NA,NA,"survey-html-form","318","538422","0.0-293.0","5f084a7987a3fe028ff65b8a","665500ab8938657b03fbdba8","66579286b651b453ebb03e4c","15614",NA,"{""feedback"":"""",""age"":""43"",""gender"":""Female"",""other_gender"":"""",""race"":""White"",""other_race"":"""",""ethnicity"":""Non-Hispanic""}",NA,"exit_survey",NA,NA,NA,NA,NA,NA,NA,NA,NA,NA,NA,NA,NA,NA,NA,NA,"43","Non-Hispanic","Female","White","0.4166666666666667","0.4166666666666667","29cfm6mrc5"
"15",NA,NA,NA,NA,NA,"survey-html-form","318","893364","0.0-293.0","5f1091aa4bd173363a9700ec","665500ab8938657b03fbdba8","665792e811fabbb508be5f1a","35086",NA,"{""feedback"":""I selected the option that I personally would have chosen in Sam's position.\n"",""age"":""29"",""gender"":""Male"",""other_gender"":"""",""race"":""White"",""other_race"":"""",""ethnicity"":""Hispanic""}",NA,"exit_survey",NA,NA,NA,NA,NA,NA,NA,NA,NA,NA,NA,NA,NA,NA,NA,"I selected the option that I personally would have chosen in Sam's position.
","29","Hispanic","Male","White","0.5833333333333334","0.5833333333333334","2b8ak3w2gy"
"16",NA,NA,NA,NA,NA,"survey-html-form","318","598984","0.0-293.0","6594720fa43b97e09c261749","665500ab8938657b03fbdba8","6657926f7b985b0425e2afc0","51126",NA,"{""feedback"":""I chose randomly when the red ball was not visible. I have no questions."",""age"":""42"",""gender"":""Female"",""other_gender"":"""",""race"":""Black/African American"",""other_race"":"""",""ethnicity"":""Non-Hispanic""}",NA,"exit_survey",NA,NA,NA,NA,NA,NA,NA,NA,NA,NA,NA,NA,NA,NA,NA,"I chose randomly when the red ball was not visible. I have no questions.","42","Non-Hispanic","Female","Black/African American","0.6388888888888888","0.6388888888888888","2f9ckn0uql"
"17",NA,NA,NA,NA,NA,"survey-html-form","318","671831","0.0-293.0","63ade94905e590dbf726b7fb","665500ab8938657b03fbdba8","66579278e5ee9db44cd36c69","32092",NA,"{""feedback"":"""",""age"":""50"",""gender"":""Male"",""other_gender"":"""",""race"":""Black/African American"",""other_race"":"""",""ethnicity"":""Non-Hispanic""}",NA,"exit_survey",NA,NA,NA,NA,NA,NA,NA,NA,NA,NA,NA,NA,NA,NA,NA,NA,"50","Non-Hispanic","Male","Black/African American","0.2986111111111111","0.2986111111111111","2o7tsj74g6"
"18",NA,NA,NA,NA,NA,"survey-html-form","318","290549","0.0-293.0","5ae11f9709eae20001132c22","665500ab8938657b03fbdba8","665792dcb9254b075ddfeecb","7914",NA,"{""feedback"":"""",""age"":""38"",""gender"":""Male"",""other_gender"":"""",""race"":""White"",""other_race"":"""",""ethnicity"":""Non-Hispanic""}",NA,"exit_survey",NA,NA,NA,NA,NA,NA,NA,NA,NA,NA,NA,NA,NA,NA,NA,NA,"38","Non-Hispanic","Male","White","0.5972222222222222","0.5972222222222222","30dkfglhpn"
"19",NA,NA,NA,NA,NA,"survey-html-form","318","592422","0.0-293.0","5c10724111fe9a00013cd815","665500ab8938657b03fbdba8","66578095167444180ef3f52b","57539",NA,"{""feedback"":""I went with my gut instinct. Great experiment"",""age"":""58"",""gender"":""Female"",""other_gender"":"""",""race"":""Black/African American"",""other_race"":"""",""ethnicity"":""Non-Hispanic""}",NA,"exit_survey",NA,NA,NA,NA,NA,NA,NA,NA,NA,NA,NA,NA,NA,NA,NA,"I went with my gut instinct. Great experiment","58","Non-Hispanic","Female","Black/African American","0.5625","0.5625","33h7zfrkrg"
"20",NA,NA,NA,NA,NA,"survey-html-form","318","512818","0.0-293.0","63a9a8f2f098b7e45bd03721","665500ab8938657b03fbdba8","6657953b3fa9bac66ec69436","81679",NA,"{""feedback"":""For some, it was easy as there was an obvious choice. For others, it could be narrowed down to two choices, and I just picked one. On others, it could have been any of the three, and that was just a pure guess."",""age"":""69"",""gender"":""Male"",""other_gender"":"""",""race"":""White"",""other_race"":"""",""ethnicity"":""Non-Hispanic""}",NA,"exit_survey",NA,NA,NA,NA,NA,NA,NA,NA,NA,NA,NA,NA,NA,NA,NA,"For some, it was easy as there was an obvious choice. For others, it could be narrowed down to two choices, and I just picked one. On others, it could have been any of the three, and that was just a pure guess.","69","Non-Hispanic","Male","White","0.6319444444444444","0.6319444444444444","35ezh4tapo"
"21",NA,NA,NA,NA,NA,"survey-html-form","318","1410243","0.0-293.0","634282de38138fa9316eb482","665500ab8938657b03fbdba8","66579294c69c7faa76e73c7c","10247",NA,"{""feedback"":"""",""age"":""31"",""gender"":""Male"",""other_gender"":"""",""race"":""Black/African American"",""other_race"":"""",""ethnicity"":""Non-Hispanic""}",NA,"exit_survey",NA,NA,NA,NA,NA,NA,NA,NA,NA,NA,NA,NA,NA,NA,NA,NA,"31","Non-Hispanic","Male","Black/African American","0.6319444444444444","0.6319444444444444","3ap3f2j28t"
"22",NA,NA,NA,NA,NA,"survey-html-form","318","909997","0.0-293.0","63a49d5bb18f18863fe82dae","665500ab8938657b03fbdba8","6657934fec682fff2873a3d7","50348",NA,"{""feedback"":""Things didn't line up correctly. I would pick the one with the ball, and then it would tell me that it was the wrong one when the. ball was clearly there and square was clearly around the ball. It would still say it was the wrong one on quite a few."",""age"":""54"",""gender"":""Female"",""other_gender"":"""",""race"":""White"",""other_race"":"""",""ethnicity"":""Non-Hispanic""}",NA,"exit_survey",NA,NA,NA,NA,NA,NA,NA,NA,NA,NA,NA,NA,NA,NA,NA,"Things didn't line up correctly. I would pick the one with the ball, and then it would tell me that it was the wrong one when the. ball was clearly there and square was clearly around the ball. It would still say it was the wrong one on quite a few.","54","Non-Hispanic","Female","White","0.4791666666666667","0.4791666666666667","3c3ngp04sn"
"23",NA,NA,NA,NA,NA,"survey-html-form","318","324558","0.0-293.0","63d3f95bba922834f0e8ac39","665500ab8938657b03fbdba8","6657926fec682fff2873a3b0","29874",NA,"{""feedback"":""I based it off what i could see and what he couldnt"",""age"":""31"",""gender"":""Male"",""other_gender"":"""",""race"":""White"",""other_race"":"""",""ethnicity"":""Non-Hispanic""}",NA,"exit_survey",NA,NA,NA,NA,NA,NA,NA,NA,NA,NA,NA,NA,NA,NA,NA,"I based it off what i could see and what he couldnt","31","Non-Hispanic","Male","White","0.5972222222222222","0.5972222222222222","3ntlvew2de"
"24",NA,NA,NA,NA,NA,"survey-html-form","318","304467","0.0-293.0","5ea340a26c3ed82b0dbd4d9f","665500ab8938657b03fbdba8","665792c93c30657b3954f005","16080",NA,"{""feedback"":""N/A"",""age"":""35"",""gender"":""Female"",""other_gender"":"""",""race"":""White"",""other_race"":"""",""ethnicity"":""Non-Hispanic""}",NA,"exit_survey",NA,NA,NA,NA,NA,NA,NA,NA,NA,NA,NA,NA,NA,NA,NA,"N/A","35","Non-Hispanic","Female","White","0.5972222222222222","0.5972222222222222","3xo0a304up"
"25",NA,NA,NA,NA,NA,"survey-html-form","318","443341","0.0-293.0","5df416a57bf5722f9a501255","665500ab8938657b03fbdba8","665793096b35f257ed77effb","30309",NA,"{""feedback"":""Sams view of the balls and whether he was guessing or not"",""age"":""37"",""gender"":""Male"",""other_gender"":"""",""race"":""White"",""other_race"":"""",""ethnicity"":""Non-Hispanic""}",NA,"exit_survey",NA,NA,NA,NA,NA,NA,NA,NA,NA,NA,NA,NA,NA,NA,NA,"Sams view of the balls and whether he was guessing or not","37","Non-Hispanic","Male","White","0.6458333333333334","0.6458333333333334","3xuy6a30dc"
"26",NA,NA,NA,NA,NA,"survey-html-form","318","650771","0.0-293.0","5ec34daa8236521a70e0a4d7","665500ab8938657b03fbdba8","6657740f4cdf8a17e2cbb7ee","12844",NA,"{""feedback"":"""",""age"":""31"",""gender"":""Female"",""other_gender"":"""",""race"":""Black/African American"",""other_race"":"""",""ethnicity"":""Non-Hispanic""}",NA,"exit_survey",NA,NA,NA,NA,NA,NA,NA,NA,NA,NA,NA,NA,NA,NA,NA,NA,"31","Non-Hispanic","Female","Black/African American","0.5902777777777778","0.5902777777777778","3ym48lgaln"
"27",NA,NA,NA,NA,NA,"survey-html-form","318","475800","0.0-293.0","5d0e6b201b7ef6001a6346fc","665500ab8938657b03fbdba8","6657929076ac1e0591ba762e","11835",NA,"{""feedback"":"""",""age"":""23"",""gender"":""Female"",""other_gender"":"""",""race"":""White"",""other_race"":"""",""ethnicity"":""Non-Hispanic""}",NA,"exit_survey",NA,NA,NA,NA,NA,NA,NA,NA,NA,NA,NA,NA,NA,NA,NA,NA,"23","Non-Hispanic","Female","White","0.6597222222222222","0.6597222222222222","40261lwouf"
"28",NA,NA,NA,NA,NA,"survey-html-form","318","590808","0.0-293.0","5ddeed7ba4aa26f9afcd1ef6","665500ab8938657b03fbdba8","665798f551cf2402886e651e","38062",NA,"{""feedback"":"""",""age"":""57"",""gender"":""Female"",""other_gender"":"""",""race"":""White"",""other_race"":"""",""ethnicity"":""Non-Hispanic""}",NA,"exit_survey",NA,NA,NA,NA,NA,NA,NA,NA,NA,NA,NA,NA,NA,NA,NA,NA,"57","Non-Hispanic","Female","White","0.5694444444444444","0.5694444444444444","4h0f2pmrt7"
"29",NA,NA,NA,NA,NA,"survey-html-form","318","433593","0.0-293.0","63b6dab91b4487aede17f891","665500ab8938657b03fbdba8","665780e1690d595920a69f74","28940",NA,"{""feedback"":""I was trying to find any type of pattern."",""age"":""36"",""gender"":""Female"",""other_gender"":"""",""race"":""White"",""other_race"":"""",""ethnicity"":""Non-Hispanic""}",NA,"exit_survey",NA,NA,NA,NA,NA,NA,NA,NA,NA,NA,NA,NA,NA,NA,NA,"I was trying to find any type of pattern.","36","Non-Hispanic","Female","White","0.6180555555555556","0.6180555555555556","4hz6n0deg5"
"30",NA,NA,NA,NA,NA,"survey-html-form","318","685249","0.0-293.0","5f52c941fc18905c7e8f78fd","665500ab8938657b03fbdba8","66577fc991f71cd7317b954e","117020",NA,"{""feedback"":""Whether the other character could see the ball and tried to look for patterns when they could not. "",""age"":""45"",""gender"":""Male"",""other_gender"":"""",""race"":""White"",""other_race"":"""",""ethnicity"":""Non-Hispanic""}",NA,"exit_survey",NA,NA,NA,NA,NA,NA,NA,NA,NA,NA,NA,NA,NA,NA,NA,"Whether the other character could see the ball and tried to look for patterns when they could not.","45","Non-Hispanic","Male","White","0.6458333333333334","0.6458333333333334","4loy07komv"
"31",NA,NA,NA,NA,NA,"survey-html-form","318","491469","0.0-293.0","600dd1ea271cf06201979123","665500ab8938657b03fbdba8","665792264d8acc7211fce09f","38803",NA,"{""feedback"":""Whether or not Sam could see the red ball on their side of the table."",""age"":""24"",""gender"":""Female"",""other_gender"":"""",""race"":""White"",""other_race"":"""",""ethnicity"":""Non-Hispanic""}",NA,"exit_survey",NA,NA,NA,NA,NA,NA,NA,NA,NA,NA,NA,NA,NA,NA,NA,"Whether or not Sam could see the red ball on their side of the table.","24","Non-Hispanic","Female","White","0.6180555555555556","0.6180555555555556","4ou41qfex4"
"32",NA,NA,NA,NA,NA,"survey-html-form","318","474836","0.0-293.0","55ea70c37480920010aa9982","665500ab8938657b03fbdba8","6657933e67794463652049bc","56849",NA,"{""feedback"":""When it was not visible, I considered previous locations of the ball and previous guesses that Sam made."",""age"":""36"",""gender"":""Male"",""other_gender"":"""",""race"":""Black/African American"",""other_race"":"""",""ethnicity"":""Non-Hispanic""}",NA,"exit_survey",NA,NA,NA,NA,NA,NA,NA,NA,NA,NA,NA,NA,NA,NA,NA,"When it was not visible, I considered previous locations of the ball and previous guesses that Sam made.","36","Non-Hispanic","Male","Black/African American","0.6180555555555556","0.6180555555555556","4rxr83424b"
"33",NA,NA,NA,NA,NA,"survey-html-form","318","575723","0.0-293.0","63d3fa0d6c990bc96e11becf","665500ab8938657b03fbdba8","6657928ad1b3a7bd556e1942","33424",NA,"{""feedback"":""I just picked whatever made sense in my head at the time."",""age"":""48"",""gender"":""Male"",""other_gender"":"""",""race"":""White"",""other_race"":"""",""ethnicity"":""Non-Hispanic""}",NA,"exit_survey",NA,NA,NA,NA,NA,NA,NA,NA,NA,NA,NA,NA,NA,NA,NA,"I just picked whatever made sense in my head at the time.","48","Non-Hispanic","Male","White","0.6319444444444444","0.6319444444444444","4vqkfplraz"
"34",NA,NA,NA,NA,NA,"survey-html-form","318","588678","0.0-293.0","5ddd730ffce606ce31a105d4","665500ab8938657b03fbdba8","66577eb72bdbeda21619f2f1","73382",NA,"{""feedback"":""mostly I just went with what I felt or what was logical"",""age"":""42"",""gender"":""Female"",""other_gender"":"""",""race"":""White"",""other_race"":"""",""ethnicity"":""Non-Hispanic""}",NA,"exit_survey",NA,NA,NA,NA,NA,NA,NA,NA,NA,NA,NA,NA,NA,NA,NA,"mostly I just went with what I felt or what was logical","42","Non-Hispanic","Female","White","0.6597222222222222","0.6597222222222222","51gfkdoeq9"
"35",NA,NA,NA,NA,NA,"survey-html-form","318","508779","0.0-293.0","611bed11fa6a3b35c9226c29","665500ab8938657b03fbdba8","6657924a1bed3a3a59b99006","26298",NA,"{""feedback"":""Guessed"",""age"":""68"",""gender"":""Male"",""other_gender"":"""",""race"":""White"",""other_race"":"""",""ethnicity"":""Non-Hispanic""}",NA,"exit_survey",NA,NA,NA,NA,NA,NA,NA,NA,NA,NA,NA,NA,NA,NA,NA,"Guessed","68","Non-Hispanic","Male","White","0.5416666666666666","0.5416666666666666","55edgn21x6"
"36",NA,NA,NA,NA,NA,"survey-html-form","318","501761","0.0-293.0","5e6982499d7ba9245e58262a","665500ab8938657b03fbdba8","665792de4aff42002d7d08de","93976",NA,"{""feedback"":""I tried to find patterns in his selections, but mostly I just went with my gut instinct and tried not to overthink my choices too much. I was obviously striving for accuracy, but I tried not to stress too much about it because anxiety can affect my cognition at times if I get flustered."",""age"":""43"",""gender"":""Male"",""other_gender"":"""",""race"":""White"",""other_race"":""""}",NA,"exit_survey",NA,NA,NA,NA,NA,NA,NA,NA,NA,NA,NA,NA,NA,NA,NA,"I tried to find patterns in his selections, but mostly I just went with my gut instinct and tried not to overthink my choices too much. I was obviously striving for accuracy, but I tried not to stress too much about it because anxiety can affect my cognition at times if I get flustered.","43",NA,"Male","White","0.6111111111111112","0.6111111111111112","5bukuggdjh"
"37",NA,NA,NA,NA,NA,"survey-html-form","318","342535","0.0-293.0","632f09dfbcfe2edefdae1447","665500ab8938657b03fbdba8","6657962aaefcd1f383a6a4f4","8918",NA,"{""feedback"":"""",""age"":""32"",""gender"":""Male"",""other_gender"":"""",""race"":""Asian"",""other_race"":"""",""ethnicity"":""Non-Hispanic""}",NA,"exit_survey",NA,NA,NA,NA,NA,NA,NA,NA,NA,NA,NA,NA,NA,NA,NA,NA,"32","Non-Hispanic","Male","Asian","0.7222222222222222","0.7222222222222222","5cr1mksuu1"
"38",NA,NA,NA,NA,NA,"survey-html-form","318","522689","0.0-293.0","631b485e2d1909111a6fb09a","665500ab8938657b03fbdba8","665792a26003e3601401a61d","13733",NA,"{""feedback"":""Nothing I can think of"",""age"":""33"",""gender"":""Male"",""other_gender"":"""",""race"":""White"",""other_race"":"""",""ethnicity"":""Non-Hispanic""}",NA,"exit_survey",NA,NA,NA,NA,NA,NA,NA,NA,NA,NA,NA,NA,NA,NA,NA,"Nothing I can think of","33","Non-Hispanic","Male","White","0.6388888888888888","0.6388888888888888","5do8am51a1"
"39",NA,NA,NA,NA,NA,"survey-html-form","318","961050","0.0-293.0","5c7afb18de6f7900150c33d2","665500ab8938657b03fbdba8","665777ec28b10312e5570265","109628",NA,"{""feedback"":""If he could see it I chose that one. I he couldn't see the ball in one I chose One of the others at random\n"",""age"":""71"",""gender"":""Male"",""other_gender"":"""",""race"":""White"",""other_race"":"""",""ethnicity"":""Non-Hispanic""}",NA,"exit_survey",NA,NA,NA,NA,NA,NA,NA,NA,NA,NA,NA,NA,NA,NA,NA,"If he could see it I chose that one. I he couldn't see the ball in one I chose One of the others at random
","71","Non-Hispanic","Male","White","0.6458333333333334","0.6458333333333334","64579q55hc"
"40",NA,NA,NA,NA,NA,"survey-html-form","318","473626","0.0-293.0","5c2eb9c30091e40001cba678","665500ab8938657b03fbdba8","66579232bd3c48cab369b629","52324",NA,"{""feedback"":""I noticed there was a pattern mid-way through the experiment and it helped predict where Sam would pick the ball. "",""age"":""43"",""gender"":""Female"",""other_gender"":"""",""race"":""Black/African American"",""other_race"":"""",""ethnicity"":""Non-Hispanic""}",NA,"exit_survey",NA,NA,NA,NA,NA,NA,NA,NA,NA,NA,NA,NA,NA,NA,NA,"I noticed there was a pattern mid-way through the experiment and it helped predict where Sam would pick the ball.","43","Non-Hispanic","Female","Black/African American","0.6597222222222222","0.6597222222222222","64m3cuuytf"
"41",NA,NA,NA,NA,NA,"survey-html-form","318","454285","0.0-293.0","5608a73fd7def20012b7389d","665500ab8938657b03fbdba8","665792984271bb527e6e63cf","18698",NA,"{""feedback"":""I tried to see the scene from his perspective"",""age"":""36"",""gender"":""Male"",""other_gender"":"""",""race"":""White"",""other_race"":"""",""ethnicity"":""Non-Hispanic""}",NA,"exit_survey",NA,NA,NA,NA,NA,NA,NA,NA,NA,NA,NA,NA,NA,NA,NA,"I tried to see the scene from his perspective","36","Non-Hispanic","Male","White","0.5902777777777778","0.5902777777777778","6ys0488g84"
"42",NA,NA,NA,NA,NA,"survey-html-form","318","439430","0.0-293.0","627286792f25495f123cc27b","665500ab8938657b03fbdba8","66579cba74a8e5165543cb6c","53491",NA,"{""feedback"":""If sam could see the red ball and I could not"",""age"":""45"",""gender"":""Male"",""other_gender"":"""",""race"":""White"",""other_race"":"""",""ethnicity"":""Hispanic""}",NA,"exit_survey",NA,NA,NA,NA,NA,NA,NA,NA,NA,NA,NA,NA,NA,NA,NA,"If sam could see the red ball and I could not","45","Hispanic","Male","White","0.6180555555555556","0.6180555555555556","743ot770au"
"43",NA,NA,NA,NA,NA,"survey-html-form","318","443694","0.0-293.0","609122350e5b8e743ab41f79","665500ab8938657b03fbdba8","665792a2bdb62dda81c08d8b","69601",NA,"{""feedback"":""I looked at whether the ball was visible to Sam first. Then I looked at what baskets were visible to Sam. Then I looked at how many times he selected a specific basket when no baskets were visible."",""age"":""41"",""gender"":""Female"",""other_gender"":"""",""race"":""White"",""other_race"":"""",""ethnicity"":""Non-Hispanic""}",NA,"exit_survey",NA,NA,NA,NA,NA,NA,NA,NA,NA,NA,NA,NA,NA,NA,NA,"I looked at whether the ball was visible to Sam first. Then I looked at what baskets were visible to Sam. Then I looked at how many times he selected a specific basket when no baskets were visible.","41","Non-Hispanic","Female","White","0.7013888888888888","0.7013888888888888","76lclkzhqj"
"44",NA,NA,NA,NA,NA,"survey-html-form","318","311553","0.0-293.0","5cb183d0bde8cf00179e42d5","665500ab8938657b03fbdba8","665776ab3237019115442965","26298",NA,"{""feedback"":""Just going with the flow."",""age"":""26"",""gender"":""Female"",""other_gender"":"""",""race"":""Multiracial"",""other_race"":"""",""ethnicity"":""Non-Hispanic""}",NA,"exit_survey",NA,NA,NA,NA,NA,NA,NA,NA,NA,NA,NA,NA,NA,NA,NA,"Just going with the flow.","26","Non-Hispanic","Female","Multiracial","0.6388888888888888","0.6388888888888888","7bmmn65zkg"
"45",NA,NA,NA,NA,NA,"survey-html-form","318","392808","0.0-293.0","5bc0cded8b8bfe000105ea82","665500ab8938657b03fbdba8","66579326c24bcd454bfb28ba","26881",NA,"{""feedback"":""I only relied on what I could actually see. The rest was simply just guessing."",""age"":""38"",""gender"":""Male"",""other_gender"":"""",""race"":""White"",""other_race"":"""",""ethnicity"":""Non-Hispanic""}",NA,"exit_survey",NA,NA,NA,NA,NA,NA,NA,NA,NA,NA,NA,NA,NA,NA,NA,"I only relied on what I could actually see. The rest was simply just guessing.","38","Non-Hispanic","Male","White","0.5486111111111112","0.5486111111111112","7dx6wla8m9"
"46",NA,NA,NA,NA,NA,"survey-html-form","318","703707","0.0-293.0","605ff0746397c26c436b88af","665500ab8938657b03fbdba8","665792e72c1e99aa0a212090","25718",NA,"{""feedback"":""what sam can see and guess"",""age"":""34"",""gender"":""Female"",""other_gender"":"""",""race"":""Asian"",""other_race"":"""",""ethnicity"":""Non-Hispanic""}",NA,"exit_survey",NA,NA,NA,NA,NA,NA,NA,NA,NA,NA,NA,NA,NA,NA,NA,"what sam can see and guess","34","Non-Hispanic","Female","Asian","0.7083333333333334","0.7083333333333334","7eatx9dbhg"
"47",NA,NA,NA,NA,NA,"survey-html-form","318","368382","0.0-293.0","60fcb7afde5ab78707e377d6","665500ab8938657b03fbdba8","665781e88ba415969ed7af44","19377",NA,"{""feedback"":""Whether or not Sam could see the ball"",""age"":""25"",""gender"":""Female"",""other_gender"":"""",""race"":""White"",""other_race"":"""",""ethnicity"":""Non-Hispanic""}",NA,"exit_survey",NA,NA,NA,NA,NA,NA,NA,NA,NA,NA,NA,NA,NA,NA,NA,"Whether or not Sam could see the ball","25","Non-Hispanic","Female","White","0.6527777777777778","0.6527777777777778","7u64j68gv4"
"48",NA,NA,NA,NA,NA,"survey-html-form","318","370534","0.0-293.0","5c92aa671ce0cd00128c6c86","665500ab8938657b03fbdba8","665792ac3431f6ebb88869f4","23928",NA,"{""feedback"":""I looked at what sam and I could both see and then made a decision based on that. "",""age"":""34"",""gender"":""Male"",""other_gender"":"""",""race"":""White"",""other_race"":"""",""ethnicity"":""Non-Hispanic""}",NA,"exit_survey",NA,NA,NA,NA,NA,NA,NA,NA,NA,NA,NA,NA,NA,NA,NA,"I looked at what sam and I could both see and then made a decision based on that.","34","Non-Hispanic","Male","White","0.6180555555555556","0.6180555555555556","7v4bf755eh"
"49",NA,NA,NA,NA,NA,"survey-html-form","318","511488","0.0-293.0","5f4849042648171ef6c2cdf8","665500ab8938657b03fbdba8","66577b9bee3c561ea2f98543","38369",NA,"{""feedback"":""If Sam could see the ball or not. It didn't matter if I could, but it did matter if he could"",""age"":""31"",""gender"":""Non-binary"",""other_gender"":"""",""race"":""Black/African American"",""other_race"":"""",""ethnicity"":""Non-Hispanic""}",NA,"exit_survey",NA,NA,NA,NA,NA,NA,NA,NA,NA,NA,NA,NA,NA,NA,NA,"If Sam could see the ball or not. It didn't matter if I could, but it did matter if he could","31","Non-Hispanic","Non-binary","Black/African American","0.6041666666666666","0.6041666666666666","7ygozqsbju"
"50",NA,NA,NA,NA,NA,"survey-html-form","318","412719","0.0-293.0","5f121091e95fdc03b5e897d0","665500ab8938657b03fbdba8","6657923503892b97df880ae4","36910",NA,"{""feedback"":""just what i thought i would pick if i was sam"",""age"":""30"",""gender"":""Female"",""other_gender"":"""",""race"":""White"",""other_race"":"""",""ethnicity"":""Non-Hispanic""}",NA,"exit_survey",NA,NA,NA,NA,NA,NA,NA,NA,NA,NA,NA,NA,NA,NA,NA,"just what i thought i would pick if i was sam","30","Non-Hispanic","Female","White","0.6388888888888888","0.6388888888888888","80f19hbm51"
"51",NA,NA,NA,NA,NA,"survey-html-form","318","654838","0.0-293.0","650fab251b0fd30bfabbedb3","665500ab8938657b03fbdba8","66579798a720deef8acb15bb","51796",NA,"{""feedback"":""I just tried to imagine I was Sam and then notice his patterns for picking (if there were any)."",""age"":""39"",""gender"":""Female"",""other_gender"":"""",""race"":""Black/African American"",""other_race"":"""",""ethnicity"":""Non-Hispanic""}",NA,"exit_survey",NA,NA,NA,NA,NA,NA,NA,NA,NA,NA,NA,NA,NA,NA,NA,"I just tried to imagine I was Sam and then notice his patterns for picking (if there were any).","39","Non-Hispanic","Female","Black/African American","0.6666666666666666","0.6666666666666666","84hzchkpuv"
"52",NA,NA,NA,NA,NA,"survey-html-form","318","799548","0.0-293.0","651090beae417ded35c4ef2f","665500ab8938657b03fbdba8","6657929c681befa75ce9a0f7","27664",NA,"{""feedback"":""Just guessing mostely"",""age"":""72"",""gender"":""Female"",""other_gender"":"""",""race"":""White"",""other_race"":"""",""ethnicity"":""Non-Hispanic""}",NA,"exit_survey",NA,NA,NA,NA,NA,NA,NA,NA,NA,NA,NA,NA,NA,NA,NA,"Just guessing mostely","72","Non-Hispanic","Female","White","0.6180555555555556","0.6180555555555556","856lqplz87"
"53",NA,NA,NA,NA,NA,"survey-html-form","318","420756","0.0-293.0","5fc8a956800c80232e0b7a32","665500ab8938657b03fbdba8","66579243430fdfc33377c83a","49627",NA,"{""feedback"":""I just guessed on the trials where I couldn't see where the ball was, and then tried to imagine myself as Sam, and chose the one I felt was correct."",""age"":""29"",""gender"":""Female"",""other_gender"":"""",""race"":""Asian"",""other_race"":"""",""ethnicity"":""Non-Hispanic""}",NA,"exit_survey",NA,NA,NA,NA,NA,NA,NA,NA,NA,NA,NA,NA,NA,NA,NA,"I just guessed on the trials where I couldn't see where the ball was, and then tried to imagine myself as Sam, and chose the one I felt was correct.","29","Non-Hispanic","Female","Asian","0.6597222222222222","0.6597222222222222","8fv0yzgrcr"
"54",NA,NA,NA,NA,NA,"survey-html-form","318","641125","0.0-293.0","61003bb158741c6a1d79903b","665500ab8938657b03fbdba8","6657932507def77763fb3f0f","29673",NA,"{""feedback"":""no"",""age"":""50"",""gender"":""Female"",""other_gender"":"""",""race"":""Asian"",""other_race"":"""",""ethnicity"":""Non-Hispanic""}",NA,"exit_survey",NA,NA,NA,NA,NA,NA,NA,NA,NA,NA,NA,NA,NA,NA,NA,"no","50","Non-Hispanic","Female","Asian","0.5416666666666666","0.5416666666666666","8hay8dky6p"
"55",NA,NA,NA,NA,NA,"survey-html-form","318","744612","0.0-293.0","62749fbd70a9fa9d1450f775","665500ab8938657b03fbdba8","66577e791f5820de30e93a65","110278",NA,"{""feedback"":""I guess he would pick middle or left when he had to guess. I lean towards more of middle bias."",""age"":""43"",""gender"":""Male"",""other_gender"":"""",""race"":""Asian"",""other_race"":"""",""ethnicity"":""Non-Hispanic""}",NA,"exit_survey",NA,NA,NA,NA,NA,NA,NA,NA,NA,NA,NA,NA,NA,NA,NA,"I guess he would pick middle or left when he had to guess. I lean towards more of middle bias.","43","Non-Hispanic","Male","Asian","0.6597222222222222","0.6597222222222222","8kecudf4xd"
"56",NA,NA,NA,NA,NA,"survey-html-form","318","358932","0.0-293.0","5d2df745da13f60018d14b64","665500ab8938657b03fbdba8","665792df916558ed86d82a6d","47056",NA,"{""feedback"":""Most of the time I tried to see if I knew where the ball was and then if Sam knew where the ball was and then I'd have to make a decision. It seemed like the center was a good bet if he had to guess but I wasn't completely sold on that."",""age"":""41"",""gender"":""Male"",""other_gender"":"""",""race"":""White"",""other_race"":"""",""ethnicity"":""Non-Hispanic""}",NA,"exit_survey",NA,NA,NA,NA,NA,NA,NA,NA,NA,NA,NA,NA,NA,NA,NA,"Most of the time I tried to see if I knew where the ball was and then if Sam knew where the ball was and then I'd have to make a decision. It seemed like the center was a good bet if he had to guess but I wasn't completely sold on that.","41","Non-Hispanic","Male","White","0.625","0.625","8qdsbdk6bg"
"57",NA,NA,NA,NA,NA,"survey-html-form","318","553782","0.0-293.0","643d681fb11898ee6b771ccf","665500ab8938657b03fbdba8","66579296c69c7faa76e73c80","42383",NA,"{""feedback"":""If it was clear by process of elimination I chose that one if I did not know I selected the middle option."",""age"":""50"",""gender"":""Female"",""other_gender"":"""",""race"":""White"",""other_race"":"""",""ethnicity"":""Non-Hispanic""}",NA,"exit_survey",NA,NA,NA,NA,NA,NA,NA,NA,NA,NA,NA,NA,NA,NA,NA,"If it was clear by process of elimination I chose that one if I did not know I selected the middle option.","50","Non-Hispanic","Female","White","0.6875","0.6875","8rmnkuu8bq"
"58",NA,NA,NA,NA,NA,"survey-html-form","318","596755","0.0-293.0","63e52483a88355a3a0ac62c5","665500ab8938657b03fbdba8","66579244ec2b45982c0cd3ef","19246",NA,"{""feedback"":"""",""age"":""35"",""gender"":""Male"",""other_gender"":"""",""race"":""White"",""other_race"":"""",""ethnicity"":""Non-Hispanic""}",NA,"exit_survey",NA,NA,NA,NA,NA,NA,NA,NA,NA,NA,NA,NA,NA,NA,NA,NA,"35","Non-Hispanic","Male","White","0.5555555555555556","0.5555555555555556","8y5xbj8mts"
"59",NA,NA,NA,NA,NA,"survey-html-form","318","580817","0.0-293.0","63d7e70fd618cbdb3e2f3aa7","665500ab8938657b03fbdba8","665792c184cedbe2cba480c9","56553",NA,"{""feedback"":""Mostly what Sam was able to see, but then partially just based on what I could see as well if I still didn't know what to pick for Sam."",""age"":""38"",""gender"":""Female"",""other_gender"":"""",""race"":""White"",""other_race"":"""",""ethnicity"":""Non-Hispanic""}",NA,"exit_survey",NA,NA,NA,NA,NA,NA,NA,NA,NA,NA,NA,NA,NA,NA,NA,"Mostly what Sam was able to see, but then partially just based on what I could see as well if I still didn't know what to pick for Sam.","38","Non-Hispanic","Female","White","0.6875","0.6875","91p99hx9lc"
"60",NA,NA,NA,NA,NA,"survey-html-form","318","626399","0.0-293.0","5f4ad685a1429a13599bfb44","665500ab8938657b03fbdba8","66578162abdbd8f259109dca","11613",NA,"{""feedback"":"""",""age"":""51"",""gender"":""Female"",""other_gender"":"""",""race"":""White"",""other_race"":"""",""ethnicity"":""Non-Hispanic""}",NA,"exit_survey",NA,NA,NA,NA,NA,NA,NA,NA,NA,NA,NA,NA,NA,NA,NA,NA,"51","Non-Hispanic","Female","White","0.5555555555555556","0.5555555555555556","97agweyv33"
"61",NA,NA,NA,NA,NA,"survey-html-form","318","413936","0.0-293.0","60ff7c8f4f066ccf6fe05587","665500ab8938657b03fbdba8","66579222a720deef8acb14c3","9606",NA,"{""feedback"":"""",""age"":""27"",""gender"":""Female"",""other_gender"":"""",""race"":""White"",""other_race"":"""",""ethnicity"":""Non-Hispanic""}",NA,"exit_survey",NA,NA,NA,NA,NA,NA,NA,NA,NA,NA,NA,NA,NA,NA,NA,NA,"27","Non-Hispanic","Female","White","0.6597222222222222","0.6597222222222222","97xnkvdffn"
"62",NA,NA,NA,NA,NA,"survey-html-form","318","536541","0.0-293.0","644a9d92849b27eb99202a91","665500ab8938657b03fbdba8","66579296ecd7a80314f5fd46","43752",NA,"{""feedback"":""I could see the ones that he say, I don't really know the other factors other than maybe intuition"",""age"":""56"",""gender"":""Female"",""other_gender"":"""",""other_race"":"""",""ethnicity"":""Non-Hispanic""}",NA,"exit_survey",NA,NA,NA,NA,NA,NA,NA,NA,NA,NA,NA,NA,NA,NA,NA,"I could see the ones that he say, I don't really know the other factors other than maybe intuition","56","Non-Hispanic","Female",NA,"0.6180555555555556","0.6180555555555556","9hbdduouz2"
"63",NA,NA,NA,NA,NA,"survey-html-form","318","433639","0.0-293.0","5e80a85916cd8c000ad9cd65","665500ab8938657b03fbdba8","665792db167444180ef3f8ce","55137",NA,"{""feedback"":""I used my intuition to guess which basket Sam would choose. Everything was clear and understood, thank you.  "",""age"":""38"",""gender"":""Male"",""other_gender"":"""",""race"":""White"",""other_race"":"""",""ethnicity"":""Non-Hispanic""}",NA,"exit_survey",NA,NA,NA,NA,NA,NA,NA,NA,NA,NA,NA,NA,NA,NA,NA,"I used my intuition to guess which basket Sam would choose. Everything was clear and understood, thank you.","38","Non-Hispanic","Male","White","0.6319444444444444","0.6319444444444444","9qafy7xh8u"
"64",NA,NA,NA,NA,NA,"survey-html-form","318","820319","0.0-293.0","63fba9e68d9ff349947fece5","665500ab8938657b03fbdba8","665792b2a9bb33a3101cf4f4","76349",NA,"{""feedback"":""Sometimes the square selected did not respond to the arrow keys, it would choose an adjacent square."",""age"":""71"",""gender"":""Male"",""other_gender"":"""",""race"":""White"",""other_race"":"""",""ethnicity"":""Non-Hispanic""}",NA,"exit_survey",NA,NA,NA,NA,NA,NA,NA,NA,NA,NA,NA,NA,NA,NA,NA,"Sometimes the square selected did not respond to the arrow keys, it would choose an adjacent square.","71","Non-Hispanic","Male","White","0.7013888888888888","0.7013888888888888","9r0n3dkdcy"
"65",NA,NA,NA,NA,NA,"survey-html-form","318","586602","0.0-293.0","5d16badb7b0154001a282fdb","665500ab8938657b03fbdba8","6657925495cc9ccd2b0b7bab","105622",NA,"{""feedback"":""Most of the time I just chose the spot the ball was in, and took a guess on the ones where the boxes were covered."",""age"":""69"",""gender"":""Female"",""other_gender"":"""",""race"":""Black/African American"",""other_race"":"""",""ethnicity"":""Non-Hispanic""}",NA,"exit_survey",NA,NA,NA,NA,NA,NA,NA,NA,NA,NA,NA,NA,NA,NA,NA,"Most of the time I just chose the spot the ball was in, and took a guess on the ones where the boxes were covered.","69","Non-Hispanic","Female","Black/African American","0.6180555555555556","0.6180555555555556","9ynn7fnc6t"
"66",NA,NA,NA,NA,NA,"survey-html-form","318","807100","0.0-293.0","64d415333022f743dc10a219","665500ab8938657b03fbdba8","6657925d2bdbeda21619f730","73810",NA,"{""feedback"":""At first I assumed he would go for one on his right since most people are right handed. It became apparent, though, that he went left."",""age"":""61"",""gender"":""Female"",""other_gender"":"""",""race"":""White"",""other_race"":"""",""ethnicity"":""Non-Hispanic""}",NA,"exit_survey",NA,NA,NA,NA,NA,NA,NA,NA,NA,NA,NA,NA,NA,NA,NA,"At first I assumed he would go for one on his right since most people are right handed. It became apparent, though, that he went left.","61","Non-Hispanic","Female","White","0.7361111111111112","0.7361111111111112","af80wh0eq8"
"67",NA,NA,NA,NA,NA,"survey-html-form","318","1016661","0.0-293.0","59d9d9cd8fd07a0001842484","665500ab8938657b03fbdba8","66579cbb3432e912fb494f81","89315",NA,"{""feedback"":""I figured that he had a preference for choosing the outsides when he couldn't see the ball and would usually start with my right then swap to the left side if it was two in a row that were obscured to him but sometimes he would inexplicably go for the middle"",""age"":""30"",""gender"":""Male"",""other_gender"":"""",""race"":""White"",""other_race"":"""",""ethnicity"":""Hispanic""}",NA,"exit_survey",NA,NA,NA,NA,NA,NA,NA,NA,NA,NA,NA,NA,NA,NA,NA,"I figured that he had a preference for choosing the outsides when he couldn't see the ball and would usually start with my right then swap to the left side if it was two in a row that were obscured to him but sometimes he would inexplicably go for the middle","30","Hispanic","Male","White","0.6597222222222222","0.6597222222222222","ag59yxepnc"
"68",NA,NA,NA,NA,NA,"survey-html-form","318","2011071","0.0-293.0","5c39849b19ceb400010c62a1","665500ab8938657b03fbdba8","6657727daefcd1f383a69d27","36176",NA,"{""feedback"":""Whether or not he could see the ball on his end."",""age"":""25"",""gender"":""Female"",""other_gender"":"""",""race"":""Black/African American"",""other_race"":"""",""ethnicity"":""Non-Hispanic""}",NA,"exit_survey",NA,NA,NA,NA,NA,NA,NA,NA,NA,NA,NA,NA,NA,NA,NA,"Whether or not he could see the ball on his end.","25","Non-Hispanic","Female","Black/African American","0.6527777777777778","0.6527777777777778","agxmnmcnmu"
"69",NA,NA,NA,NA,NA,"survey-html-form","318","439186","0.0-293.0","63df06a8c5ac5f3c6bf77e6f","665500ab8938657b03fbdba8","6657929bb651b453ebb03e50","36701",NA,"{""feedback"":""I was influenced when I saw the ball but I don't think Sam always was. "",""age"":""57"",""gender"":""Female"",""other_gender"":"""",""race"":""White"",""other_race"":"""",""ethnicity"":""Non-Hispanic""}",NA,"exit_survey",NA,NA,NA,NA,NA,NA,NA,NA,NA,NA,NA,NA,NA,NA,NA,"I was influenced when I saw the ball but I don't think Sam always was.","57","Non-Hispanic","Female","White","0.6666666666666666","0.6666666666666666","ayk4ahrzk0"
"70",NA,NA,NA,NA,NA,"survey-html-form","318","471326","0.0-293.0","631a9f635762d2b83a53202b","665500ab8938657b03fbdba8","66579266c8835dc947089859","39838",NA,"{""feedback"":""If I couldn't see the ball, then I tended to go with the middle or to the right because those options tended to be pick more likely than the left option."",""age"":""32"",""gender"":""Male"",""other_gender"":"""",""race"":""White"",""other_race"":"""",""ethnicity"":""Non-Hispanic""}",NA,"exit_survey",NA,NA,NA,NA,NA,NA,NA,NA,NA,NA,NA,NA,NA,NA,NA,"If I couldn't see the ball, then I tended to go with the middle or to the right because those options tended to be pick more likely than the left option.","32","Non-Hispanic","Male","White","0.6527777777777778","0.6527777777777778","blzfk7wvx1"
"71",NA,NA,NA,NA,NA,"survey-html-form","318","870145","0.0-293.0","641397a5ea8f5954ad10fceb","665500ab8938657b03fbdba8","665796285d33de58ac3f00ca","159916",NA,"{""feedback"":""It was easier to respond when I could see some, if not all of what Sam could see. Other times I tried to follow a pattern, based on which selection Sam seemed to make more often prior to a selection in which I wasn't able to determine what they would pick based on what I could see. I did make 1 error, believe the answer couldn't be what I chose. "",""age"":""51"",""gender"":""Female"",""other_gender"":"""",""race"":""Black/African American"",""other_race"":"""",""ethnicity"":""Non-Hispanic""}",NA,"exit_survey",NA,NA,NA,NA,NA,NA,NA,NA,NA,NA,NA,NA,NA,NA,NA,"It was easier to respond when I could see some, if not all of what Sam could see. Other times I tried to follow a pattern, based on which selection Sam seemed to make more often prior to a selection in which I wasn't able to determine what they would pick based on what I could see. I did make 1 error, believe the answer couldn't be what I chose.","51","Non-Hispanic","Female","Black/African American","0.6180555555555556","0.6180555555555556","bm2acpufyj"
"72",NA,NA,NA,NA,NA,"survey-html-form","318","638195","0.0-293.0","63b9d3abc3ddc61c8c08fd84","665500ab8938657b03fbdba8","665792a415c43f13423efe2a","37488",NA,"{""feedback"":""It seemed to be in the middle more often than not in the beginning but then it seemed to switch."",""age"":""49"",""gender"":""Female"",""other_gender"":"""",""race"":""White"",""other_race"":"""",""ethnicity"":""Non-Hispanic""}",NA,"exit_survey",NA,NA,NA,NA,NA,NA,NA,NA,NA,NA,NA,NA,NA,NA,NA,"It seemed to be in the middle more often than not in the beginning but then it seemed to switch.","49","Non-Hispanic","Female","White","0.5972222222222222","0.5972222222222222","bnqtczge31"
"73",NA,NA,NA,NA,NA,"survey-html-form","318","1134766","0.0-293.0","63eb82da9758a485a67914a2","665500ab8938657b03fbdba8","6657812f95cc9ccd2b0b77e3","265385",NA,"{""feedback"":""Whenever possible, I would rule out baskets based on whether he (and I) could see if they were empty. If I could see the baskets were and he couldn't, then it was mostly guessing. Sometimes it seemed to have a pattern or repeat same basket choices. so I assumed the same choice would repeat a couple times."",""age"":""40"",""gender"":""Male"",""other_gender"":"""",""race"":""White"",""other_race"":"""",""ethnicity"":""Non-Hispanic""}",NA,"exit_survey",NA,NA,NA,NA,NA,NA,NA,NA,NA,NA,NA,NA,NA,NA,NA,"Whenever possible, I would rule out baskets based on whether he (and I) could see if they were empty. If I could see the baskets were and he couldn't, then it was mostly guessing. Sometimes it seemed to have a pattern or repeat same basket choices. so I assumed the same choice would repeat a couple times.","40","Non-Hispanic","Male","White","0.6527777777777778","0.6527777777777778","bq7pjq64ew"
"74",NA,NA,NA,NA,NA,"survey-html-form","318","350636","0.0-293.0","6405feae7d6321bfaaf793e8","665500ab8938657b03fbdba8","665797524d8acc7211fce1d4","25804",NA,"{""feedback"":""I just determined whether he could see the ball or not. Otherwise I just had to guess. "",""age"":""35"",""gender"":""Female"",""other_gender"":"""",""race"":""White"",""other_race"":"""",""ethnicity"":""Non-Hispanic""}",NA,"exit_survey",NA,NA,NA,NA,NA,NA,NA,NA,NA,NA,NA,NA,NA,NA,NA,"I just determined whether he could see the ball or not. Otherwise I just had to guess.","35","Non-Hispanic","Female","White","0.6736111111111112","0.6736111111111112","d067wozwnf"
"75",NA,NA,NA,NA,NA,"survey-html-form","318","558400","0.0-293.0","611994820071da2beee434ea","665500ab8938657b03fbdba8","6657783451cf2402886e5d7e","58862",NA,"{""feedback"":""I was sometimes distracted by if I knew where the ball was \nIf he could see inside the basket\nIf my view and his view of the baskets were blocked\nA pattern of where he would usually look"",""age"":""26"",""gender"":""Female"",""other_gender"":"""",""race"":""White"",""other_race"":"""",""ethnicity"":""Non-Hispanic""}",NA,"exit_survey",NA,NA,NA,NA,NA,NA,NA,NA,NA,NA,NA,NA,NA,NA,NA,"I was sometimes distracted by if I knew where the ball was 
If he could see inside the basket
If my view and his view of the baskets were blocked
A pattern of where he would usually look","26","Non-Hispanic","Female","White","0.5972222222222222","0.5972222222222222","d4b254ldwb"
"76",NA,NA,NA,NA,NA,"survey-html-form","318","363387","0.0-293.0","5c2dea19d396500001e2b39d","665500ab8938657b03fbdba8","6657928a4bef0a0d27ea5a93","22244",NA,"{""feedback"":""I just made educated guesses"",""age"":""30"",""gender"":""Female"",""other_gender"":"""",""race"":""White"",""other_race"":"""",""ethnicity"":""Non-Hispanic""}",NA,"exit_survey",NA,NA,NA,NA,NA,NA,NA,NA,NA,NA,NA,NA,NA,NA,NA,"I just made educated guesses","30","Non-Hispanic","Female","White","0.6388888888888888","0.6388888888888888","d5tbvyq57z"
"77",NA,NA,NA,NA,NA,"survey-html-form","318","891699","0.0-293.0","6296295f57c07906c9052955","665500ab8938657b03fbdba8","665792f49f0317b2cba47e94","31028",NA,"{""feedback"":""IF I thought he could see it, I tried to quickly determine if he could or couldn't see 1 or 2 of the balls to rule some out "",""age"":""37"",""gender"":""Male"",""other_gender"":"""",""race"":""White"",""other_race"":"""",""ethnicity"":""Non-Hispanic""}",NA,"exit_survey",NA,NA,NA,NA,NA,NA,NA,NA,NA,NA,NA,NA,NA,NA,NA,"IF I thought he could see it, I tried to quickly determine if he could or couldn't see 1 or 2 of the balls to rule some out","37","Non-Hispanic","Male","White","0.6180555555555556","0.6180555555555556","d8acqgzedu"
"78",NA,NA,NA,NA,NA,"survey-html-form","318","301305","0.0-293.0","612bb0cdecc9e45781bbf511","665500ab8938657b03fbdba8","6657927a04f7a32c8a3aad71","17200",NA,"{""feedback"":""No additional comments. Thanks!"",""age"":""53"",""gender"":""Male"",""other_gender"":"""",""race"":""White"",""other_race"":"""",""ethnicity"":""Non-Hispanic""}",NA,"exit_survey",NA,NA,NA,NA,NA,NA,NA,NA,NA,NA,NA,NA,NA,NA,NA,"No additional comments. Thanks!","53","Non-Hispanic","Male","White","0.6180555555555556","0.6180555555555556","e16runqyy2"
"79",NA,NA,NA,NA,NA,"survey-html-form","318","924783","0.0-293.0","63fd36ced691b83466652931","665500ab8938657b03fbdba8","6657826cf8e33e4325fa37d9","105338",NA,"{""feedback"":""Influencing factors included which baskets Tom could see and how likely it was that Tom could see the ball, even if I could not."",""age"":""57"",""gender"":""Male"",""other_gender"":"""",""race"":""White"",""other_race"":"""",""ethnicity"":""Non-Hispanic""}",NA,"exit_survey",NA,NA,NA,NA,NA,NA,NA,NA,NA,NA,NA,NA,NA,NA,NA,"Influencing factors included which baskets Tom could see and how likely it was that Tom could see the ball, even if I could not.","57","Non-Hispanic","Male","White","0.6111111111111112","0.6111111111111112","e933qmtyl5"
"80",NA,NA,NA,NA,NA,"survey-html-form","318","554513","0.0-293.0","62d44d484a28cd313e2c3ba4","665500ab8938657b03fbdba8","66577c451650a5472427efff","76448",NA,"{""feedback"":""If it was visible to both of us, I knew he'd pick the basket with the ball. If he could see two empty baskets, I knew he'd pick the third. sometimes I just had to guess."",""age"":""54"",""gender"":""Female"",""other_gender"":"""",""race"":""White"",""other_race"":"""",""ethnicity"":""Non-Hispanic""}",NA,"exit_survey",NA,NA,NA,NA,NA,NA,NA,NA,NA,NA,NA,NA,NA,NA,NA,"If it was visible to both of us, I knew he'd pick the basket with the ball. If he could see two empty baskets, I knew he'd pick the third. sometimes I just had to guess.","54","Non-Hispanic","Female","White","0.6666666666666666","0.6666666666666666","ecu7re5y35"
"81",NA,NA,NA,NA,NA,"survey-html-form","318","695880","0.0-293.0","607f7f18d84d010ea2cd8664","665500ab8938657b03fbdba8","665792f03dafe137eff134bd","48426",NA,"{""feedback"":""I chose what felt right and if I knew for sure which basket he would pick."",""age"":""24"",""gender"":""Female"",""other_gender"":"""",""race"":""Multiracial"",""other_race"":"""",""ethnicity"":""Non-Hispanic""}",NA,"exit_survey",NA,NA,NA,NA,NA,NA,NA,NA,NA,NA,NA,NA,NA,NA,NA,"I chose what felt right and if I knew for sure which basket he would pick.","24","Non-Hispanic","Female","Multiracial","0.6319444444444444","0.6319444444444444","ee95cyme2s"
"82",NA,NA,NA,NA,NA,"survey-html-form","318","304635","0.0-293.0","56f59251736c79000c2241f7","665500ab8938657b03fbdba8","66578117af275b30715fdc22","7341",NA,"{""feedback"":"""",""age"":""34"",""gender"":""Male"",""other_gender"":"""",""race"":""White"",""other_race"":"""",""ethnicity"":""Non-Hispanic""}",NA,"exit_survey",NA,NA,NA,NA,NA,NA,NA,NA,NA,NA,NA,NA,NA,NA,NA,NA,"34","Non-Hispanic","Male","White","0.6388888888888888","0.6388888888888888","egbl3t7d1r"
"83",NA,NA,NA,NA,NA,"survey-html-form","318","650567","0.0-293.0","63ff85248ee53feba08a05fe","665500ab8938657b03fbdba8","665782883ef13a0328c34118","95032",NA,"{""feedback"":""Can Sam see the ball? Can he deduce which basket? Is there anything from Sam's perspective that would let him know where the red ball was?"",""age"":""18"",""gender"":""Male"",""other_gender"":"""",""race"":""White"",""other_race"":"""",""ethnicity"":""Non-Hispanic""}",NA,"exit_survey",NA,NA,NA,NA,NA,NA,NA,NA,NA,NA,NA,NA,NA,NA,NA,"Can Sam see the ball? Can he deduce which basket? Is there anything from Sam's perspective that would let him know where the red ball was?","18","Non-Hispanic","Male","White","0.6666666666666666","0.6666666666666666","egpa8jvvup"
"84",NA,NA,NA,NA,NA,"survey-html-form","318","734863","0.0-293.0","607c9f94cc974d4ea1dc22c8","665500ab8938657b03fbdba8","665792952c1e99aa0a21207e","126913",NA,"{""feedback"":""I selected basked where both I and the character could see the ball in a basket. Where I could see the ball but he could not I just guessed. Where he could see the ball but I could not I just guessed."",""age"":""67"",""gender"":""Male"",""other_gender"":"""",""race"":""White"",""other_race"":"""",""ethnicity"":""Non-Hispanic""}",NA,"exit_survey",NA,NA,NA,NA,NA,NA,NA,NA,NA,NA,NA,NA,NA,NA,NA,"I selected basked where both I and the character could see the ball in a basket. Where I could see the ball but he could not I just guessed. Where he could see the ball but I could not I just guessed.","67","Non-Hispanic","Male","White","0.5902777777777778","0.5902777777777778","eq6521xnmh"
"85",NA,NA,NA,NA,NA,"survey-html-form","318","292236","0.0-293.0","6298f0e21abd78cb684b723c","665500ab8938657b03fbdba8","665792b8c62b427c88187e04","52276",NA,"{""feedback"":""I looked at which baskets were visible by Sam and then whether or not I could see the ball put that info together and narrowed it down as much as possible."",""age"":""46"",""gender"":""Male"",""other_gender"":"""",""race"":""White"",""other_race"":"""",""ethnicity"":""Non-Hispanic""}",NA,"exit_survey",NA,NA,NA,NA,NA,NA,NA,NA,NA,NA,NA,NA,NA,NA,NA,"I looked at which baskets were visible by Sam and then whether or not I could see the ball put that info together and narrowed it down as much as possible.","46","Non-Hispanic","Male","White","0.6805555555555556","0.6805555555555556","erbdtf8zht"
"86",NA,NA,NA,NA,NA,"survey-html-form","318","543347","0.0-293.0","60d099f849987e86824eedcd","665500ab8938657b03fbdba8","66579297fdeeec2309284392","41991",NA,"{""feedback"":""I had to stay focus on the ones that were obvious and the rest is guessing"",""age"":""33"",""gender"":""Female"",""other_gender"":"""",""race"":""White"",""other_race"":"""",""ethnicity"":""Hispanic""}",NA,"exit_survey",NA,NA,NA,NA,NA,NA,NA,NA,NA,NA,NA,NA,NA,NA,NA,"I had to stay focus on the ones that were obvious and the rest is guessing","33","Hispanic","Female","White","0.6180555555555556","0.6180555555555556","evjvu1d958"
"87",NA,NA,NA,NA,NA,"survey-html-form","318","402893","0.0-293.0","6521ab1c4a2ffd6c21a3b662","665500ab8938657b03fbdba8","665792886c9e170b805a4e5e","24741",NA,"{""feedback"":""I just used my best judgement."",""age"":""24"",""gender"":""Female"",""other_gender"":"""",""race"":""Asian"",""other_race"":"""",""ethnicity"":""Non-Hispanic""}",NA,"exit_survey",NA,NA,NA,NA,NA,NA,NA,NA,NA,NA,NA,NA,NA,NA,NA,"I just used my best judgement.","24","Non-Hispanic","Female","Asian","0.5902777777777778","0.5902777777777778","f4mnmswkt3"
"88",NA,NA,NA,NA,NA,"survey-html-form","318","624668","0.0-293.0","62bd42b72c2ccddf753b655b","665500ab8938657b03fbdba8","665792bef8f30cac8a1cd6d4","44922",NA,"{""feedback"":""Sometimes where i could see it and he couldnt sometimes just random"",""age"":""61"",""gender"":""Female"",""other_gender"":"""",""race"":""White"",""other_race"":"""",""ethnicity"":""Non-Hispanic""}",NA,"exit_survey",NA,NA,NA,NA,NA,NA,NA,NA,NA,NA,NA,NA,NA,NA,NA,"Sometimes where i could see it and he couldnt sometimes just random","61","Non-Hispanic","Female","White","0.5902777777777778","0.5902777777777778","f8vttqh6za"
"89",NA,NA,NA,NA,NA,"survey-html-form","318","527091","0.0-293.0","5cbde499f015c800186299f2","665500ab8938657b03fbdba8","665779ef228463969a5a4922","47192",NA,"{""feedback"":""what he could see vs what I could see, not too many times in a row in the same spot"",""age"":""54"",""gender"":""Female"",""other_gender"":"""",""race"":""White"",""other_race"":"""",""ethnicity"":""Non-Hispanic""}",NA,"exit_survey",NA,NA,NA,NA,NA,NA,NA,NA,NA,NA,NA,NA,NA,NA,NA,"what he could see vs what I could see, not too many times in a row in the same spot","54","Non-Hispanic","Female","White","0.6180555555555556","0.6180555555555556","fdm48s1qmg"
"90",NA,NA,NA,NA,NA,"survey-html-form","345","604409","0.0-293.0","5fcbe82a12a0c80009d6e9cf","665500ab8938657b03fbdba8","665792d91522714ef7571bc4","20648",NA,"{""feedback"":""Try to think what he would choose and not necessarily what I would choose."",""age"":""30"",""gender"":""Male"",""other_gender"":"""",""race"":""White"",""other_race"":"""",""ethnicity"":""Non-Hispanic""}",NA,"exit_survey",NA,NA,NA,NA,NA,NA,NA,NA,NA,NA,NA,NA,NA,NA,NA,"Try to think what he would choose and not necessarily what I would choose.","30","Non-Hispanic","Male","White","0.5833333333333334","0.5833333333333334","fn8uokf3bl"
"91",NA,NA,NA,NA,NA,"survey-html-form","318","640627","0.0-293.0","62865e3456c142785cfad2a7","665500ab8938657b03fbdba8","665792a3ff0ff4d2fa1486df","204382",NA,"{""feedback"":""Well, when it was obvious that Sam could see the ball or see if the ball is not there, I just pick that option to where Sam could obviously guess or see the ball. When it was not obvious, some were randoms/instinct when I nor Sam could not see the ball. If I could see the ball but Sam can't and also can't tell if the ball is there, I tried to pick the best estimated guess.   "",""age"":""31"",""gender"":""Male"",""other_gender"":"""",""race"":""other_race"",""other_race"":""Mexican/Honduran-American"",""ethnicity"":""Hispanic""}",NA,"exit_survey",NA,NA,NA,NA,NA,NA,NA,NA,NA,NA,NA,NA,NA,NA,NA,"Well, when it was obvious that Sam could see the ball or see if the ball is not there, I just pick that option to where Sam could obviously guess or see the ball. When it was not obvious, some were randoms/instinct when I nor Sam could not see the ball. If I could see the ball but Sam can't and also can't tell if the ball is there, I tried to pick the best estimated guess.","31","Hispanic","Male","Mexican/Honduran-American","0.625","0.625","fx7pdy7bga"
"92",NA,NA,NA,NA,NA,"survey-html-form","318","1046848","0.0-293.0","60bae671bf92bf34f7a774ce","665500ab8938657b03fbdba8","66577c39d450c094bccb1bc1","111714",NA,"{""feedback"":""If Sam could see the ball then I definitely selected that option. Or if I could see that two of the baskets were empty I chose the third basket. "",""age"":""70"",""gender"":""Female"",""other_gender"":"""",""race"":""White"",""other_race"":"""",""ethnicity"":""Non-Hispanic""}",NA,"exit_survey",NA,NA,NA,NA,NA,NA,NA,NA,NA,NA,NA,NA,NA,NA,NA,"If Sam could see the ball then I definitely selected that option. Or if I could see that two of the baskets were empty I chose the third basket.","70","Non-Hispanic","Female","White","0.6527777777777778","0.6527777777777778","g049beue1l"
"93",NA,NA,NA,NA,NA,"survey-html-form","318","686580","0.0-293.0","637b04a69794763b20491590","665500ab8938657b03fbdba8","665792636003e3601401a5ff","82307",NA,"{""feedback"":""Position of blinds and Sam's predilictions."",""age"":""57"",""gender"":""Male"",""other_gender"":"""",""race"":""White"",""other_race"":"""",""ethnicity"":""Non-Hispanic""}",NA,"exit_survey",NA,NA,NA,NA,NA,NA,NA,NA,NA,NA,NA,NA,NA,NA,NA,"Position of blinds and Sam's predilictions.","57","Non-Hispanic","Male","White","0.625","0.625","g8p8m4kk8n"
"94",NA,NA,NA,NA,NA,"survey-html-form","318","363671","0.0-293.0","6036f9b3b1842f8b659b18c7","665500ab8938657b03fbdba8","665792af4bef0a0d27ea5a9d","220147",NA,"{""feedback"":""none"",""age"":""30"",""gender"":""Female"",""other_gender"":"""",""race"":""White"",""other_race"":"""",""ethnicity"":""Non-Hispanic""}",NA,"exit_survey",NA,NA,NA,NA,NA,NA,NA,NA,NA,NA,NA,NA,NA,NA,NA,"none","30","Non-Hispanic","Female","White","0.4097222222222222","0.4097222222222222","gr40funhyq"
"95",NA,NA,NA,NA,NA,"survey-html-form","318","475542","0.0-293.0","5d4bed118cbe900016c1f6d0","665500ab8938657b03fbdba8","665792763e86d947fcd8294a","70323",NA,"{""feedback"":""If the red ball wasnt visible I just took a lucky guess."",""age"":""32"",""gender"":""Male"",""other_gender"":"""",""race"":""White"",""other_race"":"""",""ethnicity"":""Non-Hispanic""}",NA,"exit_survey",NA,NA,NA,NA,NA,NA,NA,NA,NA,NA,NA,NA,NA,NA,NA,"If the red ball wasnt visible I just took a lucky guess.","32","Non-Hispanic","Male","White","0.6527777777777778","0.6527777777777778","grxlz7cyag"
"96",NA,NA,NA,NA,NA,"survey-html-form","318","631877","0.0-293.0","568e7f66e3ef9e000ba1a089","665500ab8938657b03fbdba8","665781bc45b1539c53753ed6","20829",NA,"{""feedback"":"""",""age"":""65"",""gender"":""Female"",""other_gender"":"""",""race"":""White"",""other_race"":"""",""ethnicity"":""Non-Hispanic""}",NA,"exit_survey",NA,NA,NA,NA,NA,NA,NA,NA,NA,NA,NA,NA,NA,NA,NA,NA,"65","Non-Hispanic","Female","White","0.6319444444444444","0.6319444444444444","h0ukz1cpno"
"97",NA,NA,NA,NA,NA,"survey-html-form","318","437076","0.0-293.0","59b941556495ef00019fbc80","665500ab8938657b03fbdba8","66579274e2ba9ae37d367759","19752",NA,"{""feedback"":""merely guessing"",""age"":""59"",""gender"":""Female"",""other_gender"":"""",""race"":""American Indian/Alaska Native"",""other_race"":"""",""ethnicity"":""Non-Hispanic""}",NA,"exit_survey",NA,NA,NA,NA,NA,NA,NA,NA,NA,NA,NA,NA,NA,NA,NA,"merely guessing","59","Non-Hispanic","Female","American Indian/Alaska Native","0.6041666666666666","0.6041666666666666","h9o47fqt5n"
"98",NA,NA,NA,NA,NA,"survey-html-form","318","470200","0.0-293.0","559c3ae1fdf99b32b55f2d33","665500ab8938657b03fbdba8","6657925e5b6c4b9ca0995815","40680",NA,"{""feedback"":""I think it was kind of random what they selected when they couldn't know for sure,  so I kind of just followed my intuition and guessed."",""age"":""37"",""gender"":""Male"",""other_gender"":"""",""race"":""White"",""other_race"":"""",""ethnicity"":""Non-Hispanic""}",NA,"exit_survey",NA,NA,NA,NA,NA,NA,NA,NA,NA,NA,NA,NA,NA,NA,NA,"I think it was kind of random what they selected when they couldn't know for sure,  so I kind of just followed my intuition and guessed.","37","Non-Hispanic","Male","White","0.6180555555555556","0.6180555555555556","hgy139n63q"
"99",NA,NA,NA,NA,NA,"survey-html-form","318","604783","0.0-293.0","5ef319f3058d7f0178266918","665500ab8938657b03fbdba8","665792b01efae8fa89b2570c","41819",NA,"{""feedback"":""try to understand the game."",""age"":""49"",""gender"":""Male"",""other_gender"":"""",""race"":""White"",""other_race"":"""",""ethnicity"":""Non-Hispanic""}",NA,"exit_survey",NA,NA,NA,NA,NA,NA,NA,NA,NA,NA,NA,NA,NA,NA,NA,"try to understand the game.","49","Non-Hispanic","Male","White","0.5069444444444444","0.5069444444444444","hha8rgjb0r"
"100",NA,NA,NA,NA,NA,"survey-html-form","318","832348","0.0-293.0","5c720c7278263500015665f9","665500ab8938657b03fbdba8","66577ffeb651b453ebb039e7","113505",NA,"{""feedback"":""The factor was mainly my best guess as to which basket appeared, to Sam, to be the easiest choice or guess where the ball was located. "",""age"":""41"",""gender"":""Male"",""other_gender"":"""",""race"":""White"",""other_race"":"""",""ethnicity"":""Hispanic""}",NA,"exit_survey",NA,NA,NA,NA,NA,NA,NA,NA,NA,NA,NA,NA,NA,NA,NA,"The factor was mainly my best guess as to which basket appeared, to Sam, to be the easiest choice or guess where the ball was located.","41","Hispanic","Male","White","0.6180555555555556","0.6180555555555556","hqjavtszws"
"101",NA,NA,NA,NA,NA,"survey-html-form","318","781149","0.0-293.0","574eab79c18847000e071119","665500ab8938657b03fbdba8","665792eabd7671fa41307595","117595",NA,"{""feedback"":""I tried to respons based on the prior repones he chose. The hardest ones were where neither he or I could see the ball."",""age"":""43"",""gender"":""Female"",""other_gender"":"""",""race"":""Black/African American"",""other_race"":"""",""ethnicity"":""Non-Hispanic""}",NA,"exit_survey",NA,NA,NA,NA,NA,NA,NA,NA,NA,NA,NA,NA,NA,NA,NA,"I tried to respons based on the prior repones he chose. The hardest ones were where neither he or I could see the ball.","43","Non-Hispanic","Female","Black/African American","0.6180555555555556","0.6180555555555556","hqxovghkjx"
"102",NA,NA,NA,NA,NA,"survey-html-form","318","702898","0.0-293.0","559e82dffdf99b7a9a124180","665500ab8938657b03fbdba8","6657926b8e2b4a710cb8a349","52287",NA,"{""feedback"":""I just picked the obvious choice and guessed the ones that were hidden."",""age"":""48"",""gender"":""Female"",""other_gender"":"""",""race"":""White"",""other_race"":"""",""ethnicity"":""Hispanic""}",NA,"exit_survey",NA,NA,NA,NA,NA,NA,NA,NA,NA,NA,NA,NA,NA,NA,NA,"I just picked the obvious choice and guessed the ones that were hidden.","48","Hispanic","Female","White","0.6736111111111112","0.6736111111111112","j042vwocmx"
"103",NA,NA,NA,NA,NA,"survey-html-form","318","636121","0.0-293.0","646619d0918746fb726da63e","665500ab8938657b03fbdba8","6657932c484b21aefc715b2e","21875",NA,"{""feedback"":""Just a guess"",""age"":""61"",""gender"":""Female"",""other_gender"":"""",""race"":""White"",""other_race"":"""",""ethnicity"":""Non-Hispanic""}",NA,"exit_survey",NA,NA,NA,NA,NA,NA,NA,NA,NA,NA,NA,NA,NA,NA,NA,"Just a guess","61","Non-Hispanic","Female","White","0.625","0.625","j0qmrp0rtl"
"104",NA,NA,NA,NA,NA,"survey-html-form","318","552896","0.0-293.0","5dc474fd45b8f933f16d6241","665500ab8938657b03fbdba8","665795f0383316f3613518c6","15117",NA,"{""feedback"":"""",""age"":""34"",""gender"":""Female"",""other_gender"":"""",""race"":""White"",""other_race"":"""",""ethnicity"":""Hispanic""}",NA,"exit_survey",NA,NA,NA,NA,NA,NA,NA,NA,NA,NA,NA,NA,NA,NA,NA,NA,"34","Hispanic","Female","White","0.6180555555555556","0.6180555555555556","j53v868mlc"
"105",NA,NA,NA,NA,NA,"survey-html-form","318","332799","0.0-293.0","5eb342dff78ab11407daf144","665500ab8938657b03fbdba8","66579332f7f57d35afea5b16","11906",NA,"{""feedback"":"""",""age"":""24"",""gender"":""Female"",""other_gender"":"""",""race"":""Asian"",""other_race"":"""",""ethnicity"":""Non-Hispanic""}",NA,"exit_survey",NA,NA,NA,NA,NA,NA,NA,NA,NA,NA,NA,NA,NA,NA,NA,NA,"24","Non-Hispanic","Female","Asian","0.6736111111111112","0.6736111111111112","jl7m0ybrh2"
"106",NA,NA,NA,NA,NA,"survey-html-form","318","729812","0.0-293.0","5ddd54259be183036763f081","665500ab8938657b03fbdba8","665792a799081d55cdd36c18","17677",NA,"{""feedback"":"""",""age"":""37"",""gender"":""Female"",""other_gender"":"""",""race"":""White"",""other_race"":"""",""ethnicity"":""Non-Hispanic""}",NA,"exit_survey",NA,NA,NA,NA,NA,NA,NA,NA,NA,NA,NA,NA,NA,NA,NA,NA,"37","Non-Hispanic","Female","White","0.6388888888888888","0.6388888888888888","jqzwvknojn"
"107",NA,NA,NA,NA,NA,"survey-html-form","318","3663581","0.0-293.0","642700bf265ab07308a02420","665500ab8938657b03fbdba8","6657929aea53e04216ff4831","96400",NA,"{""feedback"":""Whether or not he could see the ball. everything else was a simple guess."",""age"":""56"",""other_gender"":"""",""race"":""Black/African American"",""other_race"":"""",""ethnicity"":""Hispanic""}",NA,"exit_survey",NA,NA,NA,NA,NA,NA,NA,NA,NA,NA,NA,NA,NA,NA,NA,"Whether or not he could see the ball. everything else was a simple guess.","56","Hispanic",NA,"Black/African American","0.6597222222222222","0.6597222222222222","k6yno84ym3"
"108",NA,NA,NA,NA,NA,"survey-html-form","318","786065","0.0-293.0","59d8ae913e5ea00001e1d05f","665500ab8938657b03fbdba8","665793374271bb527e6e63ea","45315",NA,"{""feedback"":""Whether or not he could see the ball."",""age"":""35"",""gender"":""Male"",""other_gender"":"""",""race"":""White"",""other_race"":"""",""ethnicity"":""Non-Hispanic""}",NA,"exit_survey",NA,NA,NA,NA,NA,NA,NA,NA,NA,NA,NA,NA,NA,NA,NA,"Whether or not he could see the ball.","35","Non-Hispanic","Male","White","0.6388888888888888","0.6388888888888888","k80bd47p8e"
"109",NA,NA,NA,NA,NA,"survey-html-form","318","679757","0.0-293.0","55fc2b4377f33b000ecb21ed","665500ab8938657b03fbdba8","66577f56c69c7faa76e7386f","22081",NA,"{""feedback"":""Honestly, went with my gut. I couldn't find a pattern in what Sam decided to pick. So I just trusted my intuition and stuck with it."",""age"":""37"",""gender"":""Male"",""other_gender"":"""",""race"":""White"",""other_race"":"""",""ethnicity"":""Non-Hispanic""}",NA,"exit_survey",NA,NA,NA,NA,NA,NA,NA,NA,NA,NA,NA,NA,NA,NA,NA,"Honestly, went with my gut. I couldn't find a pattern in what Sam decided to pick. So I just trusted my intuition and stuck with it.","37","Non-Hispanic","Male","White","0.5902777777777778","0.5902777777777778","kd174dvcl7"
"110",NA,NA,NA,NA,NA,"survey-html-form","318","442644","0.0-293.0","62bdfe451d380bec13a4a864","665500ab8938657b03fbdba8","665792c23237019115442f9e","48002",NA,"{""feedback"":""I thought about what Sam could see and then took a guess if he couldn't see the right one. I defaulted towards the middle answer. "",""age"":""27"",""gender"":""Female"",""other_gender"":"""",""race"":""White"",""other_race"":"""",""ethnicity"":""Non-Hispanic""}",NA,"exit_survey",NA,NA,NA,NA,NA,NA,NA,NA,NA,NA,NA,NA,NA,NA,NA,"I thought about what Sam could see and then took a guess if he couldn't see the right one. I defaulted towards the middle answer.","27","Non-Hispanic","Female","White","0.6805555555555556","0.6805555555555556","khznfvxnwo"
"111",NA,NA,NA,NA,NA,"survey-html-form","318","743755","0.0-293.0","62162ab583fc823e78c025e2","665500ab8938657b03fbdba8","6657934c430fdfc33377c879","60242",NA,"{""feedback"":""Obvious was one way, just guessing is the rest. No routine developed."",""age"":""60"",""gender"":""Female"",""other_gender"":"""",""race"":""White"",""other_race"":"""",""ethnicity"":""Non-Hispanic""}",NA,"exit_survey",NA,NA,NA,NA,NA,NA,NA,NA,NA,NA,NA,NA,NA,NA,NA,"Obvious was one way, just guessing is the rest. No routine developed.","60","Non-Hispanic","Female","White","0.6111111111111112","0.6111111111111112","kk26vb8sp1"
"112",NA,NA,NA,NA,NA,"survey-html-form","318","308407","0.0-293.0","63d7edbef6596097994e730e","665500ab8938657b03fbdba8","6657930d89971b4f6cbee2f8","11778",NA,"{""feedback"":"""",""age"":""39"",""gender"":""Male"",""other_gender"":"""",""race"":""Multiracial"",""other_race"":"""",""ethnicity"":""Non-Hispanic""}",NA,"exit_survey",NA,NA,NA,NA,NA,NA,NA,NA,NA,NA,NA,NA,NA,NA,NA,NA,"39","Non-Hispanic","Male","Multiracial","0.6319444444444444","0.6319444444444444","kl64c5s94e"
"113",NA,NA,NA,NA,NA,"survey-html-form","318","440318","0.0-293.0","5eaca76bcf6b3914ba0fbfe0","665500ab8938657b03fbdba8","6657927b40f706e2b22ce8e0","38266",NA,"{""feedback"":""Kind of guessing, kind of trying to find a pattern"",""age"":""44"",""gender"":""Female"",""other_gender"":"""",""race"":""White"",""other_race"":"""",""ethnicity"":""Non-Hispanic""}",NA,"exit_survey",NA,NA,NA,NA,NA,NA,NA,NA,NA,NA,NA,NA,NA,NA,NA,"Kind of guessing, kind of trying to find a pattern","44","Non-Hispanic","Female","White","0.6736111111111112","0.6736111111111112","ks7dpe4hm7"
"114",NA,NA,NA,NA,NA,"survey-html-form","318","1097484","0.0-293.0","5bc32eb1518d030001358396","665500ab8938657b03fbdba8","665778bd383d6a4fe04e847f","14894",NA,"{""feedback"":"""",""age"":""39"",""gender"":""Male"",""other_gender"":"""",""race"":""White"",""other_race"":"""",""ethnicity"":""Non-Hispanic""}",NA,"exit_survey",NA,NA,NA,NA,NA,NA,NA,NA,NA,NA,NA,NA,NA,NA,NA,NA,"39","Non-Hispanic","Male","White","0.5555555555555556","0.5555555555555556","ktgkw1n3ua"
"115",NA,NA,NA,NA,NA,"survey-html-form","318","1064352","0.0-293.0","5f1b84872171f838a8a3cfa9","665500ab8938657b03fbdba8","66577e6dd6843795680584b7","20903",NA,"{""feedback"":"""",""age"":""42"",""gender"":""Male"",""other_gender"":"""",""race"":""White"",""other_race"":"""",""ethnicity"":""Non-Hispanic""}",NA,"exit_survey",NA,NA,NA,NA,NA,NA,NA,NA,NA,NA,NA,NA,NA,NA,NA,NA,"42","Non-Hispanic","Male","White","0.7083333333333334","0.7083333333333334","l0t3hkvo5m"
"116",NA,NA,NA,NA,NA,"survey-html-form","318","1419151","0.0-293.0","612e1df9913c996adb2a42a6","665500ab8938657b03fbdba8","66577cb94d3e3430efe167fd","11959",NA,"{""feedback"":"""",""age"":""66"",""gender"":""Female"",""other_gender"":"""",""race"":""Black/African American"",""other_race"":"""",""ethnicity"":""Non-Hispanic""}",NA,"exit_survey",NA,NA,NA,NA,NA,NA,NA,NA,NA,NA,NA,NA,NA,NA,NA,NA,"66","Non-Hispanic","Female","Black/African American","0.5763888888888888","0.5763888888888888","l13hnrzq0b"
"117",NA,NA,NA,NA,NA,"survey-html-form","345","600070","0.0-293.0","59d0ec2446447f00011f0254","665500ab8938657b03fbdba8","66579345d450c094bccb2044","19447",NA,"{""feedback"":""What angles Sam could see the ball from."",""age"":""41"",""gender"":""Female"",""other_gender"":"""",""race"":""American Indian/Alaska Native"",""other_race"":"""",""ethnicity"":""Non-Hispanic""}",NA,"exit_survey",NA,NA,NA,NA,NA,NA,NA,NA,NA,NA,NA,NA,NA,NA,NA,"What angles Sam could see the ball from.","41","Non-Hispanic","Female","American Indian/Alaska Native","0.6597222222222222","0.6597222222222222","l2rc4m7xqo"
"118",NA,NA,NA,NA,NA,"survey-html-form","318","579731","0.0-293.0","5dcea7314d51e4107516c80d","665500ab8938657b03fbdba8","6657936867794463652049c7","38654",NA,"{""feedback"":""Obvious when balls were visible to him; otherwise, guessing"",""age"":""55"",""gender"":""Female"",""other_gender"":"""",""race"":""White"",""other_race"":"""",""ethnicity"":""Non-Hispanic""}",NA,"exit_survey",NA,NA,NA,NA,NA,NA,NA,NA,NA,NA,NA,NA,NA,NA,NA,"Obvious when balls were visible to him; otherwise, guessing","55","Non-Hispanic","Female","White","0.6319444444444444","0.6319444444444444","lg0d88ts39"
"119",NA,NA,NA,NA,NA,"survey-html-form","345","246601","0.0-293.0","5f4a5b3dccae1c5e215cfe3e","665500ab8938657b03fbdba8","6657809249d4c30ce9fb2415","10039",NA,"{""feedback"":"""",""age"":""30"",""gender"":""Female"",""other_gender"":"""",""race"":""White"",""other_race"":"""",""ethnicity"":""Non-Hispanic""}",NA,"exit_survey",NA,NA,NA,NA,NA,NA,NA,NA,NA,NA,NA,NA,NA,NA,NA,NA,"30","Non-Hispanic","Female","White","0.6180555555555556","0.6180555555555556","ljefm38e9o"
"120",NA,NA,NA,NA,NA,"survey-html-form","318","648919","0.0-293.0","609ac8ca9e4928ec75d40a10","665500ab8938657b03fbdba8","665792c27c36d98757dd932e","10796",NA,"{""feedback"":"""",""age"":""36"",""gender"":""Male"",""other_gender"":"""",""race"":""White"",""other_race"":"""",""ethnicity"":""Non-Hispanic""}",NA,"exit_survey",NA,NA,NA,NA,NA,NA,NA,NA,NA,NA,NA,NA,NA,NA,NA,NA,"36","Non-Hispanic","Male","White","0.6388888888888888","0.6388888888888888","lvvj5p5cmg"
"121",NA,NA,NA,NA,NA,"survey-html-form","318","507712","0.0-293.0","6505afbedfdaf655c3cb53fb","665500ab8938657b03fbdba8","665792a594beed4f44ddd55a","24181",NA,"{""feedback"":""I tried to choose based on what he could see."",""age"":""24"",""gender"":""Male"",""other_gender"":"""",""race"":""White"",""other_race"":"""",""ethnicity"":""Non-Hispanic""}",NA,"exit_survey",NA,NA,NA,NA,NA,NA,NA,NA,NA,NA,NA,NA,NA,NA,NA,"I tried to choose based on what he could see.","24","Non-Hispanic","Male","White","0.6111111111111112","0.6111111111111112","lx39us6stw"
"122",NA,NA,NA,NA,NA,"survey-html-form","318","892482","0.0-293.0","5dec01e809c107301c5e307f","665500ab8938657b03fbdba8","6657926289971b4f6cbee2d5","25149",NA,"{""feedback"":""I saw patterns at times"",""age"":""60"",""gender"":""Female"",""other_gender"":"""",""race"":""White"",""other_race"":"""",""ethnicity"":""Non-Hispanic""}",NA,"exit_survey",NA,NA,NA,NA,NA,NA,NA,NA,NA,NA,NA,NA,NA,NA,NA,"I saw patterns at times","60","Non-Hispanic","Female","White","0.7013888888888888","0.7013888888888888","m2anure8o7"
"123",NA,NA,NA,NA,NA,"survey-html-form","318","268939","0.0-293.0","6102c81e911700cf7ba5f6bd","665500ab8938657b03fbdba8","66577eccd176949d79ff07a2","15813",NA,"{""feedback"":"""",""age"":""35"",""gender"":""Male"",""other_gender"":"""",""race"":""White"",""other_race"":"""",""ethnicity"":""Non-Hispanic""}",NA,"exit_survey",NA,NA,NA,NA,NA,NA,NA,NA,NA,NA,NA,NA,NA,NA,NA,NA,"35","Non-Hispanic","Male","White","0.5555555555555556","0.5555555555555556","mh2np3sh9w"
"124",NA,NA,NA,NA,NA,"survey-html-form","318","1125573","0.0-293.0","640e4ddaf9f67c6c8ea4936b","665500ab8938657b03fbdba8","665792b645671cf5a377c950","96734",NA,"{""feedback"":""If I could see the ball in the basket."",""age"":""66"",""gender"":""Female"",""other_gender"":"""",""race"":""White"",""other_race"":"""",""ethnicity"":""Non-Hispanic""}",NA,"exit_survey",NA,NA,NA,NA,NA,NA,NA,NA,NA,NA,NA,NA,NA,NA,NA,"If I could see the ball in the basket.","66","Non-Hispanic","Female","White","0.6180555555555556","0.6180555555555556","mnfut5cbvd"
"125",NA,NA,NA,NA,NA,"survey-html-form","318","356400","0.0-293.0","5c3a865019ceb400010c914a","665500ab8938657b03fbdba8","665792c55a92ed16a25ee081","17054",NA,"{""feedback"":""i went with my gut."",""age"":""45"",""gender"":""Male"",""other_gender"":"""",""race"":""White"",""other_race"":"""",""ethnicity"":""Non-Hispanic""}",NA,"exit_survey",NA,NA,NA,NA,NA,NA,NA,NA,NA,NA,NA,NA,NA,NA,NA,"i went with my gut.","45","Non-Hispanic","Male","White","0.6041666666666666","0.6041666666666666","mrsx0258vn"
"126",NA,NA,NA,NA,NA,"survey-html-form","318","1773490","0.0-293.0","5f0d2ad60ad0d6730c380b05","665500ab8938657b03fbdba8","665796155824579986a2bdbd","518974",NA,"{""feedback"":""When the ball was in a particular basket, Sam would often guess the same basket on the next turn when he could not see where it was. When it was in the same place twice I think he was less likely to guess the same one again on the next turn.\n\nI think he usually went from the right basket to the left one, but I may have forgotten now and have that backwards.\n\nWhen we both could see the ball the answer was obvious.\n\nWhen I could see it, but he could not, I had to remember that he might not necessarily choose the correct basket.\n\nwhen Sam could see it and I could not, I usually went with the place it was not before, thinking the computer would be more likely to place it there."",""age"":""51"",""gender"":""Male"",""other_gender"":"""",""race"":""White"",""other_race"":"""",""ethnicity"":""Non-Hispanic""}",NA,"exit_survey",NA,NA,NA,NA,NA,NA,NA,NA,NA,NA,NA,NA,NA,NA,NA,"When the ball was in a particular basket, Sam would often guess the same basket on the next turn when he could not see where it was. When it was in the same place twice I think he was less likely to guess the same one again on the next turn.

I think he usually went from the right basket to the left one, but I may have forgotten now and have that backwards.

When we both could see the ball the answer was obvious.

When I could see it, but he could not, I had to remember that he might not necessarily choose the correct basket.

when Sam could see it and I could not, I usually went with the place it was not before, thinking the computer would be more likely to place it there.","51","Non-Hispanic","Male","White","0.6597222222222222","0.6597222222222222","mxnk0uta5l"
"127",NA,NA,NA,NA,NA,"survey-html-form","318","665914","0.0-293.0","628f9ef985fa6d3dc816672c","665500ab8938657b03fbdba8","66579267ec2b45982c0cd3fb","166020",NA,"{""feedback"":""I broke it down to whether he could see the basket and whether if I could see the basket, I put myself in Sam's shoes and my own and viewed each scenario from both points of view and chose accordingly. A lot of reasoning and deduction took place."",""age"":""32"",""gender"":""Male"",""other_gender"":"""",""race"":""Multiracial"",""other_race"":"""",""ethnicity"":""Non-Hispanic""}",NA,"exit_survey",NA,NA,NA,NA,NA,NA,NA,NA,NA,NA,NA,NA,NA,NA,NA,"I broke it down to whether he could see the basket and whether if I could see the basket, I put myself in Sam's shoes and my own and viewed each scenario from both points of view and chose accordingly. A lot of reasoning and deduction took place.","32","Non-Hispanic","Male","Multiracial","0.6388888888888888","0.6388888888888888","myta2dudfe"
"128",NA,NA,NA,NA,NA,"survey-html-form","318","1592347","0.0-293.0","57210674951c9b0011d3eaaa","665500ab8938657b03fbdba8","665792aa94beed4f44ddd55c","27908",NA,"{""feedback"":""Attempted to find a pattern"",""age"":""59"",""gender"":""Male"",""other_gender"":"""",""race"":""Black/African American"",""other_race"":"""",""ethnicity"":""Non-Hispanic""}",NA,"exit_survey",NA,NA,NA,NA,NA,NA,NA,NA,NA,NA,NA,NA,NA,NA,NA,"Attempted to find a pattern","59","Non-Hispanic","Male","Black/African American","0.6111111111111112","0.6111111111111112","n35rpu9lzy"
"129",NA,NA,NA,NA,NA,"survey-html-form","318","1314826","0.0-293.0","607ec28e6a0bde56a9d69ddc","665500ab8938657b03fbdba8","66577dcf3401833067c68e73","432268",NA,"{""feedback"":""Mainly, I was focused on whether the baskets were covered or not, either for me or Sam. Those decisions were easy. On the other hand, when I was not able to see the whole basket, than I gave it a guess. "",""age"":""60"",""gender"":""Male"",""other_gender"":"""",""race"":""White"",""other_race"":"""",""ethnicity"":""Non-Hispanic""}",NA,"exit_survey",NA,NA,NA,NA,NA,NA,NA,NA,NA,NA,NA,NA,NA,NA,NA,"Mainly, I was focused on whether the baskets were covered or not, either for me or Sam. Those decisions were easy. On the other hand, when I was not able to see the whole basket, than I gave it a guess.","60","Non-Hispanic","Male","White","0.6041666666666666","0.6041666666666666","nfgh3r3vzo"
"130",NA,NA,NA,NA,NA,"survey-html-form","318","586599","0.0-293.0","5b22f24c38fc0c0001313ea8","665500ab8938657b03fbdba8","6657932825bf5614f149a301","47414",NA,"{""feedback"":""I just looked at the pattern of what he might think based on where it had been previously."",""age"":""47"",""gender"":""Female"",""other_gender"":"""",""race"":""White"",""other_race"":"""",""ethnicity"":""Non-Hispanic""}",NA,"exit_survey",NA,NA,NA,NA,NA,NA,NA,NA,NA,NA,NA,NA,NA,NA,NA,"I just looked at the pattern of what he might think based on where it had been previously.","47","Non-Hispanic","Female","White","0.6388888888888888","0.6388888888888888","nuz82bw6yr"
"131",NA,NA,NA,NA,NA,"survey-html-form","318","1063702","0.0-293.0","5e38e79295ff561112eae457","665500ab8938657b03fbdba8","66579235b31277676b8a779b","185273",NA,"{""feedback"":""I new which basket would be searched if Sam could see where the ball was or if he could see two empty baskets. If Sam couldn't see two or three baskets and one contained the ball the basket chosen would just be a random one he couldn't see. If I couldn't see the baskets I guessed Sam would be more likely to search a basket he could see."",""age"":""38"",""gender"":""Male"",""other_gender"":"""",""race"":""White"",""other_race"":"""",""ethnicity"":""Non-Hispanic""}",NA,"exit_survey",NA,NA,NA,NA,NA,NA,NA,NA,NA,NA,NA,NA,NA,NA,NA,"I new which basket would be searched if Sam could see where the ball was or if he could see two empty baskets. If Sam couldn't see two or three baskets and one contained the ball the basket chosen would just be a random one he couldn't see. If I couldn't see the baskets I guessed Sam would be more likely to search a basket he could see.","38","Non-Hispanic","Male","White","0.6041666666666666","0.6041666666666666","o4bua6uzes"
"132",NA,NA,NA,NA,NA,"survey-html-form","318","397148","0.0-293.0","6413599d52dc6500b2430165","665500ab8938657b03fbdba8","6657813fc55278d166c08893","16277",NA,"{""feedback"":""just random"",""age"":""45"",""gender"":""Female"",""other_gender"":"""",""race"":""White"",""other_race"":"""",""ethnicity"":""Non-Hispanic""}",NA,"exit_survey",NA,NA,NA,NA,NA,NA,NA,NA,NA,NA,NA,NA,NA,NA,NA,"just random","45","Non-Hispanic","Female","White","0.6875","0.6875","penrx1u7qb"
"133",NA,NA,NA,NA,NA,"survey-html-form","318","446687","0.0-293.0","60cb3c4b9454f7a196355088","665500ab8938657b03fbdba8","665793595ab239deb9b9900e","37356",NA,"{""feedback"":""if I was able to see the ball versus if sam could see the ball"",""age"":""37"",""gender"":""Male"",""other_gender"":"""",""race"":""Black/African American"",""other_race"":"""",""ethnicity"":""Non-Hispanic""}",NA,"exit_survey",NA,NA,NA,NA,NA,NA,NA,NA,NA,NA,NA,NA,NA,NA,NA,"if I was able to see the ball versus if sam could see the ball","37","Non-Hispanic","Male","Black/African American","0.6597222222222222","0.6597222222222222","pnrkcd6smc"
"134",NA,NA,NA,NA,NA,"survey-html-form","318","556112","0.0-293.0","5e0d256753e8464d64940925","665500ab8938657b03fbdba8","6657927ed4ef789b494b24d4","23110",NA,"{""feedback"":""If I knew where it was it was easy, otherwise, I guessed"",""age"":""57"",""gender"":""Female"",""other_gender"":"""",""race"":""White"",""other_race"":"""",""ethnicity"":""Non-Hispanic""}",NA,"exit_survey",NA,NA,NA,NA,NA,NA,NA,NA,NA,NA,NA,NA,NA,NA,NA,"If I knew where it was it was easy, otherwise, I guessed","57","Non-Hispanic","Female","White","0.5972222222222222","0.5972222222222222","pw6ogcz40j"
"135",NA,NA,NA,NA,NA,"survey-html-form","318","1023754","0.0-293.0","611341c34be95409850e4341","665500ab8938657b03fbdba8","66577c5743f15a7927283df0","61444",NA,"{""feedback"":""Well, if we both could see it then I picked that one.  I tried to discern a pattern but I'm not sure how successful I was in doing so."",""age"":""53"",""gender"":""Female"",""other_gender"":"""",""race"":""White"",""other_race"":"""",""ethnicity"":""Non-Hispanic""}",NA,"exit_survey",NA,NA,NA,NA,NA,NA,NA,NA,NA,NA,NA,NA,NA,NA,NA,"Well, if we both could see it then I picked that one.  I tried to discern a pattern but I'm not sure how successful I was in doing so.","53","Non-Hispanic","Female","White","0.6597222222222222","0.6597222222222222","qlldmz7xfd"
"136",NA,NA,NA,NA,NA,"survey-html-form","318","2174959","0.0-293.0","62c2e95abeb001900b8ab0cb","665500ab8938657b03fbdba8","66579291476020bd2f6040ac","37862",NA,"{""feedback"":""I went with the ones I saw and the best prediction I could make for Sam."",""age"":""34"",""gender"":""Male"",""other_gender"":"""",""race"":""Black/African American"",""other_race"":"""",""ethnicity"":""Non-Hispanic""}",NA,"exit_survey",NA,NA,NA,NA,NA,NA,NA,NA,NA,NA,NA,NA,NA,NA,NA,"I went with the ones I saw and the best prediction I could make for Sam.","34","Non-Hispanic","Male","Black/African American","0.5694444444444444","0.5694444444444444","qor7edqfoz"
"137",NA,NA,NA,NA,NA,"survey-html-form","318","218205","0.0-293.0","5a4c1ecaefd8df0001d34305","665500ab8938657b03fbdba8","6657978989971b4f6cbee3ea","42859",NA,"{""feedback"":""I tried to focus on Sam's perspective when I could and guess to see if there was a pattern if the choice could have been 50/50"",""age"":""30"",""gender"":""Male"",""other_gender"":"""",""race"":""White"",""other_race"":"""",""ethnicity"":""Non-Hispanic""}",NA,"exit_survey",NA,NA,NA,NA,NA,NA,NA,NA,NA,NA,NA,NA,NA,NA,NA,"I tried to focus on Sam's perspective when I could and guess to see if there was a pattern if the choice could have been 50/50","30","Non-Hispanic","Male","White","0.5138888888888888","0.5138888888888888","r773dconjp"
"138",NA,NA,NA,NA,NA,"survey-html-form","318","767822","0.0-293.0","5e1f8fbfb202032c463f3e06","665500ab8938657b03fbdba8","6657926204e3a81685187e1e","46644",NA,"{""feedback"":""The placement of the blocks influenced how I responded sometimes.  I have no questions or comments."",""age"":""63"",""gender"":""Female"",""other_gender"":"""",""race"":""White"",""other_race"":"""",""ethnicity"":""Non-Hispanic""}",NA,"exit_survey",NA,NA,NA,NA,NA,NA,NA,NA,NA,NA,NA,NA,NA,NA,NA,"The placement of the blocks influenced how I responded sometimes.  I have no questions or comments.","63","Non-Hispanic","Female","White","0.5972222222222222","0.5972222222222222","re3vc5u0yx"
"139",NA,NA,NA,NA,NA,"survey-html-form","318","409856","0.0-293.0","64360d6189dec3ac8afc9a78","665500ab8938657b03fbdba8","665793313dafe137eff134ca","19850",NA,"{""feedback"":""Just guessing best I could."",""age"":""65"",""gender"":""Female"",""other_gender"":"""",""race"":""White"",""other_race"":"""",""ethnicity"":""Non-Hispanic""}",NA,"exit_survey",NA,NA,NA,NA,NA,NA,NA,NA,NA,NA,NA,NA,NA,NA,NA,"Just guessing best I could.","65","Non-Hispanic","Female","White","0.6666666666666666","0.6666666666666666","rouxxa73y1"
"140",NA,NA,NA,NA,NA,"survey-html-form","318","973793","0.0-293.0","56849d528f456f000c45e1dd","665500ab8938657b03fbdba8","66579237e19bba6ec61fe1c4","123205",NA,"{""feedback"":""Nothing specifically, I just tried to make the best possible choice randomly."",""age"":""37"",""gender"":""Female"",""other_gender"":"""",""race"":""Black/African American"",""other_race"":"""",""ethnicity"":""Non-Hispanic""}",NA,"exit_survey",NA,NA,NA,NA,NA,NA,NA,NA,NA,NA,NA,NA,NA,NA,NA,"Nothing specifically, I just tried to make the best possible choice randomly.","37","Non-Hispanic","Female","Black/African American","0.6944444444444444","0.6944444444444444","rpgm1jnoa0"
"141",NA,NA,NA,NA,NA,"survey-html-form","318","483404","0.0-293.0","6111a1893c0daa13e23ab15a","665500ab8938657b03fbdba8","665792bd2a087799023aae4e","106499",NA,"{""feedback"":""If the ball was visible then it was an obvious choice. Also used process of elimination when appropriate. Otherwise, I took a guess based on Sam's prior choices."",""age"":""39"",""gender"":""Male"",""other_gender"":"""",""race"":""Black/African American"",""other_race"":"""",""ethnicity"":""Non-Hispanic""}",NA,"exit_survey",NA,NA,NA,NA,NA,NA,NA,NA,NA,NA,NA,NA,NA,NA,NA,"If the ball was visible then it was an obvious choice. Also used process of elimination when appropriate. Otherwise, I took a guess based on Sam's prior choices.","39","Non-Hispanic","Male","Black/African American","0.625","0.625","rr7faa99km"
"142",NA,NA,NA,NA,NA,"survey-html-form","318","529312","0.0-293.0","63d96d5957cdd8a417721253","665500ab8938657b03fbdba8","6657931f3acb6e0722e1ee6f","80222",NA,"{""feedback"":""I based it off of what he could see. If I couldn't see 2 or more baskets, I just chose randomly."",""age"":""37"",""gender"":""Male"",""other_gender"":"""",""race"":""White"",""other_race"":"""",""ethnicity"":""Non-Hispanic""}",NA,"exit_survey",NA,NA,NA,NA,NA,NA,NA,NA,NA,NA,NA,NA,NA,NA,NA,"I based it off of what he could see. If I couldn't see 2 or more baskets, I just chose randomly.","37","Non-Hispanic","Male","White","0.6666666666666666","0.6666666666666666","rtg29lpd2a"
"143",NA,NA,NA,NA,NA,"survey-html-form","318","369492","0.0-293.0","5d4254db5b2c430001418a3c","665500ab8938657b03fbdba8","665793422dab1baf738a777c","21297",NA,"{""feedback"":""If same could see the ball or not."",""age"":""41"",""gender"":""Female"",""other_gender"":"""",""race"":""White"",""other_race"":"""",""ethnicity"":""Non-Hispanic""}",NA,"exit_survey",NA,NA,NA,NA,NA,NA,NA,NA,NA,NA,NA,NA,NA,NA,NA,"If same could see the ball or not.","41","Non-Hispanic","Female","White","0.5763888888888888","0.5763888888888888","sb0he12eag"
"144",NA,NA,NA,NA,NA,"survey-html-form","318","368102","0.0-293.0","60ff6ef6dc8f29d5774ef2fc","665500ab8938657b03fbdba8","66577fabfcc730c6d46e1400","7756",NA,"{""feedback"":"""",""age"":""37"",""gender"":""Female"",""other_gender"":"""",""race"":""White"",""other_race"":"""",""ethnicity"":""Non-Hispanic""}",NA,"exit_survey",NA,NA,NA,NA,NA,NA,NA,NA,NA,NA,NA,NA,NA,NA,NA,NA,"37","Non-Hispanic","Female","White","0.6388888888888888","0.6388888888888888","sfcqtbap3j"
"145",NA,NA,NA,NA,NA,"survey-html-form","318","671740","0.0-293.0","63d1675c8eef7f9792f55d42","665500ab8938657b03fbdba8","665792dd5e1494d277aaf587","50645",NA,"{""feedback"":""I tried to stick with where I saw the ball going and give my best guess as to where Sam would pick when he was unable to see."",""age"":""34"",""gender"":""Female"",""other_gender"":"""",""race"":""Black/African American"",""other_race"":"""",""ethnicity"":""Non-Hispanic""}",NA,"exit_survey",NA,NA,NA,NA,NA,NA,NA,NA,NA,NA,NA,NA,NA,NA,NA,"I tried to stick with where I saw the ball going and give my best guess as to where Sam would pick when he was unable to see.","34","Non-Hispanic","Female","Black/African American","0.6458333333333334","0.6458333333333334","spjreu25vs"
"146",NA,NA,NA,NA,NA,"survey-html-form","318","444013","0.0-293.0","55c2910dfdf99b5e72c6efcf","665500ab8938657b03fbdba8","6657936f3fa9bac66ec693ce","47552",NA,"{""feedback"":""If I could see the ball, if he could see the ball, how many were covered, like process of elimination, if you could see two and they were empty and he could also see those two, it could only be one, even if it was double blind."",""age"":""34"",""gender"":""Female"",""other_gender"":"""",""race"":""White"",""other_race"":"""",""ethnicity"":""Non-Hispanic""}",NA,"exit_survey",NA,NA,NA,NA,NA,NA,NA,NA,NA,NA,NA,NA,NA,NA,NA,"If I could see the ball, if he could see the ball, how many were covered, like process of elimination, if you could see two and they were empty and he could also see those two, it could only be one, even if it was double blind.","34","Non-Hispanic","Female","White","0.6388888888888888","0.6388888888888888","sra479gt9c"
"147",NA,NA,NA,NA,NA,"survey-html-form","318","500121","0.0-293.0","5ec9cf3ed4642d4ebb802b42","665500ab8938657b03fbdba8","66577af73237019115442a50","36536",NA,"{""feedback"":""What was hidden or visible"",""age"":""56"",""gender"":""Male"",""other_gender"":"""",""race"":""White"",""other_race"":"""",""ethnicity"":""Non-Hispanic""}",NA,"exit_survey",NA,NA,NA,NA,NA,NA,NA,NA,NA,NA,NA,NA,NA,NA,NA,"What was hidden or visible","56","Non-Hispanic","Male","White","0.6527777777777778","0.6527777777777778","srl0ussgbm"
"148",NA,NA,NA,NA,NA,"survey-html-form","318","478467","0.0-293.0","63eaa9f8f0637c961dcfc277","665500ab8938657b03fbdba8","6657925676ac1e0591ba75d9","19967",NA,"{""feedback"":""All guesses"",""age"":""46"",""gender"":""Female"",""other_gender"":"""",""race"":""White"",""other_race"":"""",""ethnicity"":""Non-Hispanic""}",NA,"exit_survey",NA,NA,NA,NA,NA,NA,NA,NA,NA,NA,NA,NA,NA,NA,NA,"All guesses","46","Non-Hispanic","Female","White","0.6458333333333334","0.6458333333333334","ssrtzrxagk"
"149",NA,NA,NA,NA,NA,"survey-html-form","318","737344","0.0-293.0","5e8b9c7054a5cc07dd6e174d","665500ab8938657b03fbdba8","6657923eb651b453ebb03e3c","28352",NA,"{""feedback"":""Intuition and random distribution."",""age"":""51"",""gender"":""Female"",""other_gender"":"""",""race"":""White"",""other_race"":"""",""ethnicity"":""Non-Hispanic""}",NA,"exit_survey",NA,NA,NA,NA,NA,NA,NA,NA,NA,NA,NA,NA,NA,NA,NA,"Intuition and random distribution.","51","Non-Hispanic","Female","White","0.6597222222222222","0.6597222222222222","st8ke8fyy8"
"150",NA,NA,NA,NA,NA,"survey-html-form","318","322352","0.0-293.0","63d83a19b8acced30d2e0d32","665500ab8938657b03fbdba8","66579613ec682fff2873a451","29934",NA,"{""feedback"":""If Sam could see 1, 2 or all 3 of the balls."",""age"":""35"",""gender"":""Male"",""other_gender"":"""",""race"":""White"",""other_race"":"""",""ethnicity"":""Non-Hispanic""}",NA,"exit_survey",NA,NA,NA,NA,NA,NA,NA,NA,NA,NA,NA,NA,NA,NA,NA,"If Sam could see 1, 2 or all 3 of the balls.","35","Non-Hispanic","Male","White","0.6666666666666666","0.6666666666666666","t26auxa2vc"
"151",NA,NA,NA,NA,NA,"survey-html-form","318","925010","0.0-293.0","5c44cf2da5487b00011d0b80","665500ab8938657b03fbdba8","665793456412f483218868f7","46625",NA,"{""feedback"":""when it was clear i picked coorectly if i could not determine i guessed"",""age"":""54"",""gender"":""Female"",""other_gender"":"""",""race"":""White"",""other_race"":"""",""ethnicity"":""Non-Hispanic""}",NA,"exit_survey",NA,NA,NA,NA,NA,NA,NA,NA,NA,NA,NA,NA,NA,NA,NA,"when it was clear i picked coorectly if i could not determine i guessed","54","Non-Hispanic","Female","White","0.6458333333333334","0.6458333333333334","t2elun5uf5"
"152",NA,NA,NA,NA,NA,"survey-html-form","318","558840","0.0-293.0","6554ea27378d1f1b846788b3","665500ab8938657b03fbdba8","66579322fedf541d6edd92dc","27131",NA,"{""feedback"":""random guess"",""age"":""25"",""gender"":""Female"",""other_gender"":"""",""race"":""Black/African American"",""other_race"":"""",""ethnicity"":""Non-Hispanic""}",NA,"exit_survey",NA,NA,NA,NA,NA,NA,NA,NA,NA,NA,NA,NA,NA,NA,NA,"random guess","25","Non-Hispanic","Female","Black/African American","0.6597222222222222","0.6597222222222222","t3y4h4pr5t"
"153",NA,NA,NA,NA,NA,"survey-html-form","318","769024","0.0-293.0","63d73ed8b1c15ff155c74597","665500ab8938657b03fbdba8","665792bb533974ece4058990","640308",NA,"{""feedback"":""i just went with whatever basket may be chosen. it is pretty hard to get every single one right, i just had to make an educated guess."",""age"":""25"",""gender"":""Male"",""other_gender"":"""",""race"":""Native Hawaiian/Pacific Islander"",""other_race"":"""",""ethnicity"":""Non-Hispanic""}",NA,"exit_survey",NA,NA,NA,NA,NA,NA,NA,NA,NA,NA,NA,NA,NA,NA,NA,"i just went with whatever basket may be chosen. it is pretty hard to get every single one right, i just had to make an educated guess.","25","Non-Hispanic","Male","Native Hawaiian/Pacific Islander","0.3194444444444444","0.3194444444444444","t6hx7ygtdh"
"154",NA,NA,NA,NA,NA,"survey-html-form","318","605481","0.0-293.0","63174b4e900ff6c7b0444f29","665500ab8938657b03fbdba8","665792411f5820de30e93e44","14346",NA,"{""feedback"":"""",""age"":""49"",""gender"":""Female"",""other_gender"":"""",""race"":""Black/African American"",""other_race"":"""",""ethnicity"":""Non-Hispanic""}",NA,"exit_survey",NA,NA,NA,NA,NA,NA,NA,NA,NA,NA,NA,NA,NA,NA,NA,NA,"49","Non-Hispanic","Female","Black/African American","0.6527777777777778","0.6527777777777778","tbxfjlcwp3"
"155",NA,NA,NA,NA,NA,"survey-html-form","318","752397","0.0-293.0","648786bd2c580f666fb051cd","665500ab8938657b03fbdba8","665780ef04e3a81685187a50","37208",NA,"{""feedback"":""just guess"",""age"":""49"",""gender"":""Female"",""other_gender"":"""",""race"":""Black/African American"",""other_race"":"""",""ethnicity"":""Non-Hispanic""}",NA,"exit_survey",NA,NA,NA,NA,NA,NA,NA,NA,NA,NA,NA,NA,NA,NA,NA,"just guess","49","Non-Hispanic","Female","Black/African American","0.6388888888888888","0.6388888888888888","tehosqu2gm"
"156",NA,NA,NA,NA,NA,"survey-html-form","318","465796","0.0-293.0","615212aaa4b41922e0765736","665500ab8938657b03fbdba8","66577efdb651b453ebb039a8","16974",NA,"{""feedback"":"""",""age"":""53"",""gender"":""Female"",""other_gender"":"""",""race"":""White"",""other_race"":"""",""ethnicity"":""Non-Hispanic""}",NA,"exit_survey",NA,NA,NA,NA,NA,NA,NA,NA,NA,NA,NA,NA,NA,NA,NA,NA,"53","Non-Hispanic","Female","White","0.5902777777777778","0.5902777777777778","tswd0glqtc"
"157",NA,NA,NA,NA,NA,"survey-html-form","318","641610","0.0-293.0","60fcd9699c3def3068403b90","665500ab8938657b03fbdba8","665792b41522714ef7571bbd","96734",NA,"{""feedback"":""I chose my boxes based upon whether or not any of the three choices had the ball distinctly visible for either of us.\n\nI do not have any questions nor any comments about the experiment."",""age"":""36"",""gender"":""Male"",""other_gender"":"""",""race"":""White"",""other_race"":"""",""ethnicity"":""Non-Hispanic""}",NA,"exit_survey",NA,NA,NA,NA,NA,NA,NA,NA,NA,NA,NA,NA,NA,NA,NA,"I chose my boxes based upon whether or not any of the three choices had the ball distinctly visible for either of us.

I do not have any questions nor any comments about the experiment.","36","Non-Hispanic","Male","White","0.6388888888888888","0.6388888888888888","tu1pslh7tu"
