workerid,proliferate.condition,accuracy,accuracy_bool,age,alter_ball_visible,alter_can_infer,alter_occluders,ball_pos,bonus,character_choice,collective_ball_visible,collective_can_infer,ego_ball_visible,ego_can_infer,ego_occluders,ethnicity,failed_audio,failed_images,failed_video,feedback,gender,internal_node_id,overall_accuracy,race,response,rt,search_locations,stimulus,stimulus_dict,success,time_elapsed,timeout,trial,trial_index,trial_type,view_history,error
13,Pilot (test data collection),,,,,,,,,,,,,,,,[],[],[],,,0.0-0.0,,,,,,,,True,5227,False,,0,preload,,
13,Pilot (test data collection),,,,,,,,,,,,,,,,,,,,,0.0-1.0,,,,,,,,True,50878,,,1,fullscreen,,
13,Pilot (test data collection),,,,,,,,,,,,,,,,,,,,,0.0-2.0,,,0,41196,,"<p><b>Consent Form</b></p> <div style=""text-align:left;background-color:lightgrey; padding:20px; max-width:900px;""><p>Please consider this information carefully before deciding whether to participate in this research.</p> <p>The purpose of this research is to examine which factors influence social judgment and decision-making. You will be asked to make judgements about individuals and actions in social scenarios. We are simply interested in your judgement. The study will take less than 1 hour to complete, and you will receive less than $20 on Prolific. Your compensation and time commitment are specified in the study description. There are no anticipated risks associated with participating in this study. The effects of participating should be comparable to those you would ordinarily experience from viewing a computer monitor and using a mouse or keyboard for a similar amount of time. At the end of the study, we will provide an explanation of the questions that motivate this line of research and will describe the potential implications. </p><p> Your participation in this study is completely voluntary and you may refuse to participate or you may choose to withdraw at any time without penalty or loss of benefits to you which are otherwise entitled. Your participation in this study will remain confidential. No personally identifiable information will be associated with your data. Also, all analyses of the data will be averaged across all the participants, so your individual responses will never be specifically analyzed. </p><p> If you have questions or concerns about your participation or payment, or want to request a summary of research findings, please contact Dr. Jonathan Phillips at Jonathan.S.Phillips@dartmouth.edu. </p><p> Please save a copy of this form for your records. </p><p><b>Agreement: </b>The nature and purpose of this research have been sufficiently explained and I agree to participate in this study. I understand that I am free to withdraw at any time without incurring any penalty. Please consent by clicking the button below to continue. Otherwise, please exit the study at any time. </p>",,,92074,,,2,html-button-response,,
13,Pilot (test data collection),,,,,,,,,,,,,,,,,,,,,0.0-3.0-0.0,,,,254920,,,,,346993,,intro,3,instructions,"[{'page_index': 0, 'viewing_time': 20055}, {'page_index': 1, 'viewing_time': 58696}, {'page_index': 2, 'viewing_time': 41336}, {'page_index': 3, 'viewing_time': 41592}, {'page_index': 4, 'viewing_time': 6456}, {'page_index': 5, 'viewing_time': 3849}, {'page_index': 6, 'viewing_time': 7056}, {'page_index': 7, 'viewing_time': 6824}, {'page_index': 8, 'viewing_time': 6824}, {'page_index': 9, 'viewing_time': 11296}, {'page_index': 10, 'viewing_time': 18776}, {'page_index': 11, 'viewing_time': 14440}, {'page_index': 12, 'viewing_time': 15632}, {'page_index': 13, 'viewing_time': 2088}]",
13,Pilot (test data collection),True,,,,,,,,2,,,,,,,,,,,,0.0-3.0-1.0,,,2,7277,,stimuli/2101011.jpg,"{'ball_pos': 2, 'filepath': 'stimuli/2101011.jpg', 'ego_can_infer': False, 'ego_occluders': '011', 'alter_can_infer': False, 'alter_occluders': '101', 'ego_ball_visible': False, 'search_locations': [2, 0], 'alter_ball_visible': False, 'collective_can_infer': False, 'collective_ball_visible': False}",,354280,,prediction_practice,4,image-keyboard-response,,
13,Pilot (test data collection),,,,,,,,,2,,,,,,,,,,,,0.0-3.0-2.0,,, ,4502,,stimuli/21010112.jpg,,,358783,,practrice_feedback,5,image-keyboard-response,,
13,Pilot (test data collection),True,,,,,,,,1,,,,,,,,,,,,0.0-3.0-3.0,,,1,4735,,stimuli/1000000.jpg,"{'ball_pos': 1, 'filepath': 'stimuli/1000000.jpg', 'ego_can_infer': True, 'ego_occluders': '000', 'alter_can_infer': True, 'alter_occluders': '000', 'ego_ball_visible': True, 'search_locations': [1], 'alter_ball_visible': True, 'collective_can_infer': True, 'collective_ball_visible': True}",,363517,,prediction_practice,6,image-keyboard-response,,
13,Pilot (test data collection),,,,,,,,,1,,,,,,,,,,,,0.0-3.0-4.0,,, ,1679,,stimuli/10000001.jpg,,,365197,,practrice_feedback,7,image-keyboard-response,,
13,Pilot (test data collection),True,,,,,,,,0,,,,,,,,,,,,0.0-3.0-5.0,,,0,8231,,stimuli/0101000.jpg,"{'ball_pos': 0, 'filepath': 'stimuli/0101000.jpg', 'ego_can_infer': True, 'ego_occluders': '000', 'alter_can_infer': False, 'alter_occluders': '101', 'ego_ball_visible': True, 'search_locations': [2, 0], 'alter_ball_visible': False, 'collective_can_infer': False, 'collective_ball_visible': False}",,373429,,prediction_practice,8,image-keyboard-response,,
13,Pilot (test data collection),,,,,,,,,2,,,,,,,,,,,,0.0-3.0-6.0,,, ,1831,,stimuli/01010000.jpg,,,375261,,practrice_feedback,9,image-keyboard-response,,
13,Pilot (test data collection),True,,,,,,,,2,,,,,,,,,,,,0.0-3.0-7.0,,,2,4656,,stimuli/2101000.jpg,"{'ball_pos': 2, 'filepath': 'stimuli/2101000.jpg', 'ego_can_infer': True, 'ego_occluders': '000', 'alter_can_infer': False, 'alter_occluders': '101', 'ego_ball_visible': True, 'search_locations': [0, 2], 'alter_ball_visible': False, 'collective_can_infer': False, 'collective_ball_visible': False}",,379917,,prediction_practice,10,image-keyboard-response,,
13,Pilot (test data collection),,,,,,,,,0,,,,,,,,,,,,0.0-3.0-8.0,,, ,1463,,stimuli/21010002.jpg,,,381381,,practrice_feedback,11,image-keyboard-response,,
13,Pilot (test data collection),True,,,,,,,,2,,,,,,,,,,,,0.0-3.0-9.0,,,2,4464,,stimuli/0101101.jpg,"{'ball_pos': 0, 'filepath': 'stimuli/0101101.jpg', 'ego_can_infer': False, 'ego_occluders': '101', 'alter_can_infer': False, 'alter_occluders': '101', 'ego_ball_visible': False, 'search_locations': [2, 0], 'alter_ball_visible': False, 'collective_can_infer': False, 'collective_ball_visible': False}",,385845,,prediction_practice,12,image-keyboard-response,,
13,Pilot (test data collection),,,,,,,,,2,,,,,,,,,,,,0.0-3.0-10.0,,, ,1527,,stimuli/01011012.jpg,,,387373,,practrice_feedback,13,image-keyboard-response,,
13,Pilot (test data collection),True,,,,,,,,2,,,,,,,,,,,,0.0-3.0-11.0,,,2,16632,,stimuli/2001010.jpg,"{'ball_pos': 2, 'filepath': 'stimuli/2001010.jpg', 'ego_can_infer': True, 'ego_occluders': '010', 'alter_can_infer': True, 'alter_occluders': '001', 'ego_ball_visible': True, 'search_locations': [2], 'alter_ball_visible': False, 'collective_can_infer': True, 'collective_ball_visible': False}",,404005,,prediction_practice,14,image-keyboard-response,,
13,Pilot (test data collection),,,,,,,,,2,,,,,,,,,,,,0.0-3.0-12.0,,, ,1175,,stimuli/20010102.jpg,,,405181,,practrice_feedback,15,image-keyboard-response,,
13,Pilot (test data collection),True,,,,,,,,2,,,,,,,,,,,,0.0-3.0-13.0,,,2,4935,,stimuli/2100110.jpg,"{'ball_pos': 2, 'filepath': 'stimuli/2100110.jpg', 'ego_can_infer': True, 'ego_occluders': '110', 'alter_can_infer': True, 'alter_occluders': '100', 'ego_ball_visible': True, 'search_locations': [2], 'alter_ball_visible': True, 'collective_can_infer': True, 'collective_ball_visible': True}",,410117,,prediction_practice,16,image-keyboard-response,,
13,Pilot (test data collection),,,,,,,,,2,,,,,,,,,,,,0.0-3.0-14.0,,, ,1111,,stimuli/21001102.jpg,,,411229,,practrice_feedback,17,image-keyboard-response,,
13,Pilot (test data collection),True,,,,,,,,0,,,,,,,,,,,,0.0-3.0-15.0,,,0,3655,,stimuli/0011011.jpg,"{'ball_pos': 0, 'filepath': 'stimuli/0011011.jpg', 'ego_can_infer': True, 'ego_occluders': '011', 'alter_can_infer': True, 'alter_occluders': '011', 'ego_ball_visible': True, 'search_locations': [0], 'alter_ball_visible': True, 'collective_can_infer': True, 'collective_ball_visible': True}",,414884,,prediction_practice,18,image-keyboard-response,,
13,Pilot (test data collection),,,,,,,,,0,,,,,,,,,,,,0.0-3.0-16.0,,, ,1487,,stimuli/00110110.jpg,,,416373,,practrice_feedback,19,image-keyboard-response,,
13,Pilot (test data collection),True,,,,,,,,1,,,,,,,,,,,,0.0-3.0-17.0,,,1,9415,,stimuli/1011110.jpg,"{'ball_pos': 1, 'filepath': 'stimuli/1011110.jpg', 'ego_can_infer': False, 'ego_occluders': '110', 'alter_can_infer': False, 'alter_occluders': '011', 'ego_ball_visible': False, 'search_locations': [1, 2], 'alter_ball_visible': False, 'collective_can_infer': False, 'collective_ball_visible': False}",,425788,,prediction_practice,20,image-keyboard-response,,
13,Pilot (test data collection),,,,,,,,,1,,,,,,,,,,,,0.0-3.0-18.0,,, ,1199,,stimuli/10111101.jpg,,,426988,,practrice_feedback,21,image-keyboard-response,,
13,Pilot (test data collection),True,,,,,,,,1,,,,,,,,,,,,0.0-3.0-19.0,,,1,5479,,stimuli/1010110.jpg,"{'ball_pos': 1, 'filepath': 'stimuli/1010110.jpg', 'ego_can_infer': False, 'ego_occluders': '110', 'alter_can_infer': True, 'alter_occluders': '010', 'ego_ball_visible': False, 'search_locations': [1], 'alter_ball_visible': False, 'collective_can_infer': False, 'collective_ball_visible': False}",,432468,,prediction_practice,22,image-keyboard-response,,
13,Pilot (test data collection),,,,,,,,,1,,,,,,,,,,,,0.0-3.0-20.0,,, ,1247,,stimuli/10101101.jpg,,,433716,,practrice_feedback,23,image-keyboard-response,,
13,Pilot (test data collection),,,,,,,,,,,,,,,,,,,,,0.0-3.0-21.0,,,0,12104,,"Now that you've had some practice, you'll be tested with a few easy trials. If you correctly predict Sam's choice, you'll move on to complete the experiment!",,,445820,,,24,html-button-response,,
13,Pilot (test data collection),True,1,,,,,,,2,,,,,,,,,,,,0.0-3.0-22.0,,,2,4823,,stimuli/2000000.jpg,,,450644,,comprehension_quiz,25,image-keyboard-response,,
13,Pilot (test data collection),,,,,,,,,2,,,,,,,,,,,,0.0-3.0-23.0,,, ,1815,,stimuli/20000002.jpg,,,452460,,comprehension_feedback,26,image-keyboard-response,,
13,Pilot (test data collection),True,1,,,,,,,0,,,,,,,,,,,,0.0-3.0-24.0,,,0,3087,,stimuli/0011011.jpg,,,455548,,comprehension_quiz,27,image-keyboard-response,,
13,Pilot (test data collection),,,,,,,,,0,,,,,,,,,,,,0.0-3.0-25.0,,, ,1096,,stimuli/00110110.jpg,,,456644,,comprehension_feedback,28,image-keyboard-response,,
13,Pilot (test data collection),True,1,,,,,,,1,,,,,,,,,,,,0.0-3.0-26.0,,,1,3087,,stimuli/1010010.jpg,,,459732,,comprehension_quiz,29,image-keyboard-response,,
13,Pilot (test data collection),,,,,,,,,1,,,,,,,,,,,,0.0-3.0-27.0,,, ,1207,,stimuli/10100101.jpg,,,460940,,comprehension_feedback,30,image-keyboard-response,,
13,Pilot (test data collection),True,1,,,,,,,1,,,,,,,,,,,,0.0-3.0-28.0,,,1,3487,,stimuli/1101101.jpg,,,464428,,comprehension_quiz,31,image-keyboard-response,,
13,Pilot (test data collection),,,,,,,,,1,,,,,,,,,,,,0.0-3.0-29.0,,, ,1319,,stimuli/11011011.jpg,,,465748,,comprehension_feedback,32,image-keyboard-response,,
13,Pilot (test data collection),True,1,,,,,,,2,,,,,,,,,,,,0.0-3.0-30.0,,,2,8936,,stimuli/2010001.jpg,,,474684,,comprehension_quiz,33,image-keyboard-response,,
13,Pilot (test data collection),,,,,,,,,2,,,,,,,,,,,,0.0-3.0-31.0,,, ,1015,,stimuli/20100012.jpg,,,475700,,comprehension_feedback,34,image-keyboard-response,,
13,Pilot (test data collection),,,,,,,,,,,,,,,,,,,,,0.0-4.0,,,0,3239,,The experiment will now begin.,,,478940,,,35,html-button-response,,
13,Pilot (test data collection),False,0,,False,False,111,2,,1,False,False,True,True,010,,,,,,,0.0-5.0,,,2,21127,"[0, 2, 1]",stimuli/2111010.jpg,,,500061,,prediction_trial,36,image-keyboard-response,,
13,Pilot (test data collection),,,,,,,,,0,,,,,,,,,,,,0.0-6.0,,, ,1783,,stimuli/21110101.jpg,,,501845,,feedback_trial,37,image-keyboard-response,,
13,Pilot (test data collection),False,0,,False,False,111,2,,0,False,False,False,False,101,,,,,,,0.0-7.0,,,1,4743,"[0, 2, 1]",stimuli/2111101.jpg,,,506589,,prediction_trial,38,image-keyboard-response,,
13,Pilot (test data collection),,,,,,,,,0,,,,,,,,,,,,0.0-8.0,,, ,1327,,stimuli/21111010.jpg,,,507917,,feedback_trial,39,image-keyboard-response,,
13,Pilot (test data collection),True,1,,True,True,010,0,,0,False,True,False,True,100,,,,,,,0.0-9.0,,,0,2432,[0],stimuli/0010100.jpg,,,510349,,prediction_trial,40,image-keyboard-response,,
13,Pilot (test data collection),,,,,,,,,0,,,,,,,,,,,,0.0-10.0,,, ,1799,,stimuli/00101000.jpg,,,512149,,feedback_trial,41,image-keyboard-response,,
13,Pilot (test data collection),False,0,,False,False,011,1,,1,False,False,True,True,000,,,,,,,0.0-11.0,,,2,4359,"[2, 1]",stimuli/1011000.jpg,,,516509,,prediction_trial,42,image-keyboard-response,,
13,Pilot (test data collection),,,,,,,,,2,,,,,,,,,,,,0.0-12.0,,, ,1143,,stimuli/10110001.jpg,,,517653,,feedback_trial,43,image-keyboard-response,,
13,Pilot (test data collection),True,1,,True,True,100,2,,2,False,True,False,True,001,,,,,,,0.0-13.0,,,2,4808,[2],stimuli/2100001.jpg,,,522461,,prediction_trial,44,image-keyboard-response,,
13,Pilot (test data collection),,,,,,,,,2,,,,,,,,,,,,0.0-14.0,,, ,1623,,stimuli/21000012.jpg,,,524085,,feedback_trial,45,image-keyboard-response,,
13,Pilot (test data collection),False,0,,False,False,101,0,,0,False,False,False,False,111,,,,,,,0.0-15.0,,,1,5223,"[0, 2]",stimuli/0101111.jpg,,,529309,,prediction_trial,46,image-keyboard-response,,
13,Pilot (test data collection),,,,,,,,,0,,,,,,,,,,,,0.0-16.0,,, ,975,,stimuli/01011110.jpg,,,530285,,feedback_trial,47,image-keyboard-response,,
13,Pilot (test data collection),True,1,,False,False,111,1,,2,False,False,True,True,100,,,,,,,0.0-17.0,,,2,3440,"[1, 2, 0]",stimuli/1111100.jpg,,,533725,,prediction_trial,48,image-keyboard-response,,
13,Pilot (test data collection),,,,,,,,,1,,,,,,,,,,,,0.0-18.0,,, ,1095,,stimuli/11111002.jpg,,,534821,,feedback_trial,49,image-keyboard-response,,
13,Pilot (test data collection),True,1,,False,False,111,1,,0,False,False,False,True,010,,,,,,,0.0-19.0,,,0,2999,"[1, 2, 0]",stimuli/1111010.jpg,,,537821,,prediction_trial,50,image-keyboard-response,,
13,Pilot (test data collection),,,,,,,,,1,,,,,,,,,,,,0.0-20.0,,, ,1888,,stimuli/11110100.jpg,,,539709,,feedback_trial,51,image-keyboard-response,,
13,Pilot (test data collection),False,0,,False,False,111,2,,0,False,False,False,True,001,,,,,,,0.0-21.0,,,2,3015,"[1, 2, 0]",stimuli/2111001.jpg,,,542725,,prediction_trial,52,image-keyboard-response,,
13,Pilot (test data collection),,,,,,,,,1,,,,,,,,,,,,0.0-22.0,,, ,1031,,stimuli/21110010.jpg,,,543757,,feedback_trial,53,image-keyboard-response,,
13,Pilot (test data collection),False,0,,False,False,111,1,,0,False,False,False,True,010,,,,,,,0.0-23.0,,,1,2791,"[1, 2, 0]",stimuli/1111010.jpg,,,546549,,prediction_trial,54,image-keyboard-response,,
13,Pilot (test data collection),,,,,,,,,1,,,,,,,,,,,,0.0-24.0,,, ,1171,,stimuli/11110100.jpg,,,547725,,feedback_trial,55,image-keyboard-response,,
13,Pilot (test data collection),False,0,,False,True,010,1,,1,False,False,False,False,111,,,,,,,0.0-25.0,,,2,4975,[1],stimuli/1010111.jpg,,,552701,,prediction_trial,56,image-keyboard-response,,
13,Pilot (test data collection),,,,,,,,,1,,,,,,,,,,,,0.0-26.0,,, ,1312,,stimuli/10101111.jpg,,,554013,,feedback_trial,57,image-keyboard-response,,
13,Pilot (test data collection),False,0,,False,False,111,0,,1,False,False,True,True,010,,,,,,,0.0-27.0,,,0,1839,"[0, 2, 1]",stimuli/0111010.jpg,,,555853,,prediction_trial,58,image-keyboard-response,,
13,Pilot (test data collection),,,,,,,,,0,,,,,,,,,,,,0.0-28.0,,, ,1039,,stimuli/01110101.jpg,,,556893,,feedback_trial,59,image-keyboard-response,,
13,Pilot (test data collection),True,1,,False,False,111,1,,1,False,False,True,True,101,,,,,,,0.0-29.0,,,1,2223,"[2, 1, 0]",stimuli/1111101.jpg,,,559117,,prediction_trial,60,image-keyboard-response,,
13,Pilot (test data collection),,,,,,,,,2,,,,,,,,,,,,0.0-30.0,,, ,1087,,stimuli/11111011.jpg,,,560212,,feedback_trial,61,image-keyboard-response,,
13,Pilot (test data collection),False,0,,True,True,110,2,,2,False,False,False,False,111,,,,,,,0.0-31.0,,,0,4416,[2],stimuli/2110111.jpg,,,564628,,prediction_trial,62,image-keyboard-response,,
13,Pilot (test data collection),,,,,,,,,2,,,,,,,,,,,,0.0-32.0,,, ,1271,,stimuli/21101112.jpg,,,565900,,feedback_trial,63,image-keyboard-response,,
13,Pilot (test data collection),True,1,,False,True,100,0,,0,False,False,False,False,111,,,,,,,0.0-33.0,,,0,3615,[0],stimuli/0100111.jpg,,,569516,,prediction_trial,64,image-keyboard-response,,
13,Pilot (test data collection),,,,,,,,,0,,,,,,,,,,,,0.0-34.0,,, ,1407,,stimuli/01001110.jpg,,,570924,,feedback_trial,65,image-keyboard-response,,
13,Pilot (test data collection),True,1,,True,True,000,2,,2,True,True,True,True,110,,,,,,,0.0-35.0,,,2,2247,[2],stimuli/2000110.jpg,,,573172,,prediction_trial,66,image-keyboard-response,,
13,Pilot (test data collection),,,,,,,,,2,,,,,,,,,,,,0.0-36.0,,, ,912,,stimuli/20001102.jpg,,,574084,,feedback_trial,67,image-keyboard-response,,
13,Pilot (test data collection),True,1,,False,False,111,2,,1,False,False,False,False,011,,,,,,,0.0-37.0,,,1,3767,"[0, 1, 2]",stimuli/2111011.jpg,,,577852,,prediction_trial,68,image-keyboard-response,,
13,Pilot (test data collection),,,,,,,,,0,,,,,,,,,,,,0.0-38.0,,, ,1287,,stimuli/21110111.jpg,,,579140,,feedback_trial,69,image-keyboard-response,,
13,Pilot (test data collection),False,0,,False,False,111,1,,1,False,False,False,False,111,,,,,,,0.0-39.0,,,2,2871,"[1, 2, 0]",stimuli/1111111.jpg,,,582012,,prediction_trial,70,image-keyboard-response,,
13,Pilot (test data collection),,,,,,,,,1,,,,,,,,,,,,0.0-40.0,,, ,3351,,stimuli/11111111.jpg,,,585363,,feedback_trial,71,image-keyboard-response,,
13,Pilot (test data collection),True,1,,False,False,111,0,,0,False,False,True,True,000,,,,,,,0.0-41.0,,,0,2845,"[2, 0, 1]",stimuli/0111000.jpg,,,588209,,prediction_trial,72,image-keyboard-response,,
13,Pilot (test data collection),,,,,,,,,2,,,,,,,,,,,,0.0-42.0,,, ,1074,,stimuli/01110000.jpg,,,589284,,feedback_trial,73,image-keyboard-response,,
13,Pilot (test data collection),False,0,,False,False,111,1,,2,False,False,True,True,001,,,,,,,0.0-43.0,,,1,2527,"[1, 0, 2]",stimuli/1111001.jpg,,,591812,,prediction_trial,74,image-keyboard-response,,
13,Pilot (test data collection),,,,,,,,,1,,,,,,,,,,,,0.0-44.0,,, ,775,,stimuli/11110012.jpg,,,592588,,feedback_trial,75,image-keyboard-response,,
13,Pilot (test data collection),True,1,,True,True,110,2,,2,True,True,True,True,010,,,,,,,0.0-45.0,,,2,2119,[2],stimuli/2110010.jpg,,,594707,,prediction_trial,76,image-keyboard-response,,
13,Pilot (test data collection),,,,,,,,,2,,,,,,,,,,,,0.0-46.0,,, ,800,,stimuli/21100102.jpg,,,595508,,feedback_trial,77,image-keyboard-response,,
13,Pilot (test data collection),False,0,,False,False,011,1,,1,False,False,False,False,110,,,,,,,0.0-47.0,,,0,2015,"[1, 2]",stimuli/1011110.jpg,,,597524,,prediction_trial,78,image-keyboard-response,,
13,Pilot (test data collection),,,,,,,,,1,,,,,,,,,,,,0.0-48.0,,, ,767,,stimuli/10111101.jpg,,,598291,,feedback_trial,79,image-keyboard-response,,
13,Pilot (test data collection),False,0,,False,False,111,0,,0,False,False,False,False,110,,,,,,,0.0-49.0,,,1,2720,"[0, 2, 1]",stimuli/0111110.jpg,,,601012,,prediction_trial,80,image-keyboard-response,,
13,Pilot (test data collection),,,,,,,,,0,,,,,,,,,,,,0.0-50.0,,, ,671,,stimuli/01111100.jpg,,,601683,,feedback_trial,81,image-keyboard-response,,
13,Pilot (test data collection),False,0,,False,False,111,2,,0,False,False,True,True,010,,,,,,,0.0-51.0,,,2,1415,"[0, 2, 1]",stimuli/2111010.jpg,,,603099,,prediction_trial,82,image-keyboard-response,,
13,Pilot (test data collection),,,,,,,,,0,,,,,,,,,,,,0.0-52.0,,, ,656,,stimuli/21110100.jpg,,,603755,,feedback_trial,83,image-keyboard-response,,
13,Pilot (test data collection),False,0,,False,False,111,1,,0,False,False,False,False,011,,,,,,,0.0-53.0,,,1,2015,"[2, 0, 1]",stimuli/1111011.jpg,,,605771,,prediction_trial,84,image-keyboard-response,,
13,Pilot (test data collection),,,,,,,,,2,,,,,,,,,,,,0.0-54.0,,, ,1144,,stimuli/11110110.jpg,,,606916,,feedback_trial,85,image-keyboard-response,,
13,Pilot (test data collection),False,0,,False,False,111,0,,2,False,False,True,True,010,,,,,,,0.0-55.0,,,0,1688,"[0, 2, 1]",stimuli/0111010.jpg,,,608604,,prediction_trial,86,image-keyboard-response,,
13,Pilot (test data collection),,,,,,,,,0,,,,,,,,,,,,0.0-56.0,,, ,751,,stimuli/01110102.jpg,,,609356,,feedback_trial,87,image-keyboard-response,,
13,Pilot (test data collection),True,1,,False,True,100,0,,0,False,True,False,True,100,,,,,,,0.0-57.0,,,0,2727,[0],stimuli/0100100.jpg,,,612083,,prediction_trial,88,image-keyboard-response,,
13,Pilot (test data collection),,,,,,,,,0,,,,,,,,,,,,0.0-58.0,,, ,775,,stimuli/01001000.jpg,,,612859,,feedback_trial,89,image-keyboard-response,,
13,Pilot (test data collection),True,1,,False,True,010,1,,1,False,True,True,True,001,,,,,,,0.0-59.0,,,1,2455,[1],stimuli/1010001.jpg,,,615315,,prediction_trial,90,image-keyboard-response,,
13,Pilot (test data collection),,,,,,,,,1,,,,,,,,,,,,0.0-60.0,,, ,768,,stimuli/10100011.jpg,,,616083,,feedback_trial,91,image-keyboard-response,,
13,Pilot (test data collection),False,0,,True,True,011,0,,0,False,False,False,False,110,,,,,,,0.0-61.0,,,1,3423,[0],stimuli/0011110.jpg,,,619507,,prediction_trial,92,image-keyboard-response,,
13,Pilot (test data collection),,,,,,,,,0,,,,,,,,,,,,0.0-62.0,,, ,927,,stimuli/00111100.jpg,,,620437,,feedback_trial,93,image-keyboard-response,,
13,Pilot (test data collection),False,0,,False,False,111,2,,1,False,False,True,True,110,,,,,,,0.0-63.0,,,2,2096,"[1, 0, 2]",stimuli/2111110.jpg,,,622533,,prediction_trial,94,image-keyboard-response,,
13,Pilot (test data collection),,,,,,,,,1,,,,,,,,,,,,0.0-64.0,,, ,671,,stimuli/21111101.jpg,,,623205,,feedback_trial,95,image-keyboard-response,,
13,Pilot (test data collection),False,0,,False,False,111,0,,0,False,False,True,True,000,,,,,,,0.0-65.0,,,1,2143,"[2, 0, 1]",stimuli/0111000.jpg,,,625349,,prediction_trial,96,image-keyboard-response,,
13,Pilot (test data collection),,,,,,,,,2,,,,,,,,,,,,0.0-66.0,,, ,1119,,stimuli/01110000.jpg,,,626469,,feedback_trial,97,image-keyboard-response,,
13,Pilot (test data collection),True,1,,False,False,111,2,,1,False,False,False,False,101,,,,,,,0.0-67.0,,,1,3184,"[0, 2, 1]",stimuli/2111101.jpg,,,629654,,prediction_trial,98,image-keyboard-response,,
13,Pilot (test data collection),,,,,,,,,0,,,,,,,,,,,,0.0-68.0,,, ,815,,stimuli/21111011.jpg,,,630469,,feedback_trial,99,image-keyboard-response,,
13,Pilot (test data collection),False,0,,True,True,001,0,,0,False,False,False,False,101,,,,,,,0.0-69.0,,,2,3551,[0],stimuli/0001101.jpg,,,634021,,prediction_trial,100,image-keyboard-response,,
13,Pilot (test data collection),,,,,,,,,0,,,,,,,,,,,,0.0-70.0,,, ,847,,stimuli/00011010.jpg,,,634869,,feedback_trial,101,image-keyboard-response,,
13,Pilot (test data collection),True,1,,True,True,000,0,,0,False,True,False,True,100,,,,,,,0.0-71.0,,,0,4631,[0],stimuli/0000100.jpg,,,639501,,prediction_trial,102,image-keyboard-response,,
13,Pilot (test data collection),,,,,,,,,0,,,,,,,,,,,,0.0-72.0,,, ,703,,stimuli/00001000.jpg,,,640205,,feedback_trial,103,image-keyboard-response,,
13,Pilot (test data collection),False,0,,False,True,100,0,,0,False,False,False,False,101,,,,,,,0.0-73.0,,,2,6815,[0],stimuli/0100101.jpg,,,647021,,prediction_trial,104,image-keyboard-response,,
13,Pilot (test data collection),,,,,,,,,0,,,,,,,,,,,,0.0-74.0,,, ,744,,stimuli/01001010.jpg,,,647765,,feedback_trial,105,image-keyboard-response,,
13,Pilot (test data collection),True,1,,False,True,100,0,,0,False,True,True,True,011,,,,,,,0.0-75.0,,,0,2872,[0],stimuli/0100011.jpg,,,650638,,prediction_trial,106,image-keyboard-response,,
13,Pilot (test data collection),,,,,,,,,0,,,,,,,,,,,,0.0-76.0,,, ,927,,stimuli/01000110.jpg,,,651565,,feedback_trial,107,image-keyboard-response,,
13,Pilot (test data collection),True,1,,True,True,011,0,,0,True,True,True,True,011,,,,,,,0.0-77.0,,,0,1927,[0],stimuli/0011011.jpg,,,653493,,prediction_trial,108,image-keyboard-response,,
13,Pilot (test data collection),,,,,,,,,0,,,,,,,,,,,,0.0-78.0,,, ,719,,stimuli/00110110.jpg,,,654213,,feedback_trial,109,image-keyboard-response,,
13,Pilot (test data collection),False,0,,False,False,111,2,,1,False,False,False,False,011,,,,,,,0.0-79.0,,,2,2127,"[0, 1, 2]",stimuli/2111011.jpg,,,656341,,prediction_trial,110,image-keyboard-response,,
13,Pilot (test data collection),,,,,,,,,0,,,,,,,,,,,,0.0-80.0,,, ,703,,stimuli/21110111.jpg,,,657045,,feedback_trial,111,image-keyboard-response,,
13,Pilot (test data collection),False,0,,False,False,111,2,,1,False,False,True,True,100,,,,,,,0.0-81.0,,,2,2584,"[1, 0, 2]",stimuli/2111100.jpg,,,659629,,prediction_trial,112,image-keyboard-response,,
13,Pilot (test data collection),,,,,,,,,1,,,,,,,,,,,,0.0-82.0,,, ,767,,stimuli/21111001.jpg,,,660397,,feedback_trial,113,image-keyboard-response,,
13,Pilot (test data collection),False,0,,False,False,111,0,,0,False,False,False,False,101,,,,,,,0.0-83.0,,,1,3487,"[0, 2, 1]",stimuli/0111101.jpg,,,663885,,prediction_trial,114,image-keyboard-response,,
13,Pilot (test data collection),,,,,,,,,0,,,,,,,,,,,,0.0-84.0,,, ,755,,stimuli/01111010.jpg,,,664645,,feedback_trial,115,image-keyboard-response,,
13,Pilot (test data collection),True,1,,False,False,111,1,,2,False,False,False,False,110,,,,,,,0.0-85.0,,,2,2823,"[0, 1, 2]",stimuli/1111110.jpg,,,667469,,prediction_trial,116,image-keyboard-response,,
13,Pilot (test data collection),,,,,,,,,0,,,,,,,,,,,,0.0-86.0,,, ,760,,stimuli/11111102.jpg,,,668229,,feedback_trial,117,image-keyboard-response,,
13,Pilot (test data collection),True,1,,False,False,111,0,,0,False,False,True,True,011,,,,,,,0.0-87.0,,,0,1807,"[2, 0, 1]",stimuli/0111011.jpg,,,670037,,prediction_trial,118,image-keyboard-response,,
13,Pilot (test data collection),,,,,,,,,2,,,,,,,,,,,,0.0-88.0,,, ,679,,stimuli/01110110.jpg,,,670717,,feedback_trial,119,image-keyboard-response,,
13,Pilot (test data collection),False,0,,False,False,111,0,,1,False,False,True,True,001,,,,,,,0.0-89.0,,,0,2007,"[1, 2, 0]",stimuli/0111001.jpg,,,672725,,prediction_trial,120,image-keyboard-response,,
13,Pilot (test data collection),,,,,,,,,1,,,,,,,,,,,,0.0-90.0,,, ,640,,stimuli/01110011.jpg,,,673365,,feedback_trial,121,image-keyboard-response,,
13,Pilot (test data collection),True,1,,True,True,000,1,,1,False,True,False,True,010,,,,,,,0.0-91.0,,,1,2312,[1],stimuli/1000010.jpg,,,675677,,prediction_trial,122,image-keyboard-response,,
13,Pilot (test data collection),,,,,,,,,1,,,,,,,,,,,,0.0-92.0,,, ,751,,stimuli/10000101.jpg,,,676429,,feedback_trial,123,image-keyboard-response,,
13,Pilot (test data collection),True,1,,True,True,000,2,,2,True,True,True,True,000,,,,,,,0.0-93.0,,,2,2488,[2],stimuli/2000000.jpg,,,678917,,prediction_trial,124,image-keyboard-response,,
13,Pilot (test data collection),,,,,,,,,2,,,,,,,,,,,,0.0-94.0,,, ,703,,stimuli/20000002.jpg,,,679621,,feedback_trial,125,image-keyboard-response,,
13,Pilot (test data collection),False,0,,True,True,010,2,,2,False,False,False,False,101,,,,,,,0.0-95.0,,,1,3903,[2],stimuli/2010101.jpg,,,683521,,prediction_trial,126,image-keyboard-response,,
13,Pilot (test data collection),,,,,,,,,2,,,,,,,,,,,,0.0-96.0,,, ,743,,stimuli/20101012.jpg,,,684265,,feedback_trial,127,image-keyboard-response,,
13,Pilot (test data collection),False,0,,False,False,111,0,,1,False,False,False,False,110,,,,,,,0.0-97.0,,,0,5408,"[0, 2, 1]",stimuli/0111110.jpg,,,689673,,prediction_trial,128,image-keyboard-response,,
13,Pilot (test data collection),,,,,,,,,0,,,,,,,,,,,,0.0-98.0,,, ,671,,stimuli/01111101.jpg,,,690345,,feedback_trial,129,image-keyboard-response,,
13,Pilot (test data collection),False,0,,False,False,111,0,,2,False,False,True,True,001,,,,,,,0.0-99.0,,,0,1871,"[1, 2, 0]",stimuli/0111001.jpg,,,692216,,prediction_trial,130,image-keyboard-response,,
13,Pilot (test data collection),,,,,,,,,1,,,,,,,,,,,,0.0-100.0,,, ,880,,stimuli/01110012.jpg,,,693097,,feedback_trial,131,image-keyboard-response,,
13,Pilot (test data collection),False,0,,False,False,111,1,,1,False,False,False,False,110,,,,,,,0.0-101.0,,,2,1583,"[0, 1, 2]",stimuli/1111110.jpg,,,694681,,prediction_trial,132,image-keyboard-response,,
13,Pilot (test data collection),,,,,,,,,0,,,,,,,,,,,,0.0-102.0,,, ,935,,stimuli/11111101.jpg,,,695617,,feedback_trial,133,image-keyboard-response,,
13,Pilot (test data collection),True,1,,True,True,000,2,,2,False,False,False,False,101,,,,,,,0.0-103.0,,,2,3071,[2],stimuli/2000101.jpg,,,698689,,prediction_trial,134,image-keyboard-response,,
13,Pilot (test data collection),,,,,,,,,2,,,,,,,,,,,,0.0-104.0,,, ,799,,stimuli/20001012.jpg,,,699488,,feedback_trial,135,image-keyboard-response,,
13,Pilot (test data collection),True,1,,True,True,001,1,,1,True,True,True,True,000,,,,,,,0.0-105.0,,,1,1512,[1],stimuli/1001000.jpg,,,701001,,prediction_trial,136,image-keyboard-response,,
13,Pilot (test data collection),,,,,,,,,1,,,,,,,,,,,,0.0-106.0,,, ,647,,stimuli/10010001.jpg,,,701649,,feedback_trial,137,image-keyboard-response,,
13,Pilot (test data collection),False,0,,False,False,111,2,,0,False,False,True,True,110,,,,,,,0.0-107.0,,,2,1983,"[1, 0, 2]",stimuli/2111110.jpg,,,703633,,prediction_trial,138,image-keyboard-response,,
13,Pilot (test data collection),,,,,,,,,1,,,,,,,,,,,,0.0-108.0,,, ,671,,stimuli/21111100.jpg,,,704305,,feedback_trial,139,image-keyboard-response,,
13,Pilot (test data collection),False,0,,False,False,111,0,,1,False,False,True,True,001,,,,,,,0.0-109.0,,,0,1632,"[1, 2, 0]",stimuli/0111001.jpg,,,705937,,prediction_trial,140,image-keyboard-response,,
13,Pilot (test data collection),,,,,,,,,1,,,,,,,,,,,,0.0-110.0,,, ,615,,stimuli/01110011.jpg,,,706553,,feedback_trial,141,image-keyboard-response,,
13,Pilot (test data collection),False,0,,False,False,111,2,,2,False,False,True,True,110,,,,,,,0.0-111.0,,,1,1335,"[1, 0, 2]",stimuli/2111110.jpg,,,707889,,prediction_trial,142,image-keyboard-response,,
13,Pilot (test data collection),,,,,,,,,1,,,,,,,,,,,,0.0-112.0,,, ,648,,stimuli/21111102.jpg,,,708537,,feedback_trial,143,image-keyboard-response,,
13,Pilot (test data collection),False,0,,False,False,111,0,,2,False,False,False,False,111,,,,,,,0.0-113.0,,,1,2039,"[0, 2, 1]",stimuli/0111111.jpg,,,710576,,prediction_trial,144,image-keyboard-response,,
13,Pilot (test data collection),,,,,,,,,0,,,,,,,,,,,,0.0-114.0,,, ,576,,stimuli/01111112.jpg,,,711153,,feedback_trial,145,image-keyboard-response,,
13,Pilot (test data collection),True,1,,True,True,001,1,,1,False,True,False,True,010,,,,,,,0.0-115.0,,,1,2263,[1],stimuli/1001010.jpg,,,713417,,prediction_trial,146,image-keyboard-response,,
13,Pilot (test data collection),,,,,,,,,1,,,,,,,,,,,,0.0-116.0,,, ,655,,stimuli/10010101.jpg,,,714073,,feedback_trial,147,image-keyboard-response,,
13,Pilot (test data collection),False,0,,False,False,111,0,,1,False,False,True,True,000,,,,,,,0.0-117.0,,,0,1815,"[2, 0, 1]",stimuli/0111000.jpg,,,715889,,prediction_trial,148,image-keyboard-response,,
13,Pilot (test data collection),,,,,,,,,2,,,,,,,,,,,,0.0-118.0,,, ,776,,stimuli/01110001.jpg,,,716665,,feedback_trial,149,image-keyboard-response,,
13,Pilot (test data collection),False,0,,True,True,010,0,,0,False,False,False,False,101,,,,,,,0.0-119.0,,,1,4848,[0],stimuli/0010101.jpg,,,721513,,prediction_trial,150,image-keyboard-response,,
13,Pilot (test data collection),,,,,,,,,0,,,,,,,,,,,,0.0-120.0,,, ,663,,stimuli/00101010.jpg,,,722177,,feedback_trial,151,image-keyboard-response,,
13,Pilot (test data collection),True,1,,False,False,111,1,,1,False,False,True,True,101,,,,,,,0.0-121.0,,,1,1663,"[2, 1, 0]",stimuli/1111101.jpg,,,723841,,prediction_trial,152,image-keyboard-response,,
13,Pilot (test data collection),,,,,,,,,2,,,,,,,,,,,,0.0-122.0,,, ,639,,stimuli/11111011.jpg,,,724481,,feedback_trial,153,image-keyboard-response,,
13,Pilot (test data collection),True,1,,False,False,101,2,,2,False,False,False,False,101,,,,,,,0.0-123.0,,,2,3264,"[2, 0]",stimuli/2101101.jpg,,,727745,,prediction_trial,154,image-keyboard-response,,
13,Pilot (test data collection),,,,,,,,,2,,,,,,,,,,,,0.0-124.0,,, ,807,,stimuli/21011012.jpg,,,728553,,feedback_trial,155,image-keyboard-response,,
13,Pilot (test data collection),False,0,,True,True,000,2,,2,False,False,False,False,111,,,,,,,0.0-125.0,,,0,2327,[2],stimuli/2000111.jpg,,,730880,,prediction_trial,156,image-keyboard-response,,
13,Pilot (test data collection),,,,,,,,,2,,,,,,,,,,,,0.0-126.0,,, ,640,,stimuli/20001112.jpg,,,731521,,feedback_trial,157,image-keyboard-response,,
13,Pilot (test data collection),True,1,,False,False,111,0,,0,False,False,False,True,100,,,,,,,0.0-127.0,,,0,3847,"[2, 0, 1]",stimuli/0111100.jpg,,,735369,,prediction_trial,158,image-keyboard-response,,
13,Pilot (test data collection),,,,,,,,,2,,,,,,,,,,,,0.0-128.0,,, ,887,,stimuli/01111000.jpg,,,736256,,feedback_trial,159,image-keyboard-response,,
13,Pilot (test data collection),True,1,,True,True,110,2,,2,True,True,True,True,100,,,,,,,0.0-129.0,,,2,1960,[2],stimuli/2110100.jpg,,,738217,,prediction_trial,160,image-keyboard-response,,
13,Pilot (test data collection),,,,,,,,,2,,,,,,,,,,,,0.0-130.0,,, ,687,,stimuli/21101002.jpg,,,738905,,feedback_trial,161,image-keyboard-response,,
13,Pilot (test data collection),False,0,,True,True,110,2,,2,False,False,False,False,101,,,,,,,0.0-131.0,,,1,3423,[2],stimuli/2110101.jpg,,,742329,,prediction_trial,162,image-keyboard-response,,
13,Pilot (test data collection),,,,,,,,,2,,,,,,,,,,,,0.0-132.0,,, ,671,,stimuli/21101012.jpg,,,743001,,feedback_trial,163,image-keyboard-response,,
13,Pilot (test data collection),True,1,,False,False,011,1,,1,False,False,False,True,010,,,,,,,0.0-133.0,,,1,4759,"[1, 2]",stimuli/1011010.jpg,,,747764,,prediction_trial,164,image-keyboard-response,,
13,Pilot (test data collection),,,,,,,,,1,,,,,,,,,,,,0.0-134.0,,, ,663,,stimuli/10110101.jpg,,,748428,,feedback_trial,165,image-keyboard-response,,
13,Pilot (test data collection),True,1,,False,False,110,1,,0,False,False,False,True,010,,,,,,,0.0-135.0,,,0,2999,"[0, 1]",stimuli/1110010.jpg,,,751428,,prediction_trial,166,image-keyboard-response,,
13,Pilot (test data collection),,,,,,,,,0,,,,,,,,,,,,0.0-136.0,,, ,679,,stimuli/11100100.jpg,,,752108,,feedback_trial,167,image-keyboard-response,,
13,Pilot (test data collection),False,0,,False,False,111,1,,2,False,False,True,True,101,,,,,,,0.0-137.0,,,1,3032,"[2, 1, 0]",stimuli/1111101.jpg,,,755140,,prediction_trial,168,image-keyboard-response,,
13,Pilot (test data collection),,,,,,,,,2,,,,,,,,,,,,0.0-138.0,,, ,1375,,stimuli/11111012.jpg,,,756516,,feedback_trial,169,image-keyboard-response,,
13,Pilot (test data collection),True,1,,False,False,111,0,,0,False,False,False,False,111,,,,,,,0.0-139.0,,,0,2127,"[0, 2, 1]",stimuli/0111111.jpg,,,758644,,prediction_trial,170,image-keyboard-response,,
13,Pilot (test data collection),,,,,,,,,0,,,,,,,,,,,,0.0-140.0,,, ,639,,stimuli/01111110.jpg,,,759284,,feedback_trial,171,image-keyboard-response,,
13,Pilot (test data collection),False,0,,True,True,000,1,,1,False,False,False,False,111,,,,,,,0.0-141.0,,,2,2583,[1],stimuli/1000111.jpg,,,761868,,prediction_trial,172,image-keyboard-response,,
13,Pilot (test data collection),,,,,,,,,1,,,,,,,,,,,,0.0-142.0,,, ,687,,stimuli/10001111.jpg,,,762556,,feedback_trial,173,image-keyboard-response,,
13,Pilot (test data collection),True,1,,False,False,111,2,,2,False,False,False,True,001,,,,,,,0.0-143.0,,,2,2736,"[1, 2, 0]",stimuli/2111001.jpg,,,765293,,prediction_trial,174,image-keyboard-response,,
13,Pilot (test data collection),,,,,,,,,1,,,,,,,,,,,,0.0-144.0,,, ,711,,stimuli/21110012.jpg,,,766004,,feedback_trial,175,image-keyboard-response,,
13,Pilot (test data collection),False,0,,False,False,101,0,,2,False,False,True,True,010,,,,,,,0.0-145.0,,,0,3383,"[0, 2]",stimuli/0101010.jpg,,,769388,,prediction_trial,176,image-keyboard-response,,
13,Pilot (test data collection),,,,,,,,,0,,,,,,,,,,,,0.0-146.0,,, ,663,,stimuli/01010102.jpg,,,770052,,feedback_trial,177,image-keyboard-response,,
13,Pilot (test data collection),False,0,,True,True,100,2,,2,False,False,False,False,111,,,,,,,0.0-147.0,,,1,4216,[2],stimuli/2100111.jpg,,,774268,,prediction_trial,178,image-keyboard-response,,
13,Pilot (test data collection),,,,,,,,,2,,,,,,,,,,,,0.0-148.0,,, ,775,,stimuli/21001112.jpg,,,775044,,feedback_trial,179,image-keyboard-response,,
13,Pilot (test data collection),True,1,,True,True,110,2,,2,True,True,True,True,000,,,,,,,0.0-149.0,,,2,1592,[2],stimuli/2110000.jpg,,,776637,,prediction_trial,180,image-keyboard-response,,
13,Pilot (test data collection),,,,,,,,,2,,,,,,,,,,,,0.0-150.0,,, ,599,,stimuli/21100002.jpg,,,777236,,feedback_trial,181,image-keyboard-response,,
13,Pilot (test data collection),True,1,,True,True,001,0,,0,True,True,True,True,001,,,,,,,0.0-151.0,,,0,1487,[0],stimuli/0001001.jpg,,,778724,,prediction_trial,182,image-keyboard-response,,
13,Pilot (test data collection),,,,,,,,,0,,,,,,,,,,,,0.0-152.0,,, ,527,,stimuli/00010010.jpg,,,779252,,feedback_trial,183,image-keyboard-response,,
13,Pilot (test data collection),False,0,,False,False,111,2,,0,False,False,False,False,101,,,,,,,0.0-153.0,,,1,2439,"[0, 2, 1]",stimuli/2111101.jpg,,,781692,,prediction_trial,184,image-keyboard-response,,
13,Pilot (test data collection),,,,,,,,,0,,,,,,,,,,,,0.0-154.0,,, ,719,,stimuli/21111010.jpg,,,782412,,feedback_trial,185,image-keyboard-response,,
13,Pilot (test data collection),False,0,,False,False,111,2,,0,False,False,False,False,111,,,,,,,0.0-155.0,,,1,1823,"[2, 1, 0]",stimuli/2111111.jpg,,,784236,,prediction_trial,186,image-keyboard-response,,
13,Pilot (test data collection),,,,,,,,,2,,,,,,,,,,,,0.0-156.0,,, ,615,,stimuli/21111110.jpg,,,784852,,feedback_trial,187,image-keyboard-response,,
13,Pilot (test data collection),True,1,,False,False,111,1,,1,False,False,False,False,110,,,,,,,0.0-157.0,,,1,1856,"[0, 1, 2]",stimuli/1111110.jpg,,,786709,,prediction_trial,188,image-keyboard-response,,
13,Pilot (test data collection),,,,,,,,,0,,,,,,,,,,,,0.0-158.0,,, ,671,,stimuli/11111101.jpg,,,787380,,feedback_trial,189,image-keyboard-response,,
13,Pilot (test data collection),False,0,,False,False,111,2,,2,False,False,False,False,111,,,,,,,0.0-159.0,,,0,1807,"[2, 1, 0]",stimuli/2111111.jpg,,,789188,,prediction_trial,190,image-keyboard-response,,
13,Pilot (test data collection),,,,,,,,,2,,,,,,,,,,,,0.0-160.0,,, ,600,,stimuli/21111112.jpg,,,789789,,feedback_trial,191,image-keyboard-response,,
13,Pilot (test data collection),False,0,,False,False,111,2,,0,False,False,True,True,100,,,,,,,0.0-161.0,,,2,1999,"[1, 0, 2]",stimuli/2111100.jpg,,,791788,,prediction_trial,192,image-keyboard-response,,
13,Pilot (test data collection),,,,,,,,,1,,,,,,,,,,,,0.0-162.0,,, ,719,,stimuli/21111000.jpg,,,792508,,feedback_trial,193,image-keyboard-response,,
13,Pilot (test data collection),True,1,,True,True,101,1,,1,True,True,True,True,101,,,,,,,0.0-163.0,,,1,1559,[1],stimuli/1101101.jpg,,,794068,,prediction_trial,194,image-keyboard-response,,
13,Pilot (test data collection),,,,,,,,,1,,,,,,,,,,,,0.0-164.0,,, ,575,,stimuli/11011011.jpg,,,794644,,feedback_trial,195,image-keyboard-response,,
13,Pilot (test data collection),True,1,,True,True,010,2,,2,False,True,False,True,001,,,,,,,0.0-165.0,,,2,2415,[2],stimuli/2010001.jpg,,,797060,,prediction_trial,196,image-keyboard-response,,
13,Pilot (test data collection),,,,,,,,,2,,,,,,,,,,,,0.0-166.0,,, ,599,,stimuli/20100012.jpg,,,797660,,feedback_trial,197,image-keyboard-response,,
13,Pilot (test data collection),True,1,,True,True,001,1,,1,False,False,False,False,110,,,,,,,0.0-167.0,,,1,3247,[1],stimuli/1001110.jpg,,,800908,,prediction_trial,198,image-keyboard-response,,
13,Pilot (test data collection),,,,,,,,,1,,,,,,,,,,,,0.0-168.0,,, ,583,,stimuli/10011101.jpg,,,801492,,feedback_trial,199,image-keyboard-response,,
13,Pilot (test data collection),False,0,,True,True,100,1,,1,False,False,False,False,110,,,,,,,0.0-169.0,,,0,2871,[1],stimuli/1100110.jpg,,,804364,,prediction_trial,200,image-keyboard-response,,
13,Pilot (test data collection),,,,,,,,,1,,,,,,,,,,,,0.0-170.0,,, ,599,,stimuli/11001101.jpg,,,804964,,feedback_trial,201,image-keyboard-response,,
13,Pilot (test data collection),True,1,,True,True,011,0,,0,False,True,False,True,100,,,,,,,0.0-171.0,,,0,1928,[0],stimuli/0011100.jpg,,,806892,,prediction_trial,202,image-keyboard-response,,
13,Pilot (test data collection),,,,,,,,,0,,,,,,,,,,,,0.0-172.0,,, ,520,,stimuli/00111000.jpg,,,807412,,feedback_trial,203,image-keyboard-response,,
13,Pilot (test data collection),True,1,,True,True,110,2,,2,False,True,False,True,001,,,,,,,0.0-173.0,,,2,1831,[2],stimuli/2110001.jpg,,,809246,,prediction_trial,204,image-keyboard-response,,
13,Pilot (test data collection),,,,,,,,,2,,,,,,,,,,,,0.0-174.0,,, ,615,,stimuli/21100012.jpg,,,809862,,feedback_trial,205,image-keyboard-response,,
13,Pilot (test data collection),True,1,,True,True,010,0,,0,True,True,True,True,011,,,,,,,0.0-175.0,,,0,1423,[0],stimuli/0010011.jpg,,,811286,,prediction_trial,206,image-keyboard-response,,
13,Pilot (test data collection),,,,,,,,,0,,,,,,,,,,,,0.0-176.0,,, ,615,,stimuli/00100110.jpg,,,811902,,feedback_trial,207,image-keyboard-response,,
13,Pilot (test data collection),False,0,,False,False,111,1,,2,False,False,True,True,100,,,,,,,0.0-177.0,,,1,1663,"[1, 2, 0]",stimuli/1111100.jpg,,,813565,,prediction_trial,208,image-keyboard-response,,
13,Pilot (test data collection),,,,,,,,,1,,,,,,,,,,,,0.0-178.0,,, ,568,,stimuli/11111002.jpg,,,814134,,feedback_trial,209,image-keyboard-response,,
13,Pilot (test data collection),False,0,,False,False,111,0,,1,False,False,False,False,110,,,,,,,0.0-179.0,,,2,5823,"[0, 2, 1]",stimuli/0111110.jpg,,,819958,,prediction_trial,210,image-keyboard-response,,
13,Pilot (test data collection),,,,,,,,,0,,,,,,,,,,,,0.0-180.0,,, ,891,,stimuli/01111101.jpg,,,820854,,feedback_trial,211,image-keyboard-response,,
13,Pilot (test data collection),True,1,,False,False,111,1,,1,False,False,True,True,000,,,,,,,0.0-181.0,,,1,2703,"[1, 2, 0]",stimuli/1111000.jpg,,,823558,,prediction_trial,212,image-keyboard-response,,
13,Pilot (test data collection),,,,,,,,,1,,,,,,,,,,,,0.0-182.0,,, ,1383,,stimuli/11110001.jpg,,,824942,,feedback_trial,213,image-keyboard-response,,
13,Pilot (test data collection),False,0,,False,False,111,2,,0,False,False,True,True,000,,,,,,,0.0-183.0,,,2,1135,"[0, 1, 2]",stimuli/2111000.jpg,,,826078,,prediction_trial,214,image-keyboard-response,,
13,Pilot (test data collection),,,,,,,,,0,,,,,,,,,,,,0.0-184.0,,, ,663,,stimuli/21110000.jpg,,,826742,,feedback_trial,215,image-keyboard-response,,
13,Pilot (test data collection),False,0,,False,False,111,2,,0,False,False,True,True,010,,,,,,,0.0-185.0,,,2,1615,"[0, 2, 1]",stimuli/2111010.jpg,,,828358,,prediction_trial,216,image-keyboard-response,,
13,Pilot (test data collection),,,,,,,,,0,,,,,,,,,,,,0.0-186.0,,, ,551,,stimuli/21110100.jpg,,,828910,,feedback_trial,217,image-keyboard-response,,
13,Pilot (test data collection),False,0,,False,False,111,2,,0,False,False,False,True,001,,,,,,,0.0-187.0,,,2,1343,"[1, 2, 0]",stimuli/2111001.jpg,,,830253,,prediction_trial,218,image-keyboard-response,,
13,Pilot (test data collection),,,,,,,,,1,,,,,,,,,,,,0.0-188.0,,, ,448,,stimuli/21110010.jpg,,,830702,,feedback_trial,219,image-keyboard-response,,
13,Pilot (test data collection),False,0,,False,False,111,2,,0,False,False,True,True,000,,,,,,,0.0-189.0,,,2,2576,"[0, 1, 2]",stimuli/2111000.jpg,,,833278,,prediction_trial,220,image-keyboard-response,,
13,Pilot (test data collection),,,,,,,,,0,,,,,,,,,,,,0.0-190.0,,, ,695,,stimuli/21110000.jpg,,,833974,,feedback_trial,221,image-keyboard-response,,
13,Pilot (test data collection),False,0,,False,False,111,0,,0,False,False,False,False,101,,,,,,,0.0-191.0,,,1,2239,"[0, 2, 1]",stimuli/0111101.jpg,,,836214,,prediction_trial,222,image-keyboard-response,,
13,Pilot (test data collection),,,,,,,,,0,,,,,,,,,,,,0.0-192.0,,, ,807,,stimuli/01111010.jpg,,,837022,,feedback_trial,223,image-keyboard-response,,
13,Pilot (test data collection),True,1,,True,True,000,1,,1,True,True,True,True,000,,,,,,,0.0-193.0,,,1,1247,[1],stimuli/1000000.jpg,,,838270,,prediction_trial,224,image-keyboard-response,,
13,Pilot (test data collection),,,,,,,,,1,,,,,,,,,,,,0.0-194.0,,, ,535,,stimuli/10000001.jpg,,,838806,,feedback_trial,225,image-keyboard-response,,
13,Pilot (test data collection),True,1,,False,True,100,0,,0,False,False,False,False,110,,,,,,,0.0-195.0,,,0,3248,[0],stimuli/0100110.jpg,,,842054,,prediction_trial,226,image-keyboard-response,,
13,Pilot (test data collection),,,,,,,,,0,,,,,,,,,,,,0.0-196.0,,, ,703,,stimuli/01001100.jpg,,,842758,,feedback_trial,227,image-keyboard-response,,
13,Pilot (test data collection),True,1,,True,True,000,0,,0,True,True,True,True,010,,,,,,,0.0-197.0,,,0,1591,[0],stimuli/0000010.jpg,,,844350,,prediction_trial,228,image-keyboard-response,,
13,Pilot (test data collection),,,,,,,,,0,,,,,,,,,,,,0.0-198.0,,, ,663,,stimuli/00000100.jpg,,,845014,,feedback_trial,229,image-keyboard-response,,
13,Pilot (test data collection),False,0,,False,False,111,2,,0,False,False,True,True,000,,,,,,,0.0-199.0,,,2,1591,"[0, 1, 2]",stimuli/2111000.jpg,,,846606,,prediction_trial,230,image-keyboard-response,,
13,Pilot (test data collection),,,,,,,,,0,,,,,,,,,,,,0.0-200.0,,, ,975,,stimuli/21110000.jpg,,,847582,,feedback_trial,231,image-keyboard-response,,
13,Pilot (test data collection),True,1,,True,True,110,2,,2,True,True,True,True,110,,,,,,,0.0-201.0,,,2,2007,[2],stimuli/2110110.jpg,,,849590,,prediction_trial,232,image-keyboard-response,,
13,Pilot (test data collection),,,,,,,,,2,,,,,,,,,,,,0.0-202.0,,, ,911,,stimuli/21101102.jpg,,,850502,,feedback_trial,233,image-keyboard-response,,
13,Pilot (test data collection),True,1,,False,False,111,0,,1,False,False,False,False,111,,,,,,,0.0-203.0,,,1,1624,"[0, 2, 1]",stimuli/0111111.jpg,,,852126,,prediction_trial,234,image-keyboard-response,,
13,Pilot (test data collection),,,,,,,,,0,,,,,,,,,,,,0.0-204.0,,, ,1431,,stimuli/01111111.jpg,,,853558,,feedback_trial,235,image-keyboard-response,,
13,Pilot (test data collection),True,1,,False,False,101,2,,2,False,False,True,True,100,,,,,,,0.0-205.0,,,2,2055,"[2, 0]",stimuli/2101100.jpg,,,855614,,prediction_trial,236,image-keyboard-response,,
13,Pilot (test data collection),,,,,,,,,2,,,,,,,,,,,,0.0-206.0,,, ,1383,,stimuli/21011002.jpg,,,856998,,feedback_trial,237,image-keyboard-response,,
13,Pilot (test data collection),True,1,,False,True,010,1,,1,False,True,False,True,010,,,,,,,0.0-207.0,,,1,1783,[1],stimuli/1010010.jpg,,,858782,,prediction_trial,238,image-keyboard-response,,
13,Pilot (test data collection),,,,,,,,,1,,,,,,,,,,,,0.0-208.0,,, ,999,,stimuli/10100101.jpg,,,859781,,feedback_trial,239,image-keyboard-response,,
13,Pilot (test data collection),False,0,,False,False,111,1,,2,False,False,True,True,100,,,,,,,0.0-209.0,,,1,1736,"[1, 2, 0]",stimuli/1111100.jpg,,,861518,,prediction_trial,240,image-keyboard-response,,
13,Pilot (test data collection),,,,,,,,,1,,,,,,,,,,,,0.0-210.0,,, ,712,,stimuli/11111002.jpg,,,862230,,feedback_trial,241,image-keyboard-response,,
13,Pilot (test data collection),True,1,,True,True,000,0,,0,True,True,True,True,001,,,,,,,0.0-211.0,,,0,1327,[0],stimuli/0000001.jpg,,,863557,,prediction_trial,242,image-keyboard-response,,
13,Pilot (test data collection),,,,,,,,,0,,,,,,,,,,,,0.0-212.0,,, ,663,,stimuli/00000010.jpg,,,864222,,feedback_trial,243,image-keyboard-response,,
13,Pilot (test data collection),False,0,,False,False,111,2,,2,False,False,False,False,111,,,,,,,0.0-213.0,,,1,1279,"[2, 1, 0]",stimuli/2111111.jpg,,,865502,,prediction_trial,244,image-keyboard-response,,
13,Pilot (test data collection),,,,,,,,,2,,,,,,,,,,,,0.0-214.0,,, ,743,,stimuli/21111112.jpg,,,866246,,feedback_trial,245,image-keyboard-response,,
13,Pilot (test data collection),False,0,,False,False,111,2,,1,False,False,False,False,011,,,,,,,0.0-215.0,,,0,2519,"[0, 1, 2]",stimuli/2111011.jpg,,,868766,,prediction_trial,246,image-keyboard-response,,
13,Pilot (test data collection),,,,,,,,,0,,,,,,,,,,,,0.0-216.0,,, ,999,,stimuli/21110111.jpg,,,869767,,feedback_trial,247,image-keyboard-response,,
13,Pilot (test data collection),True,1,,False,True,001,2,,2,False,True,True,True,100,,,,,,,0.0-217.0,,,2,1727,[2],stimuli/2001100.jpg,,,871495,,prediction_trial,248,image-keyboard-response,,
13,Pilot (test data collection),,,,,,,,,2,,,,,,,,,,,,0.0-218.0,,, ,903,,stimuli/20011002.jpg,,,872400,,feedback_trial,249,image-keyboard-response,,
13,Pilot (test data collection),True,1,,True,True,101,1,,1,False,True,False,True,010,,,,,,,0.0-219.0,,,1,3383,[1],stimuli/1101010.jpg,,,875783,,prediction_trial,250,image-keyboard-response,,
13,Pilot (test data collection),,,,,,,,,1,,,,,,,,,,,,0.0-220.0,,, ,943,,stimuli/11010101.jpg,,,876727,,feedback_trial,251,image-keyboard-response,,
13,Pilot (test data collection),True,1,,True,True,100,1,,1,True,True,True,True,100,,,,,,,0.0-221.0,,,1,1423,[1],stimuli/1100100.jpg,,,878151,,prediction_trial,252,image-keyboard-response,,
13,Pilot (test data collection),,,,,,,,,1,,,,,,,,,,,,0.0-222.0,,, ,671,,stimuli/11001001.jpg,,,878823,,feedback_trial,253,image-keyboard-response,,
13,Pilot (test data collection),True,1,,True,True,000,1,,1,True,True,True,True,101,,,,,,,0.0-223.0,,,1,1599,[1],stimuli/1000101.jpg,,,880423,,prediction_trial,254,image-keyboard-response,,
13,Pilot (test data collection),,,,,,,,,1,,,,,,,,,,,,0.0-224.0,,, ,591,,stimuli/10001011.jpg,,,881015,,feedback_trial,255,image-keyboard-response,,
13,Pilot (test data collection),False,0,,False,False,111,0,,1,False,False,False,False,101,,,,,,,0.0-225.0,,,2,2247,"[0, 2, 1]",stimuli/0111101.jpg,,,883263,,prediction_trial,256,image-keyboard-response,,
13,Pilot (test data collection),,,,,,,,,0,,,,,,,,,,,,0.0-226.0,,, ,2191,,stimuli/01111011.jpg,,,885455,,feedback_trial,257,image-keyboard-response,,
13,Pilot (test data collection),True,1,,False,True,001,2,,2,False,True,True,True,110,,,,,,,0.0-227.0,,,2,1351,[2],stimuli/2001110.jpg,,,886807,,prediction_trial,258,image-keyboard-response,,
13,Pilot (test data collection),,,,,,,,,2,,,,,,,,,,,,0.0-228.0,,, ,907,,stimuli/20011102.jpg,,,887719,,feedback_trial,259,image-keyboard-response,,
13,Pilot (test data collection),True,1,,False,False,111,1,,1,False,False,True,True,000,,,,,,,0.0-229.0,,,1,1039,"[1, 2, 0]",stimuli/1111000.jpg,,,888759,,prediction_trial,260,image-keyboard-response,,
13,Pilot (test data collection),,,,,,,,,1,,,,,,,,,,,,0.0-230.0,,, ,1143,,stimuli/11110001.jpg,,,889903,,feedback_trial,261,image-keyboard-response,,
13,Pilot (test data collection),True,1,,False,False,111,0,,0,False,False,True,True,011,,,,,,,0.0-231.0,,,0,1175,"[2, 0, 1]",stimuli/0111011.jpg,,,891079,,prediction_trial,262,image-keyboard-response,,
13,Pilot (test data collection),,,,,,,,,2,,,,,,,,,,,,0.0-232.0,,, ,1399,,stimuli/01110110.jpg,,,892479,,feedback_trial,263,image-keyboard-response,,
13,Pilot (test data collection),False,0,,True,True,011,0,,0,False,False,False,False,111,,,,,,,0.0-233.0,,,1,2168,[0],stimuli/0011111.jpg,,,894648,,prediction_trial,264,image-keyboard-response,,
13,Pilot (test data collection),,,,,,,,,0,,,,,,,,,,,,0.0-234.0,,, ,2103,,stimuli/00111110.jpg,,,896751,,feedback_trial,265,image-keyboard-response,,
13,Pilot (test data collection),True,1,,False,True,100,0,,0,False,True,True,True,010,,,,,,,0.0-235.0,,,0,3559,[0],stimuli/0100010.jpg,,,900311,,prediction_trial,266,image-keyboard-response,,
13,Pilot (test data collection),,,,,,,,,0,,,,,,,,,,,,0.0-236.0,,, ,903,,stimuli/01000100.jpg,,,901215,,feedback_trial,267,image-keyboard-response,,
13,Pilot (test data collection),True,1,,True,True,010,0,,0,True,True,True,True,000,,,,,,,0.0-237.0,,,0,1903,[0],stimuli/0010000.jpg,,,903119,,prediction_trial,268,image-keyboard-response,,
13,Pilot (test data collection),,,,,,,,,0,,,,,,,,,,,,0.0-238.0,,, ,647,,stimuli/00100000.jpg,,,903767,,feedback_trial,269,image-keyboard-response,,
13,Pilot (test data collection),True,1,,False,False,111,1,,1,False,False,False,False,111,,,,,,,0.0-239.0,,,1,1368,"[1, 2, 0]",stimuli/1111111.jpg,,,905136,,prediction_trial,270,image-keyboard-response,,
13,Pilot (test data collection),,,,,,,,,1,,,,,,,,,,,,0.0-240.0,,, ,831,,stimuli/11111111.jpg,,,905967,,feedback_trial,271,image-keyboard-response,,
13,Pilot (test data collection),False,0,,False,False,111,0,,1,False,False,False,True,100,,,,,,,0.0-241.0,,,0,1831,"[2, 0, 1]",stimuli/0111100.jpg,,,907799,,prediction_trial,272,image-keyboard-response,,
13,Pilot (test data collection),,,,,,,,,2,,,,,,,,,,,,0.0-242.0,,, ,703,,stimuli/01111001.jpg,,,908503,,feedback_trial,273,image-keyboard-response,,
13,Pilot (test data collection),False,0,,False,False,111,1,,0,False,False,False,True,010,,,,,,,0.0-243.0,,,1,3279,"[1, 2, 0]",stimuli/1111010.jpg,,,911783,,prediction_trial,274,image-keyboard-response,,
13,Pilot (test data collection),,,,,,,,,1,,,,,,,,,,,,0.0-244.0,,, ,1615,,stimuli/11110100.jpg,,,913399,,feedback_trial,275,image-keyboard-response,,
13,Pilot (test data collection),True,1,,False,False,111,1,,1,False,False,False,False,011,,,,,,,0.0-245.0,,,1,1735,"[2, 0, 1]",stimuli/1111011.jpg,,,915135,,prediction_trial,276,image-keyboard-response,,
13,Pilot (test data collection),,,,,,,,,2,,,,,,,,,,,,0.0-246.0,,, ,1160,,stimuli/11110111.jpg,,,916296,,feedback_trial,277,image-keyboard-response,,
13,Pilot (test data collection),True,1,,False,False,011,2,,2,False,False,True,True,000,,,,,,,0.0-247.0,,,2,1399,"[2, 1]",stimuli/2011000.jpg,,,917695,,prediction_trial,278,image-keyboard-response,,
13,Pilot (test data collection),,,,,,,,,2,,,,,,,,,,,,0.0-248.0,,, ,744,,stimuli/20110002.jpg,,,918439,,feedback_trial,279,image-keyboard-response,,
13,Pilot (test data collection),True,1,,False,True,001,2,,2,False,True,True,True,010,,,,,,,0.0-249.0,,,2,1919,[2],stimuli/2001010.jpg,,,920359,,prediction_trial,280,image-keyboard-response,,
13,Pilot (test data collection),,,,,,,,,2,,,,,,,,,,,,0.0-250.0,,, ,791,,stimuli/20010102.jpg,,,921151,,feedback_trial,281,image-keyboard-response,,
13,Pilot (test data collection),False,0,,False,False,011,1,,2,False,False,True,True,101,,,,,,,0.0-251.0,,,1,1383,"[1, 2]",stimuli/1011101.jpg,,,922535,,prediction_trial,282,image-keyboard-response,,
13,Pilot (test data collection),,,,,,,,,1,,,,,,,,,,,,0.0-252.0,,, ,871,,stimuli/10111012.jpg,,,923407,,feedback_trial,283,image-keyboard-response,,
13,Pilot (test data collection),False,0,,False,False,101,0,,2,False,False,True,True,000,,,,,,,0.0-253.0,,,0,1375,"[2, 0]",stimuli/0101000.jpg,,,924783,,prediction_trial,284,image-keyboard-response,,
13,Pilot (test data collection),,,,,,,,,2,,,,,,,,,,,,0.0-254.0,,, ,983,,stimuli/01010002.jpg,,,925767,,feedback_trial,285,image-keyboard-response,,
13,Pilot (test data collection),True,1,,False,False,111,1,,1,False,False,True,True,000,,,,,,,0.0-255.0,,,1,1268,"[1, 2, 0]",stimuli/1111000.jpg,,,927039,,prediction_trial,286,image-keyboard-response,,
13,Pilot (test data collection),,,,,,,,,1,,,,,,,,,,,,0.0-256.0,,, ,911,,stimuli/11110001.jpg,,,927951,,feedback_trial,287,image-keyboard-response,,
13,Pilot (test data collection),False,0,,True,True,000,0,,0,False,False,False,False,110,,,,,,,0.0-257.0,,,1,4703,[0],stimuli/0000110.jpg,,,932656,,prediction_trial,288,image-keyboard-response,,
13,Pilot (test data collection),,,,,,,,,0,,,,,,,,,,,,0.0-258.0,,, ,1527,,stimuli/00001100.jpg,,,934184,,feedback_trial,289,image-keyboard-response,,
13,Pilot (test data collection),False,0,,False,False,111,1,,0,False,False,True,True,001,,,,,,,0.0-259.0,,,1,1527,"[1, 0, 2]",stimuli/1111001.jpg,,,935712,,prediction_trial,290,image-keyboard-response,,
13,Pilot (test data collection),,,,,,,,,1,,,,,,,,,,,,0.0-260.0,,, ,1247,,stimuli/11110010.jpg,,,936960,,feedback_trial,291,image-keyboard-response,,
13,Pilot (test data collection),False,0,,False,False,110,0,,1,False,False,True,True,011,,,,,,,0.0-261.0,,,0,1943,"[1, 0]",stimuli/0110011.jpg,,,938904,,prediction_trial,292,image-keyboard-response,,
13,Pilot (test data collection),,,,,,,,,1,,,,,,,,,,,,0.0-262.0,,, ,983,,stimuli/01100111.jpg,,,939888,,feedback_trial,293,image-keyboard-response,,
13,Pilot (test data collection),False,0,,False,False,111,0,,1,False,False,True,True,011,,,,,,,0.0-263.0,,,0,2023,"[2, 0, 1]",stimuli/0111011.jpg,,,941912,,prediction_trial,294,image-keyboard-response,,
13,Pilot (test data collection),,,,,,,,,2,,,,,,,,,,,,0.0-264.0,,, ,823,,stimuli/01110111.jpg,,,942736,,feedback_trial,295,image-keyboard-response,,
13,Pilot (test data collection),False,0,,True,True,011,0,,0,False,False,False,False,101,,,,,,,0.0-265.0,,,2,2887,[0],stimuli/0011101.jpg,,,945624,,prediction_trial,296,image-keyboard-response,,
13,Pilot (test data collection),,,,,,,,,0,,,,,,,,,,,,0.0-266.0,,, ,847,,stimuli/00111010.jpg,,,946472,,feedback_trial,297,image-keyboard-response,,
13,Pilot (test data collection),False,0,,False,False,101,2,,0,False,False,False,False,011,,,,,,,0.0-267.0,,,1,5136,"[2, 0]",stimuli/2101011.jpg,,,951608,,prediction_trial,298,image-keyboard-response,,
13,Pilot (test data collection),,,,,,,,,2,,,,,,,,,,,,0.0-268.0,,, ,679,,stimuli/21010110.jpg,,,952287,,feedback_trial,299,image-keyboard-response,,
13,Pilot (test data collection),True,1,,True,True,100,1,,1,False,True,False,True,010,,,,,,,0.0-269.0,,,1,2256,[1],stimuli/1100010.jpg,,,954544,,prediction_trial,300,image-keyboard-response,,
13,Pilot (test data collection),,,,,,,,,1,,,,,,,,,,,,0.0-270.0,,, ,583,,stimuli/11000101.jpg,,,955128,,feedback_trial,301,image-keyboard-response,,
13,Pilot (test data collection),False,0,,False,False,111,1,,0,False,False,False,False,011,,,,,,,0.0-271.0,,,2,2191,"[2, 0, 1]",stimuli/1111011.jpg,,,957320,,prediction_trial,302,image-keyboard-response,,
13,Pilot (test data collection),,,,,,,,,2,,,,,,,,,,,,0.0-272.0,,, ,511,,stimuli/11110110.jpg,,,957831,,feedback_trial,303,image-keyboard-response,,
13,Pilot (test data collection),False,0,,False,False,111,0,,1,False,False,True,True,010,,,,,,,0.0-273.0,,,0,1112,"[0, 2, 1]",stimuli/0111010.jpg,,,958944,,prediction_trial,304,image-keyboard-response,,
13,Pilot (test data collection),,,,,,,,,0,,,,,,,,,,,,0.0-274.0,,, ,879,,stimuli/01110101.jpg,,,959824,,feedback_trial,305,image-keyboard-response,,
13,Pilot (test data collection),False,0,,False,False,110,1,,0,False,False,True,True,000,,,,,,,0.0-275.0,,,1,2303,"[0, 1]",stimuli/1110000.jpg,,,962127,,prediction_trial,306,image-keyboard-response,,
13,Pilot (test data collection),,,,,,,,,0,,,,,,,,,,,,0.0-276.0,,, ,632,,stimuli/11100000.jpg,,,962760,,feedback_trial,307,image-keyboard-response,,
13,Pilot (test data collection),False,0,,True,True,001,0,,0,False,False,False,False,111,,,,,,,0.0-277.0,,,1,2959,[0],stimuli/0001111.jpg,,,965719,,prediction_trial,308,image-keyboard-response,,
13,Pilot (test data collection),,,,,,,,,0,,,,,,,,,,,,0.0-278.0,,, ,776,,stimuli/00011110.jpg,,,966496,,feedback_trial,309,image-keyboard-response,,
13,Pilot (test data collection),False,0,,False,False,110,0,,0,False,False,False,False,110,,,,,,,0.0-279.0,,,1,1959,"[1, 0]",stimuli/0110110.jpg,,,968456,,prediction_trial,310,image-keyboard-response,,
13,Pilot (test data collection),,,,,,,,,1,,,,,,,,,,,,0.0-280.0,,, ,703,,stimuli/01101100.jpg,,,969160,,feedback_trial,311,image-keyboard-response,,
13,Pilot (test data collection),False,0,,False,False,111,1,,2,False,False,True,True,001,,,,,,,0.0-281.0,,,1,1504,"[1, 0, 2]",stimuli/1111001.jpg,,,970664,,prediction_trial,312,image-keyboard-response,,
13,Pilot (test data collection),,,,,,,,,1,,,,,,,,,,,,0.0-282.0,,, ,687,,stimuli/11110012.jpg,,,971352,,feedback_trial,313,image-keyboard-response,,
13,Pilot (test data collection),False,0,,False,False,111,2,,0,False,False,True,True,100,,,,,,,0.0-283.0,,,2,1840,"[1, 0, 2]",stimuli/2111100.jpg,,,973192,,prediction_trial,314,image-keyboard-response,,
13,Pilot (test data collection),,,,,,,,,1,,,,,,,,,,,,0.0-284.0,,, ,703,,stimuli/21111000.jpg,,,973896,,feedback_trial,315,image-keyboard-response,,
13,Pilot (test data collection),True,1,,False,False,110,0,,1,False,False,False,False,101,,,,,,,0.0-285.0,,,1,1703,"[1, 0]",stimuli/0110101.jpg,,,975600,,prediction_trial,316,image-keyboard-response,,
13,Pilot (test data collection),,,,,,,,,1,,,,,,,,,,,,0.0-286.0,,, ,631,,stimuli/01101011.jpg,,,976232,,feedback_trial,317,image-keyboard-response,,
13,Pilot (test data collection),True,1,,True,True,100,1,,1,True,True,True,True,001,,,,,,,0.0-287.0,,,1,2031,[1],stimuli/1100001.jpg,,,978264,,prediction_trial,318,image-keyboard-response,,
13,Pilot (test data collection),,,,,,,,,1,,,,,,,,,,,,0.0-288.0,,, ,647,,stimuli/11000011.jpg,,,978912,,feedback_trial,319,image-keyboard-response,,
13,Pilot (test data collection),True,1,,False,False,111,0,,0,False,False,False,True,100,,,,,,,0.0-289.0,,,0,1983,"[2, 0, 1]",stimuli/0111100.jpg,,,980896,,prediction_trial,320,image-keyboard-response,,
13,Pilot (test data collection),,,,,,,,,2,,,,,,,,,,,,0.0-290.0,,, ,751,,stimuli/01111000.jpg,,,981648,,feedback_trial,321,image-keyboard-response,,
13,Pilot (test data collection),False,0,,False,False,111,1,,2,False,False,False,False,111,,,,,,,0.0-291.0,,,1,2903,"[1, 2, 0]",stimuli/1111111.jpg,,,984552,,prediction_trial,322,image-keyboard-response,,
13,Pilot (test data collection),,,,,,,,,1,,,,,,,,,,,,0.0-292.0,,, ,735,,stimuli/11111112.jpg,,,985288,,feedback_trial,323,image-keyboard-response,,
13,Pilot (test data collection),,,,,,,,,,,,,,,,,,,,,0.0-293.0,,,0,8879,,"You have answered 67 out of 144 trials correctly. You will recieve a $0.45 bonus payment through Prolific, following the successful submission of this experiment. This bonus payment may take multiple days to be processed.",,,994170,,,324,html-button-response,,
13,Pilot (test data collection),,,60,,,,,0.44666666666666666,,,,,,,Non-Hispanic,,,,"If I could rule out two of the baskets, I would pick the third one.",Female,0.0-294.0,0.4652777777777778,White,"{'age': '60', 'race': 'White', 'gender': 'Female', 'feedback': 'If I could rule out two of the baskets, I would pick the third one.', 'ethnicity': 'Non-Hispanic', 'other_race': '', 'other_gender': ''}",45976,,,,,1040147,,exit_survey,325,survey-html-form,,
13,Pilot (test data collection),,,,,,,,,,,,,,,,,,,,,0.0-295.0,,,0,5765,,"<div style=""text-align:left; padding:10px; max-width:900px;""><center><p><b>Study Debriefing</b></p></center><p>Judgement and decision making are important aspects of public and private life. Using surveys like the one you just completed, we are examining the factors that go into making social decisions.</p><p><b>How is this being tested? </b> We have asked you to respond to stories or videos that differ on several important factors. By isolating different variables that are involved in social thought, we can better understand how we arrive at complex decision-making. For example, some actions are seen as more worthy of blame if they are performed intentionally. Harming someone on purpose is generally worse than harming someone by accident, or even harming someone in a way that is foreseen but not intended.</p><p><b>Main questions and hypotheses: </b>A fundamental goal of our research is to understand the cognitive and emotional factors that influence social judgment and decision-making. We are studying these factors by presenting people with hypothetical questions that vary in specific ways and seeing which factors make a difference. Some people filled out the same survey that you just filled out. Others got slightly different surveys.</p><p><b>Why is this important to study? </b>By comparing answers on these important factors, we learn about what factors affect social judgment. This has crucial implications for many public domains, including the legal system.</p><p><b>How to learn more: </b>If you are interested in learning more, you may want to consult the following articles:<p><p style=""margin-left:10%; margin-right:10%;"">Phillips, J., & Cushman, F. (2017). Morality constrains the default representation of what is possible. Proceedings of the National Academy of Sciences of the United States of America, 114(18), 46494654. https://doi.org/10.1073/pnas.1619717114<p style=""margin-left:10%; margin-right:10%;"">Phillips, J., Morris, A., & Cushman, F. (2019). How we know what not to think. Trends in Cognitive Sciences, 23(12), 10261040. https://doi.org/10.1016/j.tics.2019.09.007<p style=""margin-left:10%; margin-right:10%;"">Phillips, J., Buckwalter, W., Cushman, F., Friedman, O., Martin, A., Turri, J., Santos, L., & Knobe, J. (2020). Knowledge before Belief. Behavioral and Brain Sciences, 1-37. doi:10.1017/S0140525X20000618</p><p><b>How to contact the researcher:</b> If you have questions or concerns about your participation or payment, or want to request a summary of research findings, please contact the Primary Investigator: Dr. Jonathan Phillips, at Jonathan.S.Phillips@dartmouth.edu.Whom to contact about your rights in this research: If you have questions, concerns, complaints, or suggestions about the present research, you may call the Office of the Committee for the Protection of Human Subjects at Dartmouth College (603) 646-6482 during normal business hours.</p><p><b>Thank you for your participation!<b/></p>",,,1045914,,,326,html-button-response,,
14,Pilot (test data collection),,,,,,,,,,,,,,,,[],[],[],,,0.0-0.0,,,,,,,,True,17540,False,,0,preload,,
14,Pilot (test data collection),,,,,,,,,,,,,,,,,,,,,0.0-1.0,,,,,,,,True,123089,,,1,fullscreen,,
14,Pilot (test data collection),,,,,,,,,,,,,,,,,,,,,0.0-2.0,,,0,9406,,"<p><b>Consent Form</b></p> <div style=""text-align:left;background-color:lightgrey; padding:20px; max-width:900px;""><p>Please consider this information carefully before deciding whether to participate in this research.</p> <p>The purpose of this research is to examine which factors influence social judgment and decision-making. You will be asked to make judgements about individuals and actions in social scenarios. We are simply interested in your judgement. The study will take less than 1 hour to complete, and you will receive less than $20 on Prolific. Your compensation and time commitment are specified in the study description. There are no anticipated risks associated with participating in this study. The effects of participating should be comparable to those you would ordinarily experience from viewing a computer monitor and using a mouse or keyboard for a similar amount of time. At the end of the study, we will provide an explanation of the questions that motivate this line of research and will describe the potential implications. </p><p> Your participation in this study is completely voluntary and you may refuse to participate or you may choose to withdraw at any time without penalty or loss of benefits to you which are otherwise entitled. Your participation in this study will remain confidential. No personally identifiable information will be associated with your data. Also, all analyses of the data will be averaged across all the participants, so your individual responses will never be specifically analyzed. </p><p> If you have questions or concerns about your participation or payment, or want to request a summary of research findings, please contact Dr. Jonathan Phillips at Jonathan.S.Phillips@dartmouth.edu. </p><p> Please save a copy of this form for your records. </p><p><b>Agreement: </b>The nature and purpose of this research have been sufficiently explained and I agree to participate in this study. I understand that I am free to withdraw at any time without incurring any penalty. Please consent by clicking the button below to continue. Otherwise, please exit the study at any time. </p>",,,132502,,,2,html-button-response,,
14,Pilot (test data collection),,,,,,,,,,,,,,,,,,,,,0.0-3.0-0.0,,,,76003,,,,,208512,,intro,3,instructions,"[{'page_index': 0, 'viewing_time': 2268}, {'page_index': 1, 'viewing_time': 2833}, {'page_index': 2, 'viewing_time': 2141}, {'page_index': 3, 'viewing_time': 6523}, {'page_index': 4, 'viewing_time': 3048}, {'page_index': 5, 'viewing_time': 2593}, {'page_index': 6, 'viewing_time': 3970}, {'page_index': 7, 'viewing_time': 3083}, {'page_index': 8, 'viewing_time': 4560}, {'page_index': 9, 'viewing_time': 3702}, {'page_index': 10, 'viewing_time': 24971}, {'page_index': 11, 'viewing_time': 4480}, {'page_index': 12, 'viewing_time': 9930}, {'page_index': 13, 'viewing_time': 1898}]",
14,Pilot (test data collection),False,,,,,,,,0,,,,,,,,,,,,0.0-3.0-1.0,,,1,1666,,stimuli/0001010.jpg,"{'ball_pos': 0, 'filepath': 'stimuli/0001010.jpg', 'ego_can_infer': True, 'ego_occluders': '010', 'alter_can_infer': True, 'alter_occluders': '001', 'ego_ball_visible': True, 'search_locations': [0], 'alter_ball_visible': True, 'collective_can_infer': True, 'collective_ball_visible': True}",,210219,,prediction_practice,4,image-keyboard-response,,
14,Pilot (test data collection),,,,,,,,,0,,,,,,,,,,,,0.0-3.0-2.0,,, ,2311,,stimuli/00010100.jpg,,,212538,,practrice_feedback,5,image-keyboard-response,,
14,Pilot (test data collection),False,,,,,,,,0,,,,,,,,,,,,0.0-3.0-3.0,,,2,1354,,stimuli/0010100.jpg,"{'ball_pos': 0, 'filepath': 'stimuli/0010100.jpg', 'ego_can_infer': True, 'ego_occluders': '100', 'alter_can_infer': True, 'alter_occluders': '010', 'ego_ball_visible': False, 'search_locations': [0], 'alter_ball_visible': True, 'collective_can_infer': True, 'collective_ball_visible': False}",,213897,,prediction_practice,6,image-keyboard-response,,
14,Pilot (test data collection),,,,,,,,,0,,,,,,,,,,,,0.0-3.0-4.0,,, ,1180,,stimuli/00101000.jpg,,,215082,,practrice_feedback,7,image-keyboard-response,,
14,Pilot (test data collection),True,,,,,,,,0,,,,,,,,,,,,0.0-3.0-5.0,,,0,1796,,stimuli/0010001.jpg,"{'ball_pos': 0, 'filepath': 'stimuli/0010001.jpg', 'ego_can_infer': True, 'ego_occluders': '001', 'alter_can_infer': True, 'alter_occluders': '010', 'ego_ball_visible': True, 'search_locations': [0], 'alter_ball_visible': True, 'collective_can_infer': True, 'collective_ball_visible': True}",,216884,,prediction_practice,8,image-keyboard-response,,
14,Pilot (test data collection),,,,,,,,,0,,,,,,,,,,,,0.0-3.0-6.0,,, ,1069,,stimuli/00100010.jpg,,,217959,,practrice_feedback,9,image-keyboard-response,,
14,Pilot (test data collection),False,,,,,,,,2,,,,,,,,,,,,0.0-3.0-7.0,,,1,3069,,stimuli/2110111.jpg,"{'ball_pos': 2, 'filepath': 'stimuli/2110111.jpg', 'ego_can_infer': False, 'ego_occluders': '111', 'alter_can_infer': True, 'alter_occluders': '110', 'ego_ball_visible': False, 'search_locations': [2], 'alter_ball_visible': True, 'collective_can_infer': False, 'collective_ball_visible': False}",,221032,,prediction_practice,10,image-keyboard-response,,
14,Pilot (test data collection),,,,,,,,,2,,,,,,,,,,,,0.0-3.0-8.0,,, ,842,,stimuli/21101112.jpg,,,221881,,practrice_feedback,11,image-keyboard-response,,
14,Pilot (test data collection),True,,,,,,,,1,,,,,,,,,,,,0.0-3.0-9.0,,,1,1121,,stimuli/1100100.jpg,"{'ball_pos': 1, 'filepath': 'stimuli/1100100.jpg', 'ego_can_infer': True, 'ego_occluders': '100', 'alter_can_infer': True, 'alter_occluders': '100', 'ego_ball_visible': True, 'search_locations': [1], 'alter_ball_visible': True, 'collective_can_infer': True, 'collective_ball_visible': True}",,223008,,prediction_practice,12,image-keyboard-response,,
14,Pilot (test data collection),,,,,,,,,1,,,,,,,,,,,,0.0-3.0-10.0,,, ,534,,stimuli/11001001.jpg,,,223547,,practrice_feedback,13,image-keyboard-response,,
14,Pilot (test data collection),False,,,,,,,,0,,,,,,,,,,,,0.0-3.0-11.0,,,2,3378,,stimuli/0100111.jpg,"{'ball_pos': 0, 'filepath': 'stimuli/0100111.jpg', 'ego_can_infer': False, 'ego_occluders': '111', 'alter_can_infer': True, 'alter_occluders': '100', 'ego_ball_visible': False, 'search_locations': [0], 'alter_ball_visible': False, 'collective_can_infer': False, 'collective_ball_visible': False}",,226929,,prediction_practice,14,image-keyboard-response,,
14,Pilot (test data collection),,,,,,,,,0,,,,,,,,,,,,0.0-3.0-12.0,,, ,984,,stimuli/01001110.jpg,,,227918,,practrice_feedback,15,image-keyboard-response,,
14,Pilot (test data collection),False,,,,,,,,0,,,,,,,,,,,,0.0-3.0-13.0,,,1,2150,,stimuli/0011111.jpg,"{'ball_pos': 0, 'filepath': 'stimuli/0011111.jpg', 'ego_can_infer': False, 'ego_occluders': '111', 'alter_can_infer': True, 'alter_occluders': '011', 'ego_ball_visible': False, 'search_locations': [0], 'alter_ball_visible': True, 'collective_can_infer': False, 'collective_ball_visible': False}",,230073,,prediction_practice,16,image-keyboard-response,,
14,Pilot (test data collection),,,,,,,,,0,,,,,,,,,,,,0.0-3.0-14.0,,, ,1806,,stimuli/00111110.jpg,,,231884,,practrice_feedback,17,image-keyboard-response,,
14,Pilot (test data collection),True,,,,,,,,2,,,,,,,,,,,,0.0-3.0-15.0,,,2,1686,,stimuli/2000110.jpg,"{'ball_pos': 2, 'filepath': 'stimuli/2000110.jpg', 'ego_can_infer': True, 'ego_occluders': '110', 'alter_can_infer': True, 'alter_occluders': '000', 'ego_ball_visible': True, 'search_locations': [2], 'alter_ball_visible': True, 'collective_can_infer': True, 'collective_ball_visible': True}",,233574,,prediction_practice,18,image-keyboard-response,,
14,Pilot (test data collection),,,,,,,,,2,,,,,,,,,,,,0.0-3.0-16.0,,, ,728,,stimuli/20001102.jpg,,,234307,,practrice_feedback,19,image-keyboard-response,,
14,Pilot (test data collection),True,,,,,,,,2,,,,,,,,,,,,0.0-3.0-17.0,,,2,1516,,stimuli/2110100.jpg,"{'ball_pos': 2, 'filepath': 'stimuli/2110100.jpg', 'ego_can_infer': True, 'ego_occluders': '100', 'alter_can_infer': True, 'alter_occluders': '110', 'ego_ball_visible': True, 'search_locations': [2], 'alter_ball_visible': True, 'collective_can_infer': True, 'collective_ball_visible': True}",,235827,,prediction_practice,20,image-keyboard-response,,
14,Pilot (test data collection),,,,,,,,,2,,,,,,,,,,,,0.0-3.0-18.0,,, ,602,,stimuli/21101002.jpg,,,236432,,practrice_feedback,21,image-keyboard-response,,
14,Pilot (test data collection),True,,,,,,,,0,,,,,,,,,,,,0.0-3.0-19.0,,,0,1062,,stimuli/0111011.jpg,"{'ball_pos': 0, 'filepath': 'stimuli/0111011.jpg', 'ego_can_infer': True, 'ego_occluders': '011', 'alter_can_infer': False, 'alter_occluders': '111', 'ego_ball_visible': True, 'search_locations': [2, 1, 0], 'alter_ball_visible': False, 'collective_can_infer': False, 'collective_ball_visible': False}",,237497,,prediction_practice,22,image-keyboard-response,,
14,Pilot (test data collection),,,,,,,,,2,,,,,,,,,,,,0.0-3.0-20.0,,, ,754,,stimuli/01110110.jpg,,,238253,,practrice_feedback,23,image-keyboard-response,,
14,Pilot (test data collection),,,,,,,,,,,,,,,,,,,,,0.0-3.0-21.0,,,0,5645,,"Now that you've had some practice, you'll be tested with a few easy trials. If you correctly predict Sam's choice, you'll move on to complete the experiment!",,,243908,,,24,html-button-response,,
14,Pilot (test data collection),True,1,,,,,,,2,,,,,,,,,,,,0.0-3.0-22.0,,,2,2105,,stimuli/2000000.jpg,,,246017,,comprehension_quiz,25,image-keyboard-response,,
14,Pilot (test data collection),,,,,,,,,2,,,,,,,,,,,,0.0-3.0-23.0,,, ,845,,stimuli/20000002.jpg,,,246867,,comprehension_feedback,26,image-keyboard-response,,
14,Pilot (test data collection),True,1,,,,,,,0,,,,,,,,,,,,0.0-3.0-24.0,,,0,1302,,stimuli/0011011.jpg,,,248174,,comprehension_quiz,27,image-keyboard-response,,
14,Pilot (test data collection),,,,,,,,,0,,,,,,,,,,,,0.0-3.0-25.0,,, ,691,,stimuli/00110110.jpg,,,248869,,comprehension_feedback,28,image-keyboard-response,,
14,Pilot (test data collection),True,1,,,,,,,1,,,,,,,,,,,,0.0-3.0-26.0,,,1,2167,,stimuli/1010010.jpg,,,251041,,comprehension_quiz,29,image-keyboard-response,,
14,Pilot (test data collection),,,,,,,,,1,,,,,,,,,,,,0.0-3.0-27.0,,, ,1454,,stimuli/10100101.jpg,,,252500,,comprehension_feedback,30,image-keyboard-response,,
14,Pilot (test data collection),True,1,,,,,,,1,,,,,,,,,,,,0.0-3.0-28.0,,,1,2572,,stimuli/1101101.jpg,,,255076,,comprehension_quiz,31,image-keyboard-response,,
14,Pilot (test data collection),,,,,,,,,1,,,,,,,,,,,,0.0-3.0-29.0,,, ,535,,stimuli/11011011.jpg,,,255615,,comprehension_feedback,32,image-keyboard-response,,
14,Pilot (test data collection),True,1,,,,,,,2,,,,,,,,,,,,0.0-3.0-30.0,,,2,2011,,stimuli/2010001.jpg,,,257631,,comprehension_quiz,33,image-keyboard-response,,
14,Pilot (test data collection),,,,,,,,,2,,,,,,,,,,,,0.0-3.0-31.0,,, ,1683,,stimuli/20100012.jpg,,,259318,,comprehension_feedback,34,image-keyboard-response,,
14,Pilot (test data collection),,,,,,,,,,,,,,,,,,,,,0.0-4.0,,,0,1426,,The experiment will now begin.,,,260751,,,35,html-button-response,,
14,Pilot (test data collection),True,1,,False,True,001,2,,2,False,True,True,True,110,,,,,,,0.0-5.0,,,2,1357,[2],stimuli/2001110.jpg,,,262115,,prediction_trial,36,image-keyboard-response,,
14,Pilot (test data collection),,,,,,,,,2,,,,,,,,,,,,0.0-6.0,,, ,767,,stimuli/20011102.jpg,,,262887,,feedback_trial,37,image-keyboard-response,,
14,Pilot (test data collection),True,1,,True,True,101,1,,1,False,True,False,True,010,,,,,,,0.0-7.0,,,1,1550,[1],stimuli/1101010.jpg,,,264443,,prediction_trial,38,image-keyboard-response,,
14,Pilot (test data collection),,,,,,,,,1,,,,,,,,,,,,0.0-8.0,,, ,1094,,stimuli/11010101.jpg,,,265542,,feedback_trial,39,image-keyboard-response,,
14,Pilot (test data collection),False,0,,False,False,111,1,,2,False,False,False,False,110,,,,,,,0.0-9.0,,,1,3042,"[2, 0, 1]",stimuli/1111110.jpg,,,268588,,prediction_trial,40,image-keyboard-response,,
14,Pilot (test data collection),,,,,,,,,2,,,,,,,,,,,,0.0-10.0,,, ,545,,stimuli/11111102.jpg,,,269138,,feedback_trial,41,image-keyboard-response,,
14,Pilot (test data collection),False,0,,False,False,011,2,,2,False,False,False,False,111,,,,,,,0.0-11.0,,,0,1686,"[2, 1]",stimuli/2011111.jpg,,,270829,,prediction_trial,42,image-keyboard-response,,
14,Pilot (test data collection),,,,,,,,,2,,,,,,,,,,,,0.0-12.0,,, ,1256,,stimuli/20111112.jpg,,,272091,,feedback_trial,43,image-keyboard-response,,
14,Pilot (test data collection),False,0,,False,False,111,0,,2,False,False,False,False,110,,,,,,,0.0-13.0,,,1,3229,"[2, 0, 1]",stimuli/0111110.jpg,,,275324,,prediction_trial,44,image-keyboard-response,,
14,Pilot (test data collection),,,,,,,,,2,,,,,,,,,,,,0.0-14.0,,, ,603,,stimuli/01111102.jpg,,,275931,,feedback_trial,45,image-keyboard-response,,
14,Pilot (test data collection),False,0,,False,False,101,0,,2,False,False,False,True,100,,,,,,,0.0-15.0,,,0,1244,"[0, 2]",stimuli/0101100.jpg,,,277179,,prediction_trial,46,image-keyboard-response,,
14,Pilot (test data collection),,,,,,,,,0,,,,,,,,,,,,0.0-16.0,,, ,2109,,stimuli/01011002.jpg,,,279294,,feedback_trial,47,image-keyboard-response,,
14,Pilot (test data collection),True,1,,False,False,111,1,,1,False,False,True,True,001,,,,,,,0.0-17.0,,,1,1344,"[0, 2, 1]",stimuli/1111001.jpg,,,280642,,prediction_trial,48,image-keyboard-response,,
14,Pilot (test data collection),,,,,,,,,0,,,,,,,,,,,,0.0-18.0,,, ,723,,stimuli/11110011.jpg,,,281369,,feedback_trial,49,image-keyboard-response,,
14,Pilot (test data collection),True,1,,False,True,010,1,,1,False,True,True,True,101,,,,,,,0.0-19.0,,,1,959,[1],stimuli/1010101.jpg,,,282334,,prediction_trial,50,image-keyboard-response,,
14,Pilot (test data collection),,,,,,,,,1,,,,,,,,,,,,0.0-20.0,,, ,535,,stimuli/10101011.jpg,,,282873,,feedback_trial,51,image-keyboard-response,,
14,Pilot (test data collection),False,0,,False,False,111,0,,1,False,False,False,True,100,,,,,,,0.0-21.0,,,0,1833,"[0, 2, 1]",stimuli/0111100.jpg,,,284710,,prediction_trial,52,image-keyboard-response,,
14,Pilot (test data collection),,,,,,,,,0,,,,,,,,,,,,0.0-22.0,,, ,1611,,stimuli/01111001.jpg,,,286326,,feedback_trial,53,image-keyboard-response,,
14,Pilot (test data collection),True,1,,False,False,101,0,,0,False,False,True,True,010,,,,,,,0.0-23.0,,,0,1578,"[2, 0]",stimuli/0101010.jpg,,,287906,,prediction_trial,54,image-keyboard-response,,
14,Pilot (test data collection),,,,,,,,,2,,,,,,,,,,,,0.0-24.0,,, ,541,,stimuli/01010100.jpg,,,288454,,feedback_trial,55,image-keyboard-response,,
14,Pilot (test data collection),False,0,,False,False,111,1,,0,False,False,True,True,000,,,,,,,0.0-25.0,,,1,943,"[2, 0, 1]",stimuli/1111000.jpg,,,289403,,prediction_trial,56,image-keyboard-response,,
14,Pilot (test data collection),,,,,,,,,2,,,,,,,,,,,,0.0-26.0,,, ,451,,stimuli/11110000.jpg,,,289859,,feedback_trial,57,image-keyboard-response,,
14,Pilot (test data collection),False,0,,False,False,111,0,,2,False,False,True,True,001,,,,,,,0.0-27.0,,,0,973,"[1, 2, 0]",stimuli/0111001.jpg,,,290837,,prediction_trial,58,image-keyboard-response,,
14,Pilot (test data collection),,,,,,,,,1,,,,,,,,,,,,0.0-28.0,,, ,433,,stimuli/01110012.jpg,,,291275,,feedback_trial,59,image-keyboard-response,,
14,Pilot (test data collection),True,1,,True,True,110,2,,2,True,True,True,True,000,,,,,,,0.0-29.0,,,2,891,[2],stimuli/2110000.jpg,,,292170,,prediction_trial,60,image-keyboard-response,,
14,Pilot (test data collection),,,,,,,,,2,,,,,,,,,,,,0.0-30.0,,, ,638,,stimuli/21100002.jpg,,,292813,,feedback_trial,61,image-keyboard-response,,
14,Pilot (test data collection),True,1,,True,True,001,1,,1,False,True,False,True,010,,,,,,,0.0-31.0,,,1,1196,[1],stimuli/1001010.jpg,,,294014,,prediction_trial,62,image-keyboard-response,,
14,Pilot (test data collection),,,,,,,,,1,,,,,,,,,,,,0.0-32.0,,, ,628,,stimuli/10010101.jpg,,,294647,,feedback_trial,63,image-keyboard-response,,
14,Pilot (test data collection),True,1,,True,True,000,2,,2,False,False,False,False,011,,,,,,,0.0-33.0,,,2,1233,[2],stimuli/2000011.jpg,,,295884,,prediction_trial,64,image-keyboard-response,,
14,Pilot (test data collection),,,,,,,,,2,,,,,,,,,,,,0.0-34.0,,, ,711,,stimuli/20000112.jpg,,,296600,,feedback_trial,65,image-keyboard-response,,
14,Pilot (test data collection),True,1,,True,True,100,1,,1,True,True,True,True,000,,,,,,,0.0-35.0,,,1,923,[1],stimuli/1100000.jpg,,,297527,,prediction_trial,66,image-keyboard-response,,
14,Pilot (test data collection),,,,,,,,,1,,,,,,,,,,,,0.0-36.0,,, ,476,,stimuli/11000001.jpg,,,298007,,feedback_trial,67,image-keyboard-response,,
14,Pilot (test data collection),True,1,,False,True,010,1,,1,False,False,False,False,011,,,,,,,0.0-37.0,,,1,1541,[1],stimuli/1010011.jpg,,,299552,,prediction_trial,68,image-keyboard-response,,
14,Pilot (test data collection),,,,,,,,,1,,,,,,,,,,,,0.0-38.0,,, ,571,,stimuli/10100111.jpg,,,300129,,feedback_trial,69,image-keyboard-response,,
14,Pilot (test data collection),True,1,,False,False,111,0,,0,False,False,True,True,000,,,,,,,0.0-39.0,,,0,1538,"[2, 0, 1]",stimuli/0111000.jpg,,,301671,,prediction_trial,70,image-keyboard-response,,
14,Pilot (test data collection),,,,,,,,,2,,,,,,,,,,,,0.0-40.0,,, ,430,,stimuli/01110000.jpg,,,302106,,feedback_trial,71,image-keyboard-response,,
14,Pilot (test data collection),False,0,,False,False,111,1,,0,False,False,True,True,001,,,,,,,0.0-41.0,,,1,890,"[0, 2, 1]",stimuli/1111001.jpg,,,303001,,prediction_trial,72,image-keyboard-response,,
14,Pilot (test data collection),,,,,,,,,0,,,,,,,,,,,,0.0-42.0,,, ,410,,stimuli/11110010.jpg,,,303415,,feedback_trial,73,image-keyboard-response,,
14,Pilot (test data collection),False,0,,False,False,111,0,,1,False,False,False,True,100,,,,,,,0.0-43.0,,,0,1958,"[0, 2, 1]",stimuli/0111100.jpg,,,305370,,prediction_trial,74,image-keyboard-response,,
14,Pilot (test data collection),,,,,,,,,0,,,,,,,,,,,,0.0-44.0,,, ,1041,,stimuli/01111001.jpg,,,306415,,feedback_trial,75,image-keyboard-response,,
14,Pilot (test data collection),True,1,,True,True,010,2,,2,True,True,True,True,100,,,,,,,0.0-45.0,,,2,1084,[2],stimuli/2010100.jpg,,,307504,,prediction_trial,76,image-keyboard-response,,
14,Pilot (test data collection),,,,,,,,,2,,,,,,,,,,,,0.0-46.0,,, ,596,,stimuli/20101002.jpg,,,308105,,feedback_trial,77,image-keyboard-response,,
14,Pilot (test data collection),True,1,,False,False,011,1,,1,False,False,False,False,110,,,,,,,0.0-47.0,,,1,1355,"[2, 1]",stimuli/1011110.jpg,,,309464,,prediction_trial,78,image-keyboard-response,,
14,Pilot (test data collection),,,,,,,,,2,,,,,,,,,,,,0.0-48.0,,, ,604,,stimuli/10111101.jpg,,,310073,,feedback_trial,79,image-keyboard-response,,
14,Pilot (test data collection),False,0,,False,False,011,1,,2,False,False,True,True,101,,,,,,,0.0-49.0,,,1,1106,"[2, 1]",stimuli/1011101.jpg,,,311183,,prediction_trial,80,image-keyboard-response,,
14,Pilot (test data collection),,,,,,,,,2,,,,,,,,,,,,0.0-50.0,,, ,1236,,stimuli/10111012.jpg,,,312423,,feedback_trial,81,image-keyboard-response,,
14,Pilot (test data collection),True,1,,False,False,111,2,,2,False,False,False,True,001,,,,,,,0.0-51.0,,,2,820,"[0, 1, 2]",stimuli/2111001.jpg,,,313248,,prediction_trial,82,image-keyboard-response,,
14,Pilot (test data collection),,,,,,,,,0,,,,,,,,,,,,0.0-52.0,,, ,1183,,stimuli/21110012.jpg,,,314435,,feedback_trial,83,image-keyboard-response,,
14,Pilot (test data collection),True,1,,True,True,101,1,,1,True,True,True,True,101,,,,,,,0.0-53.0,,,1,1487,[1],stimuli/1101101.jpg,,,315926,,prediction_trial,84,image-keyboard-response,,
14,Pilot (test data collection),,,,,,,,,1,,,,,,,,,,,,0.0-54.0,,, ,571,,stimuli/11011011.jpg,,,316502,,feedback_trial,85,image-keyboard-response,,
14,Pilot (test data collection),False,0,,False,False,111,1,,1,False,False,False,False,011,,,,,,,0.0-55.0,,,2,2350,"[2, 1, 0]",stimuli/1111011.jpg,,,318883,,prediction_trial,86,image-keyboard-response,,
14,Pilot (test data collection),,,,,,,,,2,,,,,,,,,,,,0.0-56.0,,, ,546,,stimuli/11110111.jpg,,,319434,,feedback_trial,87,image-keyboard-response,,
14,Pilot (test data collection),True,1,,False,False,111,2,,2,False,False,True,True,110,,,,,,,0.0-57.0,,,2,869,"[1, 0, 2]",stimuli/2111110.jpg,,,320307,,prediction_trial,88,image-keyboard-response,,
14,Pilot (test data collection),,,,,,,,,1,,,,,,,,,,,,0.0-58.0,,, ,564,,stimuli/21111102.jpg,,,320875,,feedback_trial,89,image-keyboard-response,,
14,Pilot (test data collection),True,1,,False,False,111,1,,1,False,False,True,True,101,,,,,,,0.0-59.0,,,1,1007,"[0, 1, 2]",stimuli/1111101.jpg,,,321887,,prediction_trial,90,image-keyboard-response,,
14,Pilot (test data collection),,,,,,,,,0,,,,,,,,,,,,0.0-60.0,,, ,630,,stimuli/11111011.jpg,,,322522,,feedback_trial,91,image-keyboard-response,,
14,Pilot (test data collection),False,0,,False,False,110,0,,1,False,False,True,True,011,,,,,,,0.0-61.0,,,0,1023,"[1, 0]",stimuli/0110011.jpg,,,323549,,prediction_trial,92,image-keyboard-response,,
14,Pilot (test data collection),,,,,,,,,1,,,,,,,,,,,,0.0-62.0,,, ,1231,,stimuli/01100111.jpg,,,324785,,feedback_trial,93,image-keyboard-response,,
14,Pilot (test data collection),True,1,,True,True,101,1,,1,True,True,True,True,100,,,,,,,0.0-63.0,,,1,1131,[1],stimuli/1101100.jpg,,,325920,,prediction_trial,94,image-keyboard-response,,
14,Pilot (test data collection),,,,,,,,,1,,,,,,,,,,,,0.0-64.0,,, ,636,,stimuli/11011001.jpg,,,326560,,feedback_trial,95,image-keyboard-response,,
14,Pilot (test data collection),False,0,,False,False,111,2,,0,False,False,False,False,101,,,,,,,0.0-65.0,,,2,1543,"[2, 1, 0]",stimuli/2111101.jpg,,,328109,,prediction_trial,96,image-keyboard-response,,
14,Pilot (test data collection),,,,,,,,,2,,,,,,,,,,,,0.0-66.0,,, ,823,,stimuli/21111010.jpg,,,328936,,feedback_trial,97,image-keyboard-response,,
14,Pilot (test data collection),False,0,,True,True,000,0,,0,False,False,False,False,110,,,,,,,0.0-67.0,,,1,1644,[0],stimuli/0000110.jpg,,,330584,,prediction_trial,98,image-keyboard-response,,
14,Pilot (test data collection),,,,,,,,,0,,,,,,,,,,,,0.0-68.0,,, ,611,,stimuli/00001100.jpg,,,331199,,feedback_trial,99,image-keyboard-response,,
14,Pilot (test data collection),False,0,,False,False,111,2,,1,False,False,True,True,110,,,,,,,0.0-69.0,,,2,1039,"[1, 0, 2]",stimuli/2111110.jpg,,,332243,,prediction_trial,100,image-keyboard-response,,
14,Pilot (test data collection),,,,,,,,,1,,,,,,,,,,,,0.0-70.0,,, ,1417,,stimuli/21111101.jpg,,,333665,,feedback_trial,101,image-keyboard-response,,
14,Pilot (test data collection),True,1,,False,False,111,1,,1,False,False,True,True,100,,,,,,,0.0-71.0,,,1,1363,"[1, 0, 2]",stimuli/1111100.jpg,,,335032,,prediction_trial,102,image-keyboard-response,,
14,Pilot (test data collection),,,,,,,,,1,,,,,,,,,,,,0.0-72.0,,, ,478,,stimuli/11111001.jpg,,,335515,,feedback_trial,103,image-keyboard-response,,
14,Pilot (test data collection),True,1,,False,False,111,0,,0,False,False,True,True,010,,,,,,,0.0-73.0,,,0,1268,"[1, 0, 2]",stimuli/0111010.jpg,,,336788,,prediction_trial,104,image-keyboard-response,,
14,Pilot (test data collection),,,,,,,,,1,,,,,,,,,,,,0.0-74.0,,, ,565,,stimuli/01110100.jpg,,,337358,,feedback_trial,105,image-keyboard-response,,
14,Pilot (test data collection),True,1,,True,True,001,1,,1,False,False,False,False,011,,,,,,,0.0-75.0,,,1,1662,[1],stimuli/1001011.jpg,,,339024,,prediction_trial,106,image-keyboard-response,,
14,Pilot (test data collection),,,,,,,,,1,,,,,,,,,,,,0.0-76.0,,, ,544,,stimuli/10010111.jpg,,,339570,,feedback_trial,107,image-keyboard-response,,
14,Pilot (test data collection),True,1,,True,True,001,1,,1,True,True,True,True,001,,,,,,,0.0-77.0,,,1,1136,[1],stimuli/1001001.jpg,,,340709,,prediction_trial,108,image-keyboard-response,,
14,Pilot (test data collection),,,,,,,,,1,,,,,,,,,,,,0.0-78.0,,, ,513,,stimuli/10010011.jpg,,,341227,,feedback_trial,109,image-keyboard-response,,
14,Pilot (test data collection),False,0,,False,False,111,2,,1,False,False,True,True,010,,,,,,,0.0-79.0,,,2,1113,"[2, 0, 1]",stimuli/2111010.jpg,,,342344,,prediction_trial,110,image-keyboard-response,,
14,Pilot (test data collection),,,,,,,,,2,,,,,,,,,,,,0.0-80.0,,, ,606,,stimuli/21110101.jpg,,,342955,,feedback_trial,111,image-keyboard-response,,
14,Pilot (test data collection),True,1,,False,True,001,2,,2,False,True,True,True,100,,,,,,,0.0-81.0,,,2,1124,[2],stimuli/2001100.jpg,,,344083,,prediction_trial,112,image-keyboard-response,,
14,Pilot (test data collection),,,,,,,,,2,,,,,,,,,,,,0.0-82.0,,, ,534,,stimuli/20011002.jpg,,,344620,,feedback_trial,113,image-keyboard-response,,
14,Pilot (test data collection),False,0,,False,False,111,1,,2,False,False,False,True,010,,,,,,,0.0-83.0,,,1,2460,"[2, 1, 0]",stimuli/1111010.jpg,,,347084,,prediction_trial,114,image-keyboard-response,,
14,Pilot (test data collection),,,,,,,,,2,,,,,,,,,,,,0.0-84.0,,, ,514,,stimuli/11110102.jpg,,,347602,,feedback_trial,115,image-keyboard-response,,
14,Pilot (test data collection),True,1,,False,False,111,1,,2,False,False,False,False,011,,,,,,,0.0-85.0,,,2,1241,"[2, 1, 0]",stimuli/1111011.jpg,,,348847,,prediction_trial,116,image-keyboard-response,,
14,Pilot (test data collection),,,,,,,,,2,,,,,,,,,,,,0.0-86.0,,, ,669,,stimuli/11110112.jpg,,,349536,,feedback_trial,117,image-keyboard-response,,
14,Pilot (test data collection),False,0,,False,False,011,2,,1,False,False,False,False,101,,,,,,,0.0-87.0,,,0,1499,"[2, 1]",stimuli/2011101.jpg,,,351040,,prediction_trial,118,image-keyboard-response,,
14,Pilot (test data collection),,,,,,,,,2,,,,,,,,,,,,0.0-88.0,,, ,518,,stimuli/20111011.jpg,,,351562,,feedback_trial,119,image-keyboard-response,,
14,Pilot (test data collection),True,1,,False,False,111,2,,2,False,False,True,True,010,,,,,,,0.0-89.0,,,2,2867,"[2, 0, 1]",stimuli/2111010.jpg,,,354434,,prediction_trial,120,image-keyboard-response,,
14,Pilot (test data collection),,,,,,,,,2,,,,,,,,,,,,0.0-90.0,,, ,443,,stimuli/21110102.jpg,,,354884,,feedback_trial,121,image-keyboard-response,,
14,Pilot (test data collection),True,1,,False,True,001,2,,2,False,False,False,False,011,,,,,,,0.0-91.0,,,2,1060,[2],stimuli/2001011.jpg,,,355949,,prediction_trial,122,image-keyboard-response,,
14,Pilot (test data collection),,,,,,,,,2,,,,,,,,,,,,0.0-92.0,,, ,728,,stimuli/20010112.jpg,,,356682,,feedback_trial,123,image-keyboard-response,,
14,Pilot (test data collection),False,0,,False,False,101,0,,0,False,False,False,False,111,,,,,,,0.0-93.0,,,2,2468,"[2, 0]",stimuli/0101111.jpg,,,359155,,prediction_trial,124,image-keyboard-response,,
14,Pilot (test data collection),,,,,,,,,2,,,,,,,,,,,,0.0-94.0,,, ,1057,,stimuli/01011110.jpg,,,360216,,feedback_trial,125,image-keyboard-response,,
14,Pilot (test data collection),True,1,,True,True,010,0,,0,True,True,True,True,000,,,,,,,0.0-95.0,,,0,1509,[0],stimuli/0010000.jpg,,,361730,,prediction_trial,126,image-keyboard-response,,
14,Pilot (test data collection),,,,,,,,,0,,,,,,,,,,,,0.0-96.0,,, ,731,,stimuli/00100000.jpg,,,362467,,feedback_trial,127,image-keyboard-response,,
14,Pilot (test data collection),True,1,,True,True,011,0,,0,True,True,True,True,000,,,,,,,0.0-97.0,,,0,1045,[0],stimuli/0011000.jpg,,,363516,,prediction_trial,128,image-keyboard-response,,
14,Pilot (test data collection),,,,,,,,,0,,,,,,,,,,,,0.0-98.0,,, ,548,,stimuli/00110000.jpg,,,364066,,feedback_trial,129,image-keyboard-response,,
14,Pilot (test data collection),True,1,,True,True,000,2,,2,True,True,True,True,110,,,,,,,0.0-99.0,,,2,1248,[2],stimuli/2000110.jpg,,,365318,,prediction_trial,130,image-keyboard-response,,
14,Pilot (test data collection),,,,,,,,,2,,,,,,,,,,,,0.0-100.0,,, ,480,,stimuli/20001102.jpg,,,365803,,feedback_trial,131,image-keyboard-response,,
14,Pilot (test data collection),False,0,,False,False,111,2,,1,False,False,True,True,000,,,,,,,0.0-101.0,,,2,609,"[0, 1, 2]",stimuli/2111000.jpg,,,366417,,prediction_trial,132,image-keyboard-response,,
14,Pilot (test data collection),,,,,,,,,0,,,,,,,,,,,,0.0-102.0,,, ,1245,,stimuli/21110001.jpg,,,367666,,feedback_trial,133,image-keyboard-response,,
14,Pilot (test data collection),True,1,,False,True,001,2,,2,False,True,True,True,000,,,,,,,0.0-103.0,,,2,701,[2],stimuli/2001000.jpg,,,368371,,prediction_trial,134,image-keyboard-response,,
14,Pilot (test data collection),,,,,,,,,2,,,,,,,,,,,,0.0-104.0,,, ,545,,stimuli/20010002.jpg,,,368921,,feedback_trial,135,image-keyboard-response,,
14,Pilot (test data collection),True,1,,False,False,111,2,,1,False,False,False,False,011,,,,,,,0.0-105.0,,,1,1492,"[1, 0, 2]",stimuli/2111011.jpg,,,370417,,prediction_trial,136,image-keyboard-response,,
14,Pilot (test data collection),,,,,,,,,1,,,,,,,,,,,,0.0-106.0,,, ,630,,stimuli/21110111.jpg,,,371052,,feedback_trial,137,image-keyboard-response,,
14,Pilot (test data collection),True,1,,False,False,101,0,,0,False,False,True,True,001,,,,,,,0.0-107.0,,,0,1394,"[2, 0]",stimuli/0101001.jpg,,,372450,,prediction_trial,138,image-keyboard-response,,
14,Pilot (test data collection),,,,,,,,,2,,,,,,,,,,,,0.0-108.0,,, ,565,,stimuli/01010010.jpg,,,373020,,feedback_trial,139,image-keyboard-response,,
14,Pilot (test data collection),False,0,,False,True,100,0,,0,False,False,False,False,111,,,,,,,0.0-109.0,,,1,1503,[0],stimuli/0100111.jpg,,,374527,,prediction_trial,140,image-keyboard-response,,
14,Pilot (test data collection),,,,,,,,,0,,,,,,,,,,,,0.0-110.0,,, ,613,,stimuli/01001110.jpg,,,375144,,feedback_trial,141,image-keyboard-response,,
14,Pilot (test data collection),True,1,,False,False,111,2,,2,False,False,False,True,001,,,,,,,0.0-111.0,,,2,740,"[0, 1, 2]",stimuli/2111001.jpg,,,375888,,prediction_trial,142,image-keyboard-response,,
14,Pilot (test data collection),,,,,,,,,0,,,,,,,,,,,,0.0-112.0,,, ,545,,stimuli/21110012.jpg,,,376437,,feedback_trial,143,image-keyboard-response,,
14,Pilot (test data collection),False,0,,False,True,100,0,,0,False,False,False,False,110,,,,,,,0.0-113.0,,,1,1263,[0],stimuli/0100110.jpg,,,377704,,prediction_trial,144,image-keyboard-response,,
14,Pilot (test data collection),,,,,,,,,0,,,,,,,,,,,,0.0-114.0,,, ,607,,stimuli/01001100.jpg,,,378314,,feedback_trial,145,image-keyboard-response,,
14,Pilot (test data collection),True,1,,False,False,011,1,,1,False,False,True,True,000,,,,,,,0.0-115.0,,,1,1157,"[2, 1]",stimuli/1011000.jpg,,,379475,,prediction_trial,146,image-keyboard-response,,
14,Pilot (test data collection),,,,,,,,,2,,,,,,,,,,,,0.0-116.0,,, ,524,,stimuli/10110001.jpg,,,380005,,feedback_trial,147,image-keyboard-response,,
14,Pilot (test data collection),True,1,,True,True,011,0,,0,True,True,True,True,011,,,,,,,0.0-117.0,,,0,1172,[0],stimuli/0011011.jpg,,,381180,,prediction_trial,148,image-keyboard-response,,
14,Pilot (test data collection),,,,,,,,,0,,,,,,,,,,,,0.0-118.0,,, ,502,,stimuli/00110110.jpg,,,381687,,feedback_trial,149,image-keyboard-response,,
14,Pilot (test data collection),True,1,,True,True,100,2,,2,False,False,False,False,111,,,,,,,0.0-119.0,,,2,1408,[2],stimuli/2100111.jpg,,,383099,,prediction_trial,150,image-keyboard-response,,
14,Pilot (test data collection),,,,,,,,,2,,,,,,,,,,,,0.0-120.0,,, ,518,,stimuli/21001112.jpg,,,383621,,feedback_trial,151,image-keyboard-response,,
14,Pilot (test data collection),True,1,,False,False,111,0,,0,False,False,True,True,010,,,,,,,0.0-121.0,,,0,954,"[1, 0, 2]",stimuli/0111010.jpg,,,384579,,prediction_trial,152,image-keyboard-response,,
14,Pilot (test data collection),,,,,,,,,1,,,,,,,,,,,,0.0-122.0,,, ,551,,stimuli/01110100.jpg,,,385135,,feedback_trial,153,image-keyboard-response,,
14,Pilot (test data collection),True,1,,False,False,111,0,,0,False,False,True,True,001,,,,,,,0.0-123.0,,,0,953,"[1, 2, 0]",stimuli/0111001.jpg,,,386092,,prediction_trial,154,image-keyboard-response,,
14,Pilot (test data collection),,,,,,,,,1,,,,,,,,,,,,0.0-124.0,,, ,439,,stimuli/01110010.jpg,,,386537,,feedback_trial,155,image-keyboard-response,,
14,Pilot (test data collection),True,1,,True,True,110,2,,2,False,False,False,False,111,,,,,,,0.0-125.0,,,2,1067,[2],stimuli/2110111.jpg,,,387608,,prediction_trial,156,image-keyboard-response,,
14,Pilot (test data collection),,,,,,,,,2,,,,,,,,,,,,0.0-126.0,,, ,536,,stimuli/21101112.jpg,,,388150,,feedback_trial,157,image-keyboard-response,,
14,Pilot (test data collection),False,0,,False,False,111,0,,1,False,False,True,True,011,,,,,,,0.0-127.0,,,0,892,"[2, 1, 0]",stimuli/0111011.jpg,,,389046,,prediction_trial,158,image-keyboard-response,,
14,Pilot (test data collection),,,,,,,,,2,,,,,,,,,,,,0.0-128.0,,, ,745,,stimuli/01110111.jpg,,,389796,,feedback_trial,159,image-keyboard-response,,
14,Pilot (test data collection),False,0,,False,False,111,1,,2,False,False,False,False,011,,,,,,,0.0-129.0,,,1,694,"[2, 1, 0]",stimuli/1111011.jpg,,,390494,,prediction_trial,160,image-keyboard-response,,
14,Pilot (test data collection),,,,,,,,,2,,,,,,,,,,,,0.0-130.0,,, ,468,,stimuli/11110112.jpg,,,390966,,feedback_trial,161,image-keyboard-response,,
14,Pilot (test data collection),False,0,,False,False,111,0,,2,False,False,True,True,000,,,,,,,0.0-131.0,,,0,1084,"[2, 0, 1]",stimuli/0111000.jpg,,,392055,,prediction_trial,162,image-keyboard-response,,
14,Pilot (test data collection),,,,,,,,,2,,,,,,,,,,,,0.0-132.0,,, ,1814,,stimuli/01110002.jpg,,,393873,,feedback_trial,163,image-keyboard-response,,
14,Pilot (test data collection),False,0,,True,True,000,2,,2,False,False,False,False,111,,,,,,,0.0-133.0,,,1,1311,[2],stimuli/2000111.jpg,,,395188,,prediction_trial,164,image-keyboard-response,,
14,Pilot (test data collection),,,,,,,,,2,,,,,,,,,,,,0.0-134.0,,, ,621,,stimuli/20001112.jpg,,,395813,,feedback_trial,165,image-keyboard-response,,
14,Pilot (test data collection),True,1,,False,False,111,0,,0,False,False,True,True,010,,,,,,,0.0-135.0,,,0,1466,"[1, 0, 2]",stimuli/0111010.jpg,,,397283,,prediction_trial,166,image-keyboard-response,,
14,Pilot (test data collection),,,,,,,,,1,,,,,,,,,,,,0.0-136.0,,, ,783,,stimuli/01110100.jpg,,,398071,,feedback_trial,167,image-keyboard-response,,
14,Pilot (test data collection),False,0,,False,False,011,1,,2,False,False,False,True,010,,,,,,,0.0-137.0,,,1,2465,"[2, 1]",stimuli/1011010.jpg,,,400541,,prediction_trial,168,image-keyboard-response,,
14,Pilot (test data collection),,,,,,,,,2,,,,,,,,,,,,0.0-138.0,,, ,470,,stimuli/10110102.jpg,,,401016,,feedback_trial,169,image-keyboard-response,,
