workerid,proliferate.condition,accuracy,accuracy_bool,age,alter_ball_visible,alter_can_infer,alter_occluders,ball_pos,bonus,character_choice,collective_ball_visible,collective_can_infer,correct_response,ego_ball_visible,ego_can_infer,ego_occluders,ethnicity,failed_audio,failed_images,failed_video,feedback,filler_trial,gender,internal_node_id,key_trial,overall_accuracy,race,response,rt,search_locations,stimulus,stimulus_dict,success,time_elapsed,timeout,trial,trial_index,trial_type,trick_trial,view_history,error
241,Experimen 4,,,,,,,,,,,,,,,,,[],[],[],,,,0.0-0.0,,,,,,,,,True,3700,False,,0,preload,,,
241,Experimen 4,,,,,,,,,,,,,,,,,,,,,,,0.0-1.0,,,,,,,,,True,7924,,,1,fullscreen,,,
241,Experimen 4,,,,,,,,,,,,,,,,,,,,,,,0.0-2.0,,,,0,51751,,"<p><b>Consent Form</b></p> <div style=""text-align:left;background-color:lightgrey; padding:20px; max-width:900px;""><p>Please consider this information carefully before deciding whether to participate in this research.</p> <p>The purpose of this research is to examine which factors influence social judgment and decision-making. You will be asked to make judgements about individuals and actions in social scenarios. We are simply interested in your judgement. The study will take less than 1 hour to complete, and you will receive less than $20 on Prolific. Your compensation and time commitment are specified in the study description. There are no anticipated risks associated with participating in this study. The effects of participating should be comparable to those you would ordinarily experience from viewing a computer monitor and using a mouse or keyboard for a similar amount of time. At the end of the study, we will provide an explanation of the questions that motivate this line of research and will describe the potential implications. </p><p> Your participation in this study is completely voluntary and you may refuse to participate or you may choose to withdraw at any time without penalty or loss of benefits to you which are otherwise entitled. Your participation in this study will remain confidential. No personally identifiable information will be associated with your data. Also, all analyses of the data will be averaged across all the participants, so your individual responses will never be specifically analyzed. </p><p> If you have questions or concerns about your participation or payment, or want to request a summary of research findings, please contact Dr. Jonathan Phillips at Jonathan.S.Phillips@dartmouth.edu. </p><p> Please save a copy of this form for your records. </p><p><b>Agreement: </b>The nature and purpose of this research have been sufficiently explained and I agree to participate in this study. I understand that I am free to withdraw at any time without incurring any penalty. Please consent by clicking the button below to continue. Otherwise, please exit the study at any time. </p>",,,59677,,,2,html-button-response,,,
241,Experimen 4,,,,,,,,,,,,,,,,,,,,,,,0.0-3.0-0.0,,,,,101552,,,,,161229,,intro,3,instructions,,"[{'page_index': 0, 'viewing_time': 2335}, {'page_index': 1, 'viewing_time': 5376}, {'page_index': 2, 'viewing_time': 3247}, {'page_index': 3, 'viewing_time': 7800}, {'page_index': 4, 'viewing_time': 3409}, {'page_index': 5, 'viewing_time': 10783}, {'page_index': 6, 'viewing_time': 3392}, {'page_index': 7, 'viewing_time': 3664}, {'page_index': 8, 'viewing_time': 3496}, {'page_index': 9, 'viewing_time': 4504}, {'page_index': 10, 'viewing_time': 4137}, {'page_index': 11, 'viewing_time': 10855}, {'page_index': 10, 'viewing_time': 2585}, {'page_index': 11, 'viewing_time': 5639}, {'page_index': 12, 'viewing_time': 12608}, {'page_index': 13, 'viewing_time': 7569}, {'page_index': 14, 'viewing_time': 8887}, {'page_index': 15, 'viewing_time': 1264}]",
241,Experimen 4,False,,,,,,,,0,,,,,,,,,,,,,,0.0-3.0-1.0,,,,1,13882,,stimuli/3100001.jpg,"{'ball_pos': 3, 'filepath': 'stimuli/3100001.jpg', 'key_trial': False, 'trick_trial': True, 'filler_trial': False, 'ego_can_infer': True, 'ego_occluders': '001', 'alter_can_infer': True, 'alter_occluders': '100', 'ego_ball_visible': True, 'search_locations': [0], 'alter_ball_visible': False, 'collective_can_infer': True, 'collective_ball_visible': False}",,175119,,prediction_practice,4,image-keyboard-response,,,
241,Experimen 4,,,,,,,,,0,,,,,,,,,,,,,,0.0-3.0-2.0,,,, ,2340,,stimuli/31000010.jpg,,,177461,,practice_feedback,5,image-keyboard-response,,,
241,Experimen 4,True,,,,,,,,2,,,,,,,,,,,,,,0.0-3.0-3.0,,,,2,4127,,stimuli/3011000.jpg,"{'ball_pos': 3, 'filepath': 'stimuli/3011000.jpg', 'key_trial': False, 'trick_trial': True, 'filler_trial': False, 'ego_can_infer': True, 'ego_occluders': '000', 'alter_can_infer': False, 'alter_occluders': '011', 'ego_ball_visible': True, 'search_locations': [1, 2], 'alter_ball_visible': False, 'collective_can_infer': False, 'collective_ball_visible': False}",,181589,,prediction_practice,6,image-keyboard-response,,,
241,Experimen 4,,,,,,,,,1,,,,,,,,,,,,,,0.0-3.0-4.0,,,, ,1842,,stimuli/30110002.jpg,,,183431,,practice_feedback,7,image-keyboard-response,,,
241,Experimen 4,True,,,,,,,,2,,,,,,,,,,,,,,0.0-3.0-5.0,,,,2,1562,,stimuli/2000010.jpg,"{'ball_pos': 2, 'filepath': 'stimuli/2000010.jpg', 'key_trial': False, 'trick_trial': False, 'filler_trial': True, 'ego_can_infer': True, 'ego_occluders': '010', 'alter_can_infer': True, 'alter_occluders': '000', 'ego_ball_visible': True, 'search_locations': [2], 'alter_ball_visible': True, 'collective_can_infer': True, 'collective_ball_visible': True}",,184995,,prediction_practice,8,image-keyboard-response,,,
241,Experimen 4,,,,,,,,,2,,,,,,,,,,,,,,0.0-3.0-6.0,,,, ,3013,,stimuli/20000102.jpg,,,188009,,practice_feedback,9,image-keyboard-response,,,
241,Experimen 4,False,,,,,,,,0,,,,,,,,,,,,,,0.0-3.0-7.0,,,,1,2380,,stimuli/0010110.jpg,"{'ball_pos': 0, 'filepath': 'stimuli/0010110.jpg', 'key_trial': True, 'trick_trial': False, 'filler_trial': False, 'ego_can_infer': False, 'ego_occluders': '110', 'alter_can_infer': True, 'alter_occluders': '010', 'ego_ball_visible': False, 'search_locations': [0], 'alter_ball_visible': True, 'collective_can_infer': False, 'collective_ball_visible': False}",,190390,,prediction_practice,10,image-keyboard-response,,,
241,Experimen 4,,,,,,,,,0,,,,,,,,,,,,,,0.0-3.0-8.0,,,, ,2326,,stimuli/00101100.jpg,,,192722,,practice_feedback,11,image-keyboard-response,,,
241,Experimen 4,True,,,,,,,,0,,,,,,,,,,,,,,0.0-3.0-9.0,,,,0,2480,,stimuli/3110111.jpg,"{'ball_pos': 3, 'filepath': 'stimuli/3110111.jpg', 'key_trial': False, 'trick_trial': True, 'filler_trial': False, 'ego_can_infer': True, 'ego_occluders': '111', 'alter_can_infer': False, 'alter_occluders': '110', 'ego_ball_visible': True, 'search_locations': [0, 1], 'alter_ball_visible': False, 'collective_can_infer': False, 'collective_ball_visible': False}",,195203,,prediction_practice,12,image-keyboard-response,,,
241,Experimen 4,,,,,,,,,0,,,,,,,,,,,,,,0.0-3.0-10.0,,,, ,874,,stimuli/31101110.jpg,,,196077,,practice_feedback,13,image-keyboard-response,,,
241,Experimen 4,True,,,,,,,,0,,,,,,,,,,,,,,0.0-3.0-11.0,,,,0,3295,,stimuli/3100110.jpg,"{'ball_pos': 3, 'filepath': 'stimuli/3100110.jpg', 'key_trial': False, 'trick_trial': True, 'filler_trial': False, 'ego_can_infer': True, 'ego_occluders': '110', 'alter_can_infer': True, 'alter_occluders': '100', 'ego_ball_visible': True, 'search_locations': [0], 'alter_ball_visible': False, 'collective_can_infer': True, 'collective_ball_visible': False}",,199374,,prediction_practice,14,image-keyboard-response,,,
241,Experimen 4,,,,,,,,,0,,,,,,,,,,,,,,0.0-3.0-12.0,,,, ,771,,stimuli/31001100.jpg,,,200145,,practice_feedback,15,image-keyboard-response,,,
241,Experimen 4,False,,,,,,,,1,,,,,,,,,,,,,,0.0-3.0-13.0,,,,2,4887,,stimuli/3011001.jpg,"{'ball_pos': 3, 'filepath': 'stimuli/3011001.jpg', 'key_trial': False, 'trick_trial': True, 'filler_trial': False, 'ego_can_infer': True, 'ego_occluders': '001', 'alter_can_infer': False, 'alter_occluders': '011', 'ego_ball_visible': True, 'search_locations': [1, 2], 'alter_ball_visible': False, 'collective_can_infer': False, 'collective_ball_visible': False}",,205032,,prediction_practice,16,image-keyboard-response,,,
241,Experimen 4,,,,,,,,,1,,,,,,,,,,,,,,0.0-3.0-14.0,,,, ,1004,,stimuli/30110011.jpg,,,206042,,practice_feedback,17,image-keyboard-response,,,
241,Experimen 4,True,,,,,,,,2,,,,,,,,,,,,,,0.0-3.0-15.0,,,,2,1544,,stimuli/2100110.jpg,"{'ball_pos': 2, 'filepath': 'stimuli/2100110.jpg', 'key_trial': False, 'trick_trial': False, 'filler_trial': True, 'ego_can_infer': True, 'ego_occluders': '110', 'alter_can_infer': True, 'alter_occluders': '100', 'ego_ball_visible': True, 'search_locations': [2], 'alter_ball_visible': True, 'collective_can_infer': True, 'collective_ball_visible': True}",,207588,,prediction_practice,18,image-keyboard-response,,,
241,Experimen 4,,,,,,,,,2,,,,,,,,,,,,,,0.0-3.0-16.0,,,, ,753,,stimuli/21001102.jpg,,,208341,,practice_feedback,19,image-keyboard-response,,,
241,Experimen 4,True,,,,,,,,2,,,,,,,,,,,,,,0.0-3.0-17.0,,,,2,4027,,stimuli/2001100.jpg,"{'ball_pos': 2, 'filepath': 'stimuli/2001100.jpg', 'key_trial': False, 'trick_trial': False, 'filler_trial': True, 'ego_can_infer': True, 'ego_occluders': '100', 'alter_can_infer': True, 'alter_occluders': '001', 'ego_ball_visible': True, 'search_locations': [2], 'alter_ball_visible': False, 'collective_can_infer': True, 'collective_ball_visible': False}",,212369,,prediction_practice,20,image-keyboard-response,,,
241,Experimen 4,,,,,,,,,2,,,,,,,,,,,,,,0.0-3.0-18.0,,,, ,969,,stimuli/20011002.jpg,,,213338,,practice_feedback,21,image-keyboard-response,,,
241,Experimen 4,True,,,,,,,,0,,,,,,,,,,,,,,0.0-3.0-19.0,,,,0,1724,,stimuli/3100111.jpg,"{'ball_pos': 3, 'filepath': 'stimuli/3100111.jpg', 'key_trial': False, 'trick_trial': True, 'filler_trial': False, 'ego_can_infer': True, 'ego_occluders': '111', 'alter_can_infer': True, 'alter_occluders': '100', 'ego_ball_visible': True, 'search_locations': [0], 'alter_ball_visible': False, 'collective_can_infer': True, 'collective_ball_visible': False}",,215063,,prediction_practice,22,image-keyboard-response,,,
241,Experimen 4,,,,,,,,,0,,,,,,,,,,,,,,0.0-3.0-20.0,,,, ,911,,stimuli/31001110.jpg,,,215980,,practice_feedback,23,image-keyboard-response,,,
241,Experimen 4,,,,,,,,,,,,,,,,,,,,,,,0.0-3.0-21.0,,,,0,7823,,"Now that you've had some practice, you'll be tested with a couple of easy trials. If you correctly predict Sam's choice, you'll move on to complete the experiment!",,,223804,,,24,html-button-response,,,
241,Experimen 4,True,,,,,,,,,,,arrowleft,,,,,,,,,,,0.0-3.0-22.0-0.0,,,,arrowleft,2998,,stimuli/0000011.jpg,,,226803,,comprehension_quiz,25,image-keyboard-response,,,
241,Experimen 4,True,,,,,,,,,,, ,,,,,,,,,,,0.0-3.0-22.0-1.0,,,, ,796,,stimuli/00000110.jpg,,,227601,,comprehension_quiz,26,image-keyboard-response,,,
241,Experimen 4,True,,,,,,,,,,,arrowdown,,,,,,,,,,,0.0-3.0-22.0-2.0,,,,arrowdown,1560,,stimuli/1010010.jpg,,,229162,,comprehension_quiz,27,image-keyboard-response,,,
241,Experimen 4,True,,,,,,,,,,, ,,,,,,,,,,,0.0-3.0-22.0-3.0,,,, ,715,,stimuli/10100101.jpg,,,229877,,comprehension_quiz,28,image-keyboard-response,,,
241,Experimen 4,,,,,,,,,,,,,,,,,,,,,,,0.0-4.0,,,,0,2173,,The experiment will now begin.,,,232052,,,29,html-button-response,,,
241,Experimen 4,True,1,,False,False,011,3,,2,False,False,,True,True,011,,,,,,False,,0.0-5.0,False,,,2,3582,"[1, 2]",stimuli/3011011.jpg,,,235635,,prediction_trial,30,image-keyboard-response,True,,
241,Experimen 4,,,,,,,,,1,,,,,,,,,,,,,,0.0-6.0,,,, ,784,,stimuli/30110112.jpg,,,236420,,feedback_trial,31,image-keyboard-response,,,
241,Experimen 4,True,1,,False,False,011,1,,2,False,False,,False,False,011,,,,,,False,,0.0-7.0,True,,,2,1690,"[2, 1]",stimuli/1011011.jpg,,,238111,,prediction_trial,32,image-keyboard-response,False,,
241,Experimen 4,,,,,,,,,2,,,,,,,,,,,,,,0.0-8.0,,,, ,632,,stimuli/10110112.jpg,,,238744,,feedback_trial,33,image-keyboard-response,,,
241,Experimen 4,True,1,,False,True,010,3,,1,False,True,,True,True,111,,,,,,False,,0.0-9.0,False,,,1,1194,[1],stimuli/3010111.jpg,,,239940,,prediction_trial,34,image-keyboard-response,True,,
241,Experimen 4,,,,,,,,,1,,,,,,,,,,,,,,0.0-10.0,,,, ,681,,stimuli/30101111.jpg,,,240628,,feedback_trial,35,image-keyboard-response,,,
241,Experimen 4,True,1,,False,False,101,2,,2,False,False,,True,True,000,,,,,,True,,0.0-11.0,False,,,2,3044,"[2, 0]",stimuli/2101000.jpg,,,243673,,prediction_trial,36,image-keyboard-response,False,,
241,Experimen 4,,,,,,,,,2,,,,,,,,,,,,,,0.0-12.0,,,, ,1048,,stimuli/21010002.jpg,,,244722,,feedback_trial,37,image-keyboard-response,,,
241,Experimen 4,True,1,,True,True,100,2,,2,True,True,,True,True,100,,,,,,True,,0.0-13.0,False,,,2,1559,[2],stimuli/2100100.jpg,,,246282,,prediction_trial,38,image-keyboard-response,False,,
241,Experimen 4,,,,,,,,,2,,,,,,,,,,,,,,0.0-14.0,,,, ,651,,stimuli/21001002.jpg,,,246934,,feedback_trial,39,image-keyboard-response,,,
241,Experimen 4,True,1,,False,True,100,3,,0,False,True,,True,True,110,,,,,,False,,0.0-15.0,False,,,0,1830,[0],stimuli/3100110.jpg,,,248765,,prediction_trial,40,image-keyboard-response,True,,
241,Experimen 4,,,,,,,,,0,,,,,,,,,,,,,,0.0-16.0,,,, ,621,,stimuli/31001100.jpg,,,249393,,feedback_trial,41,image-keyboard-response,,,
241,Experimen 4,True,1,,False,False,111,2,,2,False,False,,False,True,001,,,,,,True,,0.0-17.0,False,,,2,3174,"[2, 0, 1]",stimuli/2111001.jpg,,,252568,,prediction_trial,42,image-keyboard-response,False,,
241,Experimen 4,,,,,,,,,2,,,,,,,,,,,,,,0.0-18.0,,,, ,643,,stimuli/21110012.jpg,,,253212,,feedback_trial,43,image-keyboard-response,,,
241,Experimen 4,True,1,,False,True,001,3,,2,False,True,,True,True,111,,,,,,False,,0.0-19.0,False,,,2,2549,[2],stimuli/3001111.jpg,,,255762,,prediction_trial,44,image-keyboard-response,True,,
241,Experimen 4,,,,,,,,,2,,,,,,,,,,,,,,0.0-20.0,,,, ,593,,stimuli/30011112.jpg,,,256356,,feedback_trial,45,image-keyboard-response,,,
241,Experimen 4,True,1,,False,False,101,0,,0,False,False,,False,False,111,,,,,,False,,0.0-21.0,True,,,0,2790,"[0, 2]",stimuli/0101111.jpg,,,259147,,prediction_trial,46,image-keyboard-response,False,,
241,Experimen 4,,,,,,,,,0,,,,,,,,,,,,,,0.0-22.0,,,, ,787,,stimuli/01011110.jpg,,,259940,,feedback_trial,47,image-keyboard-response,,,
241,Experimen 4,True,1,,True,True,100,1,,1,True,True,,True,True,100,,,,,,True,,0.0-23.0,False,,,1,1323,[1],stimuli/1100100.jpg,,,261264,,prediction_trial,48,image-keyboard-response,False,,
241,Experimen 4,,,,,,,,,1,,,,,,,,,,,,,,0.0-24.0,,,, ,687,,stimuli/11001001.jpg,,,261952,,feedback_trial,49,image-keyboard-response,,,
241,Experimen 4,True,1,,True,True,001,0,,0,True,True,,True,True,001,,,,,,True,,0.0-25.0,False,,,0,1530,[0],stimuli/0001001.jpg,,,263483,,prediction_trial,50,image-keyboard-response,False,,
241,Experimen 4,,,,,,,,,0,,,,,,,,,,,,,,0.0-26.0,,,, ,578,,stimuli/00010010.jpg,,,264063,,feedback_trial,51,image-keyboard-response,,,
241,Experimen 4,True,1,,True,True,010,0,,0,True,True,,True,True,000,,,,,,True,,0.0-27.0,False,,,0,824,[0],stimuli/0010000.jpg,,,264888,,prediction_trial,52,image-keyboard-response,False,,
241,Experimen 4,,,,,,,,,0,,,,,,,,,,,,,,0.0-28.0,,,, ,656,,stimuli/00100000.jpg,,,265550,,feedback_trial,53,image-keyboard-response,,,
241,Experimen 4,False,0,,False,False,011,3,,1,False,False,,True,True,101,,,,,,False,,0.0-29.0,False,,,2,2680,"[1, 2]",stimuli/3011101.jpg,,,268230,,prediction_trial,54,image-keyboard-response,True,,
241,Experimen 4,,,,,,,,,1,,,,,,,,,,,,,,0.0-30.0,,,, ,951,,stimuli/30111011.jpg,,,269182,,feedback_trial,55,image-keyboard-response,,,
241,Experimen 4,True,1,,False,False,111,1,,1,False,False,,True,True,100,,,,,,True,,0.0-31.0,False,,,1,2605,"[1, 2, 0]",stimuli/1111100.jpg,,,271787,,prediction_trial,56,image-keyboard-response,False,,
241,Experimen 4,,,,,,,,,1,,,,,,,,,,,,,,0.0-32.0,,,, ,798,,stimuli/11111001.jpg,,,272585,,feedback_trial,57,image-keyboard-response,,,
241,Experimen 4,False,0,,False,False,101,3,,2,False,False,,True,True,110,,,,,,False,,0.0-33.0,False,,,0,3121,"[2, 0]",stimuli/3101110.jpg,,,275707,,prediction_trial,58,image-keyboard-response,True,,
241,Experimen 4,,,,,,,,,2,,,,,,,,,,,,,,0.0-34.0,,,, ,753,,stimuli/31011102.jpg,,,276467,,feedback_trial,59,image-keyboard-response,,,
241,Experimen 4,True,1,,False,True,001,2,,2,False,False,,False,False,011,,,,,,False,,0.0-35.0,True,,,2,3694,[2],stimuli/2001011.jpg,,,280162,,prediction_trial,60,image-keyboard-response,False,,
241,Experimen 4,,,,,,,,,2,,,,,,,,,,,,,,0.0-36.0,,,, ,772,,stimuli/20010112.jpg,,,280935,,feedback_trial,61,image-keyboard-response,,,
241,Experimen 4,True,1,,False,True,010,3,,1,False,True,,True,True,110,,,,,,False,,0.0-37.0,False,,,1,1829,[1],stimuli/3010110.jpg,,,282765,,prediction_trial,62,image-keyboard-response,True,,
241,Experimen 4,,,,,,,,,1,,,,,,,,,,,,,,0.0-38.0,,,, ,629,,stimuli/30101101.jpg,,,283394,,feedback_trial,63,image-keyboard-response,,,
241,Experimen 4,True,1,,False,False,111,1,,2,False,False,,False,True,010,,,,,,True,,0.0-39.0,False,,,2,2792,"[2, 0, 1]",stimuli/1111010.jpg,,,286192,,prediction_trial,64,image-keyboard-response,False,,
241,Experimen 4,,,,,,,,,2,,,,,,,,,,,,,,0.0-40.0,,,, ,684,,stimuli/11110102.jpg,,,286878,,feedback_trial,65,image-keyboard-response,,,
241,Experimen 4,False,0,,True,True,001,0,,0,False,False,,False,False,101,,,,,,False,,0.0-41.0,True,,,2,3766,[0],stimuli/0001101.jpg,,,290644,,prediction_trial,66,image-keyboard-response,False,,
241,Experimen 4,,,,,,,,,0,,,,,,,,,,,,,,0.0-42.0,,,, ,794,,stimuli/00011010.jpg,,,291439,,feedback_trial,67,image-keyboard-response,,,
241,Experimen 4,True,1,,False,True,001,2,,2,False,True,,True,True,110,,,,,,True,,0.0-43.0,False,,,2,5119,[2],stimuli/2001110.jpg,,,296559,,prediction_trial,68,image-keyboard-response,False,,
241,Experimen 4,,,,,,,,,2,,,,,,,,,,,,,,0.0-44.0,,,, ,567,,stimuli/20011102.jpg,,,297126,,feedback_trial,69,image-keyboard-response,,,
241,Experimen 4,False,0,,True,True,001,0,,0,False,False,,False,False,111,,,,,,False,,0.0-45.0,True,,,2,2396,[0],stimuli/0001111.jpg,,,299530,,prediction_trial,70,image-keyboard-response,False,,
241,Experimen 4,,,,,,,,,0,,,,,,,,,,,,,,0.0-46.0,,,, ,1800,,stimuli/00011110.jpg,,,301318,,feedback_trial,71,image-keyboard-response,,,
241,Experimen 4,False,0,,False,False,011,1,,2,False,False,,False,False,111,,,,,,False,,0.0-47.0,True,,,1,3321,"[2, 1]",stimuli/1011111.jpg,,,304640,,prediction_trial,72,image-keyboard-response,False,,
241,Experimen 4,,,,,,,,,2,,,,,,,,,,,,,,0.0-48.0,,,, ,814,,stimuli/10111112.jpg,,,305455,,feedback_trial,73,image-keyboard-response,,,
241,Experimen 4,True,1,,True,True,100,2,,2,False,False,,False,False,011,,,,,,False,,0.0-49.0,True,,,2,3444,[2],stimuli/2100011.jpg,,,308900,,prediction_trial,74,image-keyboard-response,False,,
241,Experimen 4,,,,,,,,,2,,,,,,,,,,,,,,0.0-50.0,,,, ,560,,stimuli/21000112.jpg,,,309461,,feedback_trial,75,image-keyboard-response,,,
241,Experimen 4,False,0,,False,False,110,1,,0,False,False,,False,False,011,,,,,,False,,0.0-51.0,True,,,1,2825,"[1, 0]",stimuli/1110011.jpg,,,312292,,prediction_trial,76,image-keyboard-response,False,,
241,Experimen 4,,,,,,,,,1,,,,,,,,,,,,,,0.0-52.0,,,, ,2746,,stimuli/11100110.jpg,,,315039,,feedback_trial,77,image-keyboard-response,,,
241,Experimen 4,True,1,,False,False,110,3,,1,False,False,,True,True,101,,,,,,False,,0.0-53.0,False,,,1,5442,"[1, 0]",stimuli/3110101.jpg,,,320482,,prediction_trial,78,image-keyboard-response,True,,
241,Experimen 4,,,,,,,,,1,,,,,,,,,,,,,,0.0-54.0,,,, ,943,,stimuli/31101011.jpg,,,321426,,feedback_trial,79,image-keyboard-response,,,
241,Experimen 4,True,1,,True,True,110,2,,2,False,True,,False,True,001,,,,,,True,,0.0-55.0,False,,,2,2505,[2],stimuli/2110001.jpg,,,323932,,prediction_trial,80,image-keyboard-response,False,,
241,Experimen 4,,,,,,,,,2,,,,,,,,,,,,,,0.0-56.0,,,, ,645,,stimuli/21100012.jpg,,,324579,,feedback_trial,81,image-keyboard-response,,,
241,Experimen 4,True,1,,False,False,011,3,,1,False,False,,True,True,101,,,,,,False,,0.0-57.0,False,,,1,2595,"[1, 2]",stimuli/3011101.jpg,,,327180,,prediction_trial,82,image-keyboard-response,True,,
241,Experimen 4,,,,,,,,,1,,,,,,,,,,,,,,0.0-58.0,,,, ,682,,stimuli/30111011.jpg,,,327863,,feedback_trial,83,image-keyboard-response,,,
241,Experimen 4,False,0,,False,False,101,3,,0,False,False,,True,True,111,,,,,,False,,0.0-59.0,False,,,2,4453,"[2, 0]",stimuli/3101111.jpg,,,332317,,prediction_trial,84,image-keyboard-response,True,,
241,Experimen 4,,,,,,,,,2,,,,,,,,,,,,,,0.0-60.0,,,, ,826,,stimuli/31011110.jpg,,,333144,,feedback_trial,85,image-keyboard-response,,,
241,Experimen 4,True,1,,True,True,010,0,,0,True,True,,True,True,011,,,,,,True,,0.0-61.0,False,,,0,1224,[0],stimuli/0010011.jpg,,,334369,,prediction_trial,86,image-keyboard-response,False,,
241,Experimen 4,,,,,,,,,0,,,,,,,,,,,,,,0.0-62.0,,,, ,605,,stimuli/00100110.jpg,,,334975,,feedback_trial,87,image-keyboard-response,,,
241,Experimen 4,False,0,,False,True,100,0,,0,False,False,,False,False,101,,,,,,False,,0.0-63.0,True,,,2,4053,[0],stimuli/0100101.jpg,,,339035,,prediction_trial,88,image-keyboard-response,False,,
241,Experimen 4,,,,,,,,,0,,,,,,,,,,,,,,0.0-64.0,,,, ,723,,stimuli/01001010.jpg,,,339759,,feedback_trial,89,image-keyboard-response,,,
241,Experimen 4,True,1,,False,True,001,2,,2,False,True,,True,True,000,,,,,,True,,0.0-65.0,False,,,2,2087,[2],stimuli/2001000.jpg,,,341847,,prediction_trial,90,image-keyboard-response,False,,
241,Experimen 4,,,,,,,,,2,,,,,,,,,,,,,,0.0-66.0,,,, ,597,,stimuli/20010002.jpg,,,342445,,feedback_trial,91,image-keyboard-response,,,
241,Experimen 4,False,0,,True,True,010,0,,0,False,False,,False,False,111,,,,,,False,,0.0-67.0,True,,,1,2840,[0],stimuli/0010111.jpg,,,345287,,prediction_trial,92,image-keyboard-response,False,,
241,Experimen 4,,,,,,,,,0,,,,,,,,,,,,,,0.0-68.0,,,, ,707,,stimuli/00101110.jpg,,,345994,,feedback_trial,93,image-keyboard-response,,,
241,Experimen 4,True,1,,False,True,001,2,,2,False,True,,True,True,100,,,,,,True,,0.0-69.0,False,,,2,2808,[2],stimuli/2001100.jpg,,,348808,,prediction_trial,94,image-keyboard-response,False,,
241,Experimen 4,,,,,,,,,2,,,,,,,,,,,,,,0.0-70.0,,,, ,623,,stimuli/20011002.jpg,,,349432,,feedback_trial,95,image-keyboard-response,,,
241,Experimen 4,False,0,,False,False,011,2,,1,False,False,,False,False,101,,,,,,False,,0.0-71.0,True,,,2,4278,"[2, 1]",stimuli/2011101.jpg,,,353711,,prediction_trial,96,image-keyboard-response,False,,
241,Experimen 4,,,,,,,,,2,,,,,,,,,,,,,,0.0-72.0,,,, ,1912,,stimuli/20111011.jpg,,,355624,,feedback_trial,97,image-keyboard-response,,,
241,Experimen 4,False,0,,True,True,011,0,,0,False,False,,False,False,111,,,,,,False,,0.0-73.0,True,,,1,1775,[0],stimuli/0011111.jpg,,,357406,,prediction_trial,98,image-keyboard-response,False,,
241,Experimen 4,,,,,,,,,0,,,,,,,,,,,,,,0.0-74.0,,,, ,685,,stimuli/00111110.jpg,,,358092,,feedback_trial,99,image-keyboard-response,,,
241,Experimen 4,False,0,,False,True,001,3,,2,False,True,,True,True,111,,,,,,False,,0.0-75.0,False,,,1,3597,[2],stimuli/3001111.jpg,,,361702,,prediction_trial,100,image-keyboard-response,True,,
241,Experimen 4,,,,,,,,,2,,,,,,,,,,,,,,0.0-76.0,,,, ,611,,stimuli/30011112.jpg,,,362314,,feedback_trial,101,image-keyboard-response,,,
241,Experimen 4,False,0,,True,True,101,1,,1,False,False,,False,False,011,,,,,,False,,0.0-77.0,True,,,0,1552,[1],stimuli/1101011.jpg,,,363867,,prediction_trial,102,image-keyboard-response,False,,
241,Experimen 4,,,,,,,,,1,,,,,,,,,,,,,,0.0-78.0,,,, ,646,,stimuli/11010111.jpg,,,364514,,feedback_trial,103,image-keyboard-response,,,
241,Experimen 4,True,1,,False,True,100,3,,0,False,True,,True,True,111,,,,,,False,,0.0-79.0,False,,,0,2280,[0],stimuli/3100111.jpg,,,366800,,prediction_trial,104,image-keyboard-response,True,,
241,Experimen 4,,,,,,,,,0,,,,,,,,,,,,,,0.0-80.0,,,, ,640,,stimuli/31001110.jpg,,,367441,,feedback_trial,105,image-keyboard-response,,,
241,Experimen 4,True,1,,False,True,001,3,,2,False,True,,True,True,110,,,,,,False,,0.0-81.0,False,,,2,1449,[2],stimuli/3001110.jpg,,,368892,,prediction_trial,106,image-keyboard-response,True,,
241,Experimen 4,,,,,,,,,2,,,,,,,,,,,,,,0.0-82.0,,,, ,677,,stimuli/30011102.jpg,,,369570,,feedback_trial,107,image-keyboard-response,,,
241,Experimen 4,False,0,,True,True,101,1,,1,False,False,,False,False,110,,,,,,False,,0.0-83.0,True,,,0,1014,[1],stimuli/1101110.jpg,,,370585,,prediction_trial,108,image-keyboard-response,False,,
241,Experimen 4,,,,,,,,,1,,,,,,,,,,,,,,0.0-84.0,,,, ,594,,stimuli/11011101.jpg,,,371180,,feedback_trial,109,image-keyboard-response,,,
241,Experimen 4,False,0,,False,False,101,3,,0,False,False,,True,True,011,,,,,,False,,0.0-85.0,False,,,2,3655,"[0, 2]",stimuli/3101011.jpg,,,374842,,prediction_trial,110,image-keyboard-response,True,,
241,Experimen 4,,,,,,,,,0,,,,,,,,,,,,,,0.0-86.0,,,, ,563,,stimuli/31010110.jpg,,,375406,,feedback_trial,111,image-keyboard-response,,,
241,Experimen 4,False,0,,True,True,110,2,,2,False,False,,False,False,101,,,,,,False,,0.0-87.0,True,,,0,2038,[2],stimuli/2110101.jpg,,,377444,,prediction_trial,112,image-keyboard-response,False,,
241,Experimen 4,,,,,,,,,2,,,,,,,,,,,,,,0.0-88.0,,,, ,708,,stimuli/21101012.jpg,,,378153,,feedback_trial,113,image-keyboard-response,,,
241,Experimen 4,True,1,,True,True,011,0,,0,True,True,,True,True,011,,,,,,True,,0.0-89.0,False,,,0,2038,[0],stimuli/0011011.jpg,,,380192,,prediction_trial,114,image-keyboard-response,False,,
241,Experimen 4,,,,,,,,,0,,,,,,,,,,,,,,0.0-90.0,,,, ,511,,stimuli/00110110.jpg,,,380703,,feedback_trial,115,image-keyboard-response,,,
241,Experimen 4,True,1,,False,True,100,3,,0,False,True,,True,True,111,,,,,,False,,0.0-91.0,False,,,0,2675,[0],stimuli/3100111.jpg,,,383384,,prediction_trial,116,image-keyboard-response,True,,
241,Experimen 4,,,,,,,,,0,,,,,,,,,,,,,,0.0-92.0,,,, ,506,,stimuli/31001110.jpg,,,383891,,feedback_trial,117,image-keyboard-response,,,
241,Experimen 4,True,1,,True,True,010,2,,2,False,False,,False,False,111,,,,,,False,,0.0-93.0,True,,,2,2784,[2],stimuli/2010111.jpg,,,386676,,prediction_trial,118,image-keyboard-response,False,,
241,Experimen 4,,,,,,,,,2,,,,,,,,,,,,,,0.0-94.0,,,, ,752,,stimuli/20101112.jpg,,,387430,,feedback_trial,119,image-keyboard-response,,,
241,Experimen 4,False,0,,False,False,110,3,,1,False,False,,True,True,011,,,,,,False,,0.0-95.0,False,,,0,4636,"[0, 1]",stimuli/3110011.jpg,,,392066,,prediction_trial,120,image-keyboard-response,True,,
241,Experimen 4,,,,,,,,,0,,,,,,,,,,,,,,0.0-96.0,,,, ,1108,,stimuli/31100111.jpg,,,393175,,feedback_trial,121,image-keyboard-response,,,
241,Experimen 4,True,1,,True,True,101,1,,1,True,True,,True,True,101,,,,,,True,,0.0-97.0,False,,,1,1647,[1],stimuli/1101101.jpg,,,394828,,prediction_trial,122,image-keyboard-response,False,,
241,Experimen 4,,,,,,,,,1,,,,,,,,,,,,,,0.0-98.0,,,, ,715,,stimuli/11011011.jpg,,,395544,,feedback_trial,123,image-keyboard-response,,,
241,Experimen 4,False,0,,False,True,010,3,,1,False,True,,True,True,101,,,,,,False,,0.0-99.0,False,,,2,2003,[1],stimuli/3010101.jpg,,,397549,,prediction_trial,124,image-keyboard-response,True,,
241,Experimen 4,,,,,,,,,1,,,,,,,,,,,,,,0.0-100.0,,,, ,565,,stimuli/30101011.jpg,,,398115,,feedback_trial,125,image-keyboard-response,,,
241,Experimen 4,False,0,,False,False,111,0,,2,False,False,,False,False,110,,,,,,True,,0.0-101.0,False,,,0,2857,"[1, 0, 2]",stimuli/0111110.jpg,,,400973,,prediction_trial,126,image-keyboard-response,False,,
241,Experimen 4,,,,,,,,,1,,,,,,,,,,,,,,0.0-102.0,,,, ,1433,,stimuli/01111102.jpg,,,402406,,feedback_trial,127,image-keyboard-response,,,
241,Experimen 4,False,0,,False,False,110,3,,0,False,False,,True,True,111,,,,,,False,,0.0-103.0,False,,,2,3872,"[0, 1]",stimuli/3110111.jpg,,,406284,,prediction_trial,128,image-keyboard-response,True,,
241,Experimen 4,,,,,,,,,0,,,,,,,,,,,,,,0.0-104.0,,,, ,642,,stimuli/31101110.jpg,,,406928,,feedback_trial,129,image-keyboard-response,,,
241,Experimen 4,True,1,,True,True,010,2,,2,True,True,,True,True,010,,,,,,True,,0.0-105.0,False,,,2,1189,[2],stimuli/2010010.jpg,,,408117,,prediction_trial,130,image-keyboard-response,False,,
241,Experimen 4,,,,,,,,,2,,,,,,,,,,,,,,0.0-106.0,,,, ,493,,stimuli/20100102.jpg,,,408611,,feedback_trial,131,image-keyboard-response,,,
241,Experimen 4,True,1,,False,False,101,3,,0,False,False,,True,True,110,,,,,,False,,0.0-107.0,False,,,0,2029,"[2, 0]",stimuli/3101110.jpg,,,410641,,prediction_trial,132,image-keyboard-response,True,,
241,Experimen 4,,,,,,,,,2,,,,,,,,,,,,,,0.0-108.0,,,, ,499,,stimuli/31011100.jpg,,,411141,,feedback_trial,133,image-keyboard-response,,,
241,Experimen 4,False,0,,False,False,111,1,,2,False,False,,True,True,001,,,,,,True,,0.0-109.0,False,,,1,2179,"[1, 2, 0]",stimuli/1111001.jpg,,,413326,,prediction_trial,134,image-keyboard-response,False,,
241,Experimen 4,,,,,,,,,1,,,,,,,,,,,,,,0.0-110.0,,,, ,649,,stimuli/11110012.jpg,,,413977,,feedback_trial,135,image-keyboard-response,,,
241,Experimen 4,False,0,,False,False,110,1,,0,False,False,,True,True,101,,,,,,True,,0.0-111.0,False,,,1,4719,"[1, 0]",stimuli/1110101.jpg,,,418697,,prediction_trial,136,image-keyboard-response,False,,
241,Experimen 4,,,,,,,,,1,,,,,,,,,,,,,,0.0-112.0,,,, ,613,,stimuli/11101010.jpg,,,419312,,feedback_trial,137,image-keyboard-response,,,
241,Experimen 4,True,1,,False,False,110,0,,0,False,False,,False,False,110,,,,,,False,,0.0-113.0,True,,,0,2442,"[1, 0]",stimuli/0110110.jpg,,,421756,,prediction_trial,138,image-keyboard-response,False,,
241,Experimen 4,,,,,,,,,1,,,,,,,,,,,,,,0.0-114.0,,,, ,540,,stimuli/01101100.jpg,,,422297,,feedback_trial,139,image-keyboard-response,,,
241,Experimen 4,True,1,,True,True,101,1,,1,True,True,,True,True,100,,,,,,True,,0.0-115.0,False,,,1,1227,[1],stimuli/1101100.jpg,,,423529,,prediction_trial,140,image-keyboard-response,False,,
241,Experimen 4,,,,,,,,,1,,,,,,,,,,,,,,0.0-116.0,,,, ,526,,stimuli/11011001.jpg,,,424056,,feedback_trial,141,image-keyboard-response,,,
241,Experimen 4,False,0,,True,True,001,0,,0,False,False,,False,False,110,,,,,,False,,0.0-117.0,True,,,1,1742,[0],stimuli/0001110.jpg,,,425799,,prediction_trial,142,image-keyboard-response,False,,
241,Experimen 4,,,,,,,,,0,,,,,,,,,,,,,,0.0-118.0,,,, ,606,,stimuli/00011100.jpg,,,426406,,feedback_trial,143,image-keyboard-response,,,
241,Experimen 4,False,0,,False,True,010,1,,1,False,True,,True,True,101,,,,,,True,,0.0-119.0,False,,,2,1538,[1],stimuli/1010101.jpg,,,427944,,prediction_trial,144,image-keyboard-response,False,,
241,Experimen 4,,,,,,,,,1,,,,,,,,,,,,,,0.0-120.0,,,, ,545,,stimuli/10101011.jpg,,,428491,,feedback_trial,145,image-keyboard-response,,,
241,Experimen 4,True,1,,True,True,100,1,,1,True,True,,True,True,001,,,,,,True,,0.0-121.0,False,,,1,5621,[1],stimuli/1100001.jpg,,,434118,,prediction_trial,146,image-keyboard-response,False,,
241,Experimen 4,,,,,,,,,1,,,,,,,,,,,,,,0.0-122.0,,,, ,422,,stimuli/11000011.jpg,,,434541,,feedback_trial,147,image-keyboard-response,,,
241,Experimen 4,False,0,,True,True,000,0,,0,False,False,,False,False,111,,,,,,True,,0.0-123.0,False,,,1,2266,[0],stimuli/0000111.jpg,,,436807,,prediction_trial,148,image-keyboard-response,False,,
241,Experimen 4,,,,,,,,,0,,,,,,,,,,,,,,0.0-124.0,,,, ,646,,stimuli/00001110.jpg,,,437454,,feedback_trial,149,image-keyboard-response,,,
241,Experimen 4,True,1,,False,True,010,1,,1,False,False,,False,False,110,,,,,,False,,0.0-125.0,True,,,1,2615,[1],stimuli/1010110.jpg,,,440069,,prediction_trial,150,image-keyboard-response,False,,
241,Experimen 4,,,,,,,,,1,,,,,,,,,,,,,,0.0-126.0,,,, ,424,,stimuli/10101101.jpg,,,440500,,feedback_trial,151,image-keyboard-response,,,
241,Experimen 4,False,0,,False,False,011,3,,1,False,False,,True,True,110,,,,,,False,,0.0-127.0,False,,,2,2424,"[1, 2]",stimuli/3011110.jpg,,,442925,,prediction_trial,152,image-keyboard-response,True,,
241,Experimen 4,,,,,,,,,1,,,,,,,,,,,,,,0.0-128.0,,,, ,784,,stimuli/30111101.jpg,,,443711,,feedback_trial,153,image-keyboard-response,,,
241,Experimen 4,False,0,,True,True,000,1,,1,False,False,,False,False,110,,,,,,True,,0.0-129.0,False,,,0,2140,[1],stimuli/1000110.jpg,,,445853,,prediction_trial,154,image-keyboard-response,False,,
241,Experimen 4,,,,,,,,,1,,,,,,,,,,,,,,0.0-130.0,,,, ,545,,stimuli/10001101.jpg,,,446398,,feedback_trial,155,image-keyboard-response,,,
241,Experimen 4,False,0,,True,True,011,0,,0,False,False,,False,False,101,,,,,,False,,0.0-131.0,True,,,1,1268,[0],stimuli/0011101.jpg,,,447668,,prediction_trial,156,image-keyboard-response,False,,
241,Experimen 4,,,,,,,,,0,,,,,,,,,,,,,,0.0-132.0,,,, ,590,,stimuli/00111010.jpg,,,448264,,feedback_trial,157,image-keyboard-response,,,
241,Experimen 4,False,0,,False,True,010,1,,1,False,False,,False,False,011,,,,,,False,,0.0-133.0,True,,,2,1966,[1],stimuli/1010011.jpg,,,450230,,prediction_trial,158,image-keyboard-response,False,,
241,Experimen 4,,,,,,,,,1,,,,,,,,,,,,,,0.0-134.0,,,, ,481,,stimuli/10100111.jpg,,,450713,,feedback_trial,159,image-keyboard-response,,,
241,Experimen 4,True,1,,False,True,010,1,,1,False,True,,True,True,000,,,,,,True,,0.0-135.0,False,,,1,3804,[1],stimuli/1010000.jpg,,,454518,,prediction_trial,160,image-keyboard-response,False,,
241,Experimen 4,,,,,,,,,1,,,,,,,,,,,,,,0.0-136.0,,,, ,813,,stimuli/10100001.jpg,,,455332,,feedback_trial,161,image-keyboard-response,,,
241,Experimen 4,True,1,,False,True,010,3,,1,False,True,,True,True,111,,,,,,False,,0.0-137.0,False,,,1,4761,[1],stimuli/3010111.jpg,,,460094,,prediction_trial,162,image-keyboard-response,True,,
241,Experimen 4,,,,,,,,,1,,,,,,,,,,,,,,0.0-138.0,,,, ,547,,stimuli/30101111.jpg,,,460647,,feedback_trial,163,image-keyboard-response,,,
241,Experimen 4,False,0,,False,False,110,3,,0,False,False,,True,True,111,,,,,,False,,0.0-139.0,False,,,1,3268,"[0, 1]",stimuli/3110111.jpg,,,463916,,prediction_trial,164,image-keyboard-response,True,,
241,Experimen 4,,,,,,,,,0,,,,,,,,,,,,,,0.0-140.0,,,, ,576,,stimuli/31101110.jpg,,,464494,,feedback_trial,165,image-keyboard-response,,,
241,Experimen 4,False,0,,True,True,110,2,,2,False,False,,False,False,011,,,,,,False,,0.0-141.0,True,,,0,2376,[2],stimuli/2110011.jpg,,,466870,,prediction_trial,166,image-keyboard-response,False,,
241,Experimen 4,,,,,,,,,2,,,,,,,,,,,,,,0.0-142.0,,,, ,1686,,stimuli/21100112.jpg,,,468557,,feedback_trial,167,image-keyboard-response,,,
241,Experimen 4,False,0,,False,False,011,2,,1,False,False,,True,True,110,,,,,,True,,0.0-143.0,False,,,2,2426,"[1, 2]",stimuli/2011110.jpg,,,470984,,prediction_trial,168,image-keyboard-response,False,,
241,Experimen 4,,,,,,,,,1,,,,,,,,,,,,,,0.0-144.0,,,, ,452,,stimuli/20111101.jpg,,,471442,,feedback_trial,169,image-keyboard-response,,,
241,Experimen 4,False,0,,False,False,111,2,,0,False,False,,True,True,010,,,,,,True,,0.0-145.0,False,,,2,5855,"[0, 2, 1]",stimuli/2111010.jpg,,,477298,,prediction_trial,170,image-keyboard-response,False,,
241,Experimen 4,,,,,,,,,0,,,,,,,,,,,,,,0.0-146.0,,,, ,660,,stimuli/21110100.jpg,,,477959,,feedback_trial,171,image-keyboard-response,,,
241,Experimen 4,False,0,,False,False,110,3,,1,False,False,,True,True,101,,,,,,False,,0.0-147.0,False,,,0,3443,"[1, 0]",stimuli/3110101.jpg,,,481402,,prediction_trial,172,image-keyboard-response,True,,
241,Experimen 4,,,,,,,,,1,,,,,,,,,,,,,,0.0-148.0,,,, ,631,,stimuli/31101011.jpg,,,482034,,feedback_trial,173,image-keyboard-response,,,
241,Experimen 4,True,1,,True,True,010,0,,0,True,True,,True,True,001,,,,,,True,,0.0-149.0,False,,,0,1151,[0],stimuli/0010001.jpg,,,483185,,prediction_trial,174,image-keyboard-response,False,,
241,Experimen 4,,,,,,,,,0,,,,,,,,,,,,,,0.0-150.0,,,, ,525,,stimuli/00100010.jpg,,,483717,,feedback_trial,175,image-keyboard-response,,,
241,Experimen 4,False,0,,True,True,010,0,,0,False,False,,False,False,101,,,,,,False,,0.0-151.0,True,,,2,3882,[0],stimuli/0010101.jpg,,,487599,,prediction_trial,176,image-keyboard-response,False,,
241,Experimen 4,,,,,,,,,0,,,,,,,,,,,,,,0.0-152.0,,,, ,701,,stimuli/00101010.jpg,,,488301,,feedback_trial,177,image-keyboard-response,,,
241,Experimen 4,False,0,,False,False,110,1,,1,False,False,,False,False,111,,,,,,False,,0.0-153.0,True,,,0,3493,"[0, 1]",stimuli/1110111.jpg,,,491795,,prediction_trial,178,image-keyboard-response,False,,
241,Experimen 4,,,,,,,,,0,,,,,,,,,,,,,,0.0-154.0,,,, ,544,,stimuli/11101111.jpg,,,492339,,feedback_trial,179,image-keyboard-response,,,
241,Experimen 4,True,1,,True,True,100,2,,2,False,False,,False,False,111,,,,,,False,,0.0-155.0,True,,,2,3667,[2],stimuli/2100111.jpg,,,496008,,prediction_trial,180,image-keyboard-response,False,,
241,Experimen 4,,,,,,,,,2,,,,,,,,,,,,,,0.0-156.0,,,, ,916,,stimuli/21001112.jpg,,,496930,,feedback_trial,181,image-keyboard-response,,,
241,Experimen 4,True,1,,False,True,100,3,,0,False,True,,True,True,110,,,,,,False,,0.0-157.0,False,,,0,5699,[0],stimuli/3100110.jpg,,,502630,,prediction_trial,182,image-keyboard-response,True,,
241,Experimen 4,,,,,,,,,0,,,,,,,,,,,,,,0.0-158.0,,,, ,556,,stimuli/31001100.jpg,,,503188,,feedback_trial,183,image-keyboard-response,,,
241,Experimen 4,True,1,,False,False,110,0,,0,False,False,,True,True,010,,,,,,True,,0.0-159.0,False,,,0,2665,"[1, 0]",stimuli/0110010.jpg,,,505854,,prediction_trial,184,image-keyboard-response,False,,
241,Experimen 4,,,,,,,,,1,,,,,,,,,,,,,,0.0-160.0,,,, ,628,,stimuli/01100100.jpg,,,506483,,feedback_trial,185,image-keyboard-response,,,
241,Experimen 4,False,0,,False,False,110,3,,1,False,False,,True,True,110,,,,,,False,,0.0-161.0,False,,,0,1888,"[1, 0]",stimuli/3110110.jpg,,,508371,,prediction_trial,186,image-keyboard-response,True,,
241,Experimen 4,,,,,,,,,1,,,,,,,,,,,,,,0.0-162.0,,,, ,520,,stimuli/31101101.jpg,,,508892,,feedback_trial,187,image-keyboard-response,,,
241,Experimen 4,True,1,,False,True,100,3,,0,False,True,,True,True,101,,,,,,False,,0.0-163.0,False,,,0,3718,[0],stimuli/3100101.jpg,,,512610,,prediction_trial,188,image-keyboard-response,True,,
241,Experimen 4,,,,,,,,,0,,,,,,,,,,,,,,0.0-164.0,,,, ,519,,stimuli/31001010.jpg,,,513129,,feedback_trial,189,image-keyboard-response,,,
241,Experimen 4,True,1,,False,True,001,3,,2,False,True,,True,True,101,,,,,,False,,0.0-165.0,False,,,2,1575,[2],stimuli/3001101.jpg,,,514705,,prediction_trial,190,image-keyboard-response,True,,
241,Experimen 4,,,,,,,,,2,,,,,,,,,,,,,,0.0-166.0,,,, ,450,,stimuli/30011012.jpg,,,515161,,feedback_trial,191,image-keyboard-response,,,
241,Experimen 4,False,0,,False,False,101,2,,0,False,False,,False,False,101,,,,,,False,,0.0-167.0,True,,,2,1395,"[2, 0]",stimuli/2101101.jpg,,,516557,,prediction_trial,192,image-keyboard-response,False,,
241,Experimen 4,,,,,,,,,2,,,,,,,,,,,,,,0.0-168.0,,,, ,448,,stimuli/21011010.jpg,,,517006,,feedback_trial,193,image-keyboard-response,,,
241,Experimen 4,True,1,,False,False,101,0,,0,False,False,,True,True,010,,,,,,True,,0.0-169.0,False,,,0,2608,"[2, 0]",stimuli/0101010.jpg,,,519615,,prediction_trial,194,image-keyboard-response,False,,
241,Experimen 4,,,,,,,,,2,,,,,,,,,,,,,,0.0-170.0,,,, ,699,,stimuli/01010100.jpg,,,520315,,feedback_trial,195,image-keyboard-response,,,
241,Experimen 4,False,0,,False,False,011,1,,2,False,False,,True,True,100,,,,,,True,,0.0-171.0,False,,,1,3467,"[2, 1]",stimuli/1011100.jpg,,,523783,,prediction_trial,196,image-keyboard-response,False,,
241,Experimen 4,,,,,,,,,2,,,,,,,,,,,,,,0.0-172.0,,,, ,583,,stimuli/10111002.jpg,,,524374,,feedback_trial,197,image-keyboard-response,,,
241,Experimen 4,True,1,,False,False,101,3,,2,False,False,,True,True,111,,,,,,False,,0.0-173.0,False,,,2,1400,"[2, 0]",stimuli/3101111.jpg,,,525775,,prediction_trial,198,image-keyboard-response,True,,
241,Experimen 4,,,,,,,,,2,,,,,,,,,,,,,,0.0-174.0,,,, ,406,,stimuli/31011112.jpg,,,526182,,feedback_trial,199,image-keyboard-response,,,
241,Experimen 4,True,1,,False,False,111,1,,1,False,False,,True,True,000,,,,,,True,,0.0-175.0,False,,,1,2581,"[1, 2, 0]",stimuli/1111000.jpg,,,528764,,prediction_trial,200,image-keyboard-response,False,,
241,Experimen 4,,,,,,,,,1,,,,,,,,,,,,,,0.0-176.0,,,, ,764,,stimuli/11110001.jpg,,,529528,,feedback_trial,201,image-keyboard-response,,,
241,Experimen 4,True,1,,False,True,100,3,,0,False,True,,True,True,011,,,,,,False,,0.0-177.0,False,,,0,2423,[0],stimuli/3100011.jpg,,,531952,,prediction_trial,202,image-keyboard-response,True,,
241,Experimen 4,,,,,,,,,0,,,,,,,,,,,,,,0.0-178.0,,,, ,454,,stimuli/31000110.jpg,,,532412,,feedback_trial,203,image-keyboard-response,,,
241,Experimen 4,False,0,,True,True,101,1,,1,False,True,,False,True,010,,,,,,True,,0.0-179.0,False,,,0,1372,[1],stimuli/1101010.jpg,,,533786,,prediction_trial,204,image-keyboard-response,False,,
241,Experimen 4,,,,,,,,,1,,,,,,,,,,,,,,0.0-180.0,,,, ,437,,stimuli/11010101.jpg,,,534224,,feedback_trial,205,image-keyboard-response,,,
241,Experimen 4,True,1,,False,True,001,2,,2,False,True,,False,True,001,,,,,,True,,0.0-181.0,False,,,2,1090,[2],stimuli/2001001.jpg,,,535315,,prediction_trial,206,image-keyboard-response,False,,
241,Experimen 4,,,,,,,,,2,,,,,,,,,,,,,,0.0-182.0,,,, ,370,,stimuli/20010012.jpg,,,535686,,feedback_trial,207,image-keyboard-response,,,
241,Experimen 4,True,1,,False,True,001,3,,2,False,True,,True,True,110,,,,,,False,,0.0-183.0,False,,,2,1218,[2],stimuli/3001110.jpg,,,536905,,prediction_trial,208,image-keyboard-response,True,,
241,Experimen 4,,,,,,,,,2,,,,,,,,,,,,,,0.0-184.0,,,, ,688,,stimuli/30011102.jpg,,,537599,,feedback_trial,209,image-keyboard-response,,,
241,Experimen 4,True,1,,False,True,001,2,,2,False,True,,True,True,010,,,,,,True,,0.0-185.0,False,,,2,1299,[2],stimuli/2001010.jpg,,,538899,,prediction_trial,210,image-keyboard-response,False,,
241,Experimen 4,,,,,,,,,2,,,,,,,,,,,,,,0.0-186.0,,,, ,427,,stimuli/20010102.jpg,,,539327,,feedback_trial,211,image-keyboard-response,,,
241,Experimen 4,True,1,,True,True,011,0,,0,True,True,,True,True,001,,,,,,True,,0.0-187.0,False,,,0,1249,[0],stimuli/0011001.jpg,,,540578,,prediction_trial,212,image-keyboard-response,False,,
241,Experimen 4,,,,,,,,,0,,,,,,,,,,,,,,0.0-188.0,,,, ,432,,stimuli/00110010.jpg,,,541011,,feedback_trial,213,image-keyboard-response,,,
241,Experimen 4,True,1,,False,True,010,3,,1,False,True,,True,True,111,,,,,,False,,0.0-189.0,False,,,1,2232,[1],stimuli/3010111.jpg,,,543243,,prediction_trial,214,image-keyboard-response,True,,
241,Experimen 4,,,,,,,,,1,,,,,,,,,,,,,,0.0-190.0,,,, ,506,,stimuli/30101111.jpg,,,543756,,feedback_trial,215,image-keyboard-response,,,
241,Experimen 4,True,1,,False,False,101,2,,0,False,False,,False,True,001,,,,,,True,,0.0-191.0,False,,,0,4867,"[2, 0]",stimuli/2101001.jpg,,,548623,,prediction_trial,216,image-keyboard-response,False,,
241,Experimen 4,,,,,,,,,2,,,,,,,,,,,,,,0.0-192.0,,,, ,558,,stimuli/21010010.jpg,,,549182,,feedback_trial,217,image-keyboard-response,,,
241,Experimen 4,False,0,,False,False,101,3,,2,False,False,,True,True,101,,,,,,False,,0.0-193.0,False,,,0,1376,"[0, 2]",stimuli/3101101.jpg,,,550559,,prediction_trial,218,image-keyboard-response,True,,
241,Experimen 4,,,,,,,,,0,,,,,,,,,,,,,,0.0-194.0,,,, ,499,,stimuli/31011012.jpg,,,551059,,feedback_trial,219,image-keyboard-response,,,
241,Experimen 4,False,0,,True,True,100,1,,1,False,False,,False,False,111,,,,,,False,,0.0-195.0,True,,,0,1376,[1],stimuli/1100111.jpg,,,552437,,prediction_trial,220,image-keyboard-response,False,,
241,Experimen 4,,,,,,,,,1,,,,,,,,,,,,,,0.0-196.0,,,, ,3186,,stimuli/11001111.jpg,,,555629,,feedback_trial,221,image-keyboard-response,,,
241,Experimen 4,True,1,,False,False,011,2,,2,False,False,,False,False,011,,,,,,False,,0.0-197.0,True,,,2,2022,"[2, 1]",stimuli/2011011.jpg,,,557651,,prediction_trial,222,image-keyboard-response,False,,
241,Experimen 4,,,,,,,,,2,,,,,,,,,,,,,,0.0-198.0,,,, ,490,,stimuli/20110112.jpg,,,558141,,feedback_trial,223,image-keyboard-response,,,
241,Experimen 4,True,1,,False,True,100,3,,0,False,True,,True,True,011,,,,,,False,,0.0-199.0,False,,,0,1337,[0],stimuli/3100011.jpg,,,559480,,prediction_trial,224,image-keyboard-response,True,,
241,Experimen 4,,,,,,,,,0,,,,,,,,,,,,,,0.0-200.0,,,, ,369,,stimuli/31000110.jpg,,,559849,,feedback_trial,225,image-keyboard-response,,,
241,Experimen 4,True,1,,False,False,101,0,,0,False,False,,False,False,101,,,,,,False,,0.0-201.0,True,,,0,2190,"[0, 2]",stimuli/0101101.jpg,,,562039,,prediction_trial,226,image-keyboard-response,False,,
241,Experimen 4,,,,,,,,,0,,,,,,,,,,,,,,0.0-202.0,,,, ,391,,stimuli/01011010.jpg,,,562437,,feedback_trial,227,image-keyboard-response,,,
241,Experimen 4,False,0,,True,True,101,1,,1,False,False,,False,False,111,,,,,,False,,0.0-203.0,True,,,2,1958,[1],stimuli/1101111.jpg,,,564396,,prediction_trial,228,image-keyboard-response,False,,
241,Experimen 4,,,,,,,,,1,,,,,,,,,,,,,,0.0-204.0,,,, ,1270,,stimuli/11011111.jpg,,,565666,,feedback_trial,229,image-keyboard-response,,,
241,Experimen 4,False,0,,False,False,111,0,,1,False,False,,True,True,001,,,,,,True,,0.0-205.0,False,,,0,1938,"[1, 2, 0]",stimuli/0111001.jpg,,,567606,,prediction_trial,230,image-keyboard-response,False,,
241,Experimen 4,,,,,,,,,1,,,,,,,,,,,,,,0.0-206.0,,,, ,455,,stimuli/01110011.jpg,,,568061,,feedback_trial,231,image-keyboard-response,,,
241,Experimen 4,False,0,,False,False,011,3,,1,False,False,,True,True,011,,,,,,False,,0.0-207.0,False,,,2,1612,"[1, 2]",stimuli/3011011.jpg,,,569674,,prediction_trial,232,image-keyboard-response,True,,
241,Experimen 4,,,,,,,,,1,,,,,,,,,,,,,,0.0-208.0,,,, ,604,,stimuli/30110111.jpg,,,570284,,feedback_trial,233,image-keyboard-response,,,
241,Experimen 4,True,1,,True,True,110,2,,2,False,False,,False,False,111,,,,,,False,,0.0-209.0,True,,,2,2357,[2],stimuli/2110111.jpg,,,572642,,prediction_trial,234,image-keyboard-response,False,,
241,Experimen 4,,,,,,,,,2,,,,,,,,,,,,,,0.0-210.0,,,, ,663,,stimuli/21101112.jpg,,,573307,,feedback_trial,235,image-keyboard-response,,,
241,Experimen 4,True,1,,False,True,100,0,,0,False,True,,True,True,000,,,,,,True,,0.0-211.0,False,,,0,2876,[0],stimuli/0100000.jpg,,,576182,,prediction_trial,236,image-keyboard-response,False,,
241,Experimen 4,,,,,,,,,0,,,,,,,,,,,,,,0.0-212.0,,,, ,456,,stimuli/01000000.jpg,,,576640,,feedback_trial,237,image-keyboard-response,,,
241,Experimen 4,True,1,,False,False,011,3,,1,False,False,,True,True,111,,,,,,False,,0.0-213.0,False,,,1,1478,"[2, 1]",stimuli/3011111.jpg,,,578119,,prediction_trial,238,image-keyboard-response,True,,
241,Experimen 4,,,,,,,,,2,,,,,,,,,,,,,,0.0-214.0,,,, ,426,,stimuli/30111111.jpg,,,578553,,feedback_trial,239,image-keyboard-response,,,
241,Experimen 4,True,1,,False,True,100,3,,0,False,True,,True,True,111,,,,,,False,,0.0-215.0,False,,,0,1918,[0],stimuli/3100111.jpg,,,580472,,prediction_trial,240,image-keyboard-response,True,,
241,Experimen 4,,,,,,,,,0,,,,,,,,,,,,,,0.0-216.0,,,, ,372,,stimuli/31001110.jpg,,,580845,,feedback_trial,241,image-keyboard-response,,,
241,Experimen 4,True,1,,True,True,100,2,,2,True,True,,True,True,010,,,,,,True,,0.0-217.0,False,,,2,2258,[2],stimuli/2100010.jpg,,,583104,,prediction_trial,242,image-keyboard-response,False,,
241,Experimen 4,,,,,,,,,2,,,,,,,,,,,,,,0.0-218.0,,,, ,382,,stimuli/21000102.jpg,,,583488,,feedback_trial,243,image-keyboard-response,,,
241,Experimen 4,False,0,,False,True,001,2,,2,False,False,,False,False,111,,,,,,False,,0.0-219.0,True,,,1,3863,[2],stimuli/2001111.jpg,,,587352,,prediction_trial,244,image-keyboard-response,False,,
241,Experimen 4,,,,,,,,,2,,,,,,,,,,,,,,0.0-220.0,,,, ,2941,,stimuli/20011112.jpg,,,590300,,feedback_trial,245,image-keyboard-response,,,
241,Experimen 4,False,0,,False,False,101,3,,2,False,False,,True,True,111,,,,,,False,,0.0-221.0,False,,,0,1864,"[2, 0]",stimuli/3101111.jpg,,,592164,,prediction_trial,246,image-keyboard-response,True,,
241,Experimen 4,,,,,,,,,2,,,,,,,,,,,,,,0.0-222.0,,,, ,610,,stimuli/31011112.jpg,,,592775,,feedback_trial,247,image-keyboard-response,,,
241,Experimen 4,True,1,,False,False,111,1,,1,False,False,,False,False,111,,,,,,True,,0.0-223.0,False,,,1,2889,"[2, 0, 1]",stimuli/1111111.jpg,,,595664,,prediction_trial,248,image-keyboard-response,False,,
241,Experimen 4,,,,,,,,,2,,,,,,,,,,,,,,0.0-224.0,,,, ,447,,stimuli/11111111.jpg,,,596112,,feedback_trial,249,image-keyboard-response,,,
241,Experimen 4,True,1,,False,True,010,3,,1,False,True,,True,True,011,,,,,,False,,0.0-225.0,False,,,1,3748,[1],stimuli/3010011.jpg,,,599860,,prediction_trial,250,image-keyboard-response,True,,
241,Experimen 4,,,,,,,,,1,,,,,,,,,,,,,,0.0-226.0,,,, ,384,,stimuli/30100111.jpg,,,600250,,feedback_trial,251,image-keyboard-response,,,
241,Experimen 4,True,1,,True,True,100,1,,1,False,False,,False,False,110,,,,,,False,,0.0-227.0,True,,,1,3055,[1],stimuli/1100110.jpg,,,603306,,prediction_trial,252,image-keyboard-response,False,,
241,Experimen 4,,,,,,,,,1,,,,,,,,,,,,,,0.0-228.0,,,, ,396,,stimuli/11001101.jpg,,,603704,,feedback_trial,253,image-keyboard-response,,,
241,Experimen 4,False,0,,False,False,101,2,,2,False,False,,False,False,111,,,,,,False,,0.0-229.0,True,,,1,1934,"[2, 0]",stimuli/2101111.jpg,,,605639,,prediction_trial,254,image-keyboard-response,False,,
241,Experimen 4,,,,,,,,,2,,,,,,,,,,,,,,0.0-230.0,,,, ,554,,stimuli/21011112.jpg,,,606194,,feedback_trial,255,image-keyboard-response,,,
241,Experimen 4,True,1,,False,False,110,3,,1,False,False,,True,True,110,,,,,,False,,0.0-231.0,False,,,1,2313,"[1, 0]",stimuli/3110110.jpg,,,608507,,prediction_trial,256,image-keyboard-response,True,,
241,Experimen 4,,,,,,,,,1,,,,,,,,,,,,,,0.0-232.0,,,, ,406,,stimuli/31101101.jpg,,,608919,,feedback_trial,257,image-keyboard-response,,,
241,Experimen 4,True,1,,True,True,100,1,,1,False,False,,False,False,011,,,,,,False,,0.0-233.0,True,,,1,2095,[1],stimuli/1100011.jpg,,,611014,,prediction_trial,258,image-keyboard-response,False,,
241,Experimen 4,,,,,,,,,1,,,,,,,,,,,,,,0.0-234.0,,,, ,448,,stimuli/11000111.jpg,,,611464,,feedback_trial,259,image-keyboard-response,,,
241,Experimen 4,True,1,,False,False,011,3,,1,False,False,,True,True,111,,,,,,False,,0.0-235.0,False,,,1,2573,"[2, 1]",stimuli/3011111.jpg,,,614038,,prediction_trial,260,image-keyboard-response,True,,
241,Experimen 4,,,,,,,,,2,,,,,,,,,,,,,,0.0-236.0,,,, ,382,,stimuli/30111111.jpg,,,614421,,feedback_trial,261,image-keyboard-response,,,
241,Experimen 4,False,0,,False,False,110,0,,1,False,False,,False,False,111,,,,,,False,,0.0-237.0,True,,,2,1999,"[1, 0]",stimuli/0110111.jpg,,,616421,,prediction_trial,262,image-keyboard-response,False,,
241,Experimen 4,,,,,,,,,1,,,,,,,,,,,,,,0.0-238.0,,,, ,417,,stimuli/01101111.jpg,,,616844,,feedback_trial,263,image-keyboard-response,,,
241,Experimen 4,False,0,,True,True,010,2,,2,False,False,,False,False,011,,,,,,False,,0.0-239.0,True,,,1,1649,[2],stimuli/2010011.jpg,,,618495,,prediction_trial,264,image-keyboard-response,False,,
241,Experimen 4,,,,,,,,,2,,,,,,,,,,,,,,0.0-240.0,,,, ,478,,stimuli/20100112.jpg,,,618973,,feedback_trial,265,image-keyboard-response,,,
241,Experimen 4,True,1,,False,True,001,3,,2,False,True,,True,True,101,,,,,,False,,0.0-241.0,False,,,2,4953,[2],stimuli/3001101.jpg,,,623928,,prediction_trial,266,image-keyboard-response,True,,
241,Experimen 4,,,,,,,,,2,,,,,,,,,,,,,,0.0-242.0,,,, ,373,,stimuli/30011012.jpg,,,624301,,feedback_trial,267,image-keyboard-response,,,
241,Experimen 4,False,0,,False,False,011,1,,1,False,False,,False,False,110,,,,,,False,,0.0-243.0,True,,,0,3547,"[1, 2]",stimuli/1011110.jpg,,,627849,,prediction_trial,268,image-keyboard-response,False,,
241,Experimen 4,,,,,,,,,1,,,,,,,,,,,,,,0.0-244.0,,,, ,1244,,stimuli/10111101.jpg,,,629099,,feedback_trial,269,image-keyboard-response,,,
241,Experimen 4,True,1,,False,False,101,0,,0,False,False,,True,True,000,,,,,,True,,0.0-245.0,False,,,0,2497,"[0, 2]",stimuli/0101000.jpg,,,631597,,prediction_trial,270,image-keyboard-response,False,,
241,Experimen 4,,,,,,,,,0,,,,,,,,,,,,,,0.0-246.0,,,, ,430,,stimuli/01010000.jpg,,,632028,,feedback_trial,271,image-keyboard-response,,,
241,Experimen 4,True,1,,False,True,100,3,,0,False,True,,True,True,101,,,,,,False,,0.0-247.0,False,,,0,2359,[0],stimuli/3100101.jpg,,,634387,,prediction_trial,272,image-keyboard-response,True,,
241,Experimen 4,,,,,,,,,0,,,,,,,,,,,,,,0.0-248.0,,,, ,387,,stimuli/31001010.jpg,,,634774,,feedback_trial,273,image-keyboard-response,,,
241,Experimen 4,True,1,,False,True,010,3,,1,False,True,,True,True,110,,,,,,False,,0.0-249.0,False,,,1,2595,[1],stimuli/3010110.jpg,,,637375,,prediction_trial,274,image-keyboard-response,True,,
241,Experimen 4,,,,,,,,,1,,,,,,,,,,,,,,0.0-250.0,,,, ,375,,stimuli/30101101.jpg,,,637750,,feedback_trial,275,image-keyboard-response,,,
241,Experimen 4,True,1,,True,True,010,0,,0,False,True,,False,True,100,,,,,,True,,0.0-251.0,False,,,0,4477,[0],stimuli/0010100.jpg,,,642226,,prediction_trial,276,image-keyboard-response,False,,
241,Experimen 4,,,,,,,,,0,,,,,,,,,,,,,,0.0-252.0,,,, ,431,,stimuli/00101000.jpg,,,642658,,feedback_trial,277,image-keyboard-response,,,
241,Experimen 4,False,0,,True,True,001,1,,1,False,False,,False,False,110,,,,,,False,,0.0-253.0,True,,,0,7654,[1],stimuli/1001110.jpg,,,650313,,prediction_trial,278,image-keyboard-response,False,,
241,Experimen 4,,,,,,,,,1,,,,,,,,,,,,,,0.0-254.0,,,, ,482,,stimuli/10011101.jpg,,,650797,,feedback_trial,279,image-keyboard-response,,,
241,Experimen 4,True,1,,True,True,000,2,,2,True,True,,True,True,000,,,,,,True,,0.0-255.0,False,,,2,1255,[2],stimuli/2000000.jpg,,,652059,,prediction_trial,280,image-keyboard-response,False,,
241,Experimen 4,,,,,,,,,2,,,,,,,,,,,,,,0.0-256.0,,,, ,527,,stimuli/20000002.jpg,,,652586,,feedback_trial,281,image-keyboard-response,,,
241,Experimen 4,False,0,,True,True,001,1,,1,False,False,,False,False,111,,,,,,False,,0.0-257.0,True,,,2,4150,[1],stimuli/1001111.jpg,,,656738,,prediction_trial,282,image-keyboard-response,False,,
241,Experimen 4,,,,,,,,,1,,,,,,,,,,,,,,0.0-258.0,,,, ,818,,stimuli/10011111.jpg,,,657556,,feedback_trial,283,image-keyboard-response,,,
241,Experimen 4,False,0,,False,False,110,0,,1,False,False,,False,False,101,,,,,,False,,0.0-259.0,True,,,2,3743,"[0, 1]",stimuli/0110101.jpg,,,661299,,prediction_trial,284,image-keyboard-response,False,,
241,Experimen 4,,,,,,,,,0,,,,,,,,,,,,,,0.0-260.0,,,, ,1044,,stimuli/01101011.jpg,,,662345,,feedback_trial,285,image-keyboard-response,,,
241,Experimen 4,False,0,,False,False,110,3,,1,False,False,,True,True,011,,,,,,False,,0.0-261.0,False,,,0,3142,"[0, 1]",stimuli/3110011.jpg,,,665495,,prediction_trial,286,image-keyboard-response,True,,
241,Experimen 4,,,,,,,,,0,,,,,,,,,,,,,,0.0-262.0,,,, ,450,,stimuli/31100111.jpg,,,665947,,feedback_trial,287,image-keyboard-response,,,
241,Experimen 4,True,1,,False,True,100,0,,0,False,True,,True,True,010,,,,,,True,,0.0-263.0,False,,,0,3735,[0],stimuli/0100010.jpg,,,669683,,prediction_trial,288,image-keyboard-response,False,,
241,Experimen 4,,,,,,,,,0,,,,,,,,,,,,,,0.0-264.0,,,, ,630,,stimuli/01000100.jpg,,,670314,,feedback_trial,289,image-keyboard-response,,,
241,Experimen 4,False,0,,False,False,011,2,,2,False,False,,False,False,111,,,,,,False,,0.0-265.0,True,,,0,4359,"[1, 2]",stimuli/2011111.jpg,,,674673,,prediction_trial,290,image-keyboard-response,False,,
241,Experimen 4,,,,,,,,,1,,,,,,,,,,,,,,0.0-266.0,,,, ,443,,stimuli/20111112.jpg,,,675117,,feedback_trial,291,image-keyboard-response,,,
241,Experimen 4,True,1,,True,True,010,0,,0,False,False,,False,False,110,,,,,,False,,0.0-267.0,True,,,0,1417,[0],stimuli/0010110.jpg,,,676539,,prediction_trial,292,image-keyboard-response,False,,
241,Experimen 4,,,,,,,,,0,,,,,,,,,,,,,,0.0-268.0,,,, ,370,,stimuli/00101100.jpg,,,676911,,feedback_trial,293,image-keyboard-response,,,
241,Experimen 4,False,0,,False,False,110,3,,1,False,False,,True,True,111,,,,,,False,,0.0-269.0,False,,,2,1050,"[0, 1]",stimuli/3110111.jpg,,,677961,,prediction_trial,294,image-keyboard-response,True,,
241,Experimen 4,,,,,,,,,0,,,,,,,,,,,,,,0.0-270.0,,,, ,811,,stimuli/31101111.jpg,,,678774,,feedback_trial,295,image-keyboard-response,,,
241,Experimen 4,True,1,,True,True,110,2,,2,True,True,,True,True,100,,,,,,True,,0.0-271.0,False,,,2,1685,[2],stimuli/2110100.jpg,,,680459,,prediction_trial,296,image-keyboard-response,False,,
241,Experimen 4,,,,,,,,,2,,,,,,,,,,,,,,0.0-272.0,,,, ,368,,stimuli/21101002.jpg,,,680827,,feedback_trial,297,image-keyboard-response,,,
241,Experimen 4,True,1,,True,True,001,1,,1,False,False,,False,False,011,,,,,,False,,0.0-273.0,True,,,1,1789,[1],stimuli/1001011.jpg,,,682623,,prediction_trial,298,image-keyboard-response,False,,
241,Experimen 4,,,,,,,,,1,,,,,,,,,,,,,,0.0-274.0,,,, ,467,,stimuli/10010111.jpg,,,683090,,feedback_trial,299,image-keyboard-response,,,
241,Experimen 4,False,0,,False,True,100,0,,0,False,False,,False,False,110,,,,,,False,,0.0-275.0,True,,,1,1467,[0],stimuli/0100110.jpg,,,684557,,prediction_trial,300,image-keyboard-response,False,,
241,Experimen 4,,,,,,,,,0,,,,,,,,,,,,,,0.0-276.0,,,, ,413,,stimuli/01001100.jpg,,,684971,,feedback_trial,301,image-keyboard-response,,,
241,Experimen 4,False,0,,True,True,010,2,,2,False,False,,False,False,101,,,,,,False,,0.0-277.0,True,,,0,3191,[2],stimuli/2010101.jpg,,,688163,,prediction_trial,302,image-keyboard-response,False,,
241,Experimen 4,,,,,,,,,2,,,,,,,,,,,,,,0.0-278.0,,,, ,410,,stimuli/20101012.jpg,,,688574,,feedback_trial,303,image-keyboard-response,,,
241,Experimen 4,True,1,,True,True,010,0,,0,True,True,,True,True,010,,,,,,True,,0.0-279.0,False,,,0,1060,[0],stimuli/0010010.jpg,,,689639,,prediction_trial,304,image-keyboard-response,False,,
241,Experimen 4,,,,,,,,,0,,,,,,,,,,,,,,0.0-280.0,,,, ,373,,stimuli/00100100.jpg,,,690013,,feedback_trial,305,image-keyboard-response,,,
241,Experimen 4,True,1,,False,False,101,2,,2,False,False,,True,True,100,,,,,,True,,0.0-281.0,False,,,2,3164,"[2, 0]",stimuli/2101100.jpg,,,693179,,prediction_trial,306,image-keyboard-response,False,,
241,Experimen 4,,,,,,,,,2,,,,,,,,,,,,,,0.0-282.0,,,, ,411,,stimuli/21011002.jpg,,,693592,,feedback_trial,307,image-keyboard-response,,,
241,Experimen 4,True,1,,False,False,110,1,,1,False,False,,False,False,110,,,,,,False,,0.0-283.0,True,,,1,2797,"[0, 1]",stimuli/1110110.jpg,,,696390,,prediction_trial,308,image-keyboard-response,False,,
241,Experimen 4,,,,,,,,,0,,,,,,,,,,,,,,0.0-284.0,,,, ,397,,stimuli/11101101.jpg,,,696789,,feedback_trial,309,image-keyboard-response,,,
241,Experimen 4,False,0,,False,True,001,2,,2,False,False,,False,False,101,,,,,,False,,0.0-285.0,True,,,0,2084,[2],stimuli/2001101.jpg,,,698874,,prediction_trial,310,image-keyboard-response,False,,
241,Experimen 4,,,,,,,,,2,,,,,,,,,,,,,,0.0-286.0,,,, ,396,,stimuli/20011012.jpg,,,699272,,feedback_trial,311,image-keyboard-response,,,
241,Experimen 4,True,1,,False,True,010,1,,1,False,False,,False,False,111,,,,,,False,,0.0-287.0,True,,,1,2213,[1],stimuli/1010111.jpg,,,701486,,prediction_trial,312,image-keyboard-response,False,,
241,Experimen 4,,,,,,,,,1,,,,,,,,,,,,,,0.0-288.0,,,, ,304,,stimuli/10101111.jpg,,,701792,,feedback_trial,313,image-keyboard-response,,,
241,Experimen 4,True,1,,False,False,101,0,,0,False,False,,False,False,110,,,,,,False,,0.0-289.0,True,,,0,1685,"[2, 0]",stimuli/0101110.jpg,,,703477,,prediction_trial,314,image-keyboard-response,False,,
241,Experimen 4,,,,,,,,,2,,,,,,,,,,,,,,0.0-290.0,,,, ,342,,stimuli/01011100.jpg,,,703827,,feedback_trial,315,image-keyboard-response,,,
241,Experimen 4,True,1,,False,False,011,3,,1,False,False,,True,True,110,,,,,,False,,0.0-291.0,False,,,1,1820,"[1, 2]",stimuli/3011110.jpg,,,705647,,prediction_trial,316,image-keyboard-response,True,,
241,Experimen 4,,,,,,,,,1,,,,,,,,,,,,,,0.0-292.0,,,, ,363,,stimuli/30111101.jpg,,,706010,,feedback_trial,317,image-keyboard-response,,,
241,Experimen 4,False,0,,True,True,011,0,,0,False,False,,False,False,110,,,,,,False,,0.0-293.0,True,,,1,1881,[0],stimuli/0011110.jpg,,,707892,,prediction_trial,318,image-keyboard-response,False,,
241,Experimen 4,,,,,,,,,0,,,,,,,,,,,,,,0.0-294.0,,,, ,338,,stimuli/00111100.jpg,,,708231,,feedback_trial,319,image-keyboard-response,,,
241,Experimen 4,True,1,,True,True,001,0,,0,True,True,,True,True,000,,,,,,True,,0.0-295.0,False,,,0,808,[0],stimuli/0001000.jpg,,,709039,,prediction_trial,320,image-keyboard-response,False,,
241,Experimen 4,,,,,,,,,0,,,,,,,,,,,,,,0.0-296.0,,,, ,355,,stimuli/00010000.jpg,,,709401,,feedback_trial,321,image-keyboard-response,,,
241,Experimen 4,True,1,,False,True,010,3,,1,False,True,,True,True,101,,,,,,False,,0.0-297.0,False,,,1,1797,[1],stimuli/3010101.jpg,,,711198,,prediction_trial,322,image-keyboard-response,True,,
241,Experimen 4,,,,,,,,,1,,,,,,,,,,,,,,0.0-298.0,,,, ,336,,stimuli/30101011.jpg,,,711534,,feedback_trial,323,image-keyboard-response,,,
241,Experimen 4,True,1,,False,True,100,0,,0,False,False,,False,False,111,,,,,,False,,0.0-299.0,True,,,0,4134,[0],stimuli/0100111.jpg,,,715670,,prediction_trial,324,image-keyboard-response,False,,
241,Experimen 4,,,,,,,,,0,,,,,,,,,,,,,,0.0-300.0,,,, ,564,,stimuli/01001110.jpg,,,716234,,feedback_trial,325,image-keyboard-response,,,
241,Experimen 4,False,0,,False,True,010,3,,1,False,True,,True,True,011,,,,,,False,,0.0-301.0,False,,,2,1348,[1],stimuli/3010011.jpg,,,717583,,prediction_trial,326,image-keyboard-response,True,,
241,Experimen 4,,,,,,,,,1,,,,,,,,,,,,,,0.0-302.0,,,, ,385,,stimuli/30100111.jpg,,,717975,,feedback_trial,327,image-keyboard-response,,,
241,Experimen 4,True,1,,False,False,101,3,,0,False,False,,True,True,101,,,,,,False,,0.0-303.0,False,,,0,1563,"[0, 2]",stimuli/3101101.jpg,,,719540,,prediction_trial,328,image-keyboard-response,True,,
241,Experimen 4,,,,,,,,,0,,,,,,,,,,,,,,0.0-304.0,,,, ,351,,stimuli/31011010.jpg,,,719890,,feedback_trial,329,image-keyboard-response,,,
241,Experimen 4,False,0,,False,False,111,2,,2,False,False,,False,False,011,,,,,,True,,0.0-305.0,False,,,1,1734,"[2, 0, 1]",stimuli/2111011.jpg,,,721625,,prediction_trial,330,image-keyboard-response,False,,
241,Experimen 4,,,,,,,,,2,,,,,,,,,,,,,,0.0-306.0,,,, ,465,,stimuli/21110112.jpg,,,722091,,feedback_trial,331,image-keyboard-response,,,
241,Experimen 4,True,1,,True,True,100,2,,2,False,False,,False,False,101,,,,,,False,,0.0-307.0,True,,,2,1677,[2],stimuli/2100101.jpg,,,723769,,prediction_trial,332,image-keyboard-response,False,,
241,Experimen 4,,,,,,,,,2,,,,,,,,,,,,,,0.0-308.0,,,, ,314,,stimuli/21001012.jpg,,,724090,,feedback_trial,333,image-keyboard-response,,,
241,Experimen 4,True,1,,False,True,001,3,,2,False,True,,True,True,111,,,,,,False,,0.0-309.0,False,,,2,3201,[2],stimuli/3001111.jpg,,,727292,,prediction_trial,334,image-keyboard-response,True,,
241,Experimen 4,,,,,,,,,2,,,,,,,,,,,,,,0.0-310.0,,,, ,561,,stimuli/30011112.jpg,,,727855,,feedback_trial,335,image-keyboard-response,,,
241,Experimen 4,True,1,,False,True,001,3,,2,False,True,,True,True,011,,,,,,False,,0.0-311.0,False,,,2,1372,[2],stimuli/3001011.jpg,,,729227,,prediction_trial,336,image-keyboard-response,True,,
241,Experimen 4,,,,,,,,,2,,,,,,,,,,,,,,0.0-312.0,,,, ,308,,stimuli/30010112.jpg,,,729535,,feedback_trial,337,image-keyboard-response,,,
241,Experimen 4,False,0,,False,False,110,0,,1,False,False,,True,True,011,,,,,,True,,0.0-313.0,False,,,0,3017,"[0, 1]",stimuli/0110011.jpg,,,732553,,prediction_trial,338,image-keyboard-response,False,,
241,Experimen 4,,,,,,,,,0,,,,,,,,,,,,,,0.0-314.0,,,, ,389,,stimuli/01100111.jpg,,,732948,,feedback_trial,339,image-keyboard-response,,,
241,Experimen 4,False,0,,False,False,101,2,,2,False,False,,False,False,011,,,,,,False,,0.0-315.0,True,,,1,2228,"[0, 2]",stimuli/2101011.jpg,,,735177,,prediction_trial,340,image-keyboard-response,False,,
241,Experimen 4,,,,,,,,,0,,,,,,,,,,,,,,0.0-316.0,,,, ,389,,stimuli/21010112.jpg,,,735567,,feedback_trial,341,image-keyboard-response,,,
241,Experimen 4,True,1,,False,False,110,0,,0,False,False,,True,True,001,,,,,,True,,0.0-317.0,False,,,0,2511,"[0, 1]",stimuli/0110001.jpg,,,738080,,prediction_trial,342,image-keyboard-response,False,,
241,Experimen 4,,,,,,,,,0,,,,,,,,,,,,,,0.0-318.0,,,, ,367,,stimuli/01100010.jpg,,,738448,,feedback_trial,343,image-keyboard-response,,,
241,Experimen 4,True,1,,False,False,111,0,,0,False,False,,False,True,100,,,,,,True,,0.0-319.0,False,,,0,2012,"[2, 0, 1]",stimuli/0111100.jpg,,,740462,,prediction_trial,344,image-keyboard-response,False,,
241,Experimen 4,,,,,,,,,2,,,,,,,,,,,,,,0.0-320.0,,,, ,369,,stimuli/01111000.jpg,,,740836,,feedback_trial,345,image-keyboard-response,,,
241,Experimen 4,True,1,,False,True,001,3,,2,False,True,,True,True,011,,,,,,False,,0.0-321.0,False,,,2,3703,[2],stimuli/3001011.jpg,,,744541,,prediction_trial,346,image-keyboard-response,True,,
241,Experimen 4,,,,,,,,,2,,,,,,,,,,,,,,0.0-322.0,,,, ,307,,stimuli/30010112.jpg,,,744849,,feedback_trial,347,image-keyboard-response,,,
241,Experimen 4,False,0,,False,False,011,3,,1,False,False,,True,True,111,,,,,,False,,0.0-323.0,False,,,2,1396,"[2, 1]",stimuli/3011111.jpg,,,746245,,prediction_trial,348,image-keyboard-response,True,,
241,Experimen 4,,,,,,,,,2,,,,,,,,,,,,,,0.0-324.0,,,, ,324,,stimuli/30111111.jpg,,,746571,,feedback_trial,349,image-keyboard-response,,,
241,Experimen 4,True,1,,False,False,101,3,,2,False,False,,True,True,011,,,,,,False,,0.0-325.0,False,,,2,2368,"[0, 2]",stimuli/3101011.jpg,,,748939,,prediction_trial,350,image-keyboard-response,True,,
241,Experimen 4,,,,,,,,,0,,,,,,,,,,,,,,0.0-326.0,,,, ,204,,stimuli/31010112.jpg,,,749149,,feedback_trial,351,image-keyboard-response,,,
241,Experimen 4,True,1,,False,False,111,2,,2,False,False,,True,True,110,,,,,,True,,0.0-327.0,False,,,2,3103,"[2, 1, 0]",stimuli/2111110.jpg,,,752254,,prediction_trial,352,image-keyboard-response,False,,
241,Experimen 4,,,,,,,,,2,,,,,,,,,,,,,,0.0-328.0,,,, ,492,,stimuli/21111102.jpg,,,752745,,feedback_trial,353,image-keyboard-response,,,
241,Experimen 4,,,26,,,,,0.6518518518518519,,,,,,,,Hispanic,,,,"I considered whether the researchers themselves were trying to trick me. Also, I tried to see the front of the table from the perspective of Sam.",,Female,0.0-329.0,,0.5925925925925926,Multiracial,"{'age': '26', 'race': 'Multiracial', 'gender': 'Female', 'feedback': 'I considered whether the researchers themselves were trying to trick me. Also, I tried to see the front of the table from the perspective of Sam.', 'ethnicity': 'Hispanic', 'other_race': '', 'other_gender': ''}",62345,,,,,815092,,exit_survey,354,survey-html-form,,,
241,Experimen 4,,,,,,,,,,,,,,,,,,,,,,,0.0-330.0,,,,0,49046,,"<div style=""text-align:left; padding:10px; max-width:900px;""><center><p><b>Study Debriefing</b></p></center><p>Judgement and decision making are important aspects of public and private life. Using surveys like the one you just completed, we are examining the factors that go into making social decisions.</p><p><b>How is this being tested? </b> We have asked you to respond to stories or videos that differ on several important factors. By isolating different variables that are involved in social thought, we can better understand how we arrive at complex decision-making. For example, some actions are seen as more worthy of blame if they are performed intentionally. Harming someone on purpose is generally worse than harming someone by accident, or even harming someone in a way that is foreseen but not intended.</p><p><b>Main questions and hypotheses: </b>A fundamental goal of our research is to understand the cognitive and emotional factors that influence social judgment and decision-making. We are studying these factors by presenting people with hypothetical questions that vary in specific ways and seeing which factors make a difference. Some people filled out the same survey that you just filled out. Others got slightly different surveys.</p><p><b>Why is this important to study? </b>By comparing answers on these important factors, we learn about what factors affect social judgment. This has crucial implications for many public domains, including the legal system.</p><p><b>How to learn more: </b>If you are interested in learning more, you may want to consult the following articles:<p><p style=""margin-left:10%; margin-right:10%;"">Phillips, J., & Cushman, F. (2017). Morality constrains the default representation of what is possible. Proceedings of the National Academy of Sciences of the United States of America, 114(18), 46494654. https://doi.org/10.1073/pnas.1619717114<p style=""margin-left:10%; margin-right:10%;"">Phillips, J., Morris, A., & Cushman, F. (2019). How we know what not to think. Trends in Cognitive Sciences, 23(12), 10261040. https://doi.org/10.1016/j.tics.2019.09.007<p style=""margin-left:10%; margin-right:10%;"">Phillips, J., Buckwalter, W., Cushman, F., Friedman, O., Martin, A., Turri, J., Santos, L., & Knobe, J. (2020). Knowledge before Belief. Behavioral and Brain Sciences, 1-37. doi:10.1017/S0140525X20000618</p><p><b>How to contact the researcher:</b> If you have questions or concerns about your participation or payment, or want to request a summary of research findings, please contact the Primary Investigator: Dr. Jonathan Phillips, at Jonathan.S.Phillips@dartmouth.edu.Whom to contact about your rights in this research: If you have questions, concerns, complaints, or suggestions about the present research, you may call the Office of the Committee for the Protection of Human Subjects at Dartmouth College (603) 646-6482 during normal business hours.</p><p><b>Thank you for your participation!<b/></p>",,,864140,,,355,html-button-response,,,
251,Experimen 4,,,,,,,,,,,,,,,,,[],[],[],,,,0.0-0.0,,,,,,,,,True,20229,False,,0,preload,,,
251,Experimen 4,,,,,,,,,,,,,,,,,,,,,,,0.0-1.0,,,,,,,,,True,22278,,,1,fullscreen,,,
251,Experimen 4,,,,,,,,,,,,,,,,,,,,,,,0.0-2.0,,,,0,3039,,"<p><b>Consent Form</b></p> <div style=""text-align:left;background-color:lightgrey; padding:20px; max-width:900px;""><p>Please consider this information carefully before deciding whether to participate in this research.</p> <p>The purpose of this research is to examine which factors influence social judgment and decision-making. You will be asked to make judgements about individuals and actions in social scenarios. We are simply interested in your judgement. The study will take less than 1 hour to complete, and you will receive less than $20 on Prolific. Your compensation and time commitment are specified in the study description. There are no anticipated risks associated with participating in this study. The effects of participating should be comparable to those you would ordinarily experience from viewing a computer monitor and using a mouse or keyboard for a similar amount of time. At the end of the study, we will provide an explanation of the questions that motivate this line of research and will describe the potential implications. </p><p> Your participation in this study is completely voluntary and you may refuse to participate or you may choose to withdraw at any time without penalty or loss of benefits to you which are otherwise entitled. Your participation in this study will remain confidential. No personally identifiable information will be associated with your data. Also, all analyses of the data will be averaged across all the participants, so your individual responses will never be specifically analyzed. </p><p> If you have questions or concerns about your participation or payment, or want to request a summary of research findings, please contact Dr. Jonathan Phillips at Jonathan.S.Phillips@dartmouth.edu. </p><p> Please save a copy of this form for your records. </p><p><b>Agreement: </b>The nature and purpose of this research have been sufficiently explained and I agree to participate in this study. I understand that I am free to withdraw at any time without incurring any penalty. Please consent by clicking the button below to continue. Otherwise, please exit the study at any time. </p>",,,25319,,,2,html-button-response,,,
251,Experimen 4,,,,,,,,,,,,,,,,,,,,,,,0.0-3.0-0.0,,,,,35477,,,,,60797,,intro,3,instructions,,"[{'page_index': 0, 'viewing_time': 1070}, {'page_index': 1, 'viewing_time': 1192}, {'page_index': 2, 'viewing_time': 1414}, {'page_index': 3, 'viewing_time': 2449}, {'page_index': 4, 'viewing_time': 1240}, {'page_index': 5, 'viewing_time': 3496}, {'page_index': 6, 'viewing_time': 1737}, {'page_index': 7, 'viewing_time': 2497}, {'page_index': 8, 'viewing_time': 2113}, {'page_index': 9, 'viewing_time': 1914}, {'page_index': 10, 'viewing_time': 1545}, {'page_index': 11, 'viewing_time': 2952}, {'page_index': 12, 'viewing_time': 6333}, {'page_index': 13, 'viewing_time': 2791}, {'page_index': 14, 'viewing_time': 1764}, {'page_index': 15, 'viewing_time': 970}]",
251,Experimen 4,True,,,,,,,,0,,,,,,,,,,,,,,0.0-3.0-1.0,,,,0,2762,,stimuli/0111100.jpg,"{'ball_pos': 0, 'filepath': 'stimuli/0111100.jpg', 'key_trial': False, 'trick_trial': False, 'filler_trial': True, 'ego_can_infer': True, 'ego_occluders': '100', 'alter_can_infer': False, 'alter_occluders': '111', 'ego_ball_visible': False, 'search_locations': [0, 1, 2], 'alter_ball_visible': False, 'collective_can_infer': False, 'collective_ball_visible': False}",,63563,,prediction_practice,4,image-keyboard-response,,,
251,Experimen 4,,,,,,,,,0,,,,,,,,,,,,,,0.0-3.0-2.0,,,, ,2694,,stimuli/01111000.jpg,,,66259,,practice_feedback,5,image-keyboard-response,,,
251,Experimen 4,False,,,,,,,,2,,,,,,,,,,,,,,0.0-3.0-3.0,,,,1,1341,,stimuli/3101101.jpg,"{'ball_pos': 3, 'filepath': 'stimuli/3101101.jpg', 'key_trial': False, 'trick_trial': True, 'filler_trial': False, 'ego_can_infer': True, 'ego_occluders': '101', 'alter_can_infer': False, 'alter_occluders': '101', 'ego_ball_visible': True, 'search_locations': [0, 2], 'alter_ball_visible': False, 'collective_can_infer': False, 'collective_ball_visible': False}",,67604,,prediction_practice,6,image-keyboard-response,,,
251,Experimen 4,,,,,,,,,0,,,,,,,,,,,,,,0.0-3.0-4.0,,,, ,2109,,stimuli/31011012.jpg,,,69714,,practice_feedback,7,image-keyboard-response,,,
251,Experimen 4,False,,,,,,,,0,,,,,,,,,,,,,,0.0-3.0-5.0,,,,2,2842,,stimuli/3101000.jpg,"{'ball_pos': 3, 'filepath': 'stimuli/3101000.jpg', 'key_trial': False, 'trick_trial': True, 'filler_trial': False, 'ego_can_infer': True, 'ego_occluders': '000', 'alter_can_infer': False, 'alter_occluders': '101', 'ego_ball_visible': True, 'search_locations': [2, 0], 'alter_ball_visible': False, 'collective_can_infer': False, 'collective_ball_visible': False}",,72559,,prediction_practice,8,image-keyboard-response,,,
251,Experimen 4,,,,,,,,,2,,,,,,,,,,,,,,0.0-3.0-6.0,,,, ,868,,stimuli/31010000.jpg,,,73430,,practice_feedback,9,image-keyboard-response,,,
251,Experimen 4,True,,,,,,,,0,,,,,,,,,,,,,,0.0-3.0-7.0,,,,0,2836,,stimuli/3100101.jpg,"{'ball_pos': 3, 'filepath': 'stimuli/3100101.jpg', 'key_trial': False, 'trick_trial': True, 'filler_trial': False, 'ego_can_infer': True, 'ego_occluders': '101', 'alter_can_infer': True, 'alter_occluders': '100', 'ego_ball_visible': True, 'search_locations': [0], 'alter_ball_visible': False, 'collective_can_infer': True, 'collective_ball_visible': False}",,76269,,prediction_practice,10,image-keyboard-response,,,
251,Experimen 4,,,,,,,,,0,,,,,,,,,,,,,,0.0-3.0-8.0,,,, ,1644,,stimuli/31001010.jpg,,,77915,,practice_feedback,11,image-keyboard-response,,,
251,Experimen 4,True,,,,,,,,0,,,,,,,,,,,,,,0.0-3.0-9.0,,,,0,2656,,stimuli/3101010.jpg,"{'ball_pos': 3, 'filepath': 'stimuli/3101010.jpg', 'key_trial': False, 'trick_trial': True, 'filler_trial': False, 'ego_can_infer': True, 'ego_occluders': '010', 'alter_can_infer': False, 'alter_occluders': '101', 'ego_ball_visible': True, 'search_locations': [0, 2], 'alter_ball_visible': False, 'collective_can_infer': False, 'collective_ball_visible': False}",,80574,,prediction_practice,12,image-keyboard-response,,,
251,Experimen 4,,,,,,,,,0,,,,,,,,,,,,,,0.0-3.0-10.0,,,, ,521,,stimuli/31010100.jpg,,,81098,,practice_feedback,13,image-keyboard-response,,,
251,Experimen 4,True,,,,,,,,2,,,,,,,,,,,,,,0.0-3.0-11.0,,,,2,5014,,stimuli/2100011.jpg,"{'ball_pos': 2, 'filepath': 'stimuli/2100011.jpg', 'key_trial': True, 'trick_trial': False, 'filler_trial': False, 'ego_can_infer': False, 'ego_occluders': '011', 'alter_can_infer': True, 'alter_occluders': '100', 'ego_ball_visible': False, 'search_locations': [2], 'alter_ball_visible': True, 'collective_can_infer': False, 'collective_ball_visible': False}",,86113,,prediction_practice,14,image-keyboard-response,,,
251,Experimen 4,,,,,,,,,2,,,,,,,,,,,,,,0.0-3.0-12.0,,,, ,704,,stimuli/21000112.jpg,,,86821,,practice_feedback,15,image-keyboard-response,,,
251,Experimen 4,True,,,,,,,,1,,,,,,,,,,,,,,0.0-3.0-13.0,,,,1,2341,,stimuli/1100110.jpg,"{'ball_pos': 1, 'filepath': 'stimuli/1100110.jpg', 'key_trial': True, 'trick_trial': False, 'filler_trial': False, 'ego_can_infer': False, 'ego_occluders': '110', 'alter_can_infer': True, 'alter_occluders': '100', 'ego_ball_visible': False, 'search_locations': [1], 'alter_ball_visible': True, 'collective_can_infer': False, 'collective_ball_visible': False}",,89163,,prediction_practice,16,image-keyboard-response,,,
251,Experimen 4,,,,,,,,,1,,,,,,,,,,,,,,0.0-3.0-14.0,,,, ,706,,stimuli/11001101.jpg,,,89872,,practice_feedback,17,image-keyboard-response,,,
251,Experimen 4,True,,,,,,,,2,,,,,,,,,,,,,,0.0-3.0-15.0,,,,2,2846,,stimuli/3011001.jpg,"{'ball_pos': 3, 'filepath': 'stimuli/3011001.jpg', 'key_trial': False, 'trick_trial': True, 'filler_trial': False, 'ego_can_infer': True, 'ego_occluders': '001', 'alter_can_infer': False, 'alter_occluders': '011', 'ego_ball_visible': True, 'search_locations': [2, 1], 'alter_ball_visible': False, 'collective_can_infer': False, 'collective_ball_visible': False}",,92720,,prediction_practice,18,image-keyboard-response,,,
251,Experimen 4,,,,,,,,,2,,,,,,,,,,,,,,0.0-3.0-16.0,,,, ,593,,stimuli/30110012.jpg,,,93316,,practice_feedback,19,image-keyboard-response,,,
251,Experimen 4,True,,,,,,,,1,,,,,,,,,,,,,,0.0-3.0-17.0,,,,1,1403,,stimuli/1010000.jpg,"{'ball_pos': 1, 'filepath': 'stimuli/1010000.jpg', 'key_trial': False, 'trick_trial': False, 'filler_trial': True, 'ego_can_infer': True, 'ego_occluders': '000', 'alter_can_infer': True, 'alter_occluders': '010', 'ego_ball_visible': True, 'search_locations': [1], 'alter_ball_visible': False, 'collective_can_infer': True, 'collective_ball_visible': False}",,94721,,prediction_practice,20,image-keyboard-response,,,
251,Experimen 4,,,,,,,,,1,,,,,,,,,,,,,,0.0-3.0-18.0,,,, ,362,,stimuli/10100001.jpg,,,95087,,practice_feedback,21,image-keyboard-response,,,
251,Experimen 4,True,,,,,,,,2,,,,,,,,,,,,,,0.0-3.0-19.0,,,,2,1887,,stimuli/0111001.jpg,"{'ball_pos': 0, 'filepath': 'stimuli/0111001.jpg', 'key_trial': False, 'trick_trial': False, 'filler_trial': True, 'ego_can_infer': True, 'ego_occluders': '001', 'alter_can_infer': False, 'alter_occluders': '111', 'ego_ball_visible': True, 'search_locations': [0, 2, 1], 'alter_ball_visible': False, 'collective_can_infer': False, 'collective_ball_visible': False}",,96975,,prediction_practice,22,image-keyboard-response,,,
251,Experimen 4,,,,,,,,,0,,,,,,,,,,,,,,0.0-3.0-20.0,,,, ,803,,stimuli/01110012.jpg,,,97782,,practice_feedback,23,image-keyboard-response,,,
251,Experimen 4,,,,,,,,,,,,,,,,,,,,,,,0.0-3.0-21.0,,,,0,2308,,"Now that you've had some practice, you'll be tested with a couple of easy trials. If you correctly predict Sam's choice, you'll move on to complete the experiment!",,,100091,,,24,html-button-response,,,
251,Experimen 4,True,,,,,,,,,,,arrowleft,,,,,,,,,,,0.0-3.0-22.0-0.0,,,,arrowleft,1697,,stimuli/0000011.jpg,,,101792,,comprehension_quiz,25,image-keyboard-response,,,
251,Experimen 4,True,,,,,,,,,,, ,,,,,,,,,,,0.0-3.0-22.0-1.0,,,, ,589,,stimuli/00000110.jpg,,,102385,,comprehension_quiz,26,image-keyboard-response,,,
251,Experimen 4,True,,,,,,,,,,,arrowdown,,,,,,,,,,,0.0-3.0-22.0-2.0,,,,arrowdown,1192,,stimuli/1010010.jpg,,,103578,,comprehension_quiz,27,image-keyboard-response,,,
251,Experimen 4,True,,,,,,,,,,, ,,,,,,,,,,,0.0-3.0-22.0-3.0,,,, ,363,,stimuli/10100101.jpg,,,103943,,comprehension_quiz,28,image-keyboard-response,,,
251,Experimen 4,,,,,,,,,,,,,,,,,,,,,,,0.0-4.0,,,,0,1700,,The experiment will now begin.,,,105644,,,29,html-button-response,,,
251,Experimen 4,False,0,,True,True,011,0,,0,False,False,,False,False,101,,,,,,False,,0.0-5.0,True,,,2,1864,[0],stimuli/0011101.jpg,,,107511,,prediction_trial,30,image-keyboard-response,False,,
251,Experimen 4,,,,,,,,,0,,,,,,,,,,,,,,0.0-6.0,,,, ,2423,,stimuli/00111010.jpg,,,109937,,feedback_trial,31,image-keyboard-response,,,
251,Experimen 4,False,0,,True,True,001,1,,1,False,False,,False,False,011,,,,,,False,,0.0-7.0,True,,,2,2591,[1],stimuli/1001011.jpg,,,112529,,prediction_trial,32,image-keyboard-response,False,,
251,Experimen 4,,,,,,,,,1,,,,,,,,,,,,,,0.0-8.0,,,, ,574,,stimuli/10010111.jpg,,,113107,,feedback_trial,33,image-keyboard-response,,,
251,Experimen 4,False,0,,True,True,000,0,,0,False,False,,False,False,110,,,,,,True,,0.0-9.0,False,,,1,1676,[0],stimuli/0000110.jpg,,,114786,,prediction_trial,34,image-keyboard-response,False,,
251,Experimen 4,,,,,,,,,0,,,,,,,,,,,,,,0.0-10.0,,,, ,647,,stimuli/00001100.jpg,,,115435,,feedback_trial,35,image-keyboard-response,,,
251,Experimen 4,True,1,,False,False,011,2,,2,False,False,,False,True,001,,,,,,True,,0.0-11.0,False,,,2,1470,"[1, 2]",stimuli/2011001.jpg,,,116909,,prediction_trial,36,image-keyboard-response,False,,
251,Experimen 4,,,,,,,,,1,,,,,,,,,,,,,,0.0-12.0,,,, ,622,,stimuli/20110012.jpg,,,117535,,feedback_trial,37,image-keyboard-response,,,
251,Experimen 4,True,1,,True,True,100,1,,1,False,False,,False,False,111,,,,,,False,,0.0-13.0,True,,,1,2123,[1],stimuli/1100111.jpg,,,119660,,prediction_trial,38,image-keyboard-response,False,,
251,Experimen 4,,,,,,,,,1,,,,,,,,,,,,,,0.0-14.0,,,, ,602,,stimuli/11001111.jpg,,,120266,,feedback_trial,39,image-keyboard-response,,,
251,Experimen 4,True,1,,False,False,011,3,,2,False,False,,True,True,111,,,,,,False,,0.0-15.0,False,,,2,1420,"[2, 1]",stimuli/3011111.jpg,,,121687,,prediction_trial,40,image-keyboard-response,True,,
251,Experimen 4,,,,,,,,,2,,,,,,,,,,,,,,0.0-16.0,,,, ,486,,stimuli/30111112.jpg,,,122176,,feedback_trial,41,image-keyboard-response,,,
251,Experimen 4,True,1,,False,False,011,1,,1,False,False,,True,True,101,,,,,,True,,0.0-17.0,False,,,1,2612,"[2, 1]",stimuli/1011101.jpg,,,124790,,prediction_trial,42,image-keyboard-response,False,,
251,Experimen 4,,,,,,,,,2,,,,,,,,,,,,,,0.0-18.0,,,, ,529,,stimuli/10111011.jpg,,,125321,,feedback_trial,43,image-keyboard-response,,,
251,Experimen 4,True,1,,True,True,000,2,,2,True,True,,True,True,100,,,,,,True,,0.0-19.0,False,,,2,984,[2],stimuli/2000100.jpg,,,126309,,prediction_trial,44,image-keyboard-response,False,,
251,Experimen 4,,,,,,,,,2,,,,,,,,,,,,,,0.0-20.0,,,, ,263,,stimuli/20001002.jpg,,,126573,,feedback_trial,45,image-keyboard-response,,,
251,Experimen 4,True,1,,False,True,010,3,,1,False,True,,True,True,011,,,,,,False,,0.0-21.0,False,,,1,1261,[1],stimuli/3010011.jpg,,,127837,,prediction_trial,46,image-keyboard-response,True,,
251,Experimen 4,,,,,,,,,1,,,,,,,,,,,,,,0.0-22.0,,,, ,629,,stimuli/30100111.jpg,,,128468,,feedback_trial,47,image-keyboard-response,,,
251,Experimen 4,True,1,,True,True,100,2,,2,False,False,,False,False,101,,,,,,False,,0.0-23.0,True,,,2,1480,[2],stimuli/2100101.jpg,,,129949,,prediction_trial,48,image-keyboard-response,False,,
251,Experimen 4,,,,,,,,,2,,,,,,,,,,,,,,0.0-24.0,,,, ,517,,stimuli/21001012.jpg,,,130470,,feedback_trial,49,image-keyboard-response,,,
251,Experimen 4,True,1,,True,True,010,2,,2,False,True,,False,True,001,,,,,,True,,0.0-25.0,False,,,2,1155,[2],stimuli/2010001.jpg,,,131626,,prediction_trial,50,image-keyboard-response,False,,
251,Experimen 4,,,,,,,,,2,,,,,,,,,,,,,,0.0-26.0,,,, ,429,,stimuli/20100012.jpg,,,132057,,feedback_trial,51,image-keyboard-response,,,
251,Experimen 4,False,0,,False,False,011,1,,2,False,False,,False,False,011,,,,,,False,,0.0-27.0,True,,,1,1368,"[1, 2]",stimuli/1011011.jpg,,,133426,,prediction_trial,52,image-keyboard-response,False,,
251,Experimen 4,,,,,,,,,1,,,,,,,,,,,,,,0.0-28.0,,,, ,467,,stimuli/10110112.jpg,,,133896,,feedback_trial,53,image-keyboard-response,,,
251,Experimen 4,False,0,,False,False,011,1,,2,False,False,,False,False,110,,,,,,False,,0.0-29.0,True,,,0,1172,"[1, 2]",stimuli/1011110.jpg,,,135069,,prediction_trial,54,image-keyboard-response,False,,
251,Experimen 4,,,,,,,,,1,,,,,,,,,,,,,,0.0-30.0,,,, ,519,,stimuli/10111102.jpg,,,135591,,feedback_trial,55,image-keyboard-response,,,
251,Experimen 4,True,1,,False,False,110,0,,0,False,False,,False,False,101,,,,,,False,,0.0-31.0,True,,,0,2442,"[0, 1]",stimuli/0110101.jpg,,,138037,,prediction_trial,56,image-keyboard-response,False,,
251,Experimen 4,,,,,,,,,0,,,,,,,,,,,,,,0.0-32.0,,,, ,419,,stimuli/01101010.jpg,,,138458,,feedback_trial,57,image-keyboard-response,,,
251,Experimen 4,True,1,,False,True,001,2,,2,False,True,,False,True,001,,,,,,True,,0.0-33.0,False,,,2,867,[2],stimuli/2001001.jpg,,,139328,,prediction_trial,58,image-keyboard-response,False,,
251,Experimen 4,,,,,,,,,2,,,,,,,,,,,,,,0.0-34.0,,,, ,371,,stimuli/20010012.jpg,,,139702,,feedback_trial,59,image-keyboard-response,,,
251,Experimen 4,False,0,,False,False,011,3,,2,False,False,,True,True,111,,,,,,False,,0.0-35.0,False,,,1,1314,"[2, 1]",stimuli/3011111.jpg,,,141016,,prediction_trial,60,image-keyboard-response,True,,
251,Experimen 4,,,,,,,,,2,,,,,,,,,,,,,,0.0-36.0,,,, ,506,,stimuli/30111112.jpg,,,141523,,feedback_trial,61,image-keyboard-response,,,
251,Experimen 4,False,0,,False,True,001,3,,2,False,True,,True,True,101,,,,,,False,,0.0-37.0,False,,,0,1248,[2],stimuli/3001101.jpg,,,142773,,prediction_trial,62,image-keyboard-response,True,,
251,Experimen 4,,,,,,,,,2,,,,,,,,,,,,,,0.0-38.0,,,, ,598,,stimuli/30011012.jpg,,,143373,,feedback_trial,63,image-keyboard-response,,,
251,Experimen 4,False,0,,False,True,100,0,,0,False,False,,False,False,110,,,,,,False,,0.0-39.0,True,,,1,2101,[0],stimuli/0100110.jpg,,,145477,,prediction_trial,64,image-keyboard-response,False,,
251,Experimen 4,,,,,,,,,0,,,,,,,,,,,,,,0.0-40.0,,,, ,438,,stimuli/01001100.jpg,,,145919,,feedback_trial,65,image-keyboard-response,,,
251,Experimen 4,False,0,,False,False,101,3,,0,False,False,,True,True,011,,,,,,False,,0.0-41.0,False,,,2,1423,"[2, 0]",stimuli/3101011.jpg,,,147344,,prediction_trial,66,image-keyboard-response,True,,
251,Experimen 4,,,,,,,,,2,,,,,,,,,,,,,,0.0-42.0,,,, ,762,,stimuli/31010110.jpg,,,148108,,feedback_trial,67,image-keyboard-response,,,
251,Experimen 4,True,1,,False,True,100,0,,0,False,False,,False,False,111,,,,,,False,,0.0-43.0,True,,,0,1003,[0],stimuli/0100111.jpg,,,149113,,prediction_trial,68,image-keyboard-response,False,,
251,Experimen 4,,,,,,,,,0,,,,,,,,,,,,,,0.0-44.0,,,, ,436,,stimuli/01001110.jpg,,,149551,,feedback_trial,69,image-keyboard-response,,,
251,Experimen 4,True,1,,False,False,011,3,,2,False,False,,True,True,101,,,,,,False,,0.0-45.0,False,,,2,1084,"[2, 1]",stimuli/3011101.jpg,,,150637,,prediction_trial,70,image-keyboard-response,True,,
251,Experimen 4,,,,,,,,,2,,,,,,,,,,,,,,0.0-46.0,,,, ,566,,stimuli/30111012.jpg,,,151206,,feedback_trial,71,image-keyboard-response,,,
251,Experimen 4,True,1,,True,True,000,0,,0,True,True,,True,True,011,,,,,,True,,0.0-47.0,False,,,0,1305,[0],stimuli/0000011.jpg,,,152512,,prediction_trial,72,image-keyboard-response,False,,
251,Experimen 4,,,,,,,,,0,,,,,,,,,,,,,,0.0-48.0,,,, ,287,,stimuli/00000110.jpg,,,152799,,feedback_trial,73,image-keyboard-response,,,
251,Experimen 4,True,1,,True,True,000,0,,0,True,True,,True,True,000,,,,,,True,,0.0-49.0,False,,,0,736,[0],stimuli/0000000.jpg,,,153536,,prediction_trial,74,image-keyboard-response,False,,
251,Experimen 4,,,,,,,,,0,,,,,,,,,,,,,,0.0-50.0,,,, ,325,,stimuli/00000000.jpg,,,153866,,feedback_trial,75,image-keyboard-response,,,
251,Experimen 4,True,1,,True,True,001,1,,1,True,True,,True,True,001,,,,,,True,,0.0-51.0,False,,,1,642,[1],stimuli/1001001.jpg,,,154509,,prediction_trial,76,image-keyboard-response,False,,
251,Experimen 4,,,,,,,,,1,,,,,,,,,,,,,,0.0-52.0,,,, ,309,,stimuli/10010011.jpg,,,154820,,feedback_trial,77,image-keyboard-response,,,
251,Experimen 4,True,1,,True,True,100,2,,2,True,True,,True,True,100,,,,,,True,,0.0-53.0,False,,,2,605,[2],stimuli/2100100.jpg,,,155427,,prediction_trial,78,image-keyboard-response,False,,
251,Experimen 4,,,,,,,,,2,,,,,,,,,,,,,,0.0-54.0,,,, ,293,,stimuli/21001002.jpg,,,155723,,feedback_trial,79,image-keyboard-response,,,
251,Experimen 4,True,1,,True,True,101,1,,1,False,False,,False,False,011,,,,,,False,,0.0-55.0,True,,,1,2282,[1],stimuli/1101011.jpg,,,158008,,prediction_trial,80,image-keyboard-response,False,,
251,Experimen 4,,,,,,,,,1,,,,,,,,,,,,,,0.0-56.0,,,, ,429,,stimuli/11010111.jpg,,,158440,,feedback_trial,81,image-keyboard-response,,,
251,Experimen 4,True,1,,True,True,011,0,,0,False,False,,False,False,111,,,,,,False,,0.0-57.0,True,,,0,1646,[0],stimuli/0011111.jpg,,,160087,,prediction_trial,82,image-keyboard-response,False,,
251,Experimen 4,,,,,,,,,0,,,,,,,,,,,,,,0.0-58.0,,,, ,423,,stimuli/00111110.jpg,,,160514,,feedback_trial,83,image-keyboard-response,,,
251,Experimen 4,True,1,,False,True,010,3,,1,False,True,,True,True,110,,,,,,False,,0.0-59.0,False,,,1,1575,[1],stimuli/3010110.jpg,,,162091,,prediction_trial,84,image-keyboard-response,True,,
251,Experimen 4,,,,,,,,,1,,,,,,,,,,,,,,0.0-60.0,,,, ,558,,stimuli/30101101.jpg,,,162650,,feedback_trial,85,image-keyboard-response,,,
251,Experimen 4,True,1,,False,False,111,2,,0,False,False,,False,False,111,,,,,,True,,0.0-61.0,False,,,0,1603,"[0, 2, 1]",stimuli/2111111.jpg,,,164255,,prediction_trial,86,image-keyboard-response,False,,
251,Experimen 4,,,,,,,,,0,,,,,,,,,,,,,,0.0-62.0,,,, ,449,,stimuli/21111110.jpg,,,164708,,feedback_trial,87,image-keyboard-response,,,
251,Experimen 4,False,0,,False,False,101,3,,0,False,False,,True,True,101,,,,,,False,,0.0-63.0,False,,,2,1893,"[0, 2]",stimuli/3101101.jpg,,,166605,,prediction_trial,88,image-keyboard-response,True,,
251,Experimen 4,,,,,,,,,0,,,,,,,,,,,,,,0.0-64.0,,,, ,466,,stimuli/31011010.jpg,,,167072,,feedback_trial,89,image-keyboard-response,,,
251,Experimen 4,False,0,,False,False,111,0,,2,False,False,,True,True,010,,,,,,True,,0.0-65.0,False,,,1,1572,"[0, 1, 2]",stimuli/0111010.jpg,,,168646,,prediction_trial,90,image-keyboard-response,False,,
251,Experimen 4,,,,,,,,,0,,,,,,,,,,,,,,0.0-66.0,,,, ,470,,stimuli/01110102.jpg,,,169119,,feedback_trial,91,image-keyboard-response,,,
251,Experimen 4,False,0,,True,True,100,2,,2,False,False,,False,False,111,,,,,,False,,0.0-67.0,True,,,0,1736,[2],stimuli/2100111.jpg,,,170857,,prediction_trial,92,image-keyboard-response,False,,
251,Experimen 4,,,,,,,,,2,,,,,,,,,,,,,,0.0-68.0,,,, ,422,,stimuli/21001112.jpg,,,171280,,feedback_trial,93,image-keyboard-response,,,
251,Experimen 4,False,0,,False,False,011,2,,2,False,False,,True,True,010,,,,,,True,,0.0-69.0,False,,,1,1466,"[1, 2]",stimuli/2011010.jpg,,,172749,,prediction_trial,94,image-keyboard-response,False,,
251,Experimen 4,,,,,,,,,1,,,,,,,,,,,,,,0.0-70.0,,,, ,422,,stimuli/20110102.jpg,,,173175,,feedback_trial,95,image-keyboard-response,,,
251,Experimen 4,True,1,,False,True,100,3,,0,False,True,,True,True,111,,,,,,False,,0.0-71.0,False,,,0,1528,[0],stimuli/3100111.jpg,,,174706,,prediction_trial,96,image-keyboard-response,True,,
251,Experimen 4,,,,,,,,,0,,,,,,,,,,,,,,0.0-72.0,,,, ,403,,stimuli/31001110.jpg,,,175112,,feedback_trial,97,image-keyboard-response,,,
251,Experimen 4,True,1,,True,True,010,0,,0,False,False,,False,False,101,,,,,,False,,0.0-73.0,True,,,0,2095,[0],stimuli/0010101.jpg,,,177208,,prediction_trial,98,image-keyboard-response,False,,
251,Experimen 4,,,,,,,,,0,,,,,,,,,,,,,,0.0-74.0,,,, ,443,,stimuli/00101010.jpg,,,177653,,feedback_trial,99,image-keyboard-response,,,
251,Experimen 4,True,1,,False,False,101,3,,0,False,False,,True,True,110,,,,,,False,,0.0-75.0,False,,,0,1774,"[0, 2]",stimuli/3101110.jpg,,,179429,,prediction_trial,100,image-keyboard-response,True,,
251,Experimen 4,,,,,,,,,0,,,,,,,,,,,,,,0.0-76.0,,,, ,403,,stimuli/31011100.jpg,,,179835,,feedback_trial,101,image-keyboard-response,,,
251,Experimen 4,True,1,,True,True,001,0,,0,True,True,,True,True,011,,,,,,True,,0.0-77.0,False,,,0,931,[0],stimuli/0001011.jpg,,,180768,,prediction_trial,102,image-keyboard-response,False,,
251,Experimen 4,,,,,,,,,0,,,,,,,,,,,,,,0.0-78.0,,,, ,369,,stimuli/00010110.jpg,,,181140,,feedback_trial,103,image-keyboard-response,,,
251,Experimen 4,True,1,,False,False,111,2,,2,False,False,,True,True,010,,,,,,True,,0.0-79.0,False,,,2,1863,"[2, 1, 0]",stimuli/2111010.jpg,,,183007,,prediction_trial,104,image-keyboard-response,False,,
251,Experimen 4,,,,,,,,,2,,,,,,,,,,,,,,0.0-80.0,,,, ,656,,stimuli/21110102.jpg,,,183665,,feedback_trial,105,image-keyboard-response,,,
251,Experimen 4,True,1,,True,True,100,1,,1,False,False,,False,False,011,,,,,,False,,0.0-81.0,True,,,1,1695,[1],stimuli/1100011.jpg,,,185363,,prediction_trial,106,image-keyboard-response,False,,
251,Experimen 4,,,,,,,,,1,,,,,,,,,,,,,,0.0-82.0,,,, ,387,,stimuli/11000111.jpg,,,185752,,feedback_trial,107,image-keyboard-response,,,
251,Experimen 4,False,0,,False,False,101,3,,2,False,False,,True,True,101,,,,,,False,,0.0-83.0,False,,,0,1375,"[0, 2]",stimuli/3101101.jpg,,,187128,,prediction_trial,108,image-keyboard-response,True,,
251,Experimen 4,,,,,,,,,0,,,,,,,,,,,,,,0.0-84.0,,,, ,419,,stimuli/31011012.jpg,,,187549,,feedback_trial,109,image-keyboard-response,,,
251,Experimen 4,False,0,,True,True,010,2,,2,False,False,,False,False,011,,,,,,False,,0.0-85.0,True,,,1,1650,[2],stimuli/2010011.jpg,,,189202,,prediction_trial,110,image-keyboard-response,False,,
251,Experimen 4,,,,,,,,,2,,,,,,,,,,,,,,0.0-86.0,,,, ,464,,stimuli/20100112.jpg,,,189668,,feedback_trial,111,image-keyboard-response,,,
251,Experimen 4,True,1,,True,True,000,1,,1,True,True,,True,True,000,,,,,,True,,0.0-87.0,False,,,1,881,[1],stimuli/1000000.jpg,,,190550,,prediction_trial,112,image-keyboard-response,False,,
251,Experimen 4,,,,,,,,,1,,,,,,,,,,,,,,0.0-88.0,,,, ,366,,stimuli/10000001.jpg,,,190920,,feedback_trial,113,image-keyboard-response,,,
251,Experimen 4,False,0,,False,False,110,3,,0,False,False,,True,True,011,,,,,,False,,0.0-89.0,False,,,1,2026,"[0, 1]",stimuli/3110011.jpg,,,192948,,prediction_trial,114,image-keyboard-response,True,,
251,Experimen 4,,,,,,,,,0,,,,,,,,,,,,,,0.0-90.0,,,, ,526,,stimuli/31100110.jpg,,,193475,,feedback_trial,115,image-keyboard-response,,,
251,Experimen 4,True,1,,False,True,010,3,,1,False,True,,True,True,111,,,,,,False,,0.0-91.0,False,,,1,1059,[1],stimuli/3010111.jpg,,,194538,,prediction_trial,116,image-keyboard-response,True,,
251,Experimen 4,,,,,,,,,1,,,,,,,,,,,,,,0.0-92.0,,,, ,379,,stimuli/30101111.jpg,,,194920,,feedback_trial,117,image-keyboard-response,,,
251,Experimen 4,True,1,,False,True,001,3,,2,False,True,,True,True,101,,,,,,False,,0.0-93.0,False,,,2,915,[2],stimuli/3001101.jpg,,,195834,,prediction_trial,118,image-keyboard-response,True,,
251,Experimen 4,,,,,,,,,2,,,,,,,,,,,,,,0.0-94.0,,,, ,407,,stimuli/30011012.jpg,,,196243,,feedback_trial,119,image-keyboard-response,,,
251,Experimen 4,True,1,,False,True,001,2,,2,False,False,,False,False,101,,,,,,False,,0.0-95.0,True,,,2,1072,[2],stimuli/2001101.jpg,,,197317,,prediction_trial,120,image-keyboard-response,False,,
251,Experimen 4,,,,,,,,,2,,,,,,,,,,,,,,0.0-96.0,,,, ,427,,stimuli/20011012.jpg,,,197746,,feedback_trial,121,image-keyboard-response,,,
251,Experimen 4,True,1,,True,True,001,0,,0,True,True,,True,True,010,,,,,,True,,0.0-97.0,False,,,0,842,[0],stimuli/0001010.jpg,,,198590,,prediction_trial,122,image-keyboard-response,False,,
251,Experimen 4,,,,,,,,,0,,,,,,,,,,,,,,0.0-98.0,,,, ,350,,stimuli/00010100.jpg,,,198942,,feedback_trial,123,image-keyboard-response,,,
251,Experimen 4,True,1,,False,True,001,3,,2,False,True,,True,True,011,,,,,,False,,0.0-99.0,False,,,2,2082,[2],stimuli/3001011.jpg,,,201027,,prediction_trial,124,image-keyboard-response,True,,
251,Experimen 4,,,,,,,,,2,,,,,,,,,,,,,,0.0-100.0,,,, ,417,,stimuli/30010112.jpg,,,201447,,feedback_trial,125,image-keyboard-response,,,
251,Experimen 4,True,1,,False,True,100,3,,0,False,True,,True,True,111,,,,,,False,,0.0-101.0,False,,,0,1769,[0],stimuli/3100111.jpg,,,203216,,prediction_trial,126,image-keyboard-response,True,,
251,Experimen 4,,,,,,,,,0,,,,,,,,,,,,,,0.0-102.0,,,, ,359,,stimuli/31001110.jpg,,,203575,,feedback_trial,127,image-keyboard-response,,,
251,Experimen 4,True,1,,True,True,110,2,,2,True,True,,True,True,000,,,,,,True,,0.0-103.0,False,,,2,980,[2],stimuli/2110000.jpg,,,204556,,prediction_trial,128,image-keyboard-response,False,,
251,Experimen 4,,,,,,,,,2,,,,,,,,,,,,,,0.0-104.0,,,, ,338,,stimuli/21100002.jpg,,,204897,,feedback_trial,129,image-keyboard-response,,,
251,Experimen 4,True,1,,True,True,100,1,,1,True,True,,True,True,100,,,,,,True,,0.0-105.0,False,,,1,574,[1],stimuli/1100100.jpg,,,205472,,prediction_trial,130,image-keyboard-response,False,,
251,Experimen 4,,,,,,,,,1,,,,,,,,,,,,,,0.0-106.0,,,, ,335,,stimuli/11001001.jpg,,,205810,,feedback_trial,131,image-keyboard-response,,,
251,Experimen 4,False,0,,False,False,110,0,,0,False,False,,False,False,110,,,,,,False,,0.0-107.0,True,,,1,1187,"[1, 0]",stimuli/0110110.jpg,,,207000,,prediction_trial,132,image-keyboard-response,False,,
251,Experimen 4,,,,,,,,,1,,,,,,,,,,,,,,0.0-108.0,,,, ,452,,stimuli/01101100.jpg,,,207453,,feedback_trial,133,image-keyboard-response,,,
251,Experimen 4,False,0,,False,False,101,2,,2,False,False,,False,False,111,,,,,,False,,0.0-109.0,True,,,0,1845,"[2, 0]",stimuli/2101111.jpg,,,209300,,prediction_trial,134,image-keyboard-response,False,,
251,Experimen 4,,,,,,,,,2,,,,,,,,,,,,,,0.0-110.0,,,, ,494,,stimuli/21011112.jpg,,,209797,,feedback_trial,135,image-keyboard-response,,,
251,Experimen 4,False,0,,False,False,111,0,,1,False,False,,False,False,110,,,,,,True,,0.0-111.0,False,,,0,1565,"[1, 0, 2]",stimuli/0111110.jpg,,,211366,,prediction_trial,136,image-keyboard-response,False,,
251,Experimen 4,,,,,,,,,1,,,,,,,,,,,,,,0.0-112.0,,,, ,438,,stimuli/01111101.jpg,,,211806,,feedback_trial,137,image-keyboard-response,,,
251,Experimen 4,False,0,,True,True,101,1,,1,False,False,,False,False,110,,,,,,False,,0.0-113.0,True,,,0,1950,[1],stimuli/1101110.jpg,,,213759,,prediction_trial,138,image-keyboard-response,False,,
251,Experimen 4,,,,,,,,,1,,,,,,,,,,,,,,0.0-114.0,,,, ,426,,stimuli/11011101.jpg,,,214188,,feedback_trial,139,image-keyboard-response,,,
251,Experimen 4,False,0,,False,False,111,0,,0,False,False,,False,False,111,,,,,,True,,0.0-115.0,False,,,1,681,"[0, 1, 2]",stimuli/0111111.jpg,,,214872,,prediction_trial,140,image-keyboard-response,False,,
251,Experimen 4,,,,,,,,,0,,,,,,,,,,,,,,0.0-116.0,,,, ,463,,stimuli/01111110.jpg,,,215337,,feedback_trial,141,image-keyboard-response,,,
251,Experimen 4,True,1,,True,True,010,0,,0,False,True,,False,True,100,,,,,,True,,0.0-117.0,False,,,0,1265,[0],stimuli/0010100.jpg,,,216606,,prediction_trial,142,image-keyboard-response,False,,
251,Experimen 4,,,,,,,,,0,,,,,,,,,,,,,,0.0-118.0,,,, ,489,,stimuli/00101000.jpg,,,217097,,feedback_trial,143,image-keyboard-response,,,
251,Experimen 4,True,1,,False,True,001,3,,2,False,True,,True,True,111,,,,,,False,,0.0-119.0,False,,,2,1052,[2],stimuli/3001111.jpg,,,218151,,prediction_trial,144,image-keyboard-response,True,,
251,Experimen 4,,,,,,,,,2,,,,,,,,,,,,,,0.0-120.0,,,, ,341,,stimuli/30011112.jpg,,,218495,,feedback_trial,145,image-keyboard-response,,,
251,Experimen 4,False,0,,True,True,101,1,,1,False,False,,False,False,111,,,,,,False,,0.0-121.0,True,,,0,1519,[1],stimuli/1101111.jpg,,,220016,,prediction_trial,146,image-keyboard-response,False,,
251,Experimen 4,,,,,,,,,1,,,,,,,,,,,,,,0.0-122.0,,,, ,585,,stimuli/11011111.jpg,,,220603,,feedback_trial,147,image-keyboard-response,,,
251,Experimen 4,False,0,,False,False,110,3,,1,False,False,,True,True,101,,,,,,False,,0.0-123.0,False,,,0,1447,"[1, 0]",stimuli/3110101.jpg,,,222052,,prediction_trial,148,image-keyboard-response,True,,
251,Experimen 4,,,,,,,,,1,,,,,,,,,,,,,,0.0-124.0,,,, ,420,,stimuli/31101011.jpg,,,222475,,feedback_trial,149,image-keyboard-response,,,
251,Experimen 4,True,1,,False,True,010,3,,1,False,True,,True,True,011,,,,,,False,,0.0-125.0,False,,,1,1260,[1],stimuli/3010011.jpg,,,223737,,prediction_trial,150,image-keyboard-response,True,,
