workerid,proliferate.condition,accuracy,accuracy_bool,alter_ball_visible,alter_can_infer,alter_occluders,ball_pos,character_choice,collective_ball_visible,collective_can_infer,ego_ball_visible,ego_can_infer,ego_occluders,filler_trial,internal_node_id,key_trial,response,rt,search_locations,stimulus,time_elapsed,trial,trial_index,trial_type,trick_trial,error
241,Experimen 4,True,1,False,False,011,3,2,False,False,True,True,011,False,0.0-5.0,False,2,3582,"[1, 2]",stimuli/3011011.jpg,235635,prediction_trial,30,image-keyboard-response,True,
241,Experimen 4,True,1,False,False,011,1,2,False,False,False,False,011,False,0.0-7.0,True,2,1690,"[2, 1]",stimuli/1011011.jpg,238111,prediction_trial,32,image-keyboard-response,False,
241,Experimen 4,True,1,False,True,010,3,1,False,True,True,True,111,False,0.0-9.0,False,1,1194,[1],stimuli/3010111.jpg,239940,prediction_trial,34,image-keyboard-response,True,
241,Experimen 4,True,1,False,False,101,2,2,False,False,True,True,000,True,0.0-11.0,False,2,3044,"[2, 0]",stimuli/2101000.jpg,243673,prediction_trial,36,image-keyboard-response,False,
241,Experimen 4,True,1,True,True,100,2,2,True,True,True,True,100,True,0.0-13.0,False,2,1559,[2],stimuli/2100100.jpg,246282,prediction_trial,38,image-keyboard-response,False,
241,Experimen 4,True,1,False,True,100,3,0,False,True,True,True,110,False,0.0-15.0,False,0,1830,[0],stimuli/3100110.jpg,248765,prediction_trial,40,image-keyboard-response,True,
241,Experimen 4,True,1,False,False,111,2,2,False,False,False,True,001,True,0.0-17.0,False,2,3174,"[2, 0, 1]",stimuli/2111001.jpg,252568,prediction_trial,42,image-keyboard-response,False,
241,Experimen 4,True,1,False,True,001,3,2,False,True,True,True,111,False,0.0-19.0,False,2,2549,[2],stimuli/3001111.jpg,255762,prediction_trial,44,image-keyboard-response,True,
241,Experimen 4,True,1,False,False,101,0,0,False,False,False,False,111,False,0.0-21.0,True,0,2790,"[0, 2]",stimuli/0101111.jpg,259147,prediction_trial,46,image-keyboard-response,False,
241,Experimen 4,True,1,True,True,100,1,1,True,True,True,True,100,True,0.0-23.0,False,1,1323,[1],stimuli/1100100.jpg,261264,prediction_trial,48,image-keyboard-response,False,
241,Experimen 4,True,1,True,True,001,0,0,True,True,True,True,001,True,0.0-25.0,False,0,1530,[0],stimuli/0001001.jpg,263483,prediction_trial,50,image-keyboard-response,False,
241,Experimen 4,True,1,True,True,010,0,0,True,True,True,True,000,True,0.0-27.0,False,0,824,[0],stimuli/0010000.jpg,264888,prediction_trial,52,image-keyboard-response,False,
241,Experimen 4,False,0,False,False,011,3,1,False,False,True,True,101,False,0.0-29.0,False,2,2680,"[1, 2]",stimuli/3011101.jpg,268230,prediction_trial,54,image-keyboard-response,True,
241,Experimen 4,True,1,False,False,111,1,1,False,False,True,True,100,True,0.0-31.0,False,1,2605,"[1, 2, 0]",stimuli/1111100.jpg,271787,prediction_trial,56,image-keyboard-response,False,
241,Experimen 4,False,0,False,False,101,3,2,False,False,True,True,110,False,0.0-33.0,False,0,3121,"[2, 0]",stimuli/3101110.jpg,275707,prediction_trial,58,image-keyboard-response,True,
241,Experimen 4,True,1,False,True,001,2,2,False,False,False,False,011,False,0.0-35.0,True,2,3694,[2],stimuli/2001011.jpg,280162,prediction_trial,60,image-keyboard-response,False,
241,Experimen 4,True,1,False,True,010,3,1,False,True,True,True,110,False,0.0-37.0,False,1,1829,[1],stimuli/3010110.jpg,282765,prediction_trial,62,image-keyboard-response,True,
241,Experimen 4,True,1,False,False,111,1,2,False,False,False,True,010,True,0.0-39.0,False,2,2792,"[2, 0, 1]",stimuli/1111010.jpg,286192,prediction_trial,64,image-keyboard-response,False,
241,Experimen 4,False,0,True,True,001,0,0,False,False,False,False,101,False,0.0-41.0,True,2,3766,[0],stimuli/0001101.jpg,290644,prediction_trial,66,image-keyboard-response,False,
241,Experimen 4,True,1,False,True,001,2,2,False,True,True,True,110,True,0.0-43.0,False,2,5119,[2],stimuli/2001110.jpg,296559,prediction_trial,68,image-keyboard-response,False,
241,Experimen 4,False,0,True,True,001,0,0,False,False,False,False,111,False,0.0-45.0,True,2,2396,[0],stimuli/0001111.jpg,299530,prediction_trial,70,image-keyboard-response,False,
241,Experimen 4,False,0,False,False,011,1,2,False,False,False,False,111,False,0.0-47.0,True,1,3321,"[2, 1]",stimuli/1011111.jpg,304640,prediction_trial,72,image-keyboard-response,False,
241,Experimen 4,True,1,True,True,100,2,2,False,False,False,False,011,False,0.0-49.0,True,2,3444,[2],stimuli/2100011.jpg,308900,prediction_trial,74,image-keyboard-response,False,
241,Experimen 4,False,0,False,False,110,1,0,False,False,False,False,011,False,0.0-51.0,True,1,2825,"[1, 0]",stimuli/1110011.jpg,312292,prediction_trial,76,image-keyboard-response,False,
241,Experimen 4,True,1,False,False,110,3,1,False,False,True,True,101,False,0.0-53.0,False,1,5442,"[1, 0]",stimuli/3110101.jpg,320482,prediction_trial,78,image-keyboard-response,True,
241,Experimen 4,True,1,True,True,110,2,2,False,True,False,True,001,True,0.0-55.0,False,2,2505,[2],stimuli/2110001.jpg,323932,prediction_trial,80,image-keyboard-response,False,
241,Experimen 4,True,1,False,False,011,3,1,False,False,True,True,101,False,0.0-57.0,False,1,2595,"[1, 2]",stimuli/3011101.jpg,327180,prediction_trial,82,image-keyboard-response,True,
241,Experimen 4,False,0,False,False,101,3,0,False,False,True,True,111,False,0.0-59.0,False,2,4453,"[2, 0]",stimuli/3101111.jpg,332317,prediction_trial,84,image-keyboard-response,True,
241,Experimen 4,True,1,True,True,010,0,0,True,True,True,True,011,True,0.0-61.0,False,0,1224,[0],stimuli/0010011.jpg,334369,prediction_trial,86,image-keyboard-response,False,
241,Experimen 4,False,0,False,True,100,0,0,False,False,False,False,101,False,0.0-63.0,True,2,4053,[0],stimuli/0100101.jpg,339035,prediction_trial,88,image-keyboard-response,False,
241,Experimen 4,True,1,False,True,001,2,2,False,True,True,True,000,True,0.0-65.0,False,2,2087,[2],stimuli/2001000.jpg,341847,prediction_trial,90,image-keyboard-response,False,
241,Experimen 4,False,0,True,True,010,0,0,False,False,False,False,111,False,0.0-67.0,True,1,2840,[0],stimuli/0010111.jpg,345287,prediction_trial,92,image-keyboard-response,False,
241,Experimen 4,True,1,False,True,001,2,2,False,True,True,True,100,True,0.0-69.0,False,2,2808,[2],stimuli/2001100.jpg,348808,prediction_trial,94,image-keyboard-response,False,
241,Experimen 4,False,0,False,False,011,2,1,False,False,False,False,101,False,0.0-71.0,True,2,4278,"[2, 1]",stimuli/2011101.jpg,353711,prediction_trial,96,image-keyboard-response,False,
241,Experimen 4,False,0,True,True,011,0,0,False,False,False,False,111,False,0.0-73.0,True,1,1775,[0],stimuli/0011111.jpg,357406,prediction_trial,98,image-keyboard-response,False,
241,Experimen 4,False,0,False,True,001,3,2,False,True,True,True,111,False,0.0-75.0,False,1,3597,[2],stimuli/3001111.jpg,361702,prediction_trial,100,image-keyboard-response,True,
241,Experimen 4,False,0,True,True,101,1,1,False,False,False,False,011,False,0.0-77.0,True,0,1552,[1],stimuli/1101011.jpg,363867,prediction_trial,102,image-keyboard-response,False,
241,Experimen 4,True,1,False,True,100,3,0,False,True,True,True,111,False,0.0-79.0,False,0,2280,[0],stimuli/3100111.jpg,366800,prediction_trial,104,image-keyboard-response,True,
241,Experimen 4,True,1,False,True,001,3,2,False,True,True,True,110,False,0.0-81.0,False,2,1449,[2],stimuli/3001110.jpg,368892,prediction_trial,106,image-keyboard-response,True,
241,Experimen 4,False,0,True,True,101,1,1,False,False,False,False,110,False,0.0-83.0,True,0,1014,[1],stimuli/1101110.jpg,370585,prediction_trial,108,image-keyboard-response,False,
241,Experimen 4,False,0,False,False,101,3,0,False,False,True,True,011,False,0.0-85.0,False,2,3655,"[0, 2]",stimuli/3101011.jpg,374842,prediction_trial,110,image-keyboard-response,True,
241,Experimen 4,False,0,True,True,110,2,2,False,False,False,False,101,False,0.0-87.0,True,0,2038,[2],stimuli/2110101.jpg,377444,prediction_trial,112,image-keyboard-response,False,
241,Experimen 4,True,1,True,True,011,0,0,True,True,True,True,011,True,0.0-89.0,False,0,2038,[0],stimuli/0011011.jpg,380192,prediction_trial,114,image-keyboard-response,False,
241,Experimen 4,True,1,False,True,100,3,0,False,True,True,True,111,False,0.0-91.0,False,0,2675,[0],stimuli/3100111.jpg,383384,prediction_trial,116,image-keyboard-response,True,
241,Experimen 4,True,1,True,True,010,2,2,False,False,False,False,111,False,0.0-93.0,True,2,2784,[2],stimuli/2010111.jpg,386676,prediction_trial,118,image-keyboard-response,False,
241,Experimen 4,False,0,False,False,110,3,1,False,False,True,True,011,False,0.0-95.0,False,0,4636,"[0, 1]",stimuli/3110011.jpg,392066,prediction_trial,120,image-keyboard-response,True,
241,Experimen 4,True,1,True,True,101,1,1,True,True,True,True,101,True,0.0-97.0,False,1,1647,[1],stimuli/1101101.jpg,394828,prediction_trial,122,image-keyboard-response,False,
241,Experimen 4,False,0,False,True,010,3,1,False,True,True,True,101,False,0.0-99.0,False,2,2003,[1],stimuli/3010101.jpg,397549,prediction_trial,124,image-keyboard-response,True,
241,Experimen 4,False,0,False,False,111,0,2,False,False,False,False,110,True,0.0-101.0,False,0,2857,"[1, 0, 2]",stimuli/0111110.jpg,400973,prediction_trial,126,image-keyboard-response,False,
241,Experimen 4,False,0,False,False,110,3,0,False,False,True,True,111,False,0.0-103.0,False,2,3872,"[0, 1]",stimuli/3110111.jpg,406284,prediction_trial,128,image-keyboard-response,True,
241,Experimen 4,True,1,True,True,010,2,2,True,True,True,True,010,True,0.0-105.0,False,2,1189,[2],stimuli/2010010.jpg,408117,prediction_trial,130,image-keyboard-response,False,
241,Experimen 4,True,1,False,False,101,3,0,False,False,True,True,110,False,0.0-107.0,False,0,2029,"[2, 0]",stimuli/3101110.jpg,410641,prediction_trial,132,image-keyboard-response,True,
241,Experimen 4,False,0,False,False,111,1,2,False,False,True,True,001,True,0.0-109.0,False,1,2179,"[1, 2, 0]",stimuli/1111001.jpg,413326,prediction_trial,134,image-keyboard-response,False,
241,Experimen 4,False,0,False,False,110,1,0,False,False,True,True,101,True,0.0-111.0,False,1,4719,"[1, 0]",stimuli/1110101.jpg,418697,prediction_trial,136,image-keyboard-response,False,
241,Experimen 4,True,1,False,False,110,0,0,False,False,False,False,110,False,0.0-113.0,True,0,2442,"[1, 0]",stimuli/0110110.jpg,421756,prediction_trial,138,image-keyboard-response,False,
241,Experimen 4,True,1,True,True,101,1,1,True,True,True,True,100,True,0.0-115.0,False,1,1227,[1],stimuli/1101100.jpg,423529,prediction_trial,140,image-keyboard-response,False,
241,Experimen 4,False,0,True,True,001,0,0,False,False,False,False,110,False,0.0-117.0,True,1,1742,[0],stimuli/0001110.jpg,425799,prediction_trial,142,image-keyboard-response,False,
241,Experimen 4,False,0,False,True,010,1,1,False,True,True,True,101,True,0.0-119.0,False,2,1538,[1],stimuli/1010101.jpg,427944,prediction_trial,144,image-keyboard-response,False,
241,Experimen 4,True,1,True,True,100,1,1,True,True,True,True,001,True,0.0-121.0,False,1,5621,[1],stimuli/1100001.jpg,434118,prediction_trial,146,image-keyboard-response,False,
241,Experimen 4,False,0,True,True,000,0,0,False,False,False,False,111,True,0.0-123.0,False,1,2266,[0],stimuli/0000111.jpg,436807,prediction_trial,148,image-keyboard-response,False,
241,Experimen 4,True,1,False,True,010,1,1,False,False,False,False,110,False,0.0-125.0,True,1,2615,[1],stimuli/1010110.jpg,440069,prediction_trial,150,image-keyboard-response,False,
241,Experimen 4,False,0,False,False,011,3,1,False,False,True,True,110,False,0.0-127.0,False,2,2424,"[1, 2]",stimuli/3011110.jpg,442925,prediction_trial,152,image-keyboard-response,True,
241,Experimen 4,False,0,True,True,000,1,1,False,False,False,False,110,True,0.0-129.0,False,0,2140,[1],stimuli/1000110.jpg,445853,prediction_trial,154,image-keyboard-response,False,
241,Experimen 4,False,0,True,True,011,0,0,False,False,False,False,101,False,0.0-131.0,True,1,1268,[0],stimuli/0011101.jpg,447668,prediction_trial,156,image-keyboard-response,False,
241,Experimen 4,False,0,False,True,010,1,1,False,False,False,False,011,False,0.0-133.0,True,2,1966,[1],stimuli/1010011.jpg,450230,prediction_trial,158,image-keyboard-response,False,
241,Experimen 4,True,1,False,True,010,1,1,False,True,True,True,000,True,0.0-135.0,False,1,3804,[1],stimuli/1010000.jpg,454518,prediction_trial,160,image-keyboard-response,False,
241,Experimen 4,True,1,False,True,010,3,1,False,True,True,True,111,False,0.0-137.0,False,1,4761,[1],stimuli/3010111.jpg,460094,prediction_trial,162,image-keyboard-response,True,
241,Experimen 4,False,0,False,False,110,3,0,False,False,True,True,111,False,0.0-139.0,False,1,3268,"[0, 1]",stimuli/3110111.jpg,463916,prediction_trial,164,image-keyboard-response,True,
241,Experimen 4,False,0,True,True,110,2,2,False,False,False,False,011,False,0.0-141.0,True,0,2376,[2],stimuli/2110011.jpg,466870,prediction_trial,166,image-keyboard-response,False,
241,Experimen 4,False,0,False,False,011,2,1,False,False,True,True,110,True,0.0-143.0,False,2,2426,"[1, 2]",stimuli/2011110.jpg,470984,prediction_trial,168,image-keyboard-response,False,
241,Experimen 4,False,0,False,False,111,2,0,False,False,True,True,010,True,0.0-145.0,False,2,5855,"[0, 2, 1]",stimuli/2111010.jpg,477298,prediction_trial,170,image-keyboard-response,False,
241,Experimen 4,False,0,False,False,110,3,1,False,False,True,True,101,False,0.0-147.0,False,0,3443,"[1, 0]",stimuli/3110101.jpg,481402,prediction_trial,172,image-keyboard-response,True,
241,Experimen 4,True,1,True,True,010,0,0,True,True,True,True,001,True,0.0-149.0,False,0,1151,[0],stimuli/0010001.jpg,483185,prediction_trial,174,image-keyboard-response,False,
241,Experimen 4,False,0,True,True,010,0,0,False,False,False,False,101,False,0.0-151.0,True,2,3882,[0],stimuli/0010101.jpg,487599,prediction_trial,176,image-keyboard-response,False,
241,Experimen 4,False,0,False,False,110,1,1,False,False,False,False,111,False,0.0-153.0,True,0,3493,"[0, 1]",stimuli/1110111.jpg,491795,prediction_trial,178,image-keyboard-response,False,
241,Experimen 4,True,1,True,True,100,2,2,False,False,False,False,111,False,0.0-155.0,True,2,3667,[2],stimuli/2100111.jpg,496008,prediction_trial,180,image-keyboard-response,False,
241,Experimen 4,True,1,False,True,100,3,0,False,True,True,True,110,False,0.0-157.0,False,0,5699,[0],stimuli/3100110.jpg,502630,prediction_trial,182,image-keyboard-response,True,
241,Experimen 4,True,1,False,False,110,0,0,False,False,True,True,010,True,0.0-159.0,False,0,2665,"[1, 0]",stimuli/0110010.jpg,505854,prediction_trial,184,image-keyboard-response,False,
241,Experimen 4,False,0,False,False,110,3,1,False,False,True,True,110,False,0.0-161.0,False,0,1888,"[1, 0]",stimuli/3110110.jpg,508371,prediction_trial,186,image-keyboard-response,True,
241,Experimen 4,True,1,False,True,100,3,0,False,True,True,True,101,False,0.0-163.0,False,0,3718,[0],stimuli/3100101.jpg,512610,prediction_trial,188,image-keyboard-response,True,
241,Experimen 4,True,1,False,True,001,3,2,False,True,True,True,101,False,0.0-165.0,False,2,1575,[2],stimuli/3001101.jpg,514705,prediction_trial,190,image-keyboard-response,True,
241,Experimen 4,False,0,False,False,101,2,0,False,False,False,False,101,False,0.0-167.0,True,2,1395,"[2, 0]",stimuli/2101101.jpg,516557,prediction_trial,192,image-keyboard-response,False,
241,Experimen 4,True,1,False,False,101,0,0,False,False,True,True,010,True,0.0-169.0,False,0,2608,"[2, 0]",stimuli/0101010.jpg,519615,prediction_trial,194,image-keyboard-response,False,
241,Experimen 4,False,0,False,False,011,1,2,False,False,True,True,100,True,0.0-171.0,False,1,3467,"[2, 1]",stimuli/1011100.jpg,523783,prediction_trial,196,image-keyboard-response,False,
241,Experimen 4,True,1,False,False,101,3,2,False,False,True,True,111,False,0.0-173.0,False,2,1400,"[2, 0]",stimuli/3101111.jpg,525775,prediction_trial,198,image-keyboard-response,True,
241,Experimen 4,True,1,False,False,111,1,1,False,False,True,True,000,True,0.0-175.0,False,1,2581,"[1, 2, 0]",stimuli/1111000.jpg,528764,prediction_trial,200,image-keyboard-response,False,
241,Experimen 4,True,1,False,True,100,3,0,False,True,True,True,011,False,0.0-177.0,False,0,2423,[0],stimuli/3100011.jpg,531952,prediction_trial,202,image-keyboard-response,True,
241,Experimen 4,False,0,True,True,101,1,1,False,True,False,True,010,True,0.0-179.0,False,0,1372,[1],stimuli/1101010.jpg,533786,prediction_trial,204,image-keyboard-response,False,
241,Experimen 4,True,1,False,True,001,2,2,False,True,False,True,001,True,0.0-181.0,False,2,1090,[2],stimuli/2001001.jpg,535315,prediction_trial,206,image-keyboard-response,False,
241,Experimen 4,True,1,False,True,001,3,2,False,True,True,True,110,False,0.0-183.0,False,2,1218,[2],stimuli/3001110.jpg,536905,prediction_trial,208,image-keyboard-response,True,
241,Experimen 4,True,1,False,True,001,2,2,False,True,True,True,010,True,0.0-185.0,False,2,1299,[2],stimuli/2001010.jpg,538899,prediction_trial,210,image-keyboard-response,False,
241,Experimen 4,True,1,True,True,011,0,0,True,True,True,True,001,True,0.0-187.0,False,0,1249,[0],stimuli/0011001.jpg,540578,prediction_trial,212,image-keyboard-response,False,
241,Experimen 4,True,1,False,True,010,3,1,False,True,True,True,111,False,0.0-189.0,False,1,2232,[1],stimuli/3010111.jpg,543243,prediction_trial,214,image-keyboard-response,True,
241,Experimen 4,True,1,False,False,101,2,0,False,False,False,True,001,True,0.0-191.0,False,0,4867,"[2, 0]",stimuli/2101001.jpg,548623,prediction_trial,216,image-keyboard-response,False,
241,Experimen 4,False,0,False,False,101,3,2,False,False,True,True,101,False,0.0-193.0,False,0,1376,"[0, 2]",stimuli/3101101.jpg,550559,prediction_trial,218,image-keyboard-response,True,
241,Experimen 4,False,0,True,True,100,1,1,False,False,False,False,111,False,0.0-195.0,True,0,1376,[1],stimuli/1100111.jpg,552437,prediction_trial,220,image-keyboard-response,False,
241,Experimen 4,True,1,False,False,011,2,2,False,False,False,False,011,False,0.0-197.0,True,2,2022,"[2, 1]",stimuli/2011011.jpg,557651,prediction_trial,222,image-keyboard-response,False,
241,Experimen 4,True,1,False,True,100,3,0,False,True,True,True,011,False,0.0-199.0,False,0,1337,[0],stimuli/3100011.jpg,559480,prediction_trial,224,image-keyboard-response,True,
241,Experimen 4,True,1,False,False,101,0,0,False,False,False,False,101,False,0.0-201.0,True,0,2190,"[0, 2]",stimuli/0101101.jpg,562039,prediction_trial,226,image-keyboard-response,False,
241,Experimen 4,False,0,True,True,101,1,1,False,False,False,False,111,False,0.0-203.0,True,2,1958,[1],stimuli/1101111.jpg,564396,prediction_trial,228,image-keyboard-response,False,
241,Experimen 4,False,0,False,False,111,0,1,False,False,True,True,001,True,0.0-205.0,False,0,1938,"[1, 2, 0]",stimuli/0111001.jpg,567606,prediction_trial,230,image-keyboard-response,False,
241,Experimen 4,False,0,False,False,011,3,1,False,False,True,True,011,False,0.0-207.0,False,2,1612,"[1, 2]",stimuli/3011011.jpg,569674,prediction_trial,232,image-keyboard-response,True,
241,Experimen 4,True,1,True,True,110,2,2,False,False,False,False,111,False,0.0-209.0,True,2,2357,[2],stimuli/2110111.jpg,572642,prediction_trial,234,image-keyboard-response,False,
241,Experimen 4,True,1,False,True,100,0,0,False,True,True,True,000,True,0.0-211.0,False,0,2876,[0],stimuli/0100000.jpg,576182,prediction_trial,236,image-keyboard-response,False,
241,Experimen 4,True,1,False,False,011,3,1,False,False,True,True,111,False,0.0-213.0,False,1,1478,"[2, 1]",stimuli/3011111.jpg,578119,prediction_trial,238,image-keyboard-response,True,
241,Experimen 4,True,1,False,True,100,3,0,False,True,True,True,111,False,0.0-215.0,False,0,1918,[0],stimuli/3100111.jpg,580472,prediction_trial,240,image-keyboard-response,True,
241,Experimen 4,True,1,True,True,100,2,2,True,True,True,True,010,True,0.0-217.0,False,2,2258,[2],stimuli/2100010.jpg,583104,prediction_trial,242,image-keyboard-response,False,
241,Experimen 4,False,0,False,True,001,2,2,False,False,False,False,111,False,0.0-219.0,True,1,3863,[2],stimuli/2001111.jpg,587352,prediction_trial,244,image-keyboard-response,False,
241,Experimen 4,False,0,False,False,101,3,2,False,False,True,True,111,False,0.0-221.0,False,0,1864,"[2, 0]",stimuli/3101111.jpg,592164,prediction_trial,246,image-keyboard-response,True,
241,Experimen 4,True,1,False,False,111,1,1,False,False,False,False,111,True,0.0-223.0,False,1,2889,"[2, 0, 1]",stimuli/1111111.jpg,595664,prediction_trial,248,image-keyboard-response,False,
241,Experimen 4,True,1,False,True,010,3,1,False,True,True,True,011,False,0.0-225.0,False,1,3748,[1],stimuli/3010011.jpg,599860,prediction_trial,250,image-keyboard-response,True,
241,Experimen 4,True,1,True,True,100,1,1,False,False,False,False,110,False,0.0-227.0,True,1,3055,[1],stimuli/1100110.jpg,603306,prediction_trial,252,image-keyboard-response,False,
241,Experimen 4,False,0,False,False,101,2,2,False,False,False,False,111,False,0.0-229.0,True,1,1934,"[2, 0]",stimuli/2101111.jpg,605639,prediction_trial,254,image-keyboard-response,False,
241,Experimen 4,True,1,False,False,110,3,1,False,False,True,True,110,False,0.0-231.0,False,1,2313,"[1, 0]",stimuli/3110110.jpg,608507,prediction_trial,256,image-keyboard-response,True,
241,Experimen 4,True,1,True,True,100,1,1,False,False,False,False,011,False,0.0-233.0,True,1,2095,[1],stimuli/1100011.jpg,611014,prediction_trial,258,image-keyboard-response,False,
241,Experimen 4,True,1,False,False,011,3,1,False,False,True,True,111,False,0.0-235.0,False,1,2573,"[2, 1]",stimuli/3011111.jpg,614038,prediction_trial,260,image-keyboard-response,True,
241,Experimen 4,False,0,False,False,110,0,1,False,False,False,False,111,False,0.0-237.0,True,2,1999,"[1, 0]",stimuli/0110111.jpg,616421,prediction_trial,262,image-keyboard-response,False,
241,Experimen 4,False,0,True,True,010,2,2,False,False,False,False,011,False,0.0-239.0,True,1,1649,[2],stimuli/2010011.jpg,618495,prediction_trial,264,image-keyboard-response,False,
241,Experimen 4,True,1,False,True,001,3,2,False,True,True,True,101,False,0.0-241.0,False,2,4953,[2],stimuli/3001101.jpg,623928,prediction_trial,266,image-keyboard-response,True,
241,Experimen 4,False,0,False,False,011,1,1,False,False,False,False,110,False,0.0-243.0,True,0,3547,"[1, 2]",stimuli/1011110.jpg,627849,prediction_trial,268,image-keyboard-response,False,
241,Experimen 4,True,1,False,False,101,0,0,False,False,True,True,000,True,0.0-245.0,False,0,2497,"[0, 2]",stimuli/0101000.jpg,631597,prediction_trial,270,image-keyboard-response,False,
241,Experimen 4,True,1,False,True,100,3,0,False,True,True,True,101,False,0.0-247.0,False,0,2359,[0],stimuli/3100101.jpg,634387,prediction_trial,272,image-keyboard-response,True,
241,Experimen 4,True,1,False,True,010,3,1,False,True,True,True,110,False,0.0-249.0,False,1,2595,[1],stimuli/3010110.jpg,637375,prediction_trial,274,image-keyboard-response,True,
241,Experimen 4,True,1,True,True,010,0,0,False,True,False,True,100,True,0.0-251.0,False,0,4477,[0],stimuli/0010100.jpg,642226,prediction_trial,276,image-keyboard-response,False,
241,Experimen 4,False,0,True,True,001,1,1,False,False,False,False,110,False,0.0-253.0,True,0,7654,[1],stimuli/1001110.jpg,650313,prediction_trial,278,image-keyboard-response,False,
241,Experimen 4,True,1,True,True,000,2,2,True,True,True,True,000,True,0.0-255.0,False,2,1255,[2],stimuli/2000000.jpg,652059,prediction_trial,280,image-keyboard-response,False,
241,Experimen 4,False,0,True,True,001,1,1,False,False,False,False,111,False,0.0-257.0,True,2,4150,[1],stimuli/1001111.jpg,656738,prediction_trial,282,image-keyboard-response,False,
241,Experimen 4,False,0,False,False,110,0,1,False,False,False,False,101,False,0.0-259.0,True,2,3743,"[0, 1]",stimuli/0110101.jpg,661299,prediction_trial,284,image-keyboard-response,False,
241,Experimen 4,False,0,False,False,110,3,1,False,False,True,True,011,False,0.0-261.0,False,0,3142,"[0, 1]",stimuli/3110011.jpg,665495,prediction_trial,286,image-keyboard-response,True,
241,Experimen 4,True,1,False,True,100,0,0,False,True,True,True,010,True,0.0-263.0,False,0,3735,[0],stimuli/0100010.jpg,669683,prediction_trial,288,image-keyboard-response,False,
241,Experimen 4,False,0,False,False,011,2,2,False,False,False,False,111,False,0.0-265.0,True,0,4359,"[1, 2]",stimuli/2011111.jpg,674673,prediction_trial,290,image-keyboard-response,False,
241,Experimen 4,True,1,True,True,010,0,0,False,False,False,False,110,False,0.0-267.0,True,0,1417,[0],stimuli/0010110.jpg,676539,prediction_trial,292,image-keyboard-response,False,
241,Experimen 4,False,0,False,False,110,3,1,False,False,True,True,111,False,0.0-269.0,False,2,1050,"[0, 1]",stimuli/3110111.jpg,677961,prediction_trial,294,image-keyboard-response,True,
241,Experimen 4,True,1,True,True,110,2,2,True,True,True,True,100,True,0.0-271.0,False,2,1685,[2],stimuli/2110100.jpg,680459,prediction_trial,296,image-keyboard-response,False,
241,Experimen 4,True,1,True,True,001,1,1,False,False,False,False,011,False,0.0-273.0,True,1,1789,[1],stimuli/1001011.jpg,682623,prediction_trial,298,image-keyboard-response,False,
241,Experimen 4,False,0,False,True,100,0,0,False,False,False,False,110,False,0.0-275.0,True,1,1467,[0],stimuli/0100110.jpg,684557,prediction_trial,300,image-keyboard-response,False,
241,Experimen 4,False,0,True,True,010,2,2,False,False,False,False,101,False,0.0-277.0,True,0,3191,[2],stimuli/2010101.jpg,688163,prediction_trial,302,image-keyboard-response,False,
241,Experimen 4,True,1,True,True,010,0,0,True,True,True,True,010,True,0.0-279.0,False,0,1060,[0],stimuli/0010010.jpg,689639,prediction_trial,304,image-keyboard-response,False,
241,Experimen 4,True,1,False,False,101,2,2,False,False,True,True,100,True,0.0-281.0,False,2,3164,"[2, 0]",stimuli/2101100.jpg,693179,prediction_trial,306,image-keyboard-response,False,
241,Experimen 4,True,1,False,False,110,1,1,False,False,False,False,110,False,0.0-283.0,True,1,2797,"[0, 1]",stimuli/1110110.jpg,696390,prediction_trial,308,image-keyboard-response,False,
241,Experimen 4,False,0,False,True,001,2,2,False,False,False,False,101,False,0.0-285.0,True,0,2084,[2],stimuli/2001101.jpg,698874,prediction_trial,310,image-keyboard-response,False,
241,Experimen 4,True,1,False,True,010,1,1,False,False,False,False,111,False,0.0-287.0,True,1,2213,[1],stimuli/1010111.jpg,701486,prediction_trial,312,image-keyboard-response,False,
241,Experimen 4,True,1,False,False,101,0,0,False,False,False,False,110,False,0.0-289.0,True,0,1685,"[2, 0]",stimuli/0101110.jpg,703477,prediction_trial,314,image-keyboard-response,False,
241,Experimen 4,True,1,False,False,011,3,1,False,False,True,True,110,False,0.0-291.0,False,1,1820,"[1, 2]",stimuli/3011110.jpg,705647,prediction_trial,316,image-keyboard-response,True,
241,Experimen 4,False,0,True,True,011,0,0,False,False,False,False,110,False,0.0-293.0,True,1,1881,[0],stimuli/0011110.jpg,707892,prediction_trial,318,image-keyboard-response,False,
241,Experimen 4,True,1,True,True,001,0,0,True,True,True,True,000,True,0.0-295.0,False,0,808,[0],stimuli/0001000.jpg,709039,prediction_trial,320,image-keyboard-response,False,
241,Experimen 4,True,1,False,True,010,3,1,False,True,True,True,101,False,0.0-297.0,False,1,1797,[1],stimuli/3010101.jpg,711198,prediction_trial,322,image-keyboard-response,True,
241,Experimen 4,True,1,False,True,100,0,0,False,False,False,False,111,False,0.0-299.0,True,0,4134,[0],stimuli/0100111.jpg,715670,prediction_trial,324,image-keyboard-response,False,
241,Experimen 4,False,0,False,True,010,3,1,False,True,True,True,011,False,0.0-301.0,False,2,1348,[1],stimuli/3010011.jpg,717583,prediction_trial,326,image-keyboard-response,True,
241,Experimen 4,True,1,False,False,101,3,0,False,False,True,True,101,False,0.0-303.0,False,0,1563,"[0, 2]",stimuli/3101101.jpg,719540,prediction_trial,328,image-keyboard-response,True,
241,Experimen 4,False,0,False,False,111,2,2,False,False,False,False,011,True,0.0-305.0,False,1,1734,"[2, 0, 1]",stimuli/2111011.jpg,721625,prediction_trial,330,image-keyboard-response,False,
241,Experimen 4,True,1,True,True,100,2,2,False,False,False,False,101,False,0.0-307.0,True,2,1677,[2],stimuli/2100101.jpg,723769,prediction_trial,332,image-keyboard-response,False,
241,Experimen 4,True,1,False,True,001,3,2,False,True,True,True,111,False,0.0-309.0,False,2,3201,[2],stimuli/3001111.jpg,727292,prediction_trial,334,image-keyboard-response,True,
241,Experimen 4,True,1,False,True,001,3,2,False,True,True,True,011,False,0.0-311.0,False,2,1372,[2],stimuli/3001011.jpg,729227,prediction_trial,336,image-keyboard-response,True,
241,Experimen 4,False,0,False,False,110,0,1,False,False,True,True,011,True,0.0-313.0,False,0,3017,"[0, 1]",stimuli/0110011.jpg,732553,prediction_trial,338,image-keyboard-response,False,
241,Experimen 4,False,0,False,False,101,2,2,False,False,False,False,011,False,0.0-315.0,True,1,2228,"[0, 2]",stimuli/2101011.jpg,735177,prediction_trial,340,image-keyboard-response,False,
241,Experimen 4,True,1,False,False,110,0,0,False,False,True,True,001,True,0.0-317.0,False,0,2511,"[0, 1]",stimuli/0110001.jpg,738080,prediction_trial,342,image-keyboard-response,False,
241,Experimen 4,True,1,False,False,111,0,0,False,False,False,True,100,True,0.0-319.0,False,0,2012,"[2, 0, 1]",stimuli/0111100.jpg,740462,prediction_trial,344,image-keyboard-response,False,
241,Experimen 4,True,1,False,True,001,3,2,False,True,True,True,011,False,0.0-321.0,False,2,3703,[2],stimuli/3001011.jpg,744541,prediction_trial,346,image-keyboard-response,True,
241,Experimen 4,False,0,False,False,011,3,1,False,False,True,True,111,False,0.0-323.0,False,2,1396,"[2, 1]",stimuli/3011111.jpg,746245,prediction_trial,348,image-keyboard-response,True,
241,Experimen 4,True,1,False,False,101,3,2,False,False,True,True,011,False,0.0-325.0,False,2,2368,"[0, 2]",stimuli/3101011.jpg,748939,prediction_trial,350,image-keyboard-response,True,
241,Experimen 4,True,1,False,False,111,2,2,False,False,True,True,110,True,0.0-327.0,False,2,3103,"[2, 1, 0]",stimuli/2111110.jpg,752254,prediction_trial,352,image-keyboard-response,False,
251,Experimen 4,False,0,True,True,011,0,0,False,False,False,False,101,False,0.0-5.0,True,2,1864,[0],stimuli/0011101.jpg,107511,prediction_trial,30,image-keyboard-response,False,
251,Experimen 4,False,0,True,True,001,1,1,False,False,False,False,011,False,0.0-7.0,True,2,2591,[1],stimuli/1001011.jpg,112529,prediction_trial,32,image-keyboard-response,False,
251,Experimen 4,False,0,True,True,000,0,0,False,False,False,False,110,True,0.0-9.0,False,1,1676,[0],stimuli/0000110.jpg,114786,prediction_trial,34,image-keyboard-response,False,
251,Experimen 4,True,1,False,False,011,2,2,False,False,False,True,001,True,0.0-11.0,False,2,1470,"[1, 2]",stimuli/2011001.jpg,116909,prediction_trial,36,image-keyboard-response,False,
251,Experimen 4,True,1,True,True,100,1,1,False,False,False,False,111,False,0.0-13.0,True,1,2123,[1],stimuli/1100111.jpg,119660,prediction_trial,38,image-keyboard-response,False,
251,Experimen 4,True,1,False,False,011,3,2,False,False,True,True,111,False,0.0-15.0,False,2,1420,"[2, 1]",stimuli/3011111.jpg,121687,prediction_trial,40,image-keyboard-response,True,
251,Experimen 4,True,1,False,False,011,1,1,False,False,True,True,101,True,0.0-17.0,False,1,2612,"[2, 1]",stimuli/1011101.jpg,124790,prediction_trial,42,image-keyboard-response,False,
251,Experimen 4,True,1,True,True,000,2,2,True,True,True,True,100,True,0.0-19.0,False,2,984,[2],stimuli/2000100.jpg,126309,prediction_trial,44,image-keyboard-response,False,
251,Experimen 4,True,1,False,True,010,3,1,False,True,True,True,011,False,0.0-21.0,False,1,1261,[1],stimuli/3010011.jpg,127837,prediction_trial,46,image-keyboard-response,True,
251,Experimen 4,True,1,True,True,100,2,2,False,False,False,False,101,False,0.0-23.0,True,2,1480,[2],stimuli/2100101.jpg,129949,prediction_trial,48,image-keyboard-response,False,
251,Experimen 4,True,1,True,True,010,2,2,False,True,False,True,001,True,0.0-25.0,False,2,1155,[2],stimuli/2010001.jpg,131626,prediction_trial,50,image-keyboard-response,False,
251,Experimen 4,False,0,False,False,011,1,2,False,False,False,False,011,False,0.0-27.0,True,1,1368,"[1, 2]",stimuli/1011011.jpg,133426,prediction_trial,52,image-keyboard-response,False,
251,Experimen 4,False,0,False,False,011,1,2,False,False,False,False,110,False,0.0-29.0,True,0,1172,"[1, 2]",stimuli/1011110.jpg,135069,prediction_trial,54,image-keyboard-response,False,
251,Experimen 4,True,1,False,False,110,0,0,False,False,False,False,101,False,0.0-31.0,True,0,2442,"[0, 1]",stimuli/0110101.jpg,138037,prediction_trial,56,image-keyboard-response,False,
251,Experimen 4,True,1,False,True,001,2,2,False,True,False,True,001,True,0.0-33.0,False,2,867,[2],stimuli/2001001.jpg,139328,prediction_trial,58,image-keyboard-response,False,
251,Experimen 4,False,0,False,False,011,3,2,False,False,True,True,111,False,0.0-35.0,False,1,1314,"[2, 1]",stimuli/3011111.jpg,141016,prediction_trial,60,image-keyboard-response,True,
251,Experimen 4,False,0,False,True,001,3,2,False,True,True,True,101,False,0.0-37.0,False,0,1248,[2],stimuli/3001101.jpg,142773,prediction_trial,62,image-keyboard-response,True,
251,Experimen 4,False,0,False,True,100,0,0,False,False,False,False,110,False,0.0-39.0,True,1,2101,[0],stimuli/0100110.jpg,145477,prediction_trial,64,image-keyboard-response,False,
251,Experimen 4,False,0,False,False,101,3,0,False,False,True,True,011,False,0.0-41.0,False,2,1423,"[2, 0]",stimuli/3101011.jpg,147344,prediction_trial,66,image-keyboard-response,True,
251,Experimen 4,True,1,False,True,100,0,0,False,False,False,False,111,False,0.0-43.0,True,0,1003,[0],stimuli/0100111.jpg,149113,prediction_trial,68,image-keyboard-response,False,
251,Experimen 4,True,1,False,False,011,3,2,False,False,True,True,101,False,0.0-45.0,False,2,1084,"[2, 1]",stimuli/3011101.jpg,150637,prediction_trial,70,image-keyboard-response,True,
251,Experimen 4,True,1,True,True,000,0,0,True,True,True,True,011,True,0.0-47.0,False,0,1305,[0],stimuli/0000011.jpg,152512,prediction_trial,72,image-keyboard-response,False,
251,Experimen 4,True,1,True,True,000,0,0,True,True,True,True,000,True,0.0-49.0,False,0,736,[0],stimuli/0000000.jpg,153536,prediction_trial,74,image-keyboard-response,False,
251,Experimen 4,True,1,True,True,001,1,1,True,True,True,True,001,True,0.0-51.0,False,1,642,[1],stimuli/1001001.jpg,154509,prediction_trial,76,image-keyboard-response,False,
251,Experimen 4,True,1,True,True,100,2,2,True,True,True,True,100,True,0.0-53.0,False,2,605,[2],stimuli/2100100.jpg,155427,prediction_trial,78,image-keyboard-response,False,
251,Experimen 4,True,1,True,True,101,1,1,False,False,False,False,011,False,0.0-55.0,True,1,2282,[1],stimuli/1101011.jpg,158008,prediction_trial,80,image-keyboard-response,False,
251,Experimen 4,True,1,True,True,011,0,0,False,False,False,False,111,False,0.0-57.0,True,0,1646,[0],stimuli/0011111.jpg,160087,prediction_trial,82,image-keyboard-response,False,
251,Experimen 4,True,1,False,True,010,3,1,False,True,True,True,110,False,0.0-59.0,False,1,1575,[1],stimuli/3010110.jpg,162091,prediction_trial,84,image-keyboard-response,True,
251,Experimen 4,True,1,False,False,111,2,0,False,False,False,False,111,True,0.0-61.0,False,0,1603,"[0, 2, 1]",stimuli/2111111.jpg,164255,prediction_trial,86,image-keyboard-response,False,
251,Experimen 4,False,0,False,False,101,3,0,False,False,True,True,101,False,0.0-63.0,False,2,1893,"[0, 2]",stimuli/3101101.jpg,166605,prediction_trial,88,image-keyboard-response,True,
251,Experimen 4,False,0,False,False,111,0,2,False,False,True,True,010,True,0.0-65.0,False,1,1572,"[0, 1, 2]",stimuli/0111010.jpg,168646,prediction_trial,90,image-keyboard-response,False,
251,Experimen 4,False,0,True,True,100,2,2,False,False,False,False,111,False,0.0-67.0,True,0,1736,[2],stimuli/2100111.jpg,170857,prediction_trial,92,image-keyboard-response,False,
251,Experimen 4,False,0,False,False,011,2,2,False,False,True,True,010,True,0.0-69.0,False,1,1466,"[1, 2]",stimuli/2011010.jpg,172749,prediction_trial,94,image-keyboard-response,False,
251,Experimen 4,True,1,False,True,100,3,0,False,True,True,True,111,False,0.0-71.0,False,0,1528,[0],stimuli/3100111.jpg,174706,prediction_trial,96,image-keyboard-response,True,
251,Experimen 4,True,1,True,True,010,0,0,False,False,False,False,101,False,0.0-73.0,True,0,2095,[0],stimuli/0010101.jpg,177208,prediction_trial,98,image-keyboard-response,False,
251,Experimen 4,True,1,False,False,101,3,0,False,False,True,True,110,False,0.0-75.0,False,0,1774,"[0, 2]",stimuli/3101110.jpg,179429,prediction_trial,100,image-keyboard-response,True,
251,Experimen 4,True,1,True,True,001,0,0,True,True,True,True,011,True,0.0-77.0,False,0,931,[0],stimuli/0001011.jpg,180768,prediction_trial,102,image-keyboard-response,False,
251,Experimen 4,True,1,False,False,111,2,2,False,False,True,True,010,True,0.0-79.0,False,2,1863,"[2, 1, 0]",stimuli/2111010.jpg,183007,prediction_trial,104,image-keyboard-response,False,
251,Experimen 4,True,1,True,True,100,1,1,False,False,False,False,011,False,0.0-81.0,True,1,1695,[1],stimuli/1100011.jpg,185363,prediction_trial,106,image-keyboard-response,False,
251,Experimen 4,False,0,False,False,101,3,2,False,False,True,True,101,False,0.0-83.0,False,0,1375,"[0, 2]",stimuli/3101101.jpg,187128,prediction_trial,108,image-keyboard-response,True,
251,Experimen 4,False,0,True,True,010,2,2,False,False,False,False,011,False,0.0-85.0,True,1,1650,[2],stimuli/2010011.jpg,189202,prediction_trial,110,image-keyboard-response,False,
251,Experimen 4,True,1,True,True,000,1,1,True,True,True,True,000,True,0.0-87.0,False,1,881,[1],stimuli/1000000.jpg,190550,prediction_trial,112,image-keyboard-response,False,
251,Experimen 4,False,0,False,False,110,3,0,False,False,True,True,011,False,0.0-89.0,False,1,2026,"[0, 1]",stimuli/3110011.jpg,192948,prediction_trial,114,image-keyboard-response,True,
251,Experimen 4,True,1,False,True,010,3,1,False,True,True,True,111,False,0.0-91.0,False,1,1059,[1],stimuli/3010111.jpg,194538,prediction_trial,116,image-keyboard-response,True,
251,Experimen 4,True,1,False,True,001,3,2,False,True,True,True,101,False,0.0-93.0,False,2,915,[2],stimuli/3001101.jpg,195834,prediction_trial,118,image-keyboard-response,True,
251,Experimen 4,True,1,False,True,001,2,2,False,False,False,False,101,False,0.0-95.0,True,2,1072,[2],stimuli/2001101.jpg,197317,prediction_trial,120,image-keyboard-response,False,
251,Experimen 4,True,1,True,True,001,0,0,True,True,True,True,010,True,0.0-97.0,False,0,842,[0],stimuli/0001010.jpg,198590,prediction_trial,122,image-keyboard-response,False,
251,Experimen 4,True,1,False,True,001,3,2,False,True,True,True,011,False,0.0-99.0,False,2,2082,[2],stimuli/3001011.jpg,201027,prediction_trial,124,image-keyboard-response,True,
251,Experimen 4,True,1,False,True,100,3,0,False,True,True,True,111,False,0.0-101.0,False,0,1769,[0],stimuli/3100111.jpg,203216,prediction_trial,126,image-keyboard-response,True,
251,Experimen 4,True,1,True,True,110,2,2,True,True,True,True,000,True,0.0-103.0,False,2,980,[2],stimuli/2110000.jpg,204556,prediction_trial,128,image-keyboard-response,False,
251,Experimen 4,True,1,True,True,100,1,1,True,True,True,True,100,True,0.0-105.0,False,1,574,[1],stimuli/1100100.jpg,205472,prediction_trial,130,image-keyboard-response,False,
251,Experimen 4,False,0,False,False,110,0,0,False,False,False,False,110,False,0.0-107.0,True,1,1187,"[1, 0]",stimuli/0110110.jpg,207000,prediction_trial,132,image-keyboard-response,False,
251,Experimen 4,False,0,False,False,101,2,2,False,False,False,False,111,False,0.0-109.0,True,0,1845,"[2, 0]",stimuli/2101111.jpg,209300,prediction_trial,134,image-keyboard-response,False,
251,Experimen 4,False,0,False,False,111,0,1,False,False,False,False,110,True,0.0-111.0,False,0,1565,"[1, 0, 2]",stimuli/0111110.jpg,211366,prediction_trial,136,image-keyboard-response,False,
251,Experimen 4,False,0,True,True,101,1,1,False,False,False,False,110,False,0.0-113.0,True,0,1950,[1],stimuli/1101110.jpg,213759,prediction_trial,138,image-keyboard-response,False,
251,Experimen 4,False,0,False,False,111,0,0,False,False,False,False,111,True,0.0-115.0,False,1,681,"[0, 1, 2]",stimuli/0111111.jpg,214872,prediction_trial,140,image-keyboard-response,False,
251,Experimen 4,True,1,True,True,010,0,0,False,True,False,True,100,True,0.0-117.0,False,0,1265,[0],stimuli/0010100.jpg,216606,prediction_trial,142,image-keyboard-response,False,
251,Experimen 4,True,1,False,True,001,3,2,False,True,True,True,111,False,0.0-119.0,False,2,1052,[2],stimuli/3001111.jpg,218151,prediction_trial,144,image-keyboard-response,True,
251,Experimen 4,False,0,True,True,101,1,1,False,False,False,False,111,False,0.0-121.0,True,0,1519,[1],stimuli/1101111.jpg,220016,prediction_trial,146,image-keyboard-response,False,
251,Experimen 4,False,0,False,False,110,3,1,False,False,True,True,101,False,0.0-123.0,False,0,1447,"[1, 0]",stimuli/3110101.jpg,222052,prediction_trial,148,image-keyboard-response,True,
251,Experimen 4,True,1,False,True,010,3,1,False,True,True,True,011,False,0.0-125.0,False,1,1260,[1],stimuli/3010011.jpg,223737,prediction_trial,150,image-keyboard-response,True,
251,Experimen 4,True,1,True,True,001,1,1,False,False,False,False,110,False,0.0-127.0,True,1,2888,[1],stimuli/1001110.jpg,226991,prediction_trial,152,image-keyboard-response,False,
251,Experimen 4,False,0,False,False,101,0,0,False,False,False,False,111,False,0.0-129.0,True,1,1532,"[0, 2]",stimuli/0101111.jpg,228932,prediction_trial,154,image-keyboard-response,False,
251,Experimen 4,False,0,False,False,011,3,2,False,False,True,True,110,False,0.0-131.0,False,1,1240,"[2, 1]",stimuli/3011110.jpg,230643,prediction_trial,156,image-keyboard-response,True,
251,Experimen 4,True,1,True,True,100,1,1,False,True,False,True,010,True,0.0-133.0,False,1,1510,[1],stimuli/1100010.jpg,232596,prediction_trial,158,image-keyboard-response,False,
251,Experimen 4,False,0,True,True,000,0,0,False,False,False,False,111,True,0.0-135.0,False,2,1989,[0],stimuli/0000111.jpg,234998,prediction_trial,160,image-keyboard-response,False,
251,Experimen 4,False,0,True,True,100,2,2,False,False,False,False,011,False,0.0-137.0,True,1,1693,[2],stimuli/2100011.jpg,237136,prediction_trial,162,image-keyboard-response,False,
251,Experimen 4,True,1,False,True,010,3,1,False,True,True,True,101,False,0.0-139.0,False,1,1256,[1],stimuli/3010101.jpg,238873,prediction_trial,164,image-keyboard-response,True,
251,Experimen 4,False,0,True,True,110,2,2,False,False,False,False,111,False,0.0-141.0,True,0,886,[2],stimuli/2110111.jpg,240099,prediction_trial,166,image-keyboard-response,False,
251,Experimen 4,True,1,True,True,001,0,0,True,True,True,True,001,True,0.0-143.0,False,0,701,[0],stimuli/0001001.jpg,241237,prediction_trial,168,image-keyboard-response,False,
251,Experimen 4,False,0,False,False,110,0,0,False,False,False,False,111,False,0.0-145.0,True,2,1197,"[0, 1]",stimuli/0110111.jpg,242806,prediction_trial,170,image-keyboard-response,False,
251,Experimen 4,True,1,False,True,100,3,0,False,True,True,True,101,False,0.0-147.0,False,0,1388,[0],stimuli/3100101.jpg,244631,prediction_trial,172,image-keyboard-response,True,
251,Experimen 4,True,1,False,True,100,0,0,False,True,True,True,011,True,0.0-149.0,False,0,1498,[0],stimuli/0100011.jpg,246609,prediction_trial,174,image-keyboard-response,False,
251,Experimen 4,False,0,True,True,010,0,0,False,False,False,False,110,False,0.0-151.0,True,1,1483,[0],stimuli/0010110.jpg,248532,prediction_trial,176,image-keyboard-response,False,
251,Experimen 4,True,1,False,True,100,3,0,False,True,True,True,011,False,0.0-153.0,False,0,1800,[0],stimuli/3100011.jpg,250804,prediction_trial,178,image-keyboard-response,True,
251,Experimen 4,False,0,False,True,100,0,0,False,False,False,False,101,False,0.0-155.0,True,2,2509,[0],stimuli/0100101.jpg,253649,prediction_trial,180,image-keyboard-response,False,
251,Experimen 4,True,1,False,True,010,1,1,False,False,False,False,110,False,0.0-157.0,True,1,1648,[1],stimuli/1010110.jpg,255724,prediction_trial,182,image-keyboard-response,False,
251,Experimen 4,False,0,False,False,101,3,0,False,False,True,True,111,False,0.0-159.0,False,2,2016,"[0, 2]",stimuli/3101111.jpg,258175,prediction_trial,184,image-keyboard-response,True,
251,Experimen 4,True,1,False,True,010,1,1,False,False,False,False,011,False,0.0-161.0,True,1,1188,[1],stimuli/1010011.jpg,259784,prediction_trial,186,image-keyboard-response,False,
251,Experimen 4,True,1,False,True,010,1,1,False,False,False,False,111,False,0.0-163.0,True,1,1392,[1],stimuli/1010111.jpg,261587,prediction_trial,188,image-keyboard-response,False,
251,Experimen 4,False,0,True,True,001,1,1,False,False,False,False,111,False,0.0-165.0,True,2,2157,[1],stimuli/1001111.jpg,264216,prediction_trial,190,image-keyboard-response,False,
251,Experimen 4,True,1,True,True,010,2,2,False,False,False,False,101,False,0.0-167.0,True,2,2030,[2],stimuli/2010101.jpg,267042,prediction_trial,192,image-keyboard-response,False,
251,Experimen 4,True,1,False,True,001,3,2,False,True,True,True,110,False,0.0-169.0,False,2,1875,[2],stimuli/3001110.jpg,269312,prediction_trial,194,image-keyboard-response,True,
251,Experimen 4,True,1,False,False,011,3,1,False,False,True,True,110,False,0.0-171.0,False,1,2083,"[2, 1]",stimuli/3011110.jpg,271769,prediction_trial,196,image-keyboard-response,True,
251,Experimen 4,False,0,True,True,001,0,0,False,False,False,False,110,False,0.0-173.0,True,2,1196,[0],stimuli/0001110.jpg,273598,prediction_trial,198,image-keyboard-response,False,
251,Experimen 4,False,0,False,False,110,3,0,False,False,True,True,101,False,0.0-175.0,False,1,2589,"[1, 0]",stimuli/3110101.jpg,277310,prediction_trial,200,image-keyboard-response,True,
251,Experimen 4,True,1,False,False,011,2,1,False,False,False,False,111,False,0.0-177.0,True,1,1369,"[2, 1]",stimuli/2011111.jpg,279481,prediction_trial,202,image-keyboard-response,False,
251,Experimen 4,True,1,False,True,100,3,0,False,True,True,True,110,False,0.0-179.0,False,0,1343,[0],stimuli/3100110.jpg,281362,prediction_trial,204,image-keyboard-response,True,
251,Experimen 4,True,1,False,False,101,0,0,False,False,True,True,010,True,0.0-181.0,False,0,1223,"[2, 0]",stimuli/0101010.jpg,282898,prediction_trial,206,image-keyboard-response,False,
251,Experimen 4,True,1,True,True,000,2,2,True,True,True,True,000,True,0.0-183.0,False,2,789,[2],stimuli/2000000.jpg,284110,prediction_trial,208,image-keyboard-response,False,
251,Experimen 4,True,1,False,False,110,3,1,False,False,True,True,110,False,0.0-185.0,False,1,1276,"[0, 1]",stimuli/3110110.jpg,285758,prediction_trial,210,image-keyboard-response,True,
251,Experimen 4,True,1,False,True,001,3,2,False,True,True,True,011,False,0.0-187.0,False,2,1293,[2],stimuli/3001011.jpg,287586,prediction_trial,212,image-keyboard-response,True,
251,Experimen 4,True,1,True,True,001,0,0,False,False,False,False,101,False,0.0-189.0,True,0,2416,[0],stimuli/0001101.jpg,290382,prediction_trial,214,image-keyboard-response,False,
251,Experimen 4,False,0,True,True,011,0,0,False,False,False,False,110,False,0.0-191.0,True,1,1587,[0],stimuli/0011110.jpg,292468,prediction_trial,216,image-keyboard-response,False,
251,Experimen 4,False,0,False,False,110,1,0,False,False,False,False,011,False,0.0-193.0,True,1,2041,"[1, 0]",stimuli/1110011.jpg,296954,prediction_trial,218,image-keyboard-response,False,
251,Experimen 4,True,1,False,True,010,3,1,False,True,True,True,101,False,0.0-195.0,False,1,1226,[1],stimuli/3010101.jpg,299195,prediction_trial,220,image-keyboard-response,True,
251,Experimen 4,False,0,False,False,101,2,0,False,False,False,False,011,False,0.0-197.0,True,1,2277,"[2, 0]",stimuli/2101011.jpg,301783,prediction_trial,222,image-keyboard-response,False,
251,Experimen 4,False,0,False,False,011,3,2,False,False,True,True,011,False,0.0-199.0,False,1,1512,"[1, 2]",stimuli/3011011.jpg,304444,prediction_trial,224,image-keyboard-response,True,
251,Experimen 4,True,1,False,True,001,3,2,False,True,True,True,111,False,0.0-201.0,False,2,1049,[2],stimuli/3001111.jpg,306120,prediction_trial,226,image-keyboard-response,True,
251,Experimen 4,True,1,False,True,001,2,2,False,True,True,True,000,True,0.0-203.0,False,2,777,[2],stimuli/2001000.jpg,307262,prediction_trial,228,image-keyboard-response,False,
251,Experimen 4,False,0,False,False,111,1,2,False,False,True,True,000,True,0.0-205.0,False,1,984,"[0, 2, 1]",stimuli/1111000.jpg,308618,prediction_trial,230,image-keyboard-response,False,
251,Experimen 4,True,1,False,False,110,1,0,False,False,False,False,111,False,0.0-207.0,True,0,1007,"[1, 0]",stimuli/1110111.jpg,310245,prediction_trial,232,image-keyboard-response,False,
251,Experimen 4,True,1,True,True,001,1,1,False,True,False,True,010,True,0.0-209.0,False,1,1850,[1],stimuli/1001010.jpg,312738,prediction_trial,234,image-keyboard-response,False,
251,Experimen 4,True,1,False,True,001,2,2,False,False,False,False,011,False,0.0-211.0,True,2,1169,[2],stimuli/2001011.jpg,314301,prediction_trial,236,image-keyboard-response,False,
251,Experimen 4,False,0,True,True,110,2,2,False,False,False,False,101,False,0.0-213.0,True,0,1374,[2],stimuli/2110101.jpg,316091,prediction_trial,238,image-keyboard-response,False,
251,Experimen 4,False,0,False,False,111,1,2,False,False,True,True,001,True,0.0-215.0,False,1,802,"[0, 1, 2]",stimuli/1111001.jpg,317325,prediction_trial,240,image-keyboard-response,False,
251,Experimen 4,True,1,False,False,011,3,1,False,False,True,True,101,False,0.0-217.0,False,1,2076,"[2, 1]",stimuli/3011101.jpg,319875,prediction_trial,242,image-keyboard-response,True,
251,Experimen 4,False,0,False,False,101,2,0,False,False,False,False,101,False,0.0-219.0,True,2,1438,"[0, 2]",stimuli/2101101.jpg,321858,prediction_trial,244,image-keyboard-response,False,
251,Experimen 4,False,0,False,False,011,2,1,False,False,False,False,101,False,0.0-221.0,True,0,1652,"[2, 1]",stimuli/2011101.jpg,323904,prediction_trial,246,image-keyboard-response,False,
251,Experimen 4,False,0,True,True,010,0,0,False,False,False,False,111,False,0.0-223.0,True,1,785,[0],stimuli/0010111.jpg,325742,prediction_trial,248,image-keyboard-response,False,
251,Experimen 4,True,1,False,True,001,3,2,False,True,True,True,110,False,0.0-225.0,False,2,1209,[2],stimuli/3001110.jpg,327396,prediction_trial,250,image-keyboard-response,True,
251,Experimen 4,True,1,False,True,010,3,1,False,True,True,True,111,False,0.0-227.0,False,1,888,[1],stimuli/3010111.jpg,328598,prediction_trial,252,image-keyboard-response,True,
251,Experimen 4,True,1,True,True,010,0,0,True,True,True,True,010,True,0.0-229.0,False,0,856,[0],stimuli/0010010.jpg,329804,prediction_trial,254,image-keyboard-response,False,
251,Experimen 4,False,0,True,True,000,2,2,False,False,False,False,101,True,0.0-231.0,False,0,1591,[2],stimuli/2000101.jpg,331727,prediction_trial,256,image-keyboard-response,False,
251,Experimen 4,False,0,True,True,010,2,2,False,False,False,False,111,False,0.0-233.0,True,1,1409,[2],stimuli/2010111.jpg,333602,prediction_trial,258,image-keyboard-response,False,
251,Experimen 4,False,0,False,False,101,0,2,False,False,True,True,000,True,0.0-235.0,False,0,809,"[0, 2]",stimuli/0101000.jpg,334841,prediction_trial,260,image-keyboard-response,False,
251,Experimen 4,False,0,False,False,110,3,0,False,False,True,True,011,False,0.0-237.0,False,1,1218,"[0, 1]",stimuli/3110011.jpg,336516,prediction_trial,262,image-keyboard-response,True,
251,Experimen 4,True,1,False,False,101,3,0,False,False,True,True,111,False,0.0-239.0,False,0,1172,"[0, 2]",stimuli/3101111.jpg,338174,prediction_trial,264,image-keyboard-response,True,
251,Experimen 4,False,0,True,True,110,2,2,False,False,False,False,011,False,0.0-241.0,True,1,1131,[2],stimuli/2110011.jpg,339838,prediction_trial,266,image-keyboard-response,False,
251,Experimen 4,False,0,False,False,011,2,1,False,False,True,True,110,True,0.0-243.0,False,2,814,"[1, 2]",stimuli/2011110.jpg,341074,prediction_trial,268,image-keyboard-response,False,
251,Experimen 4,True,1,False,True,010,3,1,False,True,True,True,111,False,0.0-245.0,False,1,1154,[1],stimuli/3010111.jpg,342824,prediction_trial,270,image-keyboard-response,True,
251,Experimen 4,False,0,False,False,011,2,1,False,False,False,False,011,False,0.0-247.0,True,0,1348,"[1, 2]",stimuli/2011011.jpg,344504,prediction_trial,272,image-keyboard-response,False,
251,Experimen 4,True,1,False,True,100,3,0,False,True,True,True,110,False,0.0-249.0,False,0,787,[0],stimuli/3100110.jpg,345647,prediction_trial,274,image-keyboard-response,True,
251,Experimen 4,True,1,False,False,101,2,2,False,False,True,True,110,True,0.0-251.0,False,2,564,"[0, 2]",stimuli/2101110.jpg,346710,prediction_trial,276,image-keyboard-response,False,
251,Experimen 4,False,0,False,False,011,3,1,False,False,True,True,011,False,0.0-253.0,False,2,1424,"[1, 2]",stimuli/3011011.jpg,348699,prediction_trial,278,image-keyboard-response,True,
251,Experimen 4,False,0,True,True,001,0,0,False,False,False,False,111,False,0.0-255.0,True,2,718,[0],stimuli/0001111.jpg,349835,prediction_trial,280,image-keyboard-response,False,
251,Experimen 4,True,1,False,False,101,0,0,False,False,False,False,101,False,0.0-257.0,True,0,708,"[2, 0]",stimuli/0101101.jpg,350975,prediction_trial,282,image-keyboard-response,False,
251,Experimen 4,True,1,False,True,001,3,2,False,True,True,True,111,False,0.0-259.0,False,2,1379,[2],stimuli/3001111.jpg,352794,prediction_trial,284,image-keyboard-response,True,
251,Experimen 4,False,0,True,True,000,1,1,False,False,False,False,111,True,0.0-261.0,False,0,1666,[1],stimuli/1000111.jpg,354856,prediction_trial,286,image-keyboard-response,False,
251,Experimen 4,True,1,False,True,100,0,0,False,True,True,True,010,True,0.0-263.0,False,0,2356,[0],stimuli/0100010.jpg,357726,prediction_trial,288,image-keyboard-response,False,
251,Experimen 4,True,1,False,True,010,3,1,False,True,True,True,110,False,0.0-265.0,False,1,1119,[1],stimuli/3010110.jpg,359238,prediction_trial,290,image-keyboard-response,True,
251,Experimen 4,True,1,True,True,101,1,1,True,True,True,True,000,True,0.0-267.0,False,1,745,[1],stimuli/1101000.jpg,360367,prediction_trial,292,image-keyboard-response,False,
251,Experimen 4,True,1,True,True,100,1,1,True,True,True,True,101,True,0.0-269.0,False,1,545,[1],stimuli/1100101.jpg,361261,prediction_trial,294,image-keyboard-response,False,
251,Experimen 4,False,0,False,False,110,3,1,False,False,True,True,111,False,0.0-271.0,False,0,1209,"[0, 1]",stimuli/3110111.jpg,362854,prediction_trial,296,image-keyboard-response,True,
251,Experimen 4,True,1,True,True,000,1,1,True,True,True,True,001,True,0.0-273.0,False,1,651,[1],stimuli/1000001.jpg,364143,prediction_trial,298,image-keyboard-response,False,
251,Experimen 4,False,0,False,False,101,2,0,False,False,True,True,100,True,0.0-275.0,False,2,491,"[2, 0]",stimuli/2101100.jpg,364969,prediction_trial,300,image-keyboard-response,False,
251,Experimen 4,True,1,False,False,101,3,2,False,False,True,True,111,False,0.0-277.0,False,2,947,"[0, 2]",stimuli/3101111.jpg,366376,prediction_trial,302,image-keyboard-response,True,
251,Experimen 4,True,1,False,False,011,1,1,False,False,False,False,111,False,0.0-279.0,True,1,1410,"[1, 2]",stimuli/1011111.jpg,368387,prediction_trial,304,image-keyboard-response,False,
251,Experimen 4,True,1,False,False,110,1,0,False,False,False,False,110,False,0.0-281.0,True,0,1131,"[1, 0]",stimuli/1110110.jpg,370024,prediction_trial,306,image-keyboard-response,False,
251,Experimen 4,True,1,True,True,010,2,2,True,True,True,True,010,True,0.0-283.0,False,2,1129,[2],stimuli/2010010.jpg,371665,prediction_trial,308,image-keyboard-response,False,
251,Experimen 4,False,0,False,False,101,3,0,False,False,True,True,011,False,0.0-285.0,False,2,1632,"[2, 0]",stimuli/3101011.jpg,374029,prediction_trial,310,image-keyboard-response,True,
251,Experimen 4,True,1,True,True,100,2,2,True,True,True,True,010,True,0.0-287.0,False,2,689,[2],stimuli/2100010.jpg,375169,prediction_trial,312,image-keyboard-response,False,
251,Experimen 4,True,1,False,True,100,3,0,False,True,True,True,111,False,0.0-289.0,False,0,1589,[0],stimuli/3100111.jpg,377240,prediction_trial,314,image-keyboard-response,True,
251,Experimen 4,False,0,False,False,011,3,1,False,False,True,True,111,False,0.0-291.0,False,2,2005,"[2, 1]",stimuli/3011111.jpg,379735,prediction_trial,316,image-keyboard-response,True,
251,Experimen 4,True,1,False,True,100,3,0,False,True,True,True,011,False,0.0-293.0,False,0,1291,[0],stimuli/3100011.jpg,381517,prediction_trial,318,image-keyboard-response,True,
251,Experimen 4,True,1,True,True,010,0,0,True,True,True,True,001,True,0.0-295.0,False,0,743,[0],stimuli/0010001.jpg,382682,prediction_trial,320,image-keyboard-response,False,
251,Experimen 4,True,1,True,True,000,1,1,True,True,True,True,101,True,0.0-297.0,False,1,515,[1],stimuli/1000101.jpg,383583,prediction_trial,322,image-keyboard-response,False,
251,Experimen 4,False,0,False,False,101,0,2,False,False,False,False,110,False,0.0-299.0,True,1,1641,"[2, 0]",stimuli/0101110.jpg,385578,prediction_trial,324,image-keyboard-response,False,
251,Experimen 4,True,1,False,False,110,3,0,False,False,True,True,111,False,0.0-301.0,False,0,1119,"[0, 1]",stimuli/3110111.jpg,387125,prediction_trial,326,image-keyboard-response,True,
251,Experimen 4,True,1,True,True,010,2,2,True,True,True,True,110,True,0.0-303.0,False,2,715,[2],stimuli/2010110.jpg,388251,prediction_trial,328,image-keyboard-response,False,
251,Experimen 4,True,1,True,True,010,2,2,True,True,True,True,000,True,0.0-305.0,False,2,475,[2],stimuli/2010000.jpg,389118,prediction_trial,330,image-keyboard-response,False,
251,Experimen 4,False,0,False,False,110,3,1,False,False,True,True,111,False,0.0-307.0,False,0,918,"[0, 1]",stimuli/3110111.jpg,390410,prediction_trial,332,image-keyboard-response,True,
251,Experimen 4,False,0,True,True,100,1,1,False,False,False,False,110,False,0.0-309.0,True,0,899,[1],stimuli/1100110.jpg,392041,prediction_trial,334,image-keyboard-response,False,
251,Experimen 4,False,0,False,True,100,3,0,False,True,True,True,101,False,0.0-311.0,False,2,1874,[0],stimuli/3100101.jpg,394813,prediction_trial,336,image-keyboard-response,True,
251,Experimen 4,True,1,False,False,101,3,2,False,False,True,True,110,False,0.0-313.0,False,2,2026,"[0, 2]",stimuli/3101110.jpg,397341,prediction_trial,338,image-keyboard-response,True,
251,Experimen 4,True,1,False,False,111,0,0,False,False,True,True,000,True,0.0-315.0,False,0,689,"[0, 2, 1]",stimuli/0111000.jpg,398629,prediction_trial,340,image-keyboard-response,False,
251,Experimen 4,False,0,False,True,001,2,2,False,False,False,False,111,False,0.0-317.0,True,1,1483,[2],stimuli/2001111.jpg,400606,prediction_trial,342,image-keyboard-response,False,
251,Experimen 4,False,0,True,True,000,2,2,False,False,False,False,011,True,0.0-319.0,False,1,1255,[2],stimuli/2000011.jpg,402281,prediction_trial,344,image-keyboard-response,False,
251,Experimen 4,True,1,False,False,111,1,1,False,False,False,True,010,True,0.0-321.0,False,1,1089,"[2, 1, 0]",stimuli/1111010.jpg,404003,prediction_trial,346,image-keyboard-response,False,
251,Experimen 4,False,0,False,False,011,2,2,False,False,True,True,100,True,0.0-323.0,False,0,1063,"[1, 2]",stimuli/2011100.jpg,405599,prediction_trial,348,image-keyboard-response,False,
251,Experimen 4,True,1,True,True,101,1,1,False,True,False,True,010,True,0.0-325.0,False,1,1296,[1],stimuli/1101010.jpg,407657,prediction_trial,350,image-keyboard-response,False,
251,Experimen 4,False,0,False,False,110,3,1,False,False,True,True,110,False,0.0-327.0,False,0,1224,"[0, 1]",stimuli/3110110.jpg,409178,prediction_trial,352,image-keyboard-response,True,
277,Experimen 4,False,0,False,False,011,1,2,False,False,False,False,110,False,0.0-5.0,True,0,3689,"[1, 2]",stimuli/1011110.jpg,296276,prediction_trial,30,image-keyboard-response,False,
277,Experimen 4,True,1,False,False,101,0,0,False,False,True,True,001,True,0.0-7.0,False,0,4503,"[0, 2]",stimuli/0101001.jpg,306525,prediction_trial,32,image-keyboard-response,False,
277,Experimen 4,False,0,False,False,011,2,2,False,False,False,False,111,False,0.0-9.0,True,0,6727,"[1, 2]",stimuli/2011111.jpg,316573,prediction_trial,34,image-keyboard-response,False,
277,Experimen 4,True,1,False,True,100,3,0,False,True,True,True,110,False,0.0-11.0,False,0,3943,[0],stimuli/3100110.jpg,344036,prediction_trial,36,image-keyboard-response,True,
277,Experimen 4,True,1,False,False,011,1,1,False,False,True,True,001,True,0.0-13.0,False,1,63837,"[2, 1]",stimuli/1011001.jpg,409466,prediction_trial,38,image-keyboard-response,False,
277,Experimen 4,False,0,False,True,100,0,0,False,False,False,False,110,False,0.0-15.0,True,1,6151,[0],stimuli/0100110.jpg,417338,prediction_trial,40,image-keyboard-response,False,
277,Experimen 4,True,1,True,True,000,0,0,False,True,False,True,100,True,0.0-17.0,False,0,2822,[0],stimuli/0000100.jpg,421986,prediction_trial,42,image-keyboard-response,False,
277,Experimen 4,False,0,False,False,011,3,1,False,False,True,True,011,False,0.0-19.0,False,2,3126,"[2, 1]",stimuli/3011011.jpg,426842,prediction_trial,44,image-keyboard-response,True,
277,Experimen 4,True,1,False,True,100,3,0,False,True,True,True,011,False,0.0-21.0,False,0,7839,[0],stimuli/3100011.jpg,436938,prediction_trial,46,image-keyboard-response,True,
277,Experimen 4,False,0,False,False,101,3,0,False,False,True,True,111,False,0.0-23.0,False,2,3382,"[2, 0]",stimuli/3101111.jpg,446465,prediction_trial,48,image-keyboard-response,True,
277,Experimen 4,True,1,True,True,110,2,2,False,False,False,False,101,False,0.0-25.0,True,2,4390,[2],stimuli/2110101.jpg,452682,prediction_trial,50,image-keyboard-response,False,
277,Experimen 4,False,0,False,False,110,0,1,False,False,False,False,111,False,0.0-27.0,True,2,7031,"[1, 0]",stimuli/0110111.jpg,461274,prediction_trial,52,image-keyboard-response,False,
277,Experimen 4,False,0,False,False,101,0,2,False,False,True,True,010,True,0.0-29.0,False,0,3238,"[0, 2]",stimuli/0101010.jpg,466545,prediction_trial,54,image-keyboard-response,False,
277,Experimen 4,False,0,False,True,010,1,1,False,False,False,False,110,False,0.0-31.0,True,0,48093,[1],stimuli/1010110.jpg,585689,prediction_trial,56,image-keyboard-response,False,
277,Experimen 4,True,1,False,False,111,2,1,False,False,False,False,101,True,0.0-33.0,False,1,4231,"[1, 2, 0]",stimuli/2111101.jpg,593040,prediction_trial,58,image-keyboard-response,False,
277,Experimen 4,True,1,True,True,000,1,1,False,False,False,False,110,True,0.0-35.0,False,1,4766,[1],stimuli/1000110.jpg,599279,prediction_trial,60,image-keyboard-response,False,
277,Experimen 4,True,1,False,False,110,1,1,False,False,True,True,101,True,0.0-37.0,False,1,2910,"[0, 1]",stimuli/1110101.jpg,603631,prediction_trial,62,image-keyboard-response,False,
277,Experimen 4,True,1,False,False,110,0,0,False,False,True,True,000,True,0.0-39.0,False,0,1438,"[1, 0]",stimuli/0110000.jpg,606136,prediction_trial,64,image-keyboard-response,False,
277,Experimen 4,True,1,True,True,010,0,0,True,True,True,True,011,True,0.0-41.0,False,0,1815,[0],stimuli/0010011.jpg,609313,prediction_trial,66,image-keyboard-response,False,
277,Experimen 4,True,1,False,True,001,3,2,False,True,True,True,101,False,0.0-43.0,False,2,3935,[2],stimuli/3001101.jpg,614408,prediction_trial,68,image-keyboard-response,True,
277,Experimen 4,False,0,False,False,011,2,1,False,False,False,False,101,False,0.0-45.0,True,0,4151,"[2, 1]",stimuli/2011101.jpg,619920,prediction_trial,70,image-keyboard-response,False,
277,Experimen 4,False,0,False,False,101,0,0,False,False,False,False,101,False,0.0-47.0,True,2,4766,"[0, 2]",stimuli/0101101.jpg,650767,prediction_trial,72,image-keyboard-response,False,
277,Experimen 4,True,1,True,True,010,2,2,True,True,True,True,100,True,0.0-49.0,False,2,1911,[2],stimuli/2010100.jpg,655312,prediction_trial,74,image-keyboard-response,False,
277,Experimen 4,False,0,True,True,110,2,2,False,False,False,False,011,False,0.0-51.0,True,1,3366,[2],stimuli/2110011.jpg,661399,prediction_trial,76,image-keyboard-response,False,
277,Experimen 4,True,1,False,False,110,3,1,False,False,True,True,101,False,0.0-53.0,False,1,3351,"[1, 0]",stimuli/3110101.jpg,684463,prediction_trial,78,image-keyboard-response,True,
277,Experimen 4,True,1,False,True,100,0,0,False,False,False,False,101,False,0.0-55.0,True,0,2622,[0],stimuli/0100101.jpg,689671,prediction_trial,80,image-keyboard-response,False,
277,Experimen 4,True,1,False,False,111,2,1,False,False,True,True,010,True,0.0-57.0,False,1,2463,"[2, 0, 1]",stimuli/2111010.jpg,693335,prediction_trial,82,image-keyboard-response,False,
277,Experimen 4,False,0,True,True,010,2,2,False,False,False,False,101,False,0.0-59.0,True,0,26031,[2],stimuli/2010101.jpg,720679,prediction_trial,84,image-keyboard-response,False,
277,Experimen 4,False,0,True,True,000,2,2,False,False,False,False,111,True,0.0-61.0,False,1,10918,[2],stimuli/2000111.jpg,733326,prediction_trial,86,image-keyboard-response,False,
277,Experimen 4,True,1,False,False,110,3,0,False,False,True,True,111,False,0.0-63.0,False,0,14318,"[1, 0]",stimuli/3110111.jpg,749389,prediction_trial,88,image-keyboard-response,True,
277,Experimen 4,True,1,True,True,010,0,0,False,False,False,False,101,False,0.0-65.0,True,0,23862,[0],stimuli/0010101.jpg,774645,prediction_trial,90,image-keyboard-response,False,
277,Experimen 4,False,0,False,False,101,3,2,False,False,True,True,110,False,0.0-67.0,False,1,4031,"[2, 0]",stimuli/3101110.jpg,780070,prediction_trial,92,image-keyboard-response,True,
277,Experimen 4,True,1,False,False,111,2,1,False,False,False,False,011,True,0.0-69.0,False,1,1775,"[2, 0, 1]",stimuli/2111011.jpg,785165,prediction_trial,94,image-keyboard-response,False,
277,Experimen 4,True,1,True,True,101,1,1,True,True,True,True,101,True,0.0-71.0,False,1,1534,[1],stimuli/1101101.jpg,788813,prediction_trial,96,image-keyboard-response,False,
277,Experimen 4,True,1,False,True,010,3,1,False,True,True,True,101,False,0.0-73.0,False,1,2111,[1],stimuli/3010101.jpg,791806,prediction_trial,98,image-keyboard-response,True,
277,Experimen 4,False,0,False,False,111,0,0,False,False,False,False,110,True,0.0-75.0,False,1,1822,"[2, 1, 0]",stimuli/0111110.jpg,794469,prediction_trial,100,image-keyboard-response,False,
277,Experimen 4,True,1,False,True,010,1,1,False,False,False,False,111,False,0.0-77.0,True,1,2598,[1],stimuli/1010111.jpg,797989,prediction_trial,102,image-keyboard-response,False,
277,Experimen 4,True,1,True,True,101,1,1,True,True,True,True,000,True,0.0-79.0,False,1,1470,[1],stimuli/1101000.jpg,800509,prediction_trial,104,image-keyboard-response,False,
277,Experimen 4,True,1,True,True,001,0,0,True,True,True,True,001,True,0.0-81.0,False,0,1175,[0],stimuli/0001001.jpg,802518,prediction_trial,106,image-keyboard-response,False,
277,Experimen 4,True,1,True,True,001,0,0,False,False,False,False,101,False,0.0-83.0,True,0,2214,[0],stimuli/0001101.jpg,805461,prediction_trial,108,image-keyboard-response,False,
277,Experimen 4,True,1,False,True,010,3,1,False,True,True,True,111,False,0.0-85.0,False,1,2334,[1],stimuli/3010111.jpg,808717,prediction_trial,110,image-keyboard-response,True,
277,Experimen 4,True,1,False,False,110,0,1,False,False,False,True,100,True,0.0-87.0,False,1,2198,"[1, 0]",stimuli/0110100.jpg,811789,prediction_trial,112,image-keyboard-response,False,
277,Experimen 4,False,0,False,False,011,3,2,False,False,True,True,101,False,0.0-89.0,False,1,3583,"[1, 2]",stimuli/3011101.jpg,816357,prediction_trial,114,image-keyboard-response,True,
277,Experimen 4,True,1,False,False,011,3,2,False,False,True,True,011,False,0.0-91.0,False,2,2574,"[2, 1]",stimuli/3011011.jpg,820085,prediction_trial,116,image-keyboard-response,True,
277,Experimen 4,True,1,False,True,001,2,2,False,True,True,True,010,True,0.0-93.0,False,2,2359,[2],stimuli/2001010.jpg,823494,prediction_trial,118,image-keyboard-response,False,
277,Experimen 4,False,0,True,True,100,2,2,False,False,False,False,111,False,0.0-95.0,True,0,5094,[2],stimuli/2100111.jpg,829565,prediction_trial,120,image-keyboard-response,False,
277,Experimen 4,True,1,False,False,011,3,1,False,False,True,True,111,False,0.0-97.0,False,1,2903,"[2, 1]",stimuli/3011111.jpg,834390,prediction_trial,122,image-keyboard-response,True,
277,Experimen 4,False,0,False,False,101,3,2,False,False,True,True,011,False,0.0-99.0,False,0,3606,"[0, 2]",stimuli/3101011.jpg,838997,prediction_trial,124,image-keyboard-response,True,
277,Experimen 4,False,0,False,False,101,3,0,False,False,True,True,110,False,0.0-101.0,False,2,3086,"[2, 0]",stimuli/3101110.jpg,843117,prediction_trial,126,image-keyboard-response,True,
277,Experimen 4,True,1,False,True,010,3,1,False,True,True,True,110,False,0.0-103.0,False,1,3951,[1],stimuli/3010110.jpg,848029,prediction_trial,128,image-keyboard-response,True,
277,Experimen 4,False,0,False,True,001,2,2,False,False,False,False,111,False,0.0-105.0,True,1,3134,[2],stimuli/2001111.jpg,852261,prediction_trial,130,image-keyboard-response,False,
277,Experimen 4,True,1,False,True,001,3,2,False,True,True,True,101,False,0.0-107.0,False,2,3398,[2],stimuli/3001101.jpg,857229,prediction_trial,132,image-keyboard-response,True,
277,Experimen 4,True,1,False,True,010,1,1,False,True,False,True,010,True,0.0-109.0,False,1,3589,[1],stimuli/1010010.jpg,861789,prediction_trial,134,image-keyboard-response,False,
277,Experimen 4,True,1,True,True,010,2,2,False,False,False,False,011,False,0.0-111.0,True,2,3830,[2],stimuli/2010011.jpg,866517,prediction_trial,136,image-keyboard-response,False,
277,Experimen 4,True,1,False,True,010,1,1,False,True,True,True,000,True,0.0-113.0,False,1,1943,[1],stimuli/1010000.jpg,869853,prediction_trial,138,image-keyboard-response,False,
277,Experimen 4,True,1,False,False,101,2,2,False,False,True,True,000,True,0.0-115.0,False,2,2606,"[2, 0]",stimuli/2101000.jpg,873276,prediction_trial,140,image-keyboard-response,False,
277,Experimen 4,True,1,False,False,011,3,1,False,False,True,True,110,False,0.0-117.0,False,1,3622,"[2, 1]",stimuli/3011110.jpg,878460,prediction_trial,142,image-keyboard-response,True,
277,Experimen 4,True,1,False,True,010,1,1,False,True,True,True,001,True,0.0-119.0,False,1,410161,[1],stimuli/1010001.jpg,1289727,prediction_trial,144,image-keyboard-response,False,
277,Experimen 4,True,1,True,True,001,1,1,True,True,True,True,100,True,0.0-121.0,False,1,1270,[1],stimuli/1001100.jpg,1292263,prediction_trial,146,image-keyboard-response,False,
277,Experimen 4,False,0,False,False,110,3,0,False,False,True,True,011,False,0.0-123.0,False,2,1455,"[1, 0]",stimuli/3110011.jpg,1293943,prediction_trial,148,image-keyboard-response,True,
277,Experimen 4,True,1,True,True,000,0,0,True,True,True,True,000,True,0.0-125.0,False,0,1437,[0],stimuli/0000000.jpg,1295591,prediction_trial,150,image-keyboard-response,False,
277,Experimen 4,False,0,False,True,001,3,2,False,True,True,True,110,False,0.0-127.0,False,1,1630,[2],stimuli/3001110.jpg,1297399,prediction_trial,152,image-keyboard-response,True,
277,Experimen 4,True,1,False,False,110,3,1,False,False,True,True,110,False,0.0-129.0,False,1,3367,"[0, 1]",stimuli/3110110.jpg,1301000,prediction_trial,154,image-keyboard-response,True,
277,Experimen 4,False,0,True,True,100,2,2,False,False,False,False,011,False,0.0-131.0,True,0,3271,[2],stimuli/2100011.jpg,1304463,prediction_trial,156,image-keyboard-response,False,
277,Experimen 4,True,1,False,True,010,3,1,False,True,True,True,111,False,0.0-133.0,False,1,2911,[1],stimuli/3010111.jpg,1307519,prediction_trial,158,image-keyboard-response,True,
277,Experimen 4,False,0,False,False,011,2,2,False,False,False,False,011,False,0.0-135.0,True,1,3567,"[1, 2]",stimuli/2011011.jpg,1311264,prediction_trial,160,image-keyboard-response,False,
277,Experimen 4,False,0,False,False,110,1,1,False,False,False,False,111,False,0.0-137.0,True,2,2694,"[0, 1]",stimuli/1110111.jpg,1314135,prediction_trial,162,image-keyboard-response,False,
277,Experimen 4,True,1,True,True,100,1,1,False,False,False,False,110,False,0.0-139.0,True,1,1623,[1],stimuli/1100110.jpg,1315967,prediction_trial,164,image-keyboard-response,False,
277,Experimen 4,True,1,False,True,010,1,1,False,False,False,False,011,False,0.0-141.0,True,1,2774,[1],stimuli/1010011.jpg,1318943,prediction_trial,166,image-keyboard-response,False,
277,Experimen 4,True,1,False,True,010,3,1,False,True,True,True,111,False,0.0-143.0,False,1,1918,[1],stimuli/3010111.jpg,1320999,prediction_trial,168,image-keyboard-response,True,
277,Experimen 4,True,1,True,True,001,1,1,False,False,False,False,111,False,0.0-145.0,True,1,247932,[1],stimuli/1001111.jpg,1569101,prediction_trial,170,image-keyboard-response,False,
277,Experimen 4,True,1,False,True,100,0,0,False,True,True,True,011,True,0.0-147.0,False,0,3447,[0],stimuli/0100011.jpg,1572876,prediction_trial,172,image-keyboard-response,False,
277,Experimen 4,True,1,False,False,101,3,0,False,False,True,True,101,False,0.0-149.0,False,0,4422,"[0, 2]",stimuli/3101101.jpg,1577484,prediction_trial,174,image-keyboard-response,True,
277,Experimen 4,False,0,True,True,001,0,0,False,False,False,False,110,False,0.0-151.0,True,1,1887,[0],stimuli/0001110.jpg,1579532,prediction_trial,176,image-keyboard-response,False,
277,Experimen 4,True,1,True,True,101,1,1,False,False,False,False,111,False,0.0-153.0,True,1,2406,[1],stimuli/1101111.jpg,1582076,prediction_trial,178,image-keyboard-response,False,
277,Experimen 4,True,1,True,True,101,1,1,True,True,True,True,100,True,0.0-155.0,False,1,1094,[1],stimuli/1101100.jpg,1583323,prediction_trial,180,image-keyboard-response,False,
277,Experimen 4,True,1,True,True,110,2,2,False,False,False,False,111,False,0.0-157.0,True,2,1470,[2],stimuli/2110111.jpg,1584971,prediction_trial,182,image-keyboard-response,False,
277,Experimen 4,False,0,False,False,111,2,0,False,False,True,True,100,True,0.0-159.0,False,2,1614,"[0, 1, 2]",stimuli/2111100.jpg,1586739,prediction_trial,184,image-keyboard-response,False,
277,Experimen 4,True,1,True,True,100,1,1,False,False,False,False,011,False,0.0-161.0,True,1,1519,[1],stimuli/1100011.jpg,1588467,prediction_trial,186,image-keyboard-response,False,
277,Experimen 4,False,0,False,False,110,1,0,False,False,False,False,110,False,0.0-163.0,True,1,1575,"[0, 1]",stimuli/1110110.jpg,1590204,prediction_trial,188,image-keyboard-response,False,
277,Experimen 4,True,1,True,True,000,1,1,True,True,True,True,001,True,0.0-165.0,False,1,942,[1],stimuli/1000001.jpg,1591323,prediction_trial,190,image-keyboard-response,False,
277,Experimen 4,False,0,True,True,010,0,0,False,False,False,False,111,False,0.0-167.0,True,1,2494,[0],stimuli/0010111.jpg,1594027,prediction_trial,192,image-keyboard-response,False,
277,Experimen 4,True,1,False,False,110,3,1,False,False,True,True,111,False,0.0-169.0,False,1,3630,"[1, 0]",stimuli/3110111.jpg,1597851,prediction_trial,194,image-keyboard-response,True,
277,Experimen 4,True,1,False,True,010,3,1,False,True,True,True,011,False,0.0-171.0,False,1,2543,[1],stimuli/3010011.jpg,1600596,prediction_trial,196,image-keyboard-response,True,
277,Experimen 4,True,1,False,True,001,3,2,False,True,True,True,111,False,0.0-173.0,False,2,2487,[2],stimuli/3001111.jpg,1603459,prediction_trial,198,image-keyboard-response,True,
277,Experimen 4,True,1,False,False,110,1,1,False,False,False,False,011,False,0.0-175.0,True,1,3013,"[1, 0]",stimuli/1110011.jpg,1606723,prediction_trial,200,image-keyboard-response,False,
277,Experimen 4,False,0,False,False,101,3,2,False,False,True,True,011,False,0.0-177.0,False,1,2662,"[0, 2]",stimuli/3101011.jpg,1609771,prediction_trial,202,image-keyboard-response,True,
277,Experimen 4,True,1,False,True,001,3,2,False,True,True,True,111,False,0.0-179.0,False,2,2023,[2],stimuli/3001111.jpg,1612004,prediction_trial,204,image-keyboard-response,True,
277,Experimen 4,True,1,False,False,110,0,0,False,False,True,True,011,True,0.0-181.0,False,0,2422,"[0, 1]",stimuli/0110011.jpg,1614627,prediction_trial,206,image-keyboard-response,False,
277,Experimen 4,True,1,True,True,000,0,0,True,True,True,True,001,True,0.0-183.0,False,0,1326,[0],stimuli/0000001.jpg,1616203,prediction_trial,208,image-keyboard-response,False,
277,Experimen 4,True,1,True,True,101,1,1,False,False,False,False,011,False,0.0-185.0,True,1,2294,[1],stimuli/1101011.jpg,1618739,prediction_trial,210,image-keyboard-response,False,
277,Experimen 4,True,1,False,True,010,1,1,False,True,True,True,101,True,0.0-187.0,False,1,2254,[1],stimuli/1010101.jpg,1621187,prediction_trial,212,image-keyboard-response,False,
277,Experimen 4,True,1,False,True,100,3,0,False,True,True,True,101,False,0.0-189.0,False,0,2919,[0],stimuli/3100101.jpg,1624307,prediction_trial,214,image-keyboard-response,True,
277,Experimen 4,True,1,False,True,001,3,2,False,True,True,True,011,False,0.0-191.0,False,2,7462,[2],stimuli/3001011.jpg,1632027,prediction_trial,216,image-keyboard-response,True,
277,Experimen 4,True,1,True,True,010,2,2,False,True,False,True,001,True,0.0-193.0,False,2,2606,[2],stimuli/2010001.jpg,1634907,prediction_trial,218,image-keyboard-response,False,
277,Experimen 4,False,0,False,True,100,0,0,False,False,False,False,111,False,0.0-195.0,True,1,1310,[0],stimuli/0100111.jpg,1636443,prediction_trial,220,image-keyboard-response,False,
277,Experimen 4,False,0,False,False,101,0,0,False,False,False,False,111,False,0.0-197.0,True,2,1694,"[2, 0]",stimuli/0101111.jpg,1638339,prediction_trial,222,image-keyboard-response,False,
277,Experimen 4,True,1,False,False,011,3,1,False,False,True,True,111,False,0.0-199.0,False,1,2174,"[2, 1]",stimuli/3011111.jpg,1640722,prediction_trial,224,image-keyboard-response,True,
277,Experimen 4,True,1,False,False,011,1,2,False,False,False,False,011,False,0.0-201.0,True,2,2007,"[1, 2]",stimuli/1011011.jpg,1642915,prediction_trial,226,image-keyboard-response,False,
277,Experimen 4,False,0,False,False,111,1,2,False,False,False,False,111,True,0.0-203.0,False,1,1519,"[0, 2, 1]",stimuli/1111111.jpg,1644658,prediction_trial,228,image-keyboard-response,False,
277,Experimen 4,True,1,False,True,100,3,0,False,True,True,True,011,False,0.0-205.0,False,0,1767,[0],stimuli/3100011.jpg,1646627,prediction_trial,230,image-keyboard-response,True,
277,Experimen 4,True,1,False,False,011,3,2,False,False,True,True,101,False,0.0-207.0,False,2,2503,"[1, 2]",stimuli/3011101.jpg,1649370,prediction_trial,232,image-keyboard-response,True,
277,Experimen 4,True,1,True,True,001,1,1,False,False,False,False,110,False,0.0-209.0,True,1,3951,[1],stimuli/1001110.jpg,1653530,prediction_trial,234,image-keyboard-response,False,
277,Experimen 4,False,0,True,True,100,2,2,False,False,False,False,101,False,0.0-211.0,True,0,1981,[2],stimuli/2100101.jpg,1655786,prediction_trial,236,image-keyboard-response,False,
277,Experimen 4,True,1,True,True,001,1,1,True,True,True,True,000,True,0.0-213.0,False,1,1039,[1],stimuli/1001000.jpg,1657043,prediction_trial,238,image-keyboard-response,False,
277,Experimen 4,True,1,True,True,011,0,0,False,False,False,False,110,False,0.0-215.0,True,0,3022,[0],stimuli/0011110.jpg,1660314,prediction_trial,240,image-keyboard-response,False,
277,Experimen 4,True,1,False,True,100,3,0,False,True,True,True,111,False,0.0-217.0,False,0,1845,[0],stimuli/3100111.jpg,1662378,prediction_trial,242,image-keyboard-response,True,
277,Experimen 4,False,0,False,False,111,0,0,False,False,False,False,111,True,0.0-219.0,False,1,1503,"[1, 2, 0]",stimuli/0111111.jpg,1664074,prediction_trial,244,image-keyboard-response,False,
277,Experimen 4,False,0,False,False,101,2,0,False,False,False,False,011,False,0.0-221.0,True,1,3463,"[2, 0]",stimuli/2101011.jpg,1667843,prediction_trial,246,image-keyboard-response,False,
277,Experimen 4,False,0,False,False,101,0,2,False,False,True,True,000,True,0.0-223.0,False,0,1134,"[2, 0]",stimuli/0101000.jpg,1669250,prediction_trial,248,image-keyboard-response,False,
277,Experimen 4,False,0,False,False,101,3,0,False,False,True,True,101,False,0.0-225.0,False,2,3367,"[0, 2]",stimuli/3101101.jpg,1672850,prediction_trial,250,image-keyboard-response,True,
277,Experimen 4,False,0,False,False,110,0,1,False,False,False,False,101,False,0.0-227.0,True,2,1398,"[0, 1]",stimuli/0110101.jpg,1674554,prediction_trial,252,image-keyboard-response,False,
277,Experimen 4,False,0,False,False,101,2,0,False,False,False,False,111,False,0.0-229.0,True,1,1622,"[0, 2]",stimuli/2101111.jpg,1676418,prediction_trial,254,image-keyboard-response,False,
277,Experimen 4,False,0,True,True,100,1,1,False,False,False,False,111,False,0.0-231.0,True,0,1623,[1],stimuli/1100111.jpg,1678251,prediction_trial,256,image-keyboard-response,False,
277,Experimen 4,True,1,True,True,110,2,2,True,True,True,True,100,True,0.0-233.0,False,2,1215,[2],stimuli/2110100.jpg,1679658,prediction_trial,258,image-keyboard-response,False,
277,Experimen 4,True,1,False,False,011,1,1,False,False,False,True,010,True,0.0-235.0,False,1,2770,"[2, 1]",stimuli/1011010.jpg,1682650,prediction_trial,260,image-keyboard-response,False,
277,Experimen 4,True,1,False,True,010,3,1,False,True,True,True,101,False,0.0-237.0,False,1,1990,[1],stimuli/3010101.jpg,1685042,prediction_trial,262,image-keyboard-response,True,
277,Experimen 4,False,0,False,False,011,1,1,False,False,False,False,111,False,0.0-239.0,True,0,1126,"[2, 1]",stimuli/1011111.jpg,1686418,prediction_trial,264,image-keyboard-response,False,
277,Experimen 4,True,1,False,True,010,3,1,False,True,True,True,110,False,0.0-241.0,False,1,3215,[1],stimuli/3010110.jpg,1689931,prediction_trial,266,image-keyboard-response,True,
277,Experimen 4,True,1,True,True,000,1,1,False,False,False,False,111,True,0.0-243.0,False,1,3078,[1],stimuli/1000111.jpg,1693426,prediction_trial,268,image-keyboard-response,False,
277,Experimen 4,True,1,False,False,101,2,2,False,False,True,True,100,True,0.0-245.0,False,2,2493,"[2, 0]",stimuli/2101100.jpg,1696834,prediction_trial,270,image-keyboard-response,False,
277,Experimen 4,False,0,True,True,010,0,0,False,False,False,False,110,False,0.0-247.0,True,1,2767,[0],stimuli/0010110.jpg,1700379,prediction_trial,272,image-keyboard-response,False,
277,Experimen 4,True,1,False,True,100,3,0,False,True,True,True,110,False,0.0-249.0,False,0,1454,[0],stimuli/3100110.jpg,1702930,prediction_trial,274,image-keyboard-response,True,
277,Experimen 4,False,0,False,False,011,3,2,False,False,True,True,110,False,0.0-251.0,False,1,2574,"[2, 1]",stimuli/3011110.jpg,1705810,prediction_trial,276,image-keyboard-response,True,
277,Experimen 4,False,0,False,False,011,1,2,False,False,True,True,101,True,0.0-253.0,False,1,1806,"[2, 1]",stimuli/1011101.jpg,1708058,prediction_trial,278,image-keyboard-response,False,
277,Experimen 4,True,1,False,False,110,3,0,False,False,True,True,111,False,0.0-255.0,False,0,2175,"[1, 0]",stimuli/3110111.jpg,1710507,prediction_trial,280,image-keyboard-response,True,
277,Experimen 4,True,1,False,True,100,3,0,False,True,True,True,111,False,0.0-257.0,False,0,1910,[0],stimuli/3100111.jpg,1712802,prediction_trial,282,image-keyboard-response,True,
277,Experimen 4,True,1,False,True,010,3,1,False,True,True,True,011,False,0.0-259.0,False,1,1751,[1],stimuli/3010011.jpg,1714970,prediction_trial,284,image-keyboard-response,True,
277,Experimen 4,True,1,True,True,101,1,1,False,False,False,False,110,False,0.0-261.0,True,1,2630,[1],stimuli/1101110.jpg,1717978,prediction_trial,286,image-keyboard-response,False,
277,Experimen 4,False,0,False,False,110,3,0,False,False,True,True,110,False,0.0-263.0,False,1,1577,"[0, 1]",stimuli/3110110.jpg,1720354,prediction_trial,288,image-keyboard-response,True,
277,Experimen 4,True,1,False,False,110,0,1,False,False,False,False,110,False,0.0-265.0,True,1,1750,"[1, 0]",stimuli/0110110.jpg,1722746,prediction_trial,290,image-keyboard-response,False,
277,Experimen 4,False,0,False,False,101,2,0,False,False,True,True,110,True,0.0-267.0,False,2,2230,"[0, 2]",stimuli/2101110.jpg,1725538,prediction_trial,292,image-keyboard-response,False,
277,Experimen 4,False,0,False,False,110,0,1,False,False,True,True,010,True,0.0-269.0,False,0,2526,"[1, 0]",stimuli/0110010.jpg,1730482,prediction_trial,294,image-keyboard-response,False,
277,Experimen 4,True,1,False,True,001,2,2,False,False,False,False,011,False,0.0-271.0,True,2,4366,[2],stimuli/2001011.jpg,1736074,prediction_trial,296,image-keyboard-response,False,
277,Experimen 4,False,0,True,True,010,2,2,False,False,False,False,111,False,0.0-273.0,True,1,2254,[2],stimuli/2010111.jpg,1739090,prediction_trial,298,image-keyboard-response,False,
277,Experimen 4,False,0,True,True,001,0,0,False,False,False,False,111,False,0.0-275.0,True,1,1950,[0],stimuli/0001111.jpg,1742074,prediction_trial,300,image-keyboard-response,False,
277,Experimen 4,True,1,False,False,011,3,2,False,False,True,True,111,False,0.0-277.0,False,2,1782,"[2, 1]",stimuli/3011111.jpg,1744465,prediction_trial,302,image-keyboard-response,True,
277,Experimen 4,True,1,False,False,111,1,0,False,False,True,True,100,True,0.0-279.0,False,0,2182,"[1, 0, 2]",stimuli/1111100.jpg,1747161,prediction_trial,304,image-keyboard-response,False,
277,Experimen 4,False,0,False,False,101,2,0,False,False,False,False,101,False,0.0-281.0,True,2,2751,"[2, 0]",stimuli/2101101.jpg,1750505,prediction_trial,306,image-keyboard-response,False,
277,Experimen 4,False,0,False,False,111,0,0,False,False,False,False,101,True,0.0-283.0,False,2,1415,"[2, 0, 1]",stimuli/0111101.jpg,1752634,prediction_trial,308,image-keyboard-response,False,
277,Experimen 4,True,1,False,True,001,3,2,False,True,True,True,111,False,0.0-285.0,False,2,1462,[2],stimuli/3001111.jpg,1754641,prediction_trial,310,image-keyboard-response,True,
277,Experimen 4,True,1,False,False,101,3,2,False,False,True,True,111,False,0.0-287.0,False,2,2182,"[2, 0]",stimuli/3101111.jpg,1757345,prediction_trial,312,image-keyboard-response,True,
277,Experimen 4,True,1,True,True,010,0,0,True,True,True,True,001,True,0.0-289.0,False,0,1166,[0],stimuli/0010001.jpg,1759041,prediction_trial,314,image-keyboard-response,False,
277,Experimen 4,True,1,False,True,001,3,2,False,True,True,True,011,False,0.0-291.0,False,2,1511,[2],stimuli/3001011.jpg,1760865,prediction_trial,316,image-keyboard-response,True,
277,Experimen 4,True,1,False,True,100,3,0,False,True,True,True,111,False,0.0-293.0,False,0,1551,[0],stimuli/3100111.jpg,1762770,prediction_trial,318,image-keyboard-response,True,
277,Experimen 4,False,0,True,True,011,0,0,False,False,False,False,111,False,0.0-295.0,True,2,2111,[0],stimuli/0011111.jpg,1765241,prediction_trial,320,image-keyboard-response,False,
277,Experimen 4,False,0,False,False,101,0,2,False,False,False,False,110,False,0.0-297.0,True,0,2142,"[0, 2]",stimuli/0101110.jpg,1767801,prediction_trial,322,image-keyboard-response,False,
277,Experimen 4,True,1,False,False,110,1,1,False,False,True,True,000,True,0.0-299.0,False,1,2470,"[1, 0]",stimuli/1110000.jpg,1771937,prediction_trial,324,image-keyboard-response,False,
277,Experimen 4,True,1,True,True,110,2,2,True,True,True,True,110,True,0.0-301.0,False,2,1856,[2],stimuli/2110110.jpg,1774522,prediction_trial,326,image-keyboard-response,False,
277,Experimen 4,True,1,False,True,001,2,2,False,True,True,True,100,True,0.0-303.0,False,2,1734,[2],stimuli/2001100.jpg,1776609,prediction_trial,328,image-keyboard-response,False,
277,Experimen 4,True,1,False,False,101,3,2,False,False,True,True,111,False,0.0-305.0,False,2,1766,"[2, 0]",stimuli/3101111.jpg,1778768,prediction_trial,330,image-keyboard-response,True,
277,Experimen 4,True,1,False,True,100,3,0,False,True,True,True,101,False,0.0-307.0,False,0,1758,[0],stimuli/3100101.jpg,1780929,prediction_trial,332,image-keyboard-response,True,
277,Experimen 4,True,1,True,True,100,2,2,False,True,False,True,001,True,0.0-309.0,False,2,1854,[2],stimuli/2100001.jpg,1783169,prediction_trial,334,image-keyboard-response,False,
277,Experimen 4,True,1,False,False,110,3,0,False,False,True,True,101,False,0.0-311.0,False,0,2590,"[1, 0]",stimuli/3110101.jpg,1786241,prediction_trial,336,image-keyboard-response,True,
277,Experimen 4,True,1,True,True,001,0,0,False,True,False,True,100,True,0.0-313.0,False,0,1806,[0],stimuli/0001100.jpg,1788489,prediction_trial,338,image-keyboard-response,False,
277,Experimen 4,False,0,False,False,110,3,0,False,False,True,True,011,False,0.0-315.0,False,1,2942,"[1, 0]",stimuli/3110011.jpg,1791841,prediction_trial,340,image-keyboard-response,True,
277,Experimen 4,True,1,False,False,110,1,0,False,False,False,True,010,True,0.0-317.0,False,0,3959,"[0, 1]",stimuli/1110010.jpg,1796449,prediction_trial,342,image-keyboard-response,False,
277,Experimen 4,True,1,True,True,011,0,0,False,False,False,False,101,False,0.0-319.0,True,0,3022,[0],stimuli/0011101.jpg,1800161,prediction_trial,344,image-keyboard-response,False,
277,Experimen 4,False,0,False,True,001,2,2,False,False,False,False,101,False,0.0-321.0,True,0,1494,[2],stimuli/2001101.jpg,1802152,prediction_trial,346,image-keyboard-response,False,
277,Experimen 4,True,1,True,True,001,1,1,False,False,False,False,011,False,0.0-323.0,True,1,6807,[1],stimuli/1001011.jpg,1809625,prediction_trial,348,image-keyboard-response,False,
277,Experimen 4,True,1,True,True,100,2,2,True,True,True,True,100,True,0.0-325.0,False,2,1638,[2],stimuli/2100100.jpg,1811896,prediction_trial,350,image-keyboard-response,False,
277,Experimen 4,True,1,False,True,001,3,2,False,True,True,True,110,False,0.0-327.0,False,2,2679,[2],stimuli/3001110.jpg,1814920,prediction_trial,352,image-keyboard-response,True,
288,Experimen 4,False,0,True,True,000,2,2,False,False,False,False,111,True,0.0-5.0,False,1,2473,[2],stimuli/2000111.jpg,168188,prediction_trial,30,image-keyboard-response,False,
288,Experimen 4,False,0,False,False,101,3,2,False,False,True,True,111,False,0.0-7.0,False,1,1330,"[2, 0]",stimuli/3101111.jpg,172421,prediction_trial,32,image-keyboard-response,True,
288,Experimen 4,False,0,False,False,110,3,1,False,False,True,True,110,False,0.0-9.0,False,0,1408,"[0, 1]",stimuli/3110110.jpg,174544,prediction_trial,34,image-keyboard-response,True,
288,Experimen 4,True,1,False,False,011,1,1,False,False,False,False,011,False,0.0-11.0,True,1,925,"[2, 1]",stimuli/1011011.jpg,176195,prediction_trial,36,image-keyboard-response,False,
288,Experimen 4,True,1,True,True,101,1,1,True,True,True,True,100,True,0.0-13.0,False,1,840,[1],stimuli/1101100.jpg,177846,prediction_trial,38,image-keyboard-response,False,
288,Experimen 4,False,0,True,True,001,0,0,False,False,False,False,111,False,0.0-15.0,True,2,2390,[0],stimuli/0001111.jpg,180980,prediction_trial,40,image-keyboard-response,False,
288,Experimen 4,True,1,True,True,100,1,1,False,False,False,False,110,False,0.0-17.0,True,1,1778,[1],stimuli/1100110.jpg,183459,prediction_trial,42,image-keyboard-response,False,
288,Experimen 4,False,0,False,True,100,3,0,False,True,True,True,111,False,0.0-19.0,False,1,1131,[0],stimuli/3100111.jpg,185282,prediction_trial,44,image-keyboard-response,True,
288,Experimen 4,True,1,True,True,100,1,1,True,True,True,True,000,True,0.0-21.0,False,1,895,[1],stimuli/1100000.jpg,187049,prediction_trial,46,image-keyboard-response,False,
288,Experimen 4,True,1,False,True,100,0,0,False,False,False,False,101,False,0.0-23.0,True,0,2385,[0],stimuli/0100101.jpg,190116,prediction_trial,48,image-keyboard-response,False,
288,Experimen 4,False,0,True,True,001,1,1,False,False,False,False,110,False,0.0-25.0,True,2,1013,[1],stimuli/1001110.jpg,191811,prediction_trial,50,image-keyboard-response,False,
288,Experimen 4,True,1,False,True,100,0,0,False,False,False,False,111,False,0.0-27.0,True,0,1811,[0],stimuli/0100111.jpg,194524,prediction_trial,52,image-keyboard-response,False,
288,Experimen 4,True,1,False,False,101,2,2,False,False,False,False,101,False,0.0-29.0,True,2,1387,"[2, 0]",stimuli/2101101.jpg,196646,prediction_trial,54,image-keyboard-response,False,
288,Experimen 4,True,1,False,True,001,3,2,False,True,True,True,011,False,0.0-31.0,False,2,2365,[2],stimuli/3001011.jpg,199647,prediction_trial,56,image-keyboard-response,True,
288,Experimen 4,False,0,False,False,110,3,1,False,False,True,True,101,False,0.0-33.0,False,0,5013,"[0, 1]",stimuli/3110101.jpg,205243,prediction_trial,58,image-keyboard-response,True,
288,Experimen 4,True,1,True,True,010,2,2,False,False,False,False,111,False,0.0-35.0,True,2,4195,[2],stimuli/2010111.jpg,210027,prediction_trial,60,image-keyboard-response,False,
288,Experimen 4,True,1,True,True,100,1,1,True,True,True,True,101,True,0.0-37.0,False,1,925,[1],stimuli/1100101.jpg,211693,prediction_trial,62,image-keyboard-response,False,
288,Experimen 4,False,0,False,False,101,3,0,False,False,True,True,110,False,0.0-39.0,False,2,3512,"[2, 0]",stimuli/3101110.jpg,215731,prediction_trial,64,image-keyboard-response,True,
288,Experimen 4,True,1,False,True,010,3,1,False,True,True,True,101,False,0.0-41.0,False,1,2383,[1],stimuli/3010101.jpg,218908,prediction_trial,66,image-keyboard-response,True,
288,Experimen 4,True,1,False,True,001,3,2,False,True,True,True,111,False,0.0-43.0,False,2,2817,[2],stimuli/3001111.jpg,222300,prediction_trial,68,image-keyboard-response,True,
288,Experimen 4,True,1,False,True,001,2,2,False,False,False,False,111,False,0.0-45.0,True,2,849,[2],stimuli/2001111.jpg,223809,prediction_trial,70,image-keyboard-response,False,
288,Experimen 4,True,1,False,False,101,2,0,False,False,False,False,111,False,0.0-47.0,True,0,1482,"[2, 0]",stimuli/2101111.jpg,225768,prediction_trial,72,image-keyboard-response,False,
288,Experimen 4,True,1,False,False,110,3,1,False,False,True,True,110,False,0.0-49.0,False,1,5265,"[0, 1]",stimuli/3110110.jpg,232229,prediction_trial,74,image-keyboard-response,True,
288,Experimen 4,False,0,False,False,110,0,1,False,False,True,True,011,True,0.0-51.0,False,0,2991,"[1, 0]",stimuli/0110011.jpg,235885,prediction_trial,76,image-keyboard-response,False,
288,Experimen 4,True,1,True,True,001,1,1,False,False,False,False,011,False,0.0-53.0,True,1,2118,[1],stimuli/1001011.jpg,238815,prediction_trial,78,image-keyboard-response,False,
288,Experimen 4,False,0,False,False,111,0,2,False,False,True,True,001,True,0.0-55.0,False,0,3227,"[2, 1, 0]",stimuli/0111001.jpg,242569,prediction_trial,80,image-keyboard-response,False,
288,Experimen 4,True,1,False,False,101,3,2,False,False,True,True,111,False,0.0-57.0,False,2,2272,"[2, 0]",stimuli/3101111.jpg,245449,prediction_trial,82,image-keyboard-response,True,
288,Experimen 4,True,1,False,True,100,0,0,False,True,True,True,001,True,0.0-59.0,False,0,1590,[0],stimuli/0100001.jpg,247578,prediction_trial,84,image-keyboard-response,False,
288,Experimen 4,True,1,False,False,110,0,1,False,False,False,False,110,False,0.0-61.0,True,1,1274,"[1, 0]",stimuli/0110110.jpg,249519,prediction_trial,86,image-keyboard-response,False,
288,Experimen 4,False,0,False,False,110,3,1,False,False,True,True,101,False,0.0-63.0,False,0,1540,"[0, 1]",stimuli/3110101.jpg,251593,prediction_trial,88,image-keyboard-response,True,
288,Experimen 4,False,0,True,True,010,0,0,False,False,False,False,101,False,0.0-65.0,True,2,2317,[0],stimuli/0010101.jpg,254487,prediction_trial,90,image-keyboard-response,False,
288,Experimen 4,False,0,False,False,111,2,0,False,False,False,True,001,True,0.0-67.0,False,1,2901,"[2, 0, 1]",stimuli/2111001.jpg,258078,prediction_trial,92,image-keyboard-response,False,
288,Experimen 4,True,1,True,True,100,2,2,True,True,True,True,010,True,0.0-69.0,False,2,893,[2],stimuli/2100010.jpg,259602,prediction_trial,94,image-keyboard-response,False,
288,Experimen 4,True,1,False,True,010,1,1,False,False,False,False,011,False,0.0-71.0,True,1,2027,[1],stimuli/1010011.jpg,262115,prediction_trial,96,image-keyboard-response,False,
288,Experimen 4,False,0,False,False,101,2,0,False,False,True,True,110,True,0.0-73.0,False,2,737,"[0, 2]",stimuli/2101110.jpg,263334,prediction_trial,98,image-keyboard-response,False,
288,Experimen 4,True,1,False,True,010,3,1,False,True,True,True,111,False,0.0-75.0,False,1,1599,[1],stimuli/3010111.jpg,265516,prediction_trial,100,image-keyboard-response,True,
288,Experimen 4,True,1,False,True,010,1,1,False,False,False,False,111,False,0.0-77.0,True,1,605,[1],stimuli/1010111.jpg,266618,prediction_trial,102,image-keyboard-response,False,
288,Experimen 4,True,1,False,False,011,3,1,False,False,True,True,101,False,0.0-79.0,False,1,1441,"[1, 2]",stimuli/3011101.jpg,268556,prediction_trial,104,image-keyboard-response,True,
288,Experimen 4,False,0,True,True,001,0,0,False,True,False,True,100,True,0.0-81.0,False,2,669,[0],stimuli/0001100.jpg,269735,prediction_trial,106,image-keyboard-response,False,
288,Experimen 4,True,1,True,True,001,1,1,True,True,True,True,100,True,0.0-83.0,False,1,1229,[1],stimuli/1001100.jpg,271778,prediction_trial,108,image-keyboard-response,False,
288,Experimen 4,False,0,True,True,100,2,2,False,False,False,False,011,False,0.0-85.0,True,1,2233,[2],stimuli/2100011.jpg,274447,prediction_trial,110,image-keyboard-response,False,
288,Experimen 4,False,0,True,True,100,2,2,False,False,False,False,111,False,0.0-87.0,True,1,3840,[2],stimuli/2100111.jpg,278865,prediction_trial,112,image-keyboard-response,False,
288,Experimen 4,False,0,True,True,001,0,0,False,False,False,False,110,False,0.0-89.0,True,1,1823,[0],stimuli/0001110.jpg,281319,prediction_trial,114,image-keyboard-response,False,
288,Experimen 4,True,1,False,True,100,0,0,False,True,True,True,010,True,0.0-91.0,False,0,1094,[0],stimuli/0100010.jpg,283085,prediction_trial,116,image-keyboard-response,False,
288,Experimen 4,True,1,False,True,010,3,1,False,True,True,True,110,False,0.0-93.0,False,1,1355,[1],stimuli/3010110.jpg,285270,prediction_trial,118,image-keyboard-response,True,
288,Experimen 4,False,0,False,True,010,1,1,False,False,False,False,110,False,0.0-95.0,True,0,4206,[1],stimuli/1010110.jpg,290232,prediction_trial,120,image-keyboard-response,False,
288,Experimen 4,True,1,False,True,100,3,0,False,True,True,True,111,False,0.0-97.0,False,0,2752,[0],stimuli/3100111.jpg,293698,prediction_trial,122,image-keyboard-response,True,
288,Experimen 4,True,1,False,True,100,3,0,False,True,True,True,110,False,0.0-99.0,False,0,1962,[0],stimuli/3100110.jpg,296321,prediction_trial,124,image-keyboard-response,True,
288,Experimen 4,False,0,False,False,111,0,0,False,False,True,True,011,True,0.0-101.0,False,1,1635,"[0, 1, 2]",stimuli/0111011.jpg,298541,prediction_trial,126,image-keyboard-response,False,
288,Experimen 4,True,1,False,True,001,3,2,False,True,True,True,111,False,0.0-103.0,False,2,1246,[2],stimuli/3001111.jpg,300431,prediction_trial,128,image-keyboard-response,True,
288,Experimen 4,False,0,False,False,110,3,1,False,False,True,True,111,False,0.0-105.0,False,0,1162,"[1, 0]",stimuli/3110111.jpg,302336,prediction_trial,130,image-keyboard-response,True,
288,Experimen 4,True,1,False,True,001,3,2,False,True,True,True,111,False,0.0-107.0,False,2,821,[2],stimuli/3001111.jpg,303871,prediction_trial,132,image-keyboard-response,True,
288,Experimen 4,True,1,False,True,001,2,2,False,True,True,True,010,True,0.0-109.0,False,2,1479,[2],stimuli/2001010.jpg,305882,prediction_trial,134,image-keyboard-response,False,
288,Experimen 4,True,1,False,True,010,3,1,False,True,True,True,111,False,0.0-111.0,False,1,1383,[1],stimuli/3010111.jpg,307993,prediction_trial,136,image-keyboard-response,True,
288,Experimen 4,True,1,True,True,010,2,2,True,True,True,True,100,True,0.0-113.0,False,2,1827,[2],stimuli/2010100.jpg,310403,prediction_trial,138,image-keyboard-response,False,
288,Experimen 4,False,0,False,False,111,2,0,False,False,True,True,000,True,0.0-115.0,False,2,1523,"[0, 2, 1]",stimuli/2111000.jpg,312360,prediction_trial,140,image-keyboard-response,False,
288,Experimen 4,True,1,True,True,000,2,2,True,True,True,True,100,True,0.0-117.0,False,2,1042,[2],stimuli/2000100.jpg,314162,prediction_trial,142,image-keyboard-response,False,
288,Experimen 4,True,1,False,True,010,1,1,False,True,True,True,100,True,0.0-119.0,False,1,767,[1],stimuli/1010100.jpg,317509,prediction_trial,144,image-keyboard-response,False,
288,Experimen 4,True,1,True,True,010,0,0,True,True,True,True,010,True,0.0-121.0,False,0,767,[0],stimuli/0010010.jpg,319028,prediction_trial,146,image-keyboard-response,False,
288,Experimen 4,True,1,False,True,001,3,2,False,True,True,True,110,False,0.0-123.0,False,2,1898,[2],stimuli/3001110.jpg,321449,prediction_trial,148,image-keyboard-response,True,
