workerid,proliferate.condition,accuracy,accuracy_bool,alter_ball_visible,alter_can_infer,alter_occluders,ball_pos,character_choice,collective_ball_visible,collective_can_infer,ego_ball_visible,ego_can_infer,ego_occluders,filler_trial,internal_node_id,key_trial,response,rt,search_locations,stimulus,time_elapsed,trial,trial_index,trial_type,trick_trial,error
235,Experimen 4,False,0,False,False,110,3,0,False,False,True,True,111,False,0.0-5.0,False,2,544,"[0, 1]",stimuli/3110111.jpg,12720,prediction_trial,30,image-keyboard-response,True,
235,Experimen 4,False,0,False,False,110,0,1,False,False,False,False,101,False,0.0-7.0,True,2,23,"[1, 0]",stimuli/0110101.jpg,12889,prediction_trial,32,image-keyboard-response,,
235,Experimen 4,False,0,False,False,110,3,0,False,False,True,True,011,False,0.0-9.0,False,2,178,"[0, 1]",stimuli/3110011.jpg,13226,prediction_trial,34,image-keyboard-response,True,
235,Experimen 4,False,0,True,True,000,0,0,True,True,True,True,010,True,0.0-11.0,False,2,163,[0],stimuli/0000010.jpg,13560,prediction_trial,36,image-keyboard-response,,
235,Experimen 4,True,1,False,False,101,3,2,False,False,True,True,101,False,0.0-13.0,False,2,95,"[2, 0]",stimuli/3101101.jpg,13853,prediction_trial,38,image-keyboard-response,True,
235,Experimen 4,False,0,False,False,011,2,1,False,False,False,False,101,False,0.0-15.0,True,2,81,"[1, 2]",stimuli/2011101.jpg,14012,prediction_trial,40,image-keyboard-response,,
235,Experimen 4,False,0,False,False,111,1,1,False,False,False,False,111,True,0.0-17.0,False,2,65,"[2, 0, 1]",stimuli/1111111.jpg,14176,prediction_trial,42,image-keyboard-response,,
235,Experimen 4,False,0,False,True,010,1,1,False,False,False,False,011,False,0.0-19.0,True,2,62,[1],stimuli/1010011.jpg,14353,prediction_trial,44,image-keyboard-response,,
235,Experimen 4,False,0,False,False,111,1,0,False,False,True,True,101,True,0.0-21.0,False,2,67,"[2, 1, 0]",stimuli/1111101.jpg,14529,prediction_trial,46,image-keyboard-response,,
235,Experimen 4,True,1,False,False,111,1,2,False,False,True,True,001,True,0.0-23.0,False,2,67,"[1, 2, 0]",stimuli/1111001.jpg,14713,prediction_trial,48,image-keyboard-response,,
235,Experimen 4,False,0,False,False,011,1,1,False,False,False,False,110,False,0.0-25.0,True,2,65,"[1, 2]",stimuli/1011110.jpg,14900,prediction_trial,50,image-keyboard-response,,
235,Experimen 4,True,1,True,True,110,2,2,True,True,True,True,010,True,0.0-27.0,False,2,71,[2],stimuli/2110010.jpg,15083,prediction_trial,52,image-keyboard-response,,
235,Experimen 4,False,0,False,True,010,1,1,False,False,False,False,111,False,0.0-29.0,True,2,74,[1],stimuli/1010111.jpg,15285,prediction_trial,54,image-keyboard-response,,
235,Experimen 4,False,0,False,True,100,3,0,False,True,True,True,011,False,0.0-31.0,False,2,86,[0],stimuli/3100011.jpg,15481,prediction_trial,56,image-keyboard-response,True,
235,Experimen 4,False,0,True,True,100,1,1,False,False,False,False,111,False,0.0-33.0,True,2,65,[1],stimuli/1100111.jpg,15681,prediction_trial,58,image-keyboard-response,,
235,Experimen 4,True,1,False,False,011,1,2,False,False,False,True,010,True,0.0-35.0,False,2,76,"[1, 2]",stimuli/1011010.jpg,15871,prediction_trial,60,image-keyboard-response,,
235,Experimen 4,False,0,False,False,101,3,0,False,False,True,True,110,False,0.0-37.0,False,2,26,"[0, 2]",stimuli/3101110.jpg,16027,prediction_trial,62,image-keyboard-response,True,
235,Experimen 4,False,0,False,False,110,3,0,False,False,True,True,110,False,0.0-39.0,False,2,2,"[0, 1]",stimuli/3110110.jpg,16227,prediction_trial,64,image-keyboard-response,True,
235,Experimen 4,False,0,True,True,001,1,1,False,False,False,False,111,False,0.0-41.0,True,2,153,[1],stimuli/1001111.jpg,16617,prediction_trial,66,image-keyboard-response,,
235,Experimen 4,False,0,False,True,100,3,0,False,True,True,True,111,False,0.0-43.0,False,2,114,[0],stimuli/3100111.jpg,16814,prediction_trial,68,image-keyboard-response,True,
235,Experimen 4,False,0,False,False,011,1,1,False,False,True,True,100,True,0.0-45.0,False,2,94,"[2, 1]",stimuli/1011100.jpg,17012,prediction_trial,70,image-keyboard-response,,
235,Experimen 4,False,0,False,False,110,1,1,False,False,False,False,110,False,0.0-47.0,True,2,55,"[0, 1]",stimuli/1110110.jpg,17187,prediction_trial,72,image-keyboard-response,,
235,Experimen 4,True,1,False,True,001,3,2,False,True,True,True,111,False,0.0-49.0,False,2,12,[2],stimuli/3001111.jpg,17366,prediction_trial,74,image-keyboard-response,True,
235,Experimen 4,False,0,False,True,010,3,1,False,True,True,True,011,False,0.0-51.0,False,2,3,[1],stimuli/3010011.jpg,17578,prediction_trial,76,image-keyboard-response,True,
235,Experimen 4,False,0,False,True,100,3,0,False,True,True,True,101,False,0.0-53.0,False,2,140,[0],stimuli/3100101.jpg,17958,prediction_trial,78,image-keyboard-response,True,
235,Experimen 4,False,0,False,False,110,3,1,False,False,True,True,011,False,0.0-55.0,False,2,129,"[0, 1]",stimuli/3110011.jpg,18165,prediction_trial,80,image-keyboard-response,True,
235,Experimen 4,False,0,True,True,001,0,0,False,False,False,False,101,False,0.0-57.0,True,2,116,[0],stimuli/0001101.jpg,18352,prediction_trial,82,image-keyboard-response,,
235,Experimen 4,True,1,True,True,100,2,2,False,False,False,False,011,False,0.0-59.0,True,2,121,[2],stimuli/2100011.jpg,18563,prediction_trial,84,image-keyboard-response,,
235,Experimen 4,False,0,True,True,010,0,0,False,True,False,True,100,True,0.0-61.0,False,2,119,[0],stimuli/0010100.jpg,18769,prediction_trial,86,image-keyboard-response,,
235,Experimen 4,False,0,False,False,101,0,0,False,False,False,False,111,False,0.0-63.0,True,2,102,"[2, 0]",stimuli/0101111.jpg,18981,prediction_trial,88,image-keyboard-response,,
235,Experimen 4,False,0,True,True,000,1,1,True,True,True,True,001,True,0.0-65.0,False,2,91,[1],stimuli/1000001.jpg,19183,prediction_trial,90,image-keyboard-response,,
235,Experimen 4,True,1,False,True,001,3,2,False,True,True,True,110,False,0.0-67.0,False,2,79,[2],stimuli/3001110.jpg,19386,prediction_trial,92,image-keyboard-response,True,
235,Experimen 4,False,0,True,True,011,0,0,False,False,False,False,111,False,0.0-69.0,True,2,84,[0],stimuli/0011111.jpg,19595,prediction_trial,94,image-keyboard-response,,
235,Experimen 4,False,0,True,True,100,1,1,False,False,False,False,011,False,0.0-71.0,True,2,79,[1],stimuli/1100011.jpg,19805,prediction_trial,96,image-keyboard-response,,
235,Experimen 4,False,0,True,True,011,0,0,False,False,False,False,101,False,0.0-73.0,True,2,79,[0],stimuli/0011101.jpg,20014,prediction_trial,98,image-keyboard-response,,
235,Experimen 4,False,0,True,True,000,0,0,False,False,False,False,110,True,0.0-75.0,False,2,79,[0],stimuli/0000110.jpg,20219,prediction_trial,100,image-keyboard-response,,
235,Experimen 4,False,0,False,False,110,1,1,False,False,True,True,000,True,0.0-77.0,False,2,71,"[0, 1]",stimuli/1110000.jpg,20431,prediction_trial,102,image-keyboard-response,,
235,Experimen 4,False,0,False,True,100,3,0,False,True,True,True,111,False,0.0-79.0,False,2,63,[0],stimuli/3100111.jpg,20630,prediction_trial,104,image-keyboard-response,True,
235,Experimen 4,False,0,False,False,101,2,0,False,False,False,False,101,False,0.0-81.0,True,2,52,"[0, 2]",stimuli/2101101.jpg,20833,prediction_trial,106,image-keyboard-response,,
235,Experimen 4,False,0,True,True,010,0,0,True,True,True,True,001,True,0.0-83.0,False,2,67,[0],stimuli/0010001.jpg,21050,prediction_trial,108,image-keyboard-response,,
235,Experimen 4,False,0,False,True,010,3,1,False,True,True,True,011,False,0.0-85.0,False,2,55,[1],stimuli/3010011.jpg,21258,prediction_trial,110,image-keyboard-response,True,
235,Experimen 4,True,1,False,True,001,3,2,False,True,True,True,011,False,0.0-87.0,False,2,63,[2],stimuli/3001011.jpg,21473,prediction_trial,112,image-keyboard-response,True,
235,Experimen 4,True,1,False,False,101,3,2,False,False,True,True,111,False,0.0-89.0,False,2,67,"[0, 2]",stimuli/3101111.jpg,21688,prediction_trial,114,image-keyboard-response,True,
235,Experimen 4,True,1,True,True,100,2,2,False,False,False,False,111,False,0.0-91.0,True,2,45,[2],stimuli/2100111.jpg,21902,prediction_trial,116,image-keyboard-response,,
235,Experimen 4,False,0,False,True,010,3,1,False,True,True,True,111,False,0.0-93.0,False,2,54,[1],stimuli/3010111.jpg,22121,prediction_trial,118,image-keyboard-response,True,
235,Experimen 4,False,0,False,False,110,0,1,False,False,True,True,000,True,0.0-95.0,False,2,51,"[0, 1]",stimuli/0110000.jpg,22349,prediction_trial,120,image-keyboard-response,,
235,Experimen 4,False,0,True,True,001,1,1,False,False,False,False,110,False,0.0-97.0,True,2,51,[1],stimuli/1001110.jpg,22556,prediction_trial,122,image-keyboard-response,,
235,Experimen 4,False,0,False,False,110,3,1,False,False,True,True,101,False,0.0-99.0,False,2,54,"[0, 1]",stimuli/3110101.jpg,22764,prediction_trial,124,image-keyboard-response,True,
235,Experimen 4,False,0,False,False,110,0,0,False,False,True,True,011,True,0.0-101.0,False,2,104,"[0, 1]",stimuli/0110011.jpg,23009,prediction_trial,126,image-keyboard-response,,
235,Experimen 4,False,0,False,False,110,1,0,False,False,True,True,100,True,0.0-103.0,False,2,110,"[1, 0]",stimuli/1110100.jpg,23233,prediction_trial,128,image-keyboard-response,,
235,Experimen 4,False,0,True,True,001,0,0,False,True,False,True,100,True,0.0-105.0,False,2,105,[0],stimuli/0001100.jpg,23438,prediction_trial,130,image-keyboard-response,,
235,Experimen 4,False,0,False,True,100,3,0,False,True,True,True,011,False,0.0-107.0,False,2,107,[0],stimuli/3100011.jpg,23660,prediction_trial,132,image-keyboard-response,True,
235,Experimen 4,False,0,False,True,010,3,1,False,True,True,True,110,False,0.0-109.0,False,2,102,[1],stimuli/3010110.jpg,23864,prediction_trial,134,image-keyboard-response,True,
235,Experimen 4,True,1,False,True,001,2,2,False,False,False,False,011,False,0.0-111.0,True,2,115,[2],stimuli/2001011.jpg,24088,prediction_trial,136,image-keyboard-response,,
235,Experimen 4,False,0,False,False,110,0,1,False,False,True,True,010,True,0.0-113.0,False,2,110,"[0, 1]",stimuli/0110010.jpg,24300,prediction_trial,138,image-keyboard-response,,
235,Experimen 4,False,0,False,False,011,1,1,False,False,False,False,011,False,0.0-115.0,True,2,101,"[1, 2]",stimuli/1011011.jpg,24508,prediction_trial,140,image-keyboard-response,,
235,Experimen 4,True,1,False,False,011,3,2,False,False,True,True,011,False,0.0-117.0,False,2,112,"[1, 2]",stimuli/3011011.jpg,24727,prediction_trial,142,image-keyboard-response,True,
235,Experimen 4,True,1,False,True,001,2,2,False,True,False,True,001,True,0.0-119.0,False,2,129,[2],stimuli/2001001.jpg,24946,prediction_trial,144,image-keyboard-response,,
235,Experimen 4,False,0,True,True,001,0,0,True,True,True,True,010,True,0.0-121.0,False,2,142,[0],stimuli/0001010.jpg,25169,prediction_trial,146,image-keyboard-response,,
235,Experimen 4,False,0,False,False,110,1,1,False,False,False,False,111,False,0.0-123.0,True,2,145,"[1, 0]",stimuli/1110111.jpg,25376,prediction_trial,148,image-keyboard-response,,
235,Experimen 4,True,1,True,True,110,2,2,False,False,False,False,011,False,0.0-125.0,True,2,143,[2],stimuli/2110011.jpg,25579,prediction_trial,150,image-keyboard-response,,
235,Experimen 4,False,0,False,False,101,3,0,False,False,True,True,111,False,0.0-127.0,False,2,138,"[0, 2]",stimuli/3101111.jpg,25795,prediction_trial,152,image-keyboard-response,True,
235,Experimen 4,False,0,False,False,011,3,1,False,False,True,True,101,False,0.0-129.0,False,2,122,"[2, 1]",stimuli/3011101.jpg,25990,prediction_trial,154,image-keyboard-response,True,
235,Experimen 4,False,0,True,True,101,1,1,False,False,False,False,110,False,0.0-131.0,True,2,110,[1],stimuli/1101110.jpg,26202,prediction_trial,156,image-keyboard-response,,
235,Experimen 4,False,0,True,True,100,1,1,False,False,False,False,110,False,0.0-133.0,True,2,113,[1],stimuli/1100110.jpg,26414,prediction_trial,158,image-keyboard-response,,
235,Experimen 4,False,0,False,True,100,3,0,False,True,True,True,110,False,0.0-135.0,False,2,101,[0],stimuli/3100110.jpg,26618,prediction_trial,160,image-keyboard-response,True,
235,Experimen 4,True,1,False,False,101,2,2,False,False,False,False,011,False,0.0-137.0,True,2,94,"[2, 0]",stimuli/2101011.jpg,26821,prediction_trial,162,image-keyboard-response,,
235,Experimen 4,False,0,False,False,101,3,0,False,False,True,True,110,False,0.0-139.0,False,2,77,"[0, 2]",stimuli/3101110.jpg,27003,prediction_trial,164,image-keyboard-response,True,
235,Experimen 4,False,0,False,True,100,0,0,False,False,False,False,101,False,0.0-141.0,True,2,51,[0],stimuli/0100101.jpg,27174,prediction_trial,166,image-keyboard-response,,
235,Experimen 4,True,1,False,False,011,1,2,False,False,True,True,001,True,0.0-143.0,False,2,39,"[1, 2]",stimuli/1011001.jpg,27364,prediction_trial,168,image-keyboard-response,,
235,Experimen 4,False,0,True,True,101,1,1,False,False,False,False,011,False,0.0-145.0,True,2,3,[1],stimuli/1101011.jpg,27531,prediction_trial,170,image-keyboard-response,,
235,Experimen 4,False,0,False,True,100,3,0,False,True,True,True,110,False,0.0-147.0,False,2,123,[0],stimuli/3100110.jpg,27889,prediction_trial,172,image-keyboard-response,True,
235,Experimen 4,True,1,False,True,001,3,2,False,True,True,True,101,False,0.0-149.0,False,2,117,[2],stimuli/3001101.jpg,28071,prediction_trial,174,image-keyboard-response,True,
235,Experimen 4,False,0,True,True,001,1,1,True,True,True,True,001,True,0.0-151.0,False,2,120,[1],stimuli/1001001.jpg,28282,prediction_trial,176,image-keyboard-response,,
235,Experimen 4,True,1,True,True,110,2,2,False,False,False,False,111,False,0.0-153.0,True,2,155,[2],stimuli/2110111.jpg,28496,prediction_trial,178,image-keyboard-response,,
235,Experimen 4,False,0,True,True,010,0,0,False,False,False,False,101,False,0.0-155.0,True,2,170,[0],stimuli/0010101.jpg,28706,prediction_trial,180,image-keyboard-response,,
235,Experimen 4,True,1,True,True,000,2,2,True,True,True,True,000,True,0.0-157.0,False,2,197,[2],stimuli/2000000.jpg,28940,prediction_trial,182,image-keyboard-response,,
235,Experimen 4,True,1,False,False,011,3,2,False,False,True,True,111,False,0.0-159.0,False,2,197,"[1, 2]",stimuli/3011111.jpg,29148,prediction_trial,184,image-keyboard-response,True,
235,Experimen 4,True,1,False,False,101,3,2,False,False,True,True,011,False,0.0-161.0,False,2,184,"[2, 0]",stimuli/3101011.jpg,29353,prediction_trial,186,image-keyboard-response,True,
235,Experimen 4,True,1,False,False,111,2,2,False,False,True,True,000,True,0.0-163.0,False,2,111,"[1, 2, 0]",stimuli/2111000.jpg,29575,prediction_trial,188,image-keyboard-response,,
235,Experimen 4,False,0,False,True,100,3,0,False,True,True,True,111,False,0.0-165.0,False,2,100,[0],stimuli/3100111.jpg,29791,prediction_trial,190,image-keyboard-response,True,
235,Experimen 4,False,0,False,False,101,3,0,False,False,True,True,101,False,0.0-167.0,False,2,93,"[2, 0]",stimuli/3101101.jpg,30003,prediction_trial,192,image-keyboard-response,True,
235,Experimen 4,True,1,False,False,101,2,2,False,False,True,True,000,True,0.0-169.0,False,2,90,"[0, 2]",stimuli/2101000.jpg,30227,prediction_trial,194,image-keyboard-response,,
235,Experimen 4,True,1,True,True,110,2,2,True,True,True,True,110,True,0.0-171.0,False,2,114,[2],stimuli/2110110.jpg,30461,prediction_trial,196,image-keyboard-response,,
235,Experimen 4,True,1,False,True,001,3,2,False,True,True,True,111,False,0.0-173.0,False,2,95,[2],stimuli/3001111.jpg,30660,prediction_trial,198,image-keyboard-response,True,
235,Experimen 4,False,0,False,True,100,0,0,False,False,False,False,110,False,0.0-175.0,True,2,90,[0],stimuli/0100110.jpg,30877,prediction_trial,200,image-keyboard-response,,
235,Experimen 4,False,0,False,False,110,0,1,False,False,False,False,110,False,0.0-177.0,True,2,74,"[0, 1]",stimuli/0110110.jpg,31098,prediction_trial,202,image-keyboard-response,,
235,Experimen 4,False,0,True,True,010,0,0,False,False,False,False,111,False,0.0-179.0,True,2,94,[0],stimuli/0010111.jpg,31305,prediction_trial,204,image-keyboard-response,,
235,Experimen 4,True,1,False,False,101,0,2,False,False,True,True,010,True,0.0-181.0,False,2,97,"[2, 0]",stimuli/0101010.jpg,31509,prediction_trial,206,image-keyboard-response,,
235,Experimen 4,False,0,False,True,100,3,0,False,True,True,True,101,False,0.0-183.0,False,2,113,[0],stimuli/3100101.jpg,31724,prediction_trial,208,image-keyboard-response,True,
235,Experimen 4,True,1,False,True,001,2,2,False,False,False,False,101,False,0.0-185.0,True,2,130,[2],stimuli/2001101.jpg,31928,prediction_trial,210,image-keyboard-response,,
235,Experimen 4,True,1,False,False,011,2,2,False,False,False,False,011,False,0.0-187.0,True,2,164,"[2, 1]",stimuli/2011011.jpg,32146,prediction_trial,212,image-keyboard-response,,
235,Experimen 4,True,1,False,True,001,3,2,False,True,True,True,011,False,0.0-189.0,False,2,178,[2],stimuli/3001011.jpg,32352,prediction_trial,214,image-keyboard-response,True,
235,Experimen 4,True,1,True,True,010,2,2,True,True,True,True,110,True,0.0-191.0,False,2,200,[2],stimuli/2010110.jpg,32557,prediction_trial,216,image-keyboard-response,,
235,Experimen 4,False,0,False,False,110,3,1,False,False,True,True,110,False,0.0-193.0,False,2,63,"[0, 1]",stimuli/3110110.jpg,32996,prediction_trial,218,image-keyboard-response,True,
235,Experimen 4,False,0,False,False,110,1,0,False,False,True,True,101,True,0.0-195.0,False,2,113,"[1, 0]",stimuli/1110101.jpg,33248,prediction_trial,220,image-keyboard-response,,
235,Experimen 4,False,0,False,True,010,3,1,False,True,True,True,110,False,0.0-197.0,False,2,32,[1],stimuli/3010110.jpg,33386,prediction_trial,222,image-keyboard-response,True,
235,Experimen 4,True,1,True,True,110,2,2,False,False,False,False,101,False,0.0-199.0,True,2,47,[2],stimuli/2110101.jpg,33586,prediction_trial,224,image-keyboard-response,,
235,Experimen 4,False,0,False,False,110,1,1,False,False,False,False,011,False,0.0-201.0,True,2,38,"[0, 1]",stimuli/1110011.jpg,33804,prediction_trial,226,image-keyboard-response,,
235,Experimen 4,False,0,False,False,011,3,1,False,False,True,True,111,False,0.0-203.0,False,2,38,"[1, 2]",stimuli/3011111.jpg,34002,prediction_trial,228,image-keyboard-response,True,
235,Experimen 4,True,1,True,True,110,2,2,True,True,True,True,100,True,0.0-205.0,False,2,51,[2],stimuli/2110100.jpg,34223,prediction_trial,230,image-keyboard-response,,
235,Experimen 4,False,0,False,True,010,1,1,False,False,False,False,110,False,0.0-207.0,True,2,34,[1],stimuli/1010110.jpg,34410,prediction_trial,232,image-keyboard-response,,
235,Experimen 4,False,0,False,True,010,3,1,False,True,True,True,101,False,0.0-209.0,False,2,13,[1],stimuli/3010101.jpg,34628,prediction_trial,234,image-keyboard-response,True,
235,Experimen 4,False,0,False,False,110,3,0,False,False,True,True,111,False,0.0-211.0,False,2,41,"[0, 1]",stimuli/3110111.jpg,34855,prediction_trial,236,image-keyboard-response,True,
235,Experimen 4,False,0,True,True,001,0,0,False,False,False,False,111,False,0.0-213.0,True,2,22,[0],stimuli/0001111.jpg,35051,prediction_trial,238,image-keyboard-response,,
235,Experimen 4,True,1,False,False,011,3,2,False,False,True,True,101,False,0.0-215.0,False,2,31,"[2, 1]",stimuli/3011101.jpg,35262,prediction_trial,240,image-keyboard-response,True,
235,Experimen 4,False,0,False,False,101,3,0,False,False,True,True,011,False,0.0-217.0,False,2,35,"[2, 0]",stimuli/3101011.jpg,35468,prediction_trial,242,image-keyboard-response,True,
235,Experimen 4,True,1,True,True,010,2,2,True,True,True,True,010,True,0.0-219.0,False,2,75,[2],stimuli/2010010.jpg,35708,prediction_trial,244,image-keyboard-response,,
235,Experimen 4,False,0,False,False,110,0,0,False,False,False,False,111,False,0.0-221.0,True,2,54,"[1, 0]",stimuli/0110111.jpg,35902,prediction_trial,246,image-keyboard-response,,
235,Experimen 4,False,0,False,False,101,0,0,False,False,False,False,110,False,0.0-223.0,True,2,59,"[2, 0]",stimuli/0101110.jpg,36119,prediction_trial,248,image-keyboard-response,,
235,Experimen 4,False,0,False,True,010,3,1,False,True,True,True,101,False,0.0-225.0,False,2,5,[1],stimuli/3010101.jpg,36318,prediction_trial,250,image-keyboard-response,True,
235,Experimen 4,True,1,False,True,001,3,2,False,True,True,True,101,False,0.0-227.0,False,2,199,[2],stimuli/3001101.jpg,36733,prediction_trial,252,image-keyboard-response,True,
235,Experimen 4,True,1,True,True,010,2,2,False,False,False,False,101,False,0.0-229.0,True,2,2,[2],stimuli/2010101.jpg,36943,prediction_trial,254,image-keyboard-response,,
235,Experimen 4,True,1,False,True,001,2,2,False,False,False,False,111,False,0.0-231.0,True,2,2,[2],stimuli/2001111.jpg,37143,prediction_trial,256,image-keyboard-response,,
235,Experimen 4,True,1,True,True,100,2,2,False,False,False,False,101,False,0.0-233.0,True,2,203,[2],stimuli/2100101.jpg,37570,prediction_trial,258,image-keyboard-response,,
235,Experimen 4,True,1,False,False,011,3,2,False,False,True,True,110,False,0.0-235.0,False,2,8,"[1, 2]",stimuli/3011110.jpg,37783,prediction_trial,260,image-keyboard-response,True,
235,Experimen 4,False,0,False,False,011,3,1,False,False,True,True,111,False,0.0-237.0,False,2,5,"[1, 2]",stimuli/3011111.jpg,37989,prediction_trial,262,image-keyboard-response,True,
235,Experimen 4,False,0,False,False,011,3,1,False,False,True,True,110,False,0.0-239.0,False,2,191,"[1, 2]",stimuli/3011110.jpg,38406,prediction_trial,264,image-keyboard-response,True,
235,Experimen 4,True,1,False,True,001,2,2,False,True,True,True,100,True,0.0-241.0,False,2,190,[2],stimuli/2001100.jpg,38601,prediction_trial,266,image-keyboard-response,,
235,Experimen 4,False,0,False,True,100,0,0,False,False,False,False,111,False,0.0-243.0,True,2,176,[0],stimuli/0100111.jpg,38799,prediction_trial,268,image-keyboard-response,,
235,Experimen 4,True,1,False,False,101,2,2,False,False,False,True,001,True,0.0-245.0,False,2,158,"[2, 0]",stimuli/2101001.jpg,38994,prediction_trial,270,image-keyboard-response,,
235,Experimen 4,True,1,False,False,101,2,2,False,False,False,False,111,False,0.0-247.0,True,2,149,"[0, 2]",stimuli/2101111.jpg,39196,prediction_trial,272,image-keyboard-response,,
235,Experimen 4,True,1,False,False,101,3,2,False,False,True,True,111,False,0.0-249.0,False,2,131,"[0, 2]",stimuli/3101111.jpg,39392,prediction_trial,274,image-keyboard-response,True,
235,Experimen 4,False,0,False,True,100,0,0,False,True,False,True,100,True,0.0-251.0,False,2,123,[0],stimuli/0100100.jpg,39597,prediction_trial,276,image-keyboard-response,,
235,Experimen 4,False,0,True,True,101,1,1,True,True,True,True,000,True,0.0-253.0,False,2,136,[1],stimuli/1101000.jpg,39806,prediction_trial,278,image-keyboard-response,,
235,Experimen 4,False,0,True,True,000,0,0,False,True,False,True,100,True,0.0-255.0,False,2,117,[0],stimuli/0000100.jpg,39995,prediction_trial,280,image-keyboard-response,,
235,Experimen 4,True,1,True,True,000,2,2,True,True,True,True,010,True,0.0-257.0,False,2,132,[2],stimuli/2000010.jpg,40203,prediction_trial,282,image-keyboard-response,,
235,Experimen 4,False,0,False,True,010,3,1,False,True,True,True,111,False,0.0-259.0,False,2,136,[1],stimuli/3010111.jpg,40416,prediction_trial,284,image-keyboard-response,True,
235,Experimen 4,False,0,True,True,010,0,0,True,True,True,True,010,True,0.0-261.0,False,2,132,[0],stimuli/0010010.jpg,40618,prediction_trial,286,image-keyboard-response,,
235,Experimen 4,True,1,False,False,011,1,2,False,False,False,False,111,False,0.0-263.0,True,2,130,"[2, 1]",stimuli/1011111.jpg,40826,prediction_trial,288,image-keyboard-response,,
235,Experimen 4,False,0,True,True,001,1,1,False,False,False,False,011,False,0.0-265.0,True,2,148,[1],stimuli/1001011.jpg,41043,prediction_trial,290,image-keyboard-response,,
235,Experimen 4,False,0,True,True,011,0,0,False,False,False,False,110,False,0.0-267.0,True,2,145,[0],stimuli/0011110.jpg,41240,prediction_trial,292,image-keyboard-response,,
235,Experimen 4,True,1,True,True,010,2,2,False,False,False,False,011,False,0.0-269.0,True,2,144,[2],stimuli/2010011.jpg,41436,prediction_trial,294,image-keyboard-response,,
235,Experimen 4,False,0,False,False,110,3,0,False,False,True,True,111,False,0.0-271.0,False,2,150,"[0, 1]",stimuli/3110111.jpg,41642,prediction_trial,296,image-keyboard-response,True,
235,Experimen 4,True,1,True,True,000,2,2,True,True,True,True,110,True,0.0-273.0,False,2,130,[2],stimuli/2000110.jpg,41821,prediction_trial,298,image-keyboard-response,,
235,Experimen 4,True,1,False,False,111,0,2,False,False,False,False,110,True,0.0-275.0,False,2,149,"[2, 1, 0]",stimuli/0111110.jpg,42019,prediction_trial,300,image-keyboard-response,,
235,Experimen 4,True,1,False,False,101,0,2,False,False,False,False,101,False,0.0-277.0,True,2,141,"[0, 2]",stimuli/0101101.jpg,42211,prediction_trial,302,image-keyboard-response,,
235,Experimen 4,False,0,False,False,011,2,1,False,False,True,True,010,True,0.0-279.0,False,2,113,"[2, 1]",stimuli/2011010.jpg,42409,prediction_trial,304,image-keyboard-response,,
235,Experimen 4,True,1,True,True,010,2,2,False,False,False,False,111,False,0.0-281.0,True,2,119,[2],stimuli/2010111.jpg,42597,prediction_trial,306,image-keyboard-response,,
235,Experimen 4,False,0,False,True,010,3,1,False,True,True,True,111,False,0.0-283.0,False,2,126,[1],stimuli/3010111.jpg,42794,prediction_trial,308,image-keyboard-response,True,
235,Experimen 4,True,1,False,False,011,3,2,False,False,True,True,011,False,0.0-285.0,False,2,114,"[1, 2]",stimuli/3011011.jpg,42989,prediction_trial,310,image-keyboard-response,True,
235,Experimen 4,True,1,False,False,011,1,2,False,False,True,True,000,True,0.0-287.0,False,2,94,"[2, 1]",stimuli/1011000.jpg,43185,prediction_trial,312,image-keyboard-response,,
235,Experimen 4,False,0,True,True,101,1,1,False,True,False,True,010,True,0.0-289.0,False,2,88,[1],stimuli/1101010.jpg,43361,prediction_trial,314,image-keyboard-response,,
235,Experimen 4,False,0,False,False,011,2,1,False,False,False,False,111,False,0.0-291.0,True,2,77,"[1, 2]",stimuli/2011111.jpg,43550,prediction_trial,316,image-keyboard-response,,
235,Experimen 4,True,1,True,True,000,2,2,False,False,False,False,101,True,0.0-293.0,False,2,53,[2],stimuli/2000101.jpg,43723,prediction_trial,318,image-keyboard-response,,
235,Experimen 4,False,0,False,False,111,0,0,False,False,False,False,111,True,0.0-295.0,False,2,17,"[0, 1, 2]",stimuli/0111111.jpg,43901,prediction_trial,320,image-keyboard-response,,
235,Experimen 4,False,0,False,False,111,0,1,False,False,True,True,000,True,0.0-297.0,False,2,3,"[1, 2, 0]",stimuli/0111000.jpg,44072,prediction_trial,322,image-keyboard-response,,
235,Experimen 4,False,0,True,True,100,1,1,True,True,True,True,001,True,0.0-299.0,False,2,118,[1],stimuli/1100001.jpg,44412,prediction_trial,324,image-keyboard-response,,
235,Experimen 4,False,0,True,True,011,0,0,False,True,False,True,100,True,0.0-301.0,False,2,15,[0],stimuli/0011100.jpg,44564,prediction_trial,326,image-keyboard-response,,
235,Experimen 4,False,0,True,True,011,0,0,True,True,True,True,000,True,0.0-303.0,False,2,131,[0],stimuli/0011000.jpg,44897,prediction_trial,328,image-keyboard-response,,
235,Experimen 4,False,0,True,True,010,0,0,False,False,False,False,110,False,0.0-305.0,True,2,118,[0],stimuli/0010110.jpg,45056,prediction_trial,330,image-keyboard-response,,
235,Experimen 4,False,0,False,False,111,1,1,False,False,False,True,010,True,0.0-307.0,False,2,102,"[2, 1, 0]",stimuli/1111010.jpg,45227,prediction_trial,332,image-keyboard-response,,
235,Experimen 4,False,0,False,False,110,3,0,False,False,True,True,101,False,0.0-309.0,False,2,70,"[0, 1]",stimuli/3110101.jpg,45391,prediction_trial,334,image-keyboard-response,True,
235,Experimen 4,True,1,False,False,111,0,2,False,False,True,True,010,True,0.0-311.0,False,2,69,"[0, 2, 1]",stimuli/0111010.jpg,45563,prediction_trial,336,image-keyboard-response,,
235,Experimen 4,False,0,True,True,001,0,0,False,False,False,False,110,False,0.0-313.0,True,2,82,[0],stimuli/0001110.jpg,45743,prediction_trial,338,image-keyboard-response,,
235,Experimen 4,False,0,True,True,010,0,0,True,True,True,True,000,True,0.0-315.0,False,2,105,[0],stimuli/0010000.jpg,45927,prediction_trial,340,image-keyboard-response,,
235,Experimen 4,False,0,False,True,100,0,0,False,True,True,True,001,True,0.0-317.0,False,2,71,[0],stimuli/0100001.jpg,46085,prediction_trial,342,image-keyboard-response,,
235,Experimen 4,False,0,True,True,101,1,1,False,False,False,False,111,False,0.0-319.0,True,2,55,[1],stimuli/1101111.jpg,46247,prediction_trial,344,image-keyboard-response,,
235,Experimen 4,True,1,True,True,100,2,2,True,True,True,True,010,True,0.0-321.0,False,2,62,[2],stimuli/2100010.jpg,46427,prediction_trial,346,image-keyboard-response,,
235,Experimen 4,True,1,False,False,111,1,2,False,False,False,False,011,True,0.0-323.0,False,2,59,"[2, 1, 0]",stimuli/1111011.jpg,46606,prediction_trial,348,image-keyboard-response,,
235,Experimen 4,True,1,False,True,001,3,2,False,True,True,True,110,False,0.0-325.0,False,2,71,[2],stimuli/3001110.jpg,46796,prediction_trial,350,image-keyboard-response,True,
235,Experimen 4,True,1,False,True,001,3,2,False,True,True,True,111,False,0.0-327.0,False,2,55,[2],stimuli/3001111.jpg,46975,prediction_trial,352,image-keyboard-response,True,
234,Experimen 4,False,0,True,True,101,1,1,False,False,False,False,110,False,0.0-5.0,True,2,565,[1],stimuli/1101110.jpg,31706,prediction_trial,30,image-keyboard-response,,
234,Experimen 4,True,1,False,False,011,1,2,False,False,False,False,110,False,0.0-7.0,True,2,106,"[1, 2]",stimuli/1011110.jpg,31941,prediction_trial,32,image-keyboard-response,,
234,Experimen 4,False,0,True,True,010,0,0,False,True,False,True,100,True,0.0-9.0,False,2,53,[0],stimuli/0010100.jpg,32133,prediction_trial,34,image-keyboard-response,,
234,Experimen 4,False,0,True,True,001,1,1,True,True,True,True,100,True,0.0-11.0,False,2,39,[1],stimuli/1001100.jpg,32310,prediction_trial,36,image-keyboard-response,,
234,Experimen 4,False,0,False,True,100,3,0,False,True,True,True,111,False,0.0-13.0,False,2,15,[0],stimuli/3100111.jpg,32485,prediction_trial,38,image-keyboard-response,True,
234,Experimen 4,False,0,False,True,010,3,1,False,True,True,True,111,False,0.0-15.0,False,2,12,[1],stimuli/3010111.jpg,32651,prediction_trial,40,image-keyboard-response,True,
234,Experimen 4,True,1,True,True,110,2,2,False,False,False,False,011,False,0.0-17.0,True,2,2,[2],stimuli/2110011.jpg,32823,prediction_trial,42,image-keyboard-response,,
234,Experimen 4,True,1,True,True,110,2,2,False,False,False,False,101,False,0.0-19.0,True,2,2,[2],stimuli/2110101.jpg,32989,prediction_trial,44,image-keyboard-response,,
234,Experimen 4,False,0,False,False,101,3,0,False,False,True,True,111,False,0.0-21.0,False,2,8,"[2, 0]",stimuli/3101111.jpg,33150,prediction_trial,46,image-keyboard-response,True,
234,Experimen 4,False,0,False,False,011,3,1,False,False,True,True,011,False,0.0-23.0,False,2,147,"[2, 1]",stimuli/3011011.jpg,33485,prediction_trial,48,image-keyboard-response,True,
234,Experimen 4,False,0,False,False,101,2,0,False,False,False,False,101,False,0.0-25.0,True,2,154,"[2, 0]",stimuli/2101101.jpg,33661,prediction_trial,50,image-keyboard-response,,
234,Experimen 4,False,0,True,True,001,0,0,False,False,False,False,101,False,0.0-27.0,True,2,147,[0],stimuli/0001101.jpg,33831,prediction_trial,52,image-keyboard-response,,
234,Experimen 4,True,1,False,True,001,3,2,False,True,True,True,111,False,0.0-29.0,False,2,131,[2],stimuli/3001111.jpg,34007,prediction_trial,54,image-keyboard-response,True,
234,Experimen 4,False,0,True,True,010,0,0,True,True,True,True,010,True,0.0-31.0,False,2,127,[0],stimuli/0010010.jpg,34179,prediction_trial,56,image-keyboard-response,,
234,Experimen 4,False,0,False,False,110,3,0,False,False,True,True,011,False,0.0-33.0,False,2,127,"[0, 1]",stimuli/3110011.jpg,34359,prediction_trial,58,image-keyboard-response,True,
234,Experimen 4,False,0,False,False,110,1,1,False,False,False,False,011,False,0.0-35.0,True,2,126,"[0, 1]",stimuli/1110011.jpg,34538,prediction_trial,60,image-keyboard-response,,
234,Experimen 4,False,0,True,True,100,1,1,True,True,True,True,100,True,0.0-37.0,False,2,118,[1],stimuli/1100100.jpg,34726,prediction_trial,62,image-keyboard-response,,
234,Experimen 4,False,0,True,True,001,1,1,True,True,True,True,000,True,0.0-39.0,False,2,115,[1],stimuli/1001000.jpg,34918,prediction_trial,64,image-keyboard-response,,
234,Experimen 4,False,0,True,True,010,0,0,True,True,True,True,011,True,0.0-41.0,False,2,86,[0],stimuli/0010011.jpg,35089,prediction_trial,66,image-keyboard-response,,
234,Experimen 4,False,0,False,False,110,3,0,False,False,True,True,110,False,0.0-43.0,False,2,61,"[0, 1]",stimuli/3110110.jpg,35262,prediction_trial,68,image-keyboard-response,True,
234,Experimen 4,True,1,False,True,001,2,2,False,False,False,False,101,False,0.0-45.0,True,2,38,[2],stimuli/2001101.jpg,35412,prediction_trial,70,image-keyboard-response,,
234,Experimen 4,False,0,False,False,011,3,1,False,False,True,True,111,False,0.0-47.0,False,2,35,"[1, 2]",stimuli/3011111.jpg,35592,prediction_trial,72,image-keyboard-response,True,
234,Experimen 4,True,1,False,False,101,2,2,False,False,True,True,000,True,0.0-49.0,False,2,27,"[0, 2]",stimuli/2101000.jpg,35770,prediction_trial,74,image-keyboard-response,,
234,Experimen 4,False,0,False,False,110,3,1,False,False,True,True,110,False,0.0-51.0,False,2,13,"[0, 1]",stimuli/3110110.jpg,35936,prediction_trial,76,image-keyboard-response,True,
234,Experimen 4,False,0,False,False,101,2,0,False,False,True,True,110,True,0.0-53.0,False,2,135,"[0, 2]",stimuli/2101110.jpg,36279,prediction_trial,78,image-keyboard-response,,
234,Experimen 4,True,1,True,True,010,2,2,False,False,False,False,011,False,0.0-55.0,True,2,111,[2],stimuli/2010011.jpg,36459,prediction_trial,80,image-keyboard-response,,
234,Experimen 4,True,1,False,True,001,2,2,False,False,False,False,011,False,0.0-57.0,True,2,92,[2],stimuli/2001011.jpg,36642,prediction_trial,82,image-keyboard-response,,
234,Experimen 4,False,0,True,True,001,0,0,True,True,True,True,000,True,0.0-59.0,False,2,83,[0],stimuli/0001000.jpg,36826,prediction_trial,84,image-keyboard-response,,
234,Experimen 4,False,0,False,False,101,2,0,False,False,False,False,011,False,0.0-61.0,True,2,77,"[2, 0]",stimuli/2101011.jpg,37016,prediction_trial,86,image-keyboard-response,,
234,Experimen 4,True,1,True,True,100,2,2,True,True,True,True,100,True,0.0-63.0,False,2,62,[2],stimuli/2100100.jpg,37194,prediction_trial,88,image-keyboard-response,,
234,Experimen 4,False,0,True,True,001,1,1,False,False,False,False,110,False,0.0-65.0,True,2,30,[1],stimuli/1001110.jpg,37359,prediction_trial,90,image-keyboard-response,,
234,Experimen 4,False,0,False,False,101,3,0,False,False,True,True,011,False,0.0-67.0,False,2,39,"[2, 0]",stimuli/3101011.jpg,37555,prediction_trial,92,image-keyboard-response,True,
234,Experimen 4,True,1,True,True,110,2,2,False,False,False,False,111,False,0.0-69.0,True,2,165,[2],stimuli/2110111.jpg,37902,prediction_trial,94,image-keyboard-response,,
234,Experimen 4,False,0,False,False,110,1,0,False,False,True,True,101,True,0.0-71.0,False,2,147,"[0, 1]",stimuli/1110101.jpg,38091,prediction_trial,96,image-keyboard-response,,
234,Experimen 4,False,0,True,True,000,0,0,False,False,False,False,110,True,0.0-73.0,False,2,136,[0],stimuli/0000110.jpg,38281,prediction_trial,98,image-keyboard-response,,
234,Experimen 4,False,0,True,True,010,0,0,False,False,False,False,111,False,0.0-75.0,True,2,101,[0],stimuli/0010111.jpg,38458,prediction_trial,100,image-keyboard-response,,
234,Experimen 4,False,0,False,True,100,0,0,False,True,True,True,000,True,0.0-77.0,False,2,109,[0],stimuli/0100000.jpg,38675,prediction_trial,102,image-keyboard-response,,
234,Experimen 4,True,1,False,False,011,2,2,False,False,False,False,111,False,0.0-79.0,True,2,100,"[2, 1]",stimuli/2011111.jpg,38866,prediction_trial,104,image-keyboard-response,,
234,Experimen 4,False,0,False,True,010,3,1,False,True,True,True,101,False,0.0-81.0,False,2,110,[1],stimuli/3010101.jpg,39064,prediction_trial,106,image-keyboard-response,True,
234,Experimen 4,False,0,False,False,111,1,0,False,False,False,True,010,True,0.0-83.0,False,2,112,"[0, 2, 1]",stimuli/1111010.jpg,39254,prediction_trial,108,image-keyboard-response,,
234,Experimen 4,True,1,False,False,111,2,2,False,False,False,False,101,True,0.0-85.0,False,2,119,"[0, 2, 1]",stimuli/2111101.jpg,39454,prediction_trial,110,image-keyboard-response,,
234,Experimen 4,False,0,False,True,010,3,1,False,True,True,True,111,False,0.0-87.0,False,2,114,[1],stimuli/3010111.jpg,39657,prediction_trial,112,image-keyboard-response,True,
234,Experimen 4,False,0,False,False,111,2,0,False,False,False,True,001,True,0.0-89.0,False,2,91,"[1, 0, 2]",stimuli/2111001.jpg,39845,prediction_trial,114,image-keyboard-response,,
234,Experimen 4,False,0,False,True,010,1,1,False,True,False,True,010,True,0.0-91.0,False,2,99,[1],stimuli/1010010.jpg,40041,prediction_trial,116,image-keyboard-response,,
234,Experimen 4,False,0,False,False,110,1,0,False,False,True,True,001,True,0.0-93.0,False,2,95,"[1, 0]",stimuli/1110001.jpg,40237,prediction_trial,118,image-keyboard-response,,
234,Experimen 4,False,0,True,True,100,1,1,False,False,False,False,111,False,0.0-95.0,True,2,88,[1],stimuli/1100111.jpg,40425,prediction_trial,120,image-keyboard-response,,
234,Experimen 4,False,0,False,True,010,3,1,False,True,True,True,110,False,0.0-97.0,False,2,87,[1],stimuli/3010110.jpg,40630,prediction_trial,122,image-keyboard-response,True,
234,Experimen 4,False,0,False,False,101,3,0,False,False,True,True,101,False,0.0-99.0,False,2,76,"[2, 0]",stimuli/3101101.jpg,40837,prediction_trial,124,image-keyboard-response,True,
234,Experimen 4,False,0,False,False,011,3,1,False,False,True,True,111,False,0.0-101.0,False,2,56,"[1, 2]",stimuli/3011111.jpg,41036,prediction_trial,126,image-keyboard-response,True,
234,Experimen 4,False,0,False,False,111,0,1,False,False,True,True,010,True,0.0-103.0,False,2,182,"[1, 0, 2]",stimuli/0111010.jpg,41419,prediction_trial,128,image-keyboard-response,,
234,Experimen 4,False,0,True,True,011,0,0,True,True,True,True,001,True,0.0-105.0,False,2,163,[0],stimuli/0011001.jpg,41635,prediction_trial,130,image-keyboard-response,,
234,Experimen 4,False,0,False,False,011,3,1,False,False,True,True,110,False,0.0-107.0,False,2,116,"[2, 1]",stimuli/3011110.jpg,41804,prediction_trial,132,image-keyboard-response,True,
234,Experimen 4,True,1,False,False,101,3,2,False,False,True,True,111,False,0.0-109.0,False,2,44,"[2, 0]",stimuli/3101111.jpg,41960,prediction_trial,134,image-keyboard-response,True,
234,Experimen 4,False,0,True,True,100,1,1,True,True,True,True,101,True,0.0-111.0,False,2,11,[1],stimuli/1100101.jpg,42143,prediction_trial,136,image-keyboard-response,,
234,Experimen 4,True,1,False,False,011,2,2,False,False,False,False,101,False,0.0-113.0,True,2,187,"[1, 2]",stimuli/2011101.jpg,42543,prediction_trial,138,image-keyboard-response,,
234,Experimen 4,False,0,False,True,010,1,1,False,True,True,True,001,True,0.0-115.0,False,2,161,[1],stimuli/1010001.jpg,42756,prediction_trial,140,image-keyboard-response,,
234,Experimen 4,False,0,False,False,110,1,1,False,False,False,False,111,False,0.0-117.0,True,2,147,"[0, 1]",stimuli/1110111.jpg,42964,prediction_trial,142,image-keyboard-response,,
234,Experimen 4,True,1,False,False,011,2,2,False,False,False,False,011,False,0.0-119.0,True,2,157,"[2, 1]",stimuli/2011011.jpg,43169,prediction_trial,144,image-keyboard-response,,
234,Experimen 4,False,0,True,True,100,1,1,False,False,False,False,110,False,0.0-121.0,True,2,157,[1],stimuli/1100110.jpg,43379,prediction_trial,146,image-keyboard-response,,
234,Experimen 4,True,1,False,False,111,1,2,False,False,False,False,110,True,0.0-123.0,False,2,134,"[1, 0, 2]",stimuli/1111110.jpg,43569,prediction_trial,148,image-keyboard-response,,
234,Experimen 4,False,0,True,True,011,0,0,False,False,False,False,101,False,0.0-125.0,True,2,111,[0],stimuli/0011101.jpg,43756,prediction_trial,150,image-keyboard-response,,
234,Experimen 4,True,1,False,False,101,0,2,False,False,False,False,110,False,0.0-127.0,True,2,87,"[0, 2]",stimuli/0101110.jpg,43951,prediction_trial,152,image-keyboard-response,,
234,Experimen 4,False,0,False,False,110,0,1,False,False,False,False,111,False,0.0-129.0,True,2,52,"[1, 0]",stimuli/0110111.jpg,44129,prediction_trial,154,image-keyboard-response,,
234,Experimen 4,True,1,False,False,011,3,2,False,False,True,True,101,False,0.0-131.0,False,2,28,"[2, 1]",stimuli/3011101.jpg,44315,prediction_trial,156,image-keyboard-response,True,
234,Experimen 4,False,0,False,True,100,3,0,False,True,True,True,111,False,0.0-133.0,False,2,0,[0],stimuli/3100111.jpg,44505,prediction_trial,158,image-keyboard-response,True,
234,Experimen 4,False,0,False,False,110,3,0,False,False,True,True,111,False,0.0-135.0,False,2,159,"[0, 1]",stimuli/3110111.jpg,44890,prediction_trial,160,image-keyboard-response,True,
234,Experimen 4,True,1,False,True,001,3,2,False,True,True,True,111,False,0.0-137.0,False,2,123,[2],stimuli/3001111.jpg,45106,prediction_trial,162,image-keyboard-response,True,
234,Experimen 4,True,1,False,True,001,3,2,False,True,True,True,101,False,0.0-139.0,False,2,91,[2],stimuli/3001101.jpg,45318,prediction_trial,164,image-keyboard-response,True,
234,Experimen 4,False,0,False,False,011,3,1,False,False,True,True,101,False,0.0-141.0,False,2,63,"[2, 1]",stimuli/3011101.jpg,45518,prediction_trial,166,image-keyboard-response,True,
234,Experimen 4,False,0,True,True,100,1,1,False,True,False,True,010,True,0.0-143.0,False,2,48,[1],stimuli/1100010.jpg,45718,prediction_trial,168,image-keyboard-response,,
234,Experimen 4,True,1,True,True,100,2,2,False,False,False,False,011,False,0.0-145.0,True,2,15,[2],stimuli/2100011.jpg,45913,prediction_trial,170,image-keyboard-response,,
234,Experimen 4,False,0,True,True,000,0,0,True,True,True,True,000,True,0.0-147.0,False,2,2,[0],stimuli/0000000.jpg,46116,prediction_trial,172,image-keyboard-response,,
234,Experimen 4,False,0,False,False,111,0,0,False,False,True,True,000,True,0.0-149.0,False,2,205,"[1, 2, 0]",stimuli/0111000.jpg,46547,prediction_trial,174,image-keyboard-response,,
234,Experimen 4,False,0,True,True,010,0,0,False,False,False,False,101,False,0.0-151.0,True,2,191,[0],stimuli/0010101.jpg,46750,prediction_trial,176,image-keyboard-response,,
234,Experimen 4,False,0,False,False,110,3,1,False,False,True,True,101,False,0.0-153.0,False,2,192,"[0, 1]",stimuli/3110101.jpg,46978,prediction_trial,178,image-keyboard-response,True,
234,Experimen 4,False,0,False,True,100,3,0,False,True,True,True,110,False,0.0-155.0,False,2,171,[0],stimuli/3100110.jpg,47186,prediction_trial,180,image-keyboard-response,True,
234,Experimen 4,False,0,True,True,100,1,1,False,False,False,False,011,False,0.0-157.0,True,2,181,[1],stimuli/1100011.jpg,47420,prediction_trial,182,image-keyboard-response,,
234,Experimen 4,True,1,True,True,010,2,2,False,True,False,True,001,True,0.0-159.0,False,2,200,[2],stimuli/2010001.jpg,47646,prediction_trial,184,image-keyboard-response,,
234,Experimen 4,True,1,False,True,001,3,2,False,True,True,True,111,False,0.0-161.0,False,2,198,[2],stimuli/3001111.jpg,47870,prediction_trial,186,image-keyboard-response,True,
234,Experimen 4,False,0,False,False,101,3,0,False,False,True,True,110,False,0.0-163.0,False,2,43,"[2, 0]",stimuli/3101110.jpg,48099,prediction_trial,188,image-keyboard-response,True,
234,Experimen 4,True,1,False,False,011,2,2,False,False,False,True,001,True,0.0-165.0,False,2,190,"[2, 1]",stimuli/2011001.jpg,48477,prediction_trial,190,image-keyboard-response,,
234,Experimen 4,False,0,False,True,100,3,0,False,True,True,True,101,False,0.0-167.0,False,2,187,[0],stimuli/3100101.jpg,48668,prediction_trial,192,image-keyboard-response,True,
234,Experimen 4,False,0,True,True,000,1,1,False,True,False,True,010,True,0.0-169.0,False,2,200,[1],stimuli/1000010.jpg,48877,prediction_trial,194,image-keyboard-response,,
234,Experimen 4,False,0,False,False,101,3,0,False,False,True,True,110,False,0.0-171.0,False,2,187,"[2, 0]",stimuli/3101110.jpg,49076,prediction_trial,196,image-keyboard-response,True,
234,Experimen 4,False,0,False,False,110,1,1,False,False,False,False,110,False,0.0-173.0,True,2,177,"[1, 0]",stimuli/1110110.jpg,49287,prediction_trial,198,image-keyboard-response,,
234,Experimen 4,False,0,False,True,100,3,0,False,True,True,True,110,False,0.0-175.0,False,2,190,[0],stimuli/3100110.jpg,49508,prediction_trial,200,image-keyboard-response,True,
234,Experimen 4,False,0,False,True,010,3,1,False,True,True,True,110,False,0.0-177.0,False,2,173,[1],stimuli/3010110.jpg,49701,prediction_trial,202,image-keyboard-response,True,
234,Experimen 4,False,0,False,False,110,0,1,False,False,False,False,101,False,0.0-179.0,True,2,124,"[0, 1]",stimuli/0110101.jpg,49902,prediction_trial,204,image-keyboard-response,,
234,Experimen 4,False,0,True,True,001,0,0,False,False,False,False,111,False,0.0-181.0,True,2,77,[0],stimuli/0001111.jpg,50100,prediction_trial,206,image-keyboard-response,,
234,Experimen 4,True,1,True,True,110,2,2,True,True,True,True,100,True,0.0-183.0,False,2,97,[2],stimuli/2110100.jpg,50304,prediction_trial,208,image-keyboard-response,,
234,Experimen 4,False,0,False,False,101,0,0,False,False,False,False,111,False,0.0-185.0,True,2,91,"[2, 0]",stimuli/0101111.jpg,50516,prediction_trial,210,image-keyboard-response,,
234,Experimen 4,False,0,False,True,010,3,1,False,True,True,True,011,False,0.0-187.0,False,2,86,[1],stimuli/3010011.jpg,50721,prediction_trial,212,image-keyboard-response,True,
234,Experimen 4,False,0,False,True,100,0,0,False,True,False,True,100,True,0.0-189.0,False,2,75,[0],stimuli/0100100.jpg,50928,prediction_trial,214,image-keyboard-response,,
234,Experimen 4,False,0,True,True,101,1,1,False,False,False,False,011,False,0.0-191.0,True,2,74,[1],stimuli/1101011.jpg,51148,prediction_trial,216,image-keyboard-response,,
234,Experimen 4,False,0,True,True,101,1,1,False,True,False,True,010,True,0.0-193.0,False,2,87,[1],stimuli/1101010.jpg,51347,prediction_trial,218,image-keyboard-response,,
234,Experimen 4,False,0,False,False,110,3,1,False,False,True,True,011,False,0.0-195.0,False,2,88,"[0, 1]",stimuli/3110011.jpg,51549,prediction_trial,220,image-keyboard-response,True,
234,Experimen 4,False,0,False,True,100,0,0,False,False,False,False,111,False,0.0-197.0,True,2,89,[0],stimuli/0100111.jpg,51766,prediction_trial,222,image-keyboard-response,,
234,Experimen 4,True,1,True,True,010,2,2,False,False,False,False,111,False,0.0-199.0,True,2,70,[2],stimuli/2010111.jpg,51972,prediction_trial,224,image-keyboard-response,,
234,Experimen 4,False,0,True,True,100,1,1,True,True,True,True,001,True,0.0-201.0,False,2,99,[1],stimuli/1100001.jpg,52193,prediction_trial,226,image-keyboard-response,,
234,Experimen 4,False,0,False,True,100,0,0,False,False,False,False,110,False,0.0-203.0,True,2,84,[0],stimuli/0100110.jpg,52396,prediction_trial,228,image-keyboard-response,,
234,Experimen 4,False,0,False,True,010,1,1,False,False,False,False,110,False,0.0-205.0,True,2,48,[1],stimuli/1010110.jpg,52569,prediction_trial,230,image-keyboard-response,,
234,Experimen 4,False,0,False,False,101,3,0,False,False,True,True,111,False,0.0-207.0,False,2,20,"[2, 0]",stimuli/3101111.jpg,52757,prediction_trial,232,image-keyboard-response,True,
234,Experimen 4,False,0,True,True,011,0,0,True,True,True,True,010,True,0.0-209.0,False,2,184,[0],stimuli/0011010.jpg,53152,prediction_trial,234,image-keyboard-response,,
234,Experimen 4,False,0,True,True,001,1,1,False,False,False,False,011,False,0.0-211.0,True,2,194,[1],stimuli/1001011.jpg,53361,prediction_trial,236,image-keyboard-response,,
234,Experimen 4,False,0,False,False,110,3,1,False,False,True,True,101,False,0.0-213.0,False,2,174,"[0, 1]",stimuli/3110101.jpg,53566,prediction_trial,238,image-keyboard-response,True,
234,Experimen 4,False,0,False,False,101,2,0,False,False,False,False,111,False,0.0-215.0,True,2,170,"[0, 2]",stimuli/2101111.jpg,53774,prediction_trial,240,image-keyboard-response,,
234,Experimen 4,False,0,False,False,110,3,1,False,False,True,True,111,False,0.0-217.0,False,2,128,"[0, 1]",stimuli/3110111.jpg,53967,prediction_trial,242,image-keyboard-response,True,
234,Experimen 4,True,1,True,True,010,2,2,True,True,True,True,010,True,0.0-219.0,False,2,131,[2],stimuli/2010010.jpg,54176,prediction_trial,244,image-keyboard-response,,
234,Experimen 4,False,0,False,False,110,0,0,False,False,False,False,110,False,0.0-221.0,True,2,115,"[0, 1]",stimuli/0110110.jpg,54376,prediction_trial,246,image-keyboard-response,,
234,Experimen 4,True,1,False,True,001,3,2,False,True,True,True,110,False,0.0-223.0,False,2,83,[2],stimuli/3001110.jpg,54553,prediction_trial,248,image-keyboard-response,True,
234,Experimen 4,False,0,True,True,011,0,0,False,False,False,False,111,False,0.0-225.0,True,2,26,[0],stimuli/0011111.jpg,54729,prediction_trial,250,image-keyboard-response,,
234,Experimen 4,False,0,True,True,001,1,1,False,False,False,False,111,False,0.0-227.0,True,2,16,[1],stimuli/1001111.jpg,54923,prediction_trial,252,image-keyboard-response,,
234,Experimen 4,False,0,False,True,100,3,0,False,True,True,True,011,False,0.0-229.0,False,2,150,[0],stimuli/3100011.jpg,55268,prediction_trial,254,image-keyboard-response,True,
234,Experimen 4,False,0,False,False,111,0,0,False,False,False,False,111,True,0.0-231.0,False,2,109,"[1, 0, 2]",stimuli/0111111.jpg,55442,prediction_trial,256,image-keyboard-response,,
234,Experimen 4,True,1,False,True,001,3,2,False,True,True,True,101,False,0.0-233.0,False,2,91,[2],stimuli/3001101.jpg,55612,prediction_trial,258,image-keyboard-response,True,
234,Experimen 4,False,0,False,True,010,3,1,False,True,True,True,111,False,0.0-235.0,False,2,61,[1],stimuli/3010111.jpg,55796,prediction_trial,260,image-keyboard-response,True,
234,Experimen 4,False,0,True,True,010,0,0,False,False,False,False,110,False,0.0-237.0,True,2,26,[0],stimuli/0010110.jpg,55976,prediction_trial,262,image-keyboard-response,,
234,Experimen 4,True,1,True,True,000,2,2,False,False,False,False,101,True,0.0-239.0,False,2,161,[2],stimuli/2000101.jpg,56342,prediction_trial,264,image-keyboard-response,,
234,Experimen 4,False,0,False,False,011,1,1,False,False,False,False,111,False,0.0-241.0,True,2,132,"[1, 2]",stimuli/1011111.jpg,56551,prediction_trial,266,image-keyboard-response,,
234,Experimen 4,False,0,False,True,010,1,1,False,False,False,False,111,False,0.0-243.0,True,2,102,[1],stimuli/1010111.jpg,56757,prediction_trial,268,image-keyboard-response,,
234,Experimen 4,True,1,False,False,101,0,2,False,False,True,True,000,True,0.0-245.0,False,2,95,"[2, 0]",stimuli/0101000.jpg,56960,prediction_trial,270,image-keyboard-response,,
234,Experimen 4,True,1,True,True,100,2,2,False,False,False,False,101,False,0.0-247.0,True,2,67,[2],stimuli/2100101.jpg,57151,prediction_trial,272,image-keyboard-response,,
234,Experimen 4,True,1,False,True,001,3,2,False,True,True,True,110,False,0.0-249.0,False,2,22,[2],stimuli/3001110.jpg,57340,prediction_trial,274,image-keyboard-response,True,
234,Experimen 4,False,0,True,True,001,1,1,False,True,False,True,010,True,0.0-251.0,False,2,1,[1],stimuli/1001010.jpg,57534,prediction_trial,276,image-keyboard-response,,
234,Experimen 4,False,0,False,False,101,0,0,False,False,False,False,101,False,0.0-253.0,True,2,194,"[0, 2]",stimuli/0101101.jpg,57941,prediction_trial,278,image-keyboard-response,,
234,Experimen 4,False,0,False,False,110,0,0,False,False,True,True,010,True,0.0-255.0,False,2,159,"[0, 1]",stimuli/0110010.jpg,58127,prediction_trial,280,image-keyboard-response,,
234,Experimen 4,False,0,False,True,100,3,0,False,True,True,True,101,False,0.0-257.0,False,2,142,[0],stimuli/3100101.jpg,58330,prediction_trial,282,image-keyboard-response,True,
234,Experimen 4,True,1,True,True,000,2,2,False,True,False,True,001,True,0.0-259.0,False,2,123,[2],stimuli/2000001.jpg,58522,prediction_trial,284,image-keyboard-response,,
234,Experimen 4,False,0,False,False,011,3,1,False,False,True,True,111,False,0.0-261.0,False,2,110,"[1, 2]",stimuli/3011111.jpg,58717,prediction_trial,286,image-keyboard-response,True,
234,Experimen 4,True,1,False,False,111,0,2,False,False,False,True,100,True,0.0-263.0,False,2,68,"[2, 1, 0]",stimuli/0111100.jpg,58892,prediction_trial,288,image-keyboard-response,,
234,Experimen 4,True,1,True,True,100,2,2,False,False,False,False,111,False,0.0-265.0,True,2,156,[2],stimuli/2100111.jpg,59219,prediction_trial,290,image-keyboard-response,,
234,Experimen 4,False,0,True,True,010,0,0,True,True,True,True,000,True,0.0-267.0,False,2,121,[0],stimuli/0010000.jpg,59422,prediction_trial,292,image-keyboard-response,,
234,Experimen 4,True,1,False,False,011,3,2,False,False,True,True,011,False,0.0-269.0,False,2,19,"[2, 1]",stimuli/3011011.jpg,59556,prediction_trial,294,image-keyboard-response,True,
234,Experimen 4,False,0,True,True,101,1,1,False,False,False,False,111,False,0.0-271.0,True,2,129,[1],stimuli/1101111.jpg,59898,prediction_trial,296,image-keyboard-response,,
234,Experimen 4,False,0,False,False,011,3,1,False,False,True,True,110,False,0.0-273.0,False,2,106,"[2, 1]",stimuli/3011110.jpg,60096,prediction_trial,298,image-keyboard-response,True,
234,Experimen 4,False,0,False,True,100,3,0,False,True,True,True,111,False,0.0-275.0,False,2,87,[0],stimuli/3100111.jpg,60283,prediction_trial,300,image-keyboard-response,True,
234,Experimen 4,False,0,True,True,000,1,1,True,True,True,True,001,True,0.0-277.0,False,2,63,[1],stimuli/1000001.jpg,60476,prediction_trial,302,image-keyboard-response,,
234,Experimen 4,False,0,False,True,010,3,1,False,True,True,True,011,False,0.0-279.0,False,2,35,[1],stimuli/3010011.jpg,60662,prediction_trial,304,image-keyboard-response,True,
234,Experimen 4,False,0,False,False,110,3,1,False,False,True,True,111,False,0.0-281.0,False,2,8,"[0, 1]",stimuli/3110111.jpg,60857,prediction_trial,306,image-keyboard-response,True,
234,Experimen 4,False,0,True,True,001,1,1,True,True,True,True,101,True,0.0-283.0,False,2,183,[1],stimuli/1001101.jpg,61242,prediction_trial,308,image-keyboard-response,,
234,Experimen 4,True,1,True,True,110,2,2,True,True,True,True,010,True,0.0-285.0,False,2,165,[2],stimuli/2110010.jpg,61435,prediction_trial,310,image-keyboard-response,,
234,Experimen 4,False,0,True,True,000,0,0,True,True,True,True,001,True,0.0-287.0,False,2,152,[0],stimuli/0000001.jpg,61635,prediction_trial,312,image-keyboard-response,,
234,Experimen 4,True,1,False,False,011,1,2,False,False,False,False,011,False,0.0-289.0,True,2,113,"[1, 2]",stimuli/1011011.jpg,61814,prediction_trial,314,image-keyboard-response,,
234,Experimen 4,True,1,False,True,001,3,2,False,True,True,True,011,False,0.0-291.0,False,2,125,[2],stimuli/3001011.jpg,61999,prediction_trial,316,image-keyboard-response,True,
234,Experimen 4,False,0,True,True,001,0,0,True,True,True,True,010,True,0.0-293.0,False,2,79,[0],stimuli/0001010.jpg,62173,prediction_trial,318,image-keyboard-response,,
234,Experimen 4,False,0,False,True,010,3,1,False,True,True,True,101,False,0.0-295.0,False,2,35,[1],stimuli/3010101.jpg,62338,prediction_trial,320,image-keyboard-response,True,
234,Experimen 4,False,0,True,True,010,0,0,True,True,True,True,001,True,0.0-297.0,False,2,5,[0],stimuli/0010001.jpg,62519,prediction_trial,322,image-keyboard-response,,
234,Experimen 4,True,1,False,False,111,2,2,False,False,False,False,111,True,0.0-299.0,False,2,17,"[1, 2, 0]",stimuli/2111111.jpg,62725,prediction_trial,324,image-keyboard-response,,
234,Experimen 4,True,1,False,True,001,2,2,False,False,False,False,111,False,0.0-301.0,True,2,145,[2],stimuli/2001111.jpg,63082,prediction_trial,326,image-keyboard-response,,
234,Experimen 4,False,0,True,True,001,0,0,False,False,False,False,110,False,0.0-303.0,True,2,146,[0],stimuli/0001110.jpg,63287,prediction_trial,328,image-keyboard-response,,
234,Experimen 4,False,0,False,True,100,0,0,False,False,False,False,101,False,0.0-305.0,True,2,155,[0],stimuli/0100101.jpg,63490,prediction_trial,330,image-keyboard-response,,
234,Experimen 4,True,1,False,False,101,3,2,False,False,True,True,011,False,0.0-307.0,False,2,164,"[2, 0]",stimuli/3101011.jpg,63697,prediction_trial,332,image-keyboard-response,True,
234,Experimen 4,False,0,False,True,100,3,0,False,True,True,True,011,False,0.0-309.0,False,2,120,[0],stimuli/3100011.jpg,63880,prediction_trial,334,image-keyboard-response,True,
234,Experimen 4,False,0,True,True,000,1,1,True,True,True,True,000,True,0.0-311.0,False,2,109,[1],stimuli/1000000.jpg,64272,prediction_trial,336,image-keyboard-response,,
234,Experimen 4,True,1,False,True,001,3,2,False,True,True,True,011,False,0.0-313.0,False,2,107,[2],stimuli/3001011.jpg,64445,prediction_trial,338,image-keyboard-response,True,
234,Experimen 4,True,1,False,False,011,1,2,False,False,True,True,100,True,0.0-315.0,False,2,82,"[2, 1]",stimuli/1011100.jpg,64589,prediction_trial,340,image-keyboard-response,,
234,Experimen 4,True,1,True,True,010,2,2,False,False,False,False,101,False,0.0-317.0,True,2,59,[2],stimuli/2010101.jpg,64737,prediction_trial,342,image-keyboard-response,,
234,Experimen 4,True,1,True,True,100,2,2,True,True,True,True,110,True,0.0-319.0,False,2,75,[2],stimuli/2100110.jpg,64920,prediction_trial,344,image-keyboard-response,,
234,Experimen 4,False,0,True,True,011,0,0,False,False,False,False,110,False,0.0-321.0,True,2,79,[0],stimuli/0011110.jpg,65096,prediction_trial,346,image-keyboard-response,,
234,Experimen 4,True,1,True,True,110,2,2,False,True,False,True,001,True,0.0-323.0,False,2,84,[2],stimuli/2110001.jpg,65256,prediction_trial,348,image-keyboard-response,,
234,Experimen 4,False,0,False,True,010,1,1,False,False,False,False,011,False,0.0-325.0,True,2,84,[1],stimuli/1010011.jpg,65429,prediction_trial,350,image-keyboard-response,,
234,Experimen 4,True,1,False,False,101,3,2,False,False,True,True,101,False,0.0-327.0,False,2,74,"[2, 0]",stimuli/3101101.jpg,65616,prediction_trial,352,image-keyboard-response,True,
