workerid,proliferate.condition,accuracy,accuracy_bool,alter_ball_visible,alter_can_infer,alter_occluders,ball_pos,character_choice,collective_ball_visible,collective_can_infer,ego_ball_visible,ego_can_infer,ego_occluders,internal_node_id,response,rt,search_locations,stimulus,time_elapsed,trial,trial_index,trial_type,error
53,Control,True,1,True,True,010,0,0,True,True,True,True,010,0.0-5.0,0,1245,[0],stimuli/0010010.jpg,284289,prediction_trial,30,image-keyboard-response,
53,Control,True,1,False,False,111,1,1,False,False,True,True,100,0.0-7.0,1,698,[1],stimuli/1111100.jpg,285505,prediction_trial,32,image-keyboard-response,
53,Control,False,0,False,False,111,1,1,False,False,False,True,111,0.0-9.0,2,1548,[1],stimuli/1111111.jpg,287527,prediction_trial,34,image-keyboard-response,
53,Control,False,0,True,True,011,0,0,False,True,False,True,111,0.0-11.0,2,949,[0],stimuli/0011111.jpg,289082,prediction_trial,36,image-keyboard-response,
53,Control,True,1,False,False,110,1,1,False,False,False,True,010,0.0-13.0,1,1225,[1],stimuli/1110010.jpg,291136,prediction_trial,38,image-keyboard-response,
53,Control,False,0,True,True,000,2,2,False,True,False,True,111,0.0-15.0,0,1128,[2],stimuli/2000111.jpg,293021,prediction_trial,40,image-keyboard-response,
53,Control,True,1,True,True,011,0,0,False,True,False,True,100,0.0-17.0,0,662,[0],stimuli/0011100.jpg,294425,prediction_trial,42,image-keyboard-response,
53,Control,True,1,True,True,100,1,1,True,True,True,True,001,0.0-19.0,1,558,[1],stimuli/1100001.jpg,295418,prediction_trial,44,image-keyboard-response,
53,Control,True,1,True,True,010,0,0,True,True,True,True,011,0.0-21.0,0,396,[0],stimuli/0010011.jpg,296117,prediction_trial,46,image-keyboard-response,
53,Control,True,1,False,False,101,0,0,False,False,False,True,110,0.0-23.0,0,766,[0],stimuli/0101110.jpg,297208,prediction_trial,48,image-keyboard-response,
53,Control,True,1,True,True,000,0,0,False,True,False,True,100,0.0-25.0,0,718,[0],stimuli/0000100.jpg,298329,prediction_trial,50,image-keyboard-response,
53,Control,True,1,True,True,011,0,0,True,True,True,True,011,0.0-27.0,0,992,[0],stimuli/0011011.jpg,299764,prediction_trial,52,image-keyboard-response,
53,Control,True,1,True,True,100,1,1,False,True,False,True,011,0.0-29.0,1,2133,[1],stimuli/1100011.jpg,302384,prediction_trial,54,image-keyboard-response,
53,Control,True,1,False,False,111,1,1,False,False,False,True,010,0.0-31.0,1,1013,[1],stimuli/1111010.jpg,304147,prediction_trial,56,image-keyboard-response,
53,Control,True,1,True,True,101,1,1,False,True,False,True,010,0.0-33.0,1,782,[1],stimuli/1101010.jpg,305499,prediction_trial,58,image-keyboard-response,
53,Control,False,0,False,True,010,1,1,False,True,False,True,011,0.0-35.0,2,1198,[1],stimuli/1010011.jpg,307182,prediction_trial,60,image-keyboard-response,
53,Control,True,1,False,False,110,1,1,False,False,True,True,101,0.0-37.0,1,659,[1],stimuli/1110101.jpg,308581,prediction_trial,62,image-keyboard-response,
53,Control,True,1,False,True,001,2,2,False,True,True,True,000,0.0-39.0,2,523,[2],stimuli/2001000.jpg,309726,prediction_trial,64,image-keyboard-response,
53,Control,False,0,False,True,001,2,2,False,True,False,True,111,0.0-41.0,1,1675,[2],stimuli/2001111.jpg,311930,prediction_trial,66,image-keyboard-response,
53,Control,True,1,False,False,011,1,1,False,False,True,True,101,0.0-43.0,1,526,[1],stimuli/1011101.jpg,313254,prediction_trial,68,image-keyboard-response,
53,Control,True,1,False,True,001,2,2,False,True,False,True,011,0.0-45.0,2,834,[2],stimuli/2001011.jpg,314467,prediction_trial,70,image-keyboard-response,
53,Control,True,1,False,True,010,1,1,False,True,False,True,010,0.0-47.0,1,890,[1],stimuli/1010010.jpg,315994,prediction_trial,72,image-keyboard-response,
53,Control,True,1,True,True,000,0,0,True,True,True,True,001,0.0-49.0,0,597,[0],stimuli/0000001.jpg,316982,prediction_trial,74,image-keyboard-response,
53,Control,True,1,False,False,111,1,1,False,False,True,True,101,0.0-51.0,1,490,[1],stimuli/1111101.jpg,317804,prediction_trial,76,image-keyboard-response,
53,Control,False,0,True,True,100,1,1,False,True,False,True,111,0.0-53.0,0,988,[1],stimuli/1100111.jpg,319154,prediction_trial,78,image-keyboard-response,
53,Control,True,1,True,True,101,1,1,True,True,True,True,000,0.0-55.0,1,546,[1],stimuli/1101000.jpg,320286,prediction_trial,80,image-keyboard-response,
53,Control,True,1,True,True,001,1,1,False,True,False,True,110,0.0-57.0,1,1811,[1],stimuli/1001110.jpg,322641,prediction_trial,82,image-keyboard-response,
53,Control,True,1,True,True,101,1,1,False,True,False,True,111,0.0-59.0,1,1058,[1],stimuli/1101111.jpg,324227,prediction_trial,84,image-keyboard-response,
53,Control,True,1,True,True,101,1,1,False,True,False,True,110,0.0-61.0,1,694,[1],stimuli/1101110.jpg,325528,prediction_trial,86,image-keyboard-response,
53,Control,True,1,True,True,000,2,2,True,True,True,True,100,0.0-63.0,2,563,[2],stimuli/2000100.jpg,326677,prediction_trial,88,image-keyboard-response,
53,Control,False,0,False,True,100,0,0,False,True,True,True,010,0.0-65.0,1,805,[0],stimuli/0100010.jpg,328012,prediction_trial,90,image-keyboard-response,
53,Control,False,0,True,True,010,0,0,False,True,False,True,111,0.0-67.0,1,2532,[0],stimuli/0010111.jpg,332534,prediction_trial,92,image-keyboard-response,
53,Control,True,1,False,True,010,1,1,False,True,True,True,000,0.0-69.0,1,685,[1],stimuli/1010000.jpg,333786,prediction_trial,94,image-keyboard-response,
53,Control,True,1,True,True,000,0,0,True,True,True,True,000,0.0-71.0,0,442,[0],stimuli/0000000.jpg,334590,prediction_trial,96,image-keyboard-response,
53,Control,True,1,True,True,000,2,2,True,True,True,True,110,0.0-73.0,2,510,[2],stimuli/2000110.jpg,335420,prediction_trial,98,image-keyboard-response,
53,Control,True,1,False,False,101,0,0,False,False,True,True,011,0.0-75.0,0,438,[0],stimuli/0101011.jpg,336186,prediction_trial,100,image-keyboard-response,
53,Control,True,1,True,True,011,0,0,True,True,True,True,010,0.0-77.0,0,450,[0],stimuli/0011010.jpg,336992,prediction_trial,102,image-keyboard-response,
53,Control,True,1,False,True,100,0,0,False,True,False,True,101,0.0-79.0,0,2908,[0],stimuli/0100101.jpg,340266,prediction_trial,104,image-keyboard-response,
53,Control,True,1,False,True,001,2,2,False,True,True,True,010,0.0-81.0,2,526,[2],stimuli/2001010.jpg,341415,prediction_trial,106,image-keyboard-response,
53,Control,True,1,False,True,010,1,1,False,True,True,True,100,0.0-83.0,1,591,[1],stimuli/1010100.jpg,342419,prediction_trial,108,image-keyboard-response,
53,Control,True,1,False,False,111,0,0,False,False,True,True,011,0.0-85.0,0,394,[0],stimuli/0111011.jpg,343133,prediction_trial,110,image-keyboard-response,
53,Control,True,1,False,True,010,1,1,False,True,True,True,101,0.0-87.0,1,562,[1],stimuli/1010101.jpg,344049,prediction_trial,112,image-keyboard-response,
53,Control,False,0,True,True,101,1,1,False,True,False,True,011,0.0-89.0,2,1548,[1],stimuli/1101011.jpg,345924,prediction_trial,114,image-keyboard-response,
53,Control,True,1,True,True,010,0,0,False,True,False,True,100,0.0-91.0,0,1161,[0],stimuli/0010100.jpg,347651,prediction_trial,116,image-keyboard-response,
53,Control,True,1,False,False,101,0,0,False,False,True,True,000,0.0-93.0,0,667,[0],stimuli/0101000.jpg,348723,prediction_trial,118,image-keyboard-response,
53,Control,True,1,True,True,010,0,0,True,True,True,True,001,0.0-95.0,0,606,[0],stimuli/0010001.jpg,349744,prediction_trial,120,image-keyboard-response,
53,Control,True,1,False,False,110,1,1,False,False,False,True,110,0.0-97.0,1,1180,[1],stimuli/1110110.jpg,351311,prediction_trial,122,image-keyboard-response,
53,Control,False,0,True,True,000,2,2,False,True,False,True,011,0.0-99.0,1,1089,[2],stimuli/2000011.jpg,352894,prediction_trial,124,image-keyboard-response,
53,Control,True,1,False,False,110,1,1,False,False,False,True,011,0.0-101.0,1,853,[1],stimuli/1110011.jpg,354498,prediction_trial,126,image-keyboard-response,
53,Control,True,1,True,True,000,2,2,True,True,True,True,000,0.0-103.0,2,885,[2],stimuli/2000000.jpg,355925,prediction_trial,128,image-keyboard-response,
53,Control,False,0,True,True,000,0,0,False,True,False,True,110,0.0-105.0,1,1528,[0],stimuli/0000110.jpg,357923,prediction_trial,130,image-keyboard-response,
53,Control,True,1,False,True,100,0,0,False,True,True,True,000,0.0-107.0,0,727,[0],stimuli/0100000.jpg,359225,prediction_trial,132,image-keyboard-response,
53,Control,True,1,True,True,001,0,0,False,True,False,True,100,0.0-109.0,0,1149,[0],stimuli/0001100.jpg,360824,prediction_trial,134,image-keyboard-response,
53,Control,True,1,True,True,100,1,1,False,True,False,True,010,0.0-111.0,1,734,[1],stimuli/1100010.jpg,361897,prediction_trial,136,image-keyboard-response,
53,Control,True,1,True,True,000,1,1,False,True,False,True,110,0.0-113.0,1,1212,[1],stimuli/1000110.jpg,363452,prediction_trial,138,image-keyboard-response,
53,Control,True,1,False,False,111,0,0,False,False,True,True,001,0.0-115.0,0,672,[0],stimuli/0111001.jpg,364612,prediction_trial,140,image-keyboard-response,
53,Control,True,1,False,False,101,0,0,False,False,False,True,101,0.0-117.0,0,1986,[0],stimuli/0101101.jpg,367037,prediction_trial,142,image-keyboard-response,
53,Control,True,1,True,True,000,1,1,True,True,True,True,100,0.0-119.0,1,515,[1],stimuli/1000100.jpg,368114,prediction_trial,144,image-keyboard-response,
53,Control,True,1,False,True,010,1,1,False,True,True,True,001,0.0-121.0,1,442,[1],stimuli/1010001.jpg,368987,prediction_trial,146,image-keyboard-response,
53,Control,True,1,True,True,000,1,1,True,True,True,True,001,0.0-123.0,1,564,[1],stimuli/1000001.jpg,369968,prediction_trial,148,image-keyboard-response,
53,Control,True,1,True,True,100,1,1,True,True,True,True,100,0.0-125.0,1,518,[1],stimuli/1100100.jpg,370916,prediction_trial,150,image-keyboard-response,
53,Control,True,1,False,False,101,0,0,False,False,True,True,001,0.0-127.0,0,650,[0],stimuli/0101001.jpg,371934,prediction_trial,152,image-keyboard-response,
53,Control,True,1,False,False,101,0,0,False,False,True,True,010,0.0-129.0,0,693,[0],stimuli/0101010.jpg,373026,prediction_trial,154,image-keyboard-response,
53,Control,False,0,True,True,010,0,0,False,True,False,True,101,0.0-131.0,2,1259,[0],stimuli/0010101.jpg,374647,prediction_trial,156,image-keyboard-response,
53,Control,False,0,False,False,111,0,0,False,False,False,True,110,0.0-133.0,1,1451,[0],stimuli/0111110.jpg,376695,prediction_trial,158,image-keyboard-response,
53,Control,True,1,True,True,000,1,1,True,True,True,True,101,0.0-135.0,1,498,[1],stimuli/1000101.jpg,377648,prediction_trial,160,image-keyboard-response,
53,Control,True,1,False,True,001,2,2,False,True,True,True,100,0.0-137.0,2,515,[2],stimuli/2001100.jpg,378526,prediction_trial,162,image-keyboard-response,
53,Control,True,1,True,True,001,1,1,True,True,True,True,000,0.0-139.0,1,456,[1],stimuli/1001000.jpg,379363,prediction_trial,164,image-keyboard-response,
53,Control,True,1,False,False,011,1,1,False,False,True,True,001,0.0-141.0,1,443,[1],stimuli/1011001.jpg,380209,prediction_trial,166,image-keyboard-response,
53,Control,True,1,True,True,100,1,1,False,True,False,True,110,0.0-143.0,1,1439,[1],stimuli/1100110.jpg,382026,prediction_trial,168,image-keyboard-response,
53,Control,False,0,False,False,111,0,0,False,False,False,True,111,0.0-145.0,1,882,[0],stimuli/0111111.jpg,383514,prediction_trial,170,image-keyboard-response,
53,Control,False,0,True,True,000,0,0,False,True,False,True,111,0.0-147.0,1,763,[0],stimuli/0000111.jpg,384787,prediction_trial,172,image-keyboard-response,
53,Control,False,0,True,True,011,0,0,False,True,False,True,110,0.0-149.0,1,790,[0],stimuli/0011110.jpg,385974,prediction_trial,174,image-keyboard-response,
53,Control,True,1,True,True,010,0,0,True,True,True,True,000,0.0-151.0,0,786,[0],stimuli/0010000.jpg,387167,prediction_trial,176,image-keyboard-response,
53,Control,True,1,False,False,110,0,0,False,False,True,True,000,0.0-153.0,0,698,[0],stimuli/0110000.jpg,389112,prediction_trial,178,image-keyboard-response,
53,Control,True,1,False,True,010,1,1,False,True,False,True,110,0.0-155.0,1,960,[1],stimuli/1010110.jpg,390528,prediction_trial,180,image-keyboard-response,
53,Control,True,1,False,False,110,0,0,False,False,False,True,100,0.0-157.0,0,663,[0],stimuli/0110100.jpg,391716,prediction_trial,182,image-keyboard-response,
53,Control,True,1,False,False,011,1,1,False,False,False,True,111,0.0-159.0,1,913,[1],stimuli/1011111.jpg,393048,prediction_trial,184,image-keyboard-response,
53,Control,True,1,True,True,011,0,0,True,True,True,True,001,0.0-161.0,0,574,[0],stimuli/0011001.jpg,394288,prediction_trial,186,image-keyboard-response,
53,Control,True,1,False,False,110,1,1,False,False,False,True,111,0.0-163.0,1,638,[1],stimuli/1110111.jpg,395445,prediction_trial,188,image-keyboard-response,
53,Control,True,1,False,False,011,1,1,False,False,False,True,010,0.0-165.0,1,1081,[1],stimuli/1011010.jpg,397048,prediction_trial,190,image-keyboard-response,
53,Control,False,0,True,True,010,0,0,False,True,False,True,110,0.0-167.0,1,829,[0],stimuli/0010110.jpg,398427,prediction_trial,192,image-keyboard-response,
53,Control,False,0,False,True,010,1,1,False,True,False,True,111,0.0-169.0,0,1248,[1],stimuli/1010111.jpg,400281,prediction_trial,194,image-keyboard-response,
53,Control,True,1,True,True,000,2,2,True,True,True,True,010,0.0-171.0,2,574,[2],stimuli/2000010.jpg,401342,prediction_trial,196,image-keyboard-response,
53,Control,True,1,False,False,110,0,0,False,False,False,True,111,0.0-173.0,0,1220,[0],stimuli/0110111.jpg,403284,prediction_trial,198,image-keyboard-response,
53,Control,False,0,False,False,110,0,0,False,False,False,True,110,0.0-175.0,1,678,[0],stimuli/0110110.jpg,404525,prediction_trial,200,image-keyboard-response,
53,Control,True,1,True,True,001,1,1,True,True,True,True,100,0.0-177.0,1,562,[1],stimuli/1001100.jpg,405832,prediction_trial,202,image-keyboard-response,
53,Control,True,1,True,True,100,1,1,True,True,True,True,101,0.0-179.0,1,394,[1],stimuli/1100101.jpg,406761,prediction_trial,204,image-keyboard-response,
53,Control,True,1,True,True,001,1,1,False,True,False,True,010,0.0-181.0,1,1029,[1],stimuli/1001010.jpg,408161,prediction_trial,206,image-keyboard-response,
53,Control,True,1,True,True,100,1,1,True,True,True,True,000,0.0-183.0,1,474,[1],stimuli/1100000.jpg,408986,prediction_trial,208,image-keyboard-response,
53,Control,True,1,False,False,110,1,1,False,False,True,True,001,0.0-185.0,1,417,[1],stimuli/1110001.jpg,409804,prediction_trial,210,image-keyboard-response,
53,Control,True,1,False,False,110,1,1,False,False,True,True,000,0.0-187.0,1,380,[1],stimuli/1110000.jpg,410553,prediction_trial,212,image-keyboard-response,
53,Control,True,1,True,True,000,1,1,False,True,False,True,111,0.0-189.0,1,1680,[1],stimuli/1000111.jpg,412612,prediction_trial,214,image-keyboard-response,
53,Control,True,1,False,False,110,1,1,False,False,True,True,100,0.0-191.0,1,550,[1],stimuli/1110100.jpg,413747,prediction_trial,216,image-keyboard-response,
53,Control,True,1,True,True,011,0,0,False,True,False,True,101,0.0-193.0,0,1440,[0],stimuli/0011101.jpg,415606,prediction_trial,218,image-keyboard-response,
53,Control,True,1,False,False,011,1,1,False,False,True,True,100,0.0-195.0,1,534,[1],stimuli/1011100.jpg,416630,prediction_trial,220,image-keyboard-response,
53,Control,True,1,True,True,011,0,0,True,True,True,True,000,0.0-197.0,0,479,[0],stimuli/0011000.jpg,417484,prediction_trial,222,image-keyboard-response,
53,Control,True,1,True,True,001,1,1,False,True,False,True,011,0.0-199.0,1,909,[1],stimuli/1001011.jpg,418787,prediction_trial,224,image-keyboard-response,
53,Control,True,1,False,False,011,1,1,False,False,True,True,000,0.0-201.0,1,504,[1],stimuli/1011000.jpg,419682,prediction_trial,226,image-keyboard-response,
53,Control,True,1,True,True,001,0,0,True,True,True,True,011,0.0-203.0,0,555,[0],stimuli/0001011.jpg,420582,prediction_trial,228,image-keyboard-response,
53,Control,True,1,True,True,000,1,1,True,True,True,True,000,0.0-205.0,1,428,[1],stimuli/1000000.jpg,421338,prediction_trial,230,image-keyboard-response,
53,Control,True,1,False,True,100,0,0,False,True,True,True,011,0.0-207.0,0,395,[0],stimuli/0100011.jpg,422107,prediction_trial,232,image-keyboard-response,
53,Control,True,1,False,False,111,1,1,False,False,True,True,001,0.0-209.0,1,419,[1],stimuli/1111001.jpg,422857,prediction_trial,234,image-keyboard-response,
53,Control,True,1,False,False,111,0,0,False,False,True,True,000,0.0-211.0,0,394,[0],stimuli/0111000.jpg,423566,prediction_trial,236,image-keyboard-response,
53,Control,True,1,True,True,101,1,1,True,True,True,True,001,0.0-213.0,1,391,[1],stimuli/1101001.jpg,424300,prediction_trial,238,image-keyboard-response,
53,Control,True,1,False,False,011,1,1,False,False,False,True,110,0.0-215.0,1,885,[1],stimuli/1011110.jpg,425512,prediction_trial,240,image-keyboard-response,
53,Control,True,1,True,True,001,0,0,True,True,True,True,010,0.0-217.0,0,486,[0],stimuli/0001010.jpg,426397,prediction_trial,242,image-keyboard-response,
53,Control,True,1,False,False,110,0,0,False,False,True,True,001,0.0-219.0,0,669,[0],stimuli/0110001.jpg,427438,prediction_trial,244,image-keyboard-response,
53,Control,True,1,True,True,000,0,0,False,True,False,True,101,0.0-221.0,0,1062,[0],stimuli/0000101.jpg,428811,prediction_trial,246,image-keyboard-response,
53,Control,True,1,True,True,001,1,1,True,True,True,True,101,0.0-223.0,1,570,[1],stimuli/1001101.jpg,429771,prediction_trial,248,image-keyboard-response,
53,Control,False,0,True,True,000,2,2,False,True,False,True,101,0.0-225.0,0,1091,[2],stimuli/2000101.jpg,431251,prediction_trial,250,image-keyboard-response,
53,Control,True,1,True,True,001,0,0,True,True,True,True,000,0.0-227.0,0,514,[0],stimuli/0001000.jpg,432319,prediction_trial,252,image-keyboard-response,
53,Control,True,1,False,False,111,0,0,False,False,False,True,101,0.0-229.0,0,1034,[0],stimuli/0111101.jpg,433659,prediction_trial,254,image-keyboard-response,
53,Control,True,1,False,True,100,0,0,False,True,False,True,110,0.0-231.0,0,1325,[0],stimuli/0100110.jpg,435370,prediction_trial,256,image-keyboard-response,
53,Control,True,1,False,True,100,0,0,False,True,True,True,001,0.0-233.0,0,581,[0],stimuli/0100001.jpg,436318,prediction_trial,258,image-keyboard-response,
53,Control,False,0,False,False,111,1,1,False,False,False,True,110,0.0-235.0,0,2163,[1],stimuli/1111110.jpg,438822,prediction_trial,260,image-keyboard-response,
53,Control,True,1,True,True,001,1,1,True,True,True,True,001,0.0-237.0,1,587,[1],stimuli/1001001.jpg,439876,prediction_trial,262,image-keyboard-response,
53,Control,True,1,True,True,101,1,1,True,True,True,True,101,0.0-239.0,1,479,[1],stimuli/1101101.jpg,440650,prediction_trial,264,image-keyboard-response,
53,Control,True,1,True,True,000,2,2,False,True,False,True,001,0.0-241.0,2,667,[2],stimuli/2000001.jpg,441670,prediction_trial,266,image-keyboard-response,
53,Control,True,1,True,True,000,1,1,False,True,False,True,010,0.0-243.0,1,706,[1],stimuli/1000010.jpg,442783,prediction_trial,268,image-keyboard-response,
53,Control,True,1,False,False,110,0,0,False,False,True,True,010,0.0-245.0,0,669,[0],stimuli/0110010.jpg,443755,prediction_trial,270,image-keyboard-response,
53,Control,True,1,False,False,101,0,0,False,False,False,True,100,0.0-247.0,0,703,[0],stimuli/0101100.jpg,444775,prediction_trial,272,image-keyboard-response,
53,Control,False,0,True,True,001,1,1,False,True,False,True,111,0.0-249.0,0,1048,[1],stimuli/1001111.jpg,446418,prediction_trial,274,image-keyboard-response,
53,Control,True,1,False,True,100,0,0,False,True,False,True,100,0.0-251.0,0,620,[0],stimuli/0100100.jpg,447510,prediction_trial,276,image-keyboard-response,
53,Control,True,1,False,False,011,1,1,False,False,False,True,011,0.0-253.0,1,882,[1],stimuli/1011011.jpg,448756,prediction_trial,278,image-keyboard-response,
53,Control,True,1,False,False,111,1,1,False,False,True,True,000,0.0-255.0,1,535,[1],stimuli/1111000.jpg,449813,prediction_trial,280,image-keyboard-response,
53,Control,True,1,False,False,110,0,0,False,False,False,True,101,0.0-257.0,0,866,[0],stimuli/0110101.jpg,451048,prediction_trial,282,image-keyboard-response,
53,Control,True,1,False,True,001,2,2,False,True,False,True,101,0.0-259.0,2,2839,[2],stimuli/2001101.jpg,454518,prediction_trial,284,image-keyboard-response,
53,Control,True,1,False,True,001,2,2,False,True,False,True,001,0.0-261.0,2,623,[2],stimuli/2001001.jpg,455551,prediction_trial,286,image-keyboard-response,
53,Control,False,0,True,True,000,1,1,False,True,False,True,011,0.0-263.0,2,1009,[1],stimuli/1000011.jpg,456938,prediction_trial,288,image-keyboard-response,
53,Control,True,1,True,True,101,1,1,True,True,True,True,100,0.0-265.0,1,470,[1],stimuli/1101100.jpg,458230,prediction_trial,290,image-keyboard-response,
53,Control,False,0,False,True,100,0,0,False,True,False,True,111,0.0-267.0,1,706,[0],stimuli/0100111.jpg,459316,prediction_trial,292,image-keyboard-response,
53,Control,True,1,True,True,000,0,0,True,True,True,True,010,0.0-269.0,0,693,[0],stimuli/0000010.jpg,460590,prediction_trial,294,image-keyboard-response,
53,Control,True,1,False,False,111,0,0,False,False,False,True,100,0.0-271.0,0,773,[0],stimuli/0111100.jpg,461751,prediction_trial,296,image-keyboard-response,
53,Control,True,1,True,True,001,0,0,False,True,False,True,110,0.0-273.0,0,1527,[0],stimuli/0001110.jpg,463653,prediction_trial,298,image-keyboard-response,
53,Control,True,1,False,False,111,0,0,False,False,True,True,010,0.0-275.0,0,578,[0],stimuli/0111010.jpg,464606,prediction_trial,300,image-keyboard-response,
53,Control,True,1,True,True,000,0,0,True,True,True,True,011,0.0-277.0,0,470,[0],stimuli/0000011.jpg,465399,prediction_trial,302,image-keyboard-response,
53,Control,True,1,False,False,101,0,0,False,False,False,True,111,0.0-279.0,0,1319,[0],stimuli/0101111.jpg,467094,prediction_trial,304,image-keyboard-response,
53,Control,True,1,False,False,111,1,1,False,False,False,True,011,0.0-281.0,1,1890,[1],stimuli/1111011.jpg,469483,prediction_trial,306,image-keyboard-response,
53,Control,False,0,True,True,001,0,0,False,True,False,True,111,0.0-283.0,1,1660,[0],stimuli/0001111.jpg,471689,prediction_trial,308,image-keyboard-response,
53,Control,True,1,False,False,110,0,0,False,False,True,True,011,0.0-285.0,0,581,[0],stimuli/0110011.jpg,472732,prediction_trial,310,image-keyboard-response,
53,Control,True,1,True,True,001,0,0,False,True,False,True,101,0.0-287.0,0,1921,[0],stimuli/0001101.jpg,475017,prediction_trial,312,image-keyboard-response,
53,Control,True,1,True,True,001,0,0,True,True,True,True,001,0.0-289.0,0,533,[0],stimuli/0001001.jpg,475938,prediction_trial,314,image-keyboard-response,
53,Control,True,1,False,True,001,2,2,False,True,True,True,110,0.0-291.0,2,594,[2],stimuli/2001110.jpg,476932,prediction_trial,316,image-keyboard-response,
80,Control,False,0,True,True,000,0,0,False,True,False,True,111,0.0-5.0,2,2399,[0],stimuli/0000111.jpg,68872,prediction_trial,30,image-keyboard-response,
80,Control,True,1,True,True,010,0,0,True,True,True,True,000,0.0-7.0,0,767,[0],stimuli/0010000.jpg,71184,prediction_trial,32,image-keyboard-response,
80,Control,True,1,True,True,101,1,1,False,True,False,True,011,0.0-9.0,1,1295,[1],stimuli/1101011.jpg,72712,prediction_trial,34,image-keyboard-response,
80,Control,True,1,False,True,010,1,1,False,True,True,True,001,0.0-11.0,1,807,[1],stimuli/1010001.jpg,74208,prediction_trial,36,image-keyboard-response,
80,Control,True,1,True,True,001,0,0,True,True,True,True,011,0.0-13.0,0,887,[0],stimuli/0001011.jpg,75304,prediction_trial,38,image-keyboard-response,
80,Control,True,1,False,False,111,1,1,False,False,True,True,000,0.0-15.0,1,679,[1],stimuli/1111000.jpg,76160,prediction_trial,40,image-keyboard-response,
80,Control,False,0,False,False,110,0,0,False,False,False,True,111,0.0-17.0,2,1336,[0],stimuli/0110111.jpg,77697,prediction_trial,42,image-keyboard-response,
80,Control,True,1,False,True,010,1,1,False,True,False,True,110,0.0-19.0,1,975,[1],stimuli/1010110.jpg,79616,prediction_trial,44,image-keyboard-response,
80,Control,True,1,True,True,000,0,0,True,True,True,True,000,0.0-21.0,0,695,[0],stimuli/0000000.jpg,81304,prediction_trial,46,image-keyboard-response,
80,Control,True,1,False,False,111,0,0,False,False,False,True,100,0.0-23.0,0,1135,[0],stimuli/0111100.jpg,82648,prediction_trial,48,image-keyboard-response,
80,Control,False,0,False,True,001,2,2,False,True,False,True,011,0.0-25.0,1,1159,[2],stimuli/2001011.jpg,84072,prediction_trial,50,image-keyboard-response,
80,Control,True,1,True,True,100,1,1,True,True,True,True,100,0.0-27.0,1,671,[1],stimuli/1100100.jpg,85704,prediction_trial,52,image-keyboard-response,
80,Control,True,1,True,True,011,0,0,True,True,True,True,001,0.0-29.0,0,639,[0],stimuli/0011001.jpg,86576,prediction_trial,54,image-keyboard-response,
80,Control,True,1,False,False,111,1,1,False,False,True,True,100,0.0-31.0,1,639,[1],stimuli/1111100.jpg,87400,prediction_trial,56,image-keyboard-response,
80,Control,True,1,True,True,001,1,1,True,True,True,True,001,0.0-33.0,1,648,[1],stimuli/1001001.jpg,88257,prediction_trial,58,image-keyboard-response,
80,Control,True,1,False,True,001,2,2,False,True,True,True,010,0.0-35.0,2,663,[2],stimuli/2001010.jpg,89120,prediction_trial,60,image-keyboard-response,
80,Control,True,1,False,False,111,0,0,False,False,True,True,011,0.0-37.0,0,575,[0],stimuli/0111011.jpg,89888,prediction_trial,62,image-keyboard-response,
80,Control,True,1,False,False,111,0,0,False,False,True,True,010,0.0-39.0,0,1015,[0],stimuli/0111010.jpg,91104,prediction_trial,64,image-keyboard-response,
80,Control,True,1,False,False,101,0,0,False,False,True,True,010,0.0-41.0,0,631,[0],stimuli/0101010.jpg,91906,prediction_trial,66,image-keyboard-response,
80,Control,True,1,True,True,001,0,0,False,True,False,True,100,0.0-43.0,0,1431,[0],stimuli/0001100.jpg,93496,prediction_trial,68,image-keyboard-response,
80,Control,False,0,True,True,101,1,1,False,True,False,True,110,0.0-45.0,0,1279,[1],stimuli/1101110.jpg,94888,prediction_trial,70,image-keyboard-response,
80,Control,True,1,True,True,000,2,2,True,True,True,True,100,0.0-47.0,2,2079,[2],stimuli/2000100.jpg,97080,prediction_trial,72,image-keyboard-response,
80,Control,False,0,False,False,111,0,0,False,False,False,True,101,0.0-49.0,2,1192,[0],stimuli/0111101.jpg,98537,prediction_trial,74,image-keyboard-response,
80,Control,True,1,True,True,000,1,1,True,True,True,True,000,0.0-51.0,1,815,[1],stimuli/1000000.jpg,99704,prediction_trial,76,image-keyboard-response,
80,Control,True,1,False,False,110,0,0,False,False,True,True,000,0.0-53.0,0,735,[0],stimuli/0110000.jpg,100648,prediction_trial,78,image-keyboard-response,
80,Control,True,1,False,False,111,1,1,False,False,True,True,001,0.0-55.0,1,812,[1],stimuli/1111001.jpg,101664,prediction_trial,80,image-keyboard-response,
80,Control,True,1,False,False,110,1,1,False,False,True,True,100,0.0-57.0,1,823,[1],stimuli/1110100.jpg,102648,prediction_trial,82,image-keyboard-response,
80,Control,False,0,False,False,011,1,1,False,False,False,True,110,0.0-59.0,0,1103,[1],stimuli/1011110.jpg,103920,prediction_trial,84,image-keyboard-response,
80,Control,True,1,False,False,011,1,1,False,False,True,True,101,0.0-61.0,1,909,[1],stimuli/1011101.jpg,105048,prediction_trial,86,image-keyboard-response,
80,Control,True,1,True,True,011,0,0,True,True,True,True,011,0.0-63.0,0,703,[0],stimuli/0011011.jpg,105928,prediction_trial,88,image-keyboard-response,
80,Control,True,1,False,True,100,0,0,False,True,True,True,010,0.0-65.0,0,599,[0],stimuli/0100010.jpg,106696,prediction_trial,90,image-keyboard-response,
80,Control,False,0,True,True,000,2,2,False,True,False,True,111,0.0-67.0,1,1397,[2],stimuli/2000111.jpg,108304,prediction_trial,92,image-keyboard-response,
80,Control,True,1,True,True,000,0,0,False,True,False,True,110,0.0-69.0,0,1567,[0],stimuli/0000110.jpg,110152,prediction_trial,94,image-keyboard-response,
80,Control,False,0,True,True,001,0,0,False,True,False,True,111,0.0-71.0,2,1527,[0],stimuli/0001111.jpg,111832,prediction_trial,96,image-keyboard-response,
80,Control,False,0,True,True,000,1,1,False,True,False,True,110,0.0-73.0,0,1423,[1],stimuli/1000110.jpg,113472,prediction_trial,98,image-keyboard-response,
80,Control,True,1,True,True,000,2,2,False,True,False,True,001,0.0-75.0,2,1087,[2],stimuli/2000001.jpg,114752,prediction_trial,100,image-keyboard-response,
80,Control,True,1,False,True,010,1,1,False,True,True,True,101,0.0-77.0,1,655,[1],stimuli/1010101.jpg,115624,prediction_trial,102,image-keyboard-response,
80,Control,True,1,False,False,101,0,0,False,False,True,True,001,0.0-79.0,0,567,[0],stimuli/0101001.jpg,116368,prediction_trial,104,image-keyboard-response,
80,Control,False,0,True,True,000,2,2,False,True,False,True,011,0.0-81.0,1,886,[2],stimuli/2000011.jpg,117432,prediction_trial,106,image-keyboard-response,
80,Control,True,1,False,False,111,1,1,False,False,False,True,010,0.0-83.0,1,759,[1],stimuli/1111010.jpg,118456,prediction_trial,108,image-keyboard-response,
80,Control,True,1,False,True,010,1,1,False,True,False,True,010,0.0-85.0,1,1830,[1],stimuli/1010010.jpg,120481,prediction_trial,110,image-keyboard-response,
80,Control,False,0,False,False,111,0,0,False,False,False,True,111,0.0-87.0,1,1159,[0],stimuli/0111111.jpg,121809,prediction_trial,112,image-keyboard-response,
80,Control,True,1,False,False,110,0,0,False,False,True,True,011,0.0-89.0,0,839,[0],stimuli/0110011.jpg,122809,prediction_trial,114,image-keyboard-response,
80,Control,True,1,False,True,001,2,2,False,True,False,True,111,0.0-91.0,2,822,[2],stimuli/2001111.jpg,123777,prediction_trial,116,image-keyboard-response,
80,Control,True,1,False,False,101,0,0,False,False,False,True,101,0.0-93.0,0,1328,[0],stimuli/0101101.jpg,125225,prediction_trial,118,image-keyboard-response,
80,Control,True,1,True,True,101,1,1,True,True,True,True,101,0.0-95.0,1,903,[1],stimuli/1101101.jpg,126241,prediction_trial,120,image-keyboard-response,
80,Control,False,0,True,True,001,1,1,False,True,False,True,111,0.0-97.0,2,919,[1],stimuli/1001111.jpg,127321,prediction_trial,122,image-keyboard-response,
80,Control,True,1,True,True,000,2,2,True,True,True,True,110,0.0-99.0,2,855,[2],stimuli/2000110.jpg,128329,prediction_trial,124,image-keyboard-response,
80,Control,True,1,False,False,011,1,1,False,False,False,True,011,0.0-101.0,1,1288,[1],stimuli/1011011.jpg,129770,prediction_trial,126,image-keyboard-response,
80,Control,True,1,False,False,101,0,0,False,False,True,True,000,0.0-103.0,0,727,[0],stimuli/0101000.jpg,130681,prediction_trial,128,image-keyboard-response,
80,Control,True,1,True,True,001,0,0,True,True,True,True,010,0.0-105.0,0,615,[0],stimuli/0001010.jpg,131457,prediction_trial,130,image-keyboard-response,
80,Control,False,0,True,True,000,2,2,False,True,False,True,101,0.0-107.0,0,631,[2],stimuli/2000101.jpg,132241,prediction_trial,132,image-keyboard-response,
80,Control,False,0,True,True,100,1,1,False,True,False,True,110,0.0-109.0,0,895,[1],stimuli/1100110.jpg,133273,prediction_trial,134,image-keyboard-response,
80,Control,True,1,True,True,100,1,1,False,True,False,True,010,0.0-111.0,1,2016,[1],stimuli/1100010.jpg,135417,prediction_trial,136,image-keyboard-response,
80,Control,True,1,True,True,011,0,0,False,True,False,True,101,0.0-113.0,0,983,[0],stimuli/0011101.jpg,136529,prediction_trial,138,image-keyboard-response,
80,Control,True,1,False,True,100,0,0,False,True,True,True,011,0.0-115.0,0,943,[0],stimuli/0100011.jpg,137785,prediction_trial,140,image-keyboard-response,
80,Control,True,1,True,True,101,1,1,True,True,True,True,100,0.0-117.0,1,864,[1],stimuli/1101100.jpg,138882,prediction_trial,142,image-keyboard-response,
80,Control,True,1,True,True,000,0,0,False,True,False,True,100,0.0-119.0,0,672,[0],stimuli/0000100.jpg,139786,prediction_trial,144,image-keyboard-response,
80,Control,True,1,False,False,111,1,1,False,False,True,True,101,0.0-121.0,1,639,[1],stimuli/1111101.jpg,140633,prediction_trial,146,image-keyboard-response,
80,Control,True,1,True,True,101,1,1,True,True,True,True,001,0.0-123.0,1,661,[1],stimuli/1101001.jpg,141561,prediction_trial,148,image-keyboard-response,
80,Control,True,1,False,False,011,1,1,False,False,True,True,100,0.0-125.0,1,599,[1],stimuli/1011100.jpg,142385,prediction_trial,150,image-keyboard-response,
80,Control,True,1,False,False,110,0,0,False,False,True,True,010,0.0-127.0,0,582,[0],stimuli/0110010.jpg,143209,prediction_trial,152,image-keyboard-response,
80,Control,True,1,False,True,001,2,2,False,True,True,True,000,0.0-129.0,2,607,[2],stimuli/2001000.jpg,144017,prediction_trial,154,image-keyboard-response,
80,Control,False,0,True,True,000,2,2,True,True,True,True,010,0.0-131.0,1,558,[2],stimuli/2000010.jpg,144865,prediction_trial,156,image-keyboard-response,
80,Control,False,0,True,True,001,0,0,False,True,False,True,101,0.0-133.0,2,967,[0],stimuli/0001101.jpg,147809,prediction_trial,158,image-keyboard-response,
80,Control,True,1,True,True,010,0,0,True,True,True,True,010,0.0-135.0,0,823,[0],stimuli/0010010.jpg,149721,prediction_trial,160,image-keyboard-response,
80,Control,False,0,True,True,100,1,1,False,True,False,True,011,0.0-137.0,2,1455,[1],stimuli/1100011.jpg,151337,prediction_trial,162,image-keyboard-response,
80,Control,True,1,False,False,110,1,1,False,False,False,True,111,0.0-139.0,1,919,[1],stimuli/1110111.jpg,152737,prediction_trial,164,image-keyboard-response,
80,Control,True,1,False,True,001,2,2,False,True,True,True,100,0.0-141.0,2,711,[2],stimuli/2001100.jpg,154153,prediction_trial,166,image-keyboard-response,
80,Control,False,0,True,True,101,1,1,False,True,False,True,111,0.0-143.0,2,1783,[1],stimuli/1101111.jpg,156193,prediction_trial,168,image-keyboard-response,
80,Control,False,0,True,True,011,0,0,False,True,False,True,110,0.0-145.0,1,1031,[0],stimuli/0011110.jpg,157497,prediction_trial,170,image-keyboard-response,
80,Control,True,1,False,False,011,1,1,False,False,False,True,111,0.0-147.0,1,1079,[1],stimuli/1011111.jpg,158809,prediction_trial,172,image-keyboard-response,
80,Control,True,1,True,True,000,2,2,True,True,True,True,000,0.0-149.0,2,1070,[2],stimuli/2000000.jpg,160137,prediction_trial,174,image-keyboard-response,
80,Control,False,0,False,False,101,0,0,False,False,False,True,111,0.0-151.0,1,1079,[0],stimuli/0101111.jpg,161457,prediction_trial,176,image-keyboard-response,
80,Control,True,1,True,True,001,0,0,True,True,True,True,000,0.0-153.0,0,1142,[0],stimuli/0001000.jpg,162865,prediction_trial,178,image-keyboard-response,
80,Control,True,1,False,False,011,1,1,False,False,True,True,001,0.0-155.0,1,751,[1],stimuli/1011001.jpg,163824,prediction_trial,180,image-keyboard-response,
80,Control,True,1,False,True,100,0,0,False,True,True,True,001,0.0-157.0,0,847,[0],stimuli/0100001.jpg,164865,prediction_trial,182,image-keyboard-response,
80,Control,True,1,True,True,000,1,1,True,True,True,True,001,0.0-159.0,1,647,[1],stimuli/1000001.jpg,165681,prediction_trial,184,image-keyboard-response,
80,Control,True,1,True,True,000,1,1,True,True,True,True,101,0.0-161.0,1,647,[1],stimuli/1000101.jpg,166504,prediction_trial,186,image-keyboard-response,
80,Control,False,0,False,False,110,1,1,False,False,False,True,110,0.0-163.0,0,872,[1],stimuli/1110110.jpg,167529,prediction_trial,188,image-keyboard-response,
80,Control,True,1,True,True,001,1,1,False,True,False,True,011,0.0-165.0,1,1871,[1],stimuli/1001011.jpg,169577,prediction_trial,190,image-keyboard-response,
80,Control,True,1,False,False,110,1,1,False,False,True,True,000,0.0-167.0,1,760,[1],stimuli/1110000.jpg,170521,prediction_trial,192,image-keyboard-response,
80,Control,True,1,True,True,000,0,0,True,True,True,True,001,0.0-169.0,0,647,[0],stimuli/0000001.jpg,171336,prediction_trial,194,image-keyboard-response,
80,Control,True,1,False,False,110,1,1,False,False,True,True,001,0.0-171.0,1,775,[1],stimuli/1110001.jpg,172240,prediction_trial,196,image-keyboard-response,
80,Control,True,1,False,True,001,2,2,False,True,True,True,110,0.0-173.0,2,589,[2],stimuli/2001110.jpg,172984,prediction_trial,198,image-keyboard-response,
80,Control,False,0,False,False,111,0,0,False,False,False,True,110,0.0-175.0,1,1216,[0],stimuli/0111110.jpg,174369,prediction_trial,200,image-keyboard-response,
80,Control,True,1,True,True,000,0,0,False,True,False,True,101,0.0-177.0,0,1176,[0],stimuli/0000101.jpg,175697,prediction_trial,202,image-keyboard-response,
80,Control,True,1,False,False,110,0,0,False,False,True,True,001,0.0-179.0,0,781,[0],stimuli/0110001.jpg,176632,prediction_trial,204,image-keyboard-response,
80,Control,True,1,False,True,010,1,1,False,True,True,True,100,0.0-181.0,1,807,[1],stimuli/1010100.jpg,177624,prediction_trial,206,image-keyboard-response,
80,Control,True,1,True,True,011,0,0,True,True,True,True,010,0.0-183.0,0,599,[0],stimuli/0011010.jpg,178392,prediction_trial,208,image-keyboard-response,
80,Control,True,1,True,True,001,1,1,True,True,True,True,100,0.0-185.0,1,615,[1],stimuli/1001100.jpg,179144,prediction_trial,210,image-keyboard-response,
80,Control,True,1,False,True,100,0,0,False,True,False,True,100,0.0-187.0,0,711,[0],stimuli/0100100.jpg,180065,prediction_trial,212,image-keyboard-response,
80,Control,True,1,False,False,111,0,0,False,False,True,True,000,0.0-189.0,0,912,[0],stimuli/0111000.jpg,181129,prediction_trial,214,image-keyboard-response,
80,Control,False,0,False,False,111,1,1,False,False,False,True,011,0.0-191.0,2,1191,[1],stimuli/1111011.jpg,182449,prediction_trial,216,image-keyboard-response,
80,Control,True,1,True,True,000,1,1,False,True,False,True,010,0.0-193.0,1,967,[1],stimuli/1000010.jpg,183577,prediction_trial,218,image-keyboard-response,
80,Control,True,1,True,True,011,0,0,True,True,True,True,000,0.0-195.0,0,799,[0],stimuli/0011000.jpg,184489,prediction_trial,220,image-keyboard-response,
80,Control,True,1,True,True,001,0,0,False,True,False,True,110,0.0-197.0,0,1104,[0],stimuli/0001110.jpg,185705,prediction_trial,222,image-keyboard-response,
80,Control,True,1,False,False,110,1,1,False,False,True,True,101,0.0-199.0,1,1119,[1],stimuli/1110101.jpg,186993,prediction_trial,224,image-keyboard-response,
80,Control,True,1,False,False,110,1,1,False,False,False,True,011,0.0-201.0,1,1415,[1],stimuli/1110011.jpg,188553,prediction_trial,226,image-keyboard-response,
80,Control,True,1,True,True,100,1,1,True,True,True,True,101,0.0-203.0,1,743,[1],stimuli/1100101.jpg,189457,prediction_trial,228,image-keyboard-response,
80,Control,True,1,False,True,001,2,2,False,True,False,True,101,0.0-205.0,2,727,[2],stimuli/2001101.jpg,190321,prediction_trial,230,image-keyboard-response,
80,Control,True,1,False,False,101,0,0,False,False,False,True,110,0.0-207.0,0,1111,[0],stimuli/0101110.jpg,191641,prediction_trial,232,image-keyboard-response,
80,Control,True,1,False,False,111,1,1,False,False,False,True,110,0.0-209.0,1,1903,[1],stimuli/1111110.jpg,193697,prediction_trial,234,image-keyboard-response,
80,Control,True,1,True,True,000,0,0,True,True,True,True,011,0.0-211.0,0,623,[0],stimuli/0000011.jpg,194633,prediction_trial,236,image-keyboard-response,
80,Control,True,1,True,True,010,0,0,False,True,False,True,100,0.0-213.0,0,855,[0],stimuli/0010100.jpg,195665,prediction_trial,238,image-keyboard-response,
80,Control,True,1,True,True,001,1,1,True,True,True,True,000,0.0-215.0,1,695,[1],stimuli/1001000.jpg,196553,prediction_trial,240,image-keyboard-response,
80,Control,False,0,True,True,011,0,0,False,True,False,True,111,0.0-217.0,1,847,[0],stimuli/0011111.jpg,197585,prediction_trial,242,image-keyboard-response,
80,Control,True,1,False,False,110,1,1,False,False,False,True,010,0.0-219.0,1,1191,[1],stimuli/1110010.jpg,199705,prediction_trial,244,image-keyboard-response,
80,Control,True,1,True,True,010,0,0,True,True,True,True,001,0.0-221.0,0,839,[0],stimuli/0010001.jpg,200769,prediction_trial,246,image-keyboard-response,
80,Control,True,1,True,True,011,0,0,False,True,False,True,100,0.0-223.0,0,736,[0],stimuli/0011100.jpg,201665,prediction_trial,248,image-keyboard-response,
80,Control,True,1,True,True,000,1,1,True,True,True,True,100,0.0-225.0,1,743,[1],stimuli/1000100.jpg,202585,prediction_trial,250,image-keyboard-response,
80,Control,True,1,False,False,111,0,0,False,False,True,True,001,0.0-227.0,0,559,[0],stimuli/0111001.jpg,203337,prediction_trial,252,image-keyboard-response,
80,Control,True,1,True,True,100,1,1,True,True,True,True,001,0.0-229.0,1,663,[1],stimuli/1100001.jpg,204201,prediction_trial,254,image-keyboard-response,
80,Control,True,1,True,True,101,1,1,True,True,True,True,000,0.0-231.0,1,663,[1],stimuli/1101000.jpg,205136,prediction_trial,256,image-keyboard-response,
80,Control,False,0,False,True,100,0,0,False,True,False,True,110,0.0-233.0,1,1327,[0],stimuli/0100110.jpg,206722,prediction_trial,258,image-keyboard-response,
80,Control,True,1,False,True,100,0,0,False,True,False,True,101,0.0-235.0,0,1335,[0],stimuli/0100101.jpg,208241,prediction_trial,260,image-keyboard-response,
80,Control,True,1,False,True,010,1,1,False,True,False,True,111,0.0-237.0,1,1343,[1],stimuli/1010111.jpg,209745,prediction_trial,262,image-keyboard-response,
80,Control,True,1,True,True,001,1,1,True,True,True,True,101,0.0-239.0,1,815,[1],stimuli/1001101.jpg,210776,prediction_trial,264,image-keyboard-response,
80,Control,True,1,True,True,101,1,1,False,True,False,True,010,0.0-241.0,1,784,[1],stimuli/1101010.jpg,211817,prediction_trial,266,image-keyboard-response,
80,Control,True,1,True,True,100,1,1,True,True,True,True,000,0.0-243.0,1,583,[1],stimuli/1100000.jpg,212696,prediction_trial,268,image-keyboard-response,
80,Control,True,1,True,True,001,0,0,True,True,True,True,001,0.0-245.0,0,679,[0],stimuli/0001001.jpg,213664,prediction_trial,270,image-keyboard-response,
80,Control,False,0,True,True,010,0,0,False,True,False,True,111,0.0-247.0,1,703,[0],stimuli/0010111.jpg,214544,prediction_trial,272,image-keyboard-response,
80,Control,False,0,True,True,010,0,0,False,True,False,True,110,0.0-249.0,1,751,[0],stimuli/0010110.jpg,216305,prediction_trial,274,image-keyboard-response,
80,Control,True,1,True,True,100,1,1,False,True,False,True,111,0.0-251.0,1,855,[1],stimuli/1100111.jpg,217616,prediction_trial,276,image-keyboard-response,
80,Control,True,1,True,True,010,0,0,True,True,True,True,011,0.0-253.0,0,759,[0],stimuli/0010011.jpg,218792,prediction_trial,278,image-keyboard-response,
80,Control,True,1,True,True,000,0,0,True,True,True,True,010,0.0-255.0,0,655,[0],stimuli/0000010.jpg,219785,prediction_trial,280,image-keyboard-response,
80,Control,True,1,True,True,010,0,0,False,True,False,True,101,0.0-257.0,0,847,[0],stimuli/0010101.jpg,220880,prediction_trial,282,image-keyboard-response,
80,Control,True,1,False,False,101,0,0,False,False,True,True,011,0.0-259.0,0,960,[0],stimuli/0101011.jpg,222209,prediction_trial,284,image-keyboard-response,
80,Control,True,1,False,False,110,0,0,False,False,False,True,110,0.0-261.0,0,1142,[0],stimuli/0110110.jpg,223624,prediction_trial,286,image-keyboard-response,
80,Control,False,0,True,True,001,1,1,False,True,False,True,110,0.0-263.0,0,855,[1],stimuli/1001110.jpg,224793,prediction_trial,288,image-keyboard-response,
80,Control,True,1,False,True,001,2,2,False,True,False,True,001,0.0-265.0,2,1047,[2],stimuli/2001001.jpg,226449,prediction_trial,290,image-keyboard-response,
80,Control,True,1,False,False,011,1,1,False,False,False,True,010,0.0-267.0,1,807,[1],stimuli/1011010.jpg,227512,prediction_trial,292,image-keyboard-response,
80,Control,True,1,True,True,001,1,1,False,True,False,True,010,0.0-269.0,1,727,[1],stimuli/1001010.jpg,228472,prediction_trial,294,image-keyboard-response,
80,Control,True,1,False,True,010,1,1,False,True,False,True,011,0.0-271.0,1,1039,[1],stimuli/1010011.jpg,229736,prediction_trial,296,image-keyboard-response,
80,Control,True,1,True,True,000,1,1,False,True,False,True,111,0.0-273.0,1,1839,[1],stimuli/1000111.jpg,231928,prediction_trial,298,image-keyboard-response,
80,Control,True,1,False,False,110,0,0,False,False,False,True,101,0.0-275.0,0,1071,[0],stimuli/0110101.jpg,233400,prediction_trial,300,image-keyboard-response,
80,Control,True,1,False,False,110,0,0,False,False,False,True,100,0.0-277.0,0,1055,[0],stimuli/0110100.jpg,234744,prediction_trial,302,image-keyboard-response,
80,Control,True,1,False,True,100,0,0,False,True,True,True,000,0.0-279.0,0,663,[0],stimuli/0100000.jpg,235632,prediction_trial,304,image-keyboard-response,
80,Control,True,1,False,False,111,1,1,False,False,False,True,111,0.0-281.0,1,839,[1],stimuli/1111111.jpg,236776,prediction_trial,306,image-keyboard-response,
80,Control,True,1,False,False,101,0,0,False,False,False,True,100,0.0-283.0,0,847,[0],stimuli/0101100.jpg,238256,prediction_trial,308,image-keyboard-response,
80,Control,True,1,False,True,100,0,0,False,True,False,True,111,0.0-285.0,0,1087,[0],stimuli/0100111.jpg,239824,prediction_trial,310,image-keyboard-response,
80,Control,False,0,True,True,000,1,1,False,True,False,True,011,0.0-287.0,2,2135,[1],stimuli/1000011.jpg,242281,prediction_trial,312,image-keyboard-response,
80,Control,True,1,False,False,011,1,1,False,False,True,True,000,0.0-289.0,1,670,[1],stimuli/1011000.jpg,243776,prediction_trial,314,image-keyboard-response,
80,Control,True,1,False,True,010,1,1,False,True,True,True,000,0.0-291.0,1,575,[1],stimuli/1010000.jpg,244640,prediction_trial,316,image-keyboard-response,
50,Control,True,1,True,True,001,0,0,True,True,True,True,011,0.0-5.0,0,992,[0],stimuli/0001011.jpg,373607,prediction_trial,30,image-keyboard-response,
50,Control,True,1,True,True,101,1,1,True,True,True,True,100,0.0-7.0,1,599,[1],stimuli/1101100.jpg,375264,prediction_trial,32,image-keyboard-response,
50,Control,True,1,False,False,110,0,0,False,False,True,True,000,0.0-9.0,0,688,[0],stimuli/0110000.jpg,376511,prediction_trial,34,image-keyboard-response,
50,Control,True,1,True,True,000,1,1,True,True,True,True,101,0.0-11.0,1,715,[1],stimuli/1000101.jpg,378302,prediction_trial,36,image-keyboard-response,
50,Control,True,1,True,True,001,1,1,True,True,True,True,101,0.0-13.0,1,907,[1],stimuli/1001101.jpg,380324,prediction_trial,38,image-keyboard-response,
50,Control,True,1,False,False,011,1,1,False,False,False,True,011,0.0-15.0,1,912,[1],stimuli/1011011.jpg,381957,prediction_trial,40,image-keyboard-response,
50,Control,True,1,False,False,111,0,0,False,False,False,True,101,0.0-17.0,0,881,[0],stimuli/0111101.jpg,383521,prediction_trial,42,image-keyboard-response,
50,Control,True,1,False,True,100,0,0,False,True,True,True,000,0.0-19.0,0,658,[0],stimuli/0100000.jpg,384816,prediction_trial,44,image-keyboard-response,
50,Control,True,1,True,True,000,0,0,True,True,True,True,010,0.0-21.0,0,1028,[0],stimuli/0000010.jpg,386443,prediction_trial,46,image-keyboard-response,
50,Control,True,1,False,True,010,1,1,False,True,True,True,101,0.0-23.0,1,1244,[1],stimuli/1010101.jpg,389760,prediction_trial,48,image-keyboard-response,
50,Control,True,1,True,True,000,2,2,True,True,True,True,100,0.0-25.0,2,698,[2],stimuli/2000100.jpg,391036,prediction_trial,50,image-keyboard-response,
50,Control,True,1,True,True,011,0,0,True,True,True,True,010,0.0-27.0,0,584,[0],stimuli/0011010.jpg,392186,prediction_trial,52,image-keyboard-response,
50,Control,True,1,False,False,101,0,0,False,False,False,True,100,0.0-29.0,0,718,[0],stimuli/0101100.jpg,393529,prediction_trial,54,image-keyboard-response,
50,Control,False,0,True,True,100,1,1,False,True,False,True,111,0.0-31.0,0,860,[1],stimuli/1100111.jpg,398947,prediction_trial,56,image-keyboard-response,
50,Control,True,1,False,False,110,1,1,False,False,True,True,101,0.0-33.0,1,750,[1],stimuli/1110101.jpg,400536,prediction_trial,58,image-keyboard-response,
50,Control,True,1,False,True,100,0,0,False,True,False,True,110,0.0-35.0,0,1265,[0],stimuli/0100110.jpg,402542,prediction_trial,60,image-keyboard-response,
50,Control,True,1,True,True,000,1,1,True,True,True,True,100,0.0-37.0,1,1424,[1],stimuli/1000100.jpg,404689,prediction_trial,62,image-keyboard-response,
50,Control,False,0,False,False,011,1,1,False,False,False,True,111,0.0-39.0,0,1679,[1],stimuli/1011111.jpg,407450,prediction_trial,64,image-keyboard-response,
50,Control,False,0,True,True,101,1,1,False,True,False,True,110,0.0-41.0,0,687,[1],stimuli/1101110.jpg,408944,prediction_trial,66,image-keyboard-response,
50,Control,True,1,True,True,001,1,1,True,True,True,True,001,0.0-43.0,1,584,[1],stimuli/1001001.jpg,410201,prediction_trial,68,image-keyboard-response,
50,Control,False,0,True,True,001,1,1,False,True,False,True,111,0.0-45.0,0,655,[1],stimuli/1001111.jpg,411412,prediction_trial,70,image-keyboard-response,
50,Control,True,1,False,False,111,1,1,False,False,True,True,101,0.0-47.0,1,612,[1],stimuli/1111101.jpg,412672,prediction_trial,72,image-keyboard-response,
50,Control,True,1,False,True,100,0,0,False,True,True,True,010,0.0-49.0,0,531,[0],stimuli/0100010.jpg,413683,prediction_trial,74,image-keyboard-response,
50,Control,True,1,False,False,110,0,0,False,False,False,True,111,0.0-51.0,0,744,[0],stimuli/0110111.jpg,414895,prediction_trial,76,image-keyboard-response,
50,Control,True,1,False,False,111,1,1,False,False,False,True,011,0.0-53.0,1,662,[1],stimuli/1111011.jpg,416086,prediction_trial,78,image-keyboard-response,
50,Control,True,1,False,False,110,1,1,False,False,False,True,010,0.0-55.0,1,648,[1],stimuli/1110010.jpg,417218,prediction_trial,80,image-keyboard-response,
50,Control,True,1,True,True,000,0,0,True,True,True,True,011,0.0-57.0,0,572,[0],stimuli/0000011.jpg,418261,prediction_trial,82,image-keyboard-response,
50,Control,True,1,True,True,010,0,0,False,True,False,True,101,0.0-59.0,0,838,[0],stimuli/0010101.jpg,419605,prediction_trial,84,image-keyboard-response,
50,Control,True,1,False,True,001,2,2,False,True,True,True,110,0.0-61.0,2,602,[2],stimuli/2001110.jpg,420692,prediction_trial,86,image-keyboard-response,
50,Control,True,1,True,True,100,1,1,True,True,True,True,100,0.0-63.0,1,695,[1],stimuli/1100100.jpg,421878,prediction_trial,88,image-keyboard-response,
50,Control,True,1,False,False,111,0,0,False,False,False,True,111,0.0-65.0,0,617,[0],stimuli/0111111.jpg,422968,prediction_trial,90,image-keyboard-response,
50,Control,True,1,False,False,110,0,0,False,False,False,True,101,0.0-67.0,0,890,[0],stimuli/0110101.jpg,424460,prediction_trial,92,image-keyboard-response,
50,Control,True,1,True,True,011,0,0,True,True,True,True,011,0.0-69.0,0,875,[0],stimuli/0011011.jpg,425844,prediction_trial,94,image-keyboard-response,
50,Control,True,1,True,True,010,0,0,True,True,True,True,010,0.0-71.0,0,548,[0],stimuli/0010010.jpg,426944,prediction_trial,96,image-keyboard-response,
50,Control,True,1,False,True,001,2,2,False,True,False,True,111,0.0-73.0,2,657,[2],stimuli/2001111.jpg,428110,prediction_trial,98,image-keyboard-response,
50,Control,True,1,False,True,100,0,0,False,True,True,True,001,0.0-75.0,0,566,[0],stimuli/0100001.jpg,429171,prediction_trial,100,image-keyboard-response,
50,Control,True,1,True,True,001,1,1,False,True,False,True,010,0.0-77.0,1,713,[1],stimuli/1001010.jpg,430684,prediction_trial,102,image-keyboard-response,
50,Control,True,1,False,True,010,1,1,False,True,True,True,001,0.0-79.0,1,600,[1],stimuli/1010001.jpg,431929,prediction_trial,104,image-keyboard-response,
50,Control,True,1,False,False,111,0,0,False,False,False,True,100,0.0-81.0,0,19694,[0],stimuli/0111100.jpg,452188,prediction_trial,106,image-keyboard-response,
50,Control,True,1,True,True,101,1,1,True,True,True,True,001,0.0-83.0,1,701,[1],stimuli/1101001.jpg,455345,prediction_trial,108,image-keyboard-response,
50,Control,True,1,False,True,100,0,0,False,True,False,True,101,0.0-85.0,0,1121,[0],stimuli/0100101.jpg,457391,prediction_trial,110,image-keyboard-response,
50,Control,False,0,False,False,011,1,1,False,False,False,True,110,0.0-87.0,0,889,[1],stimuli/1011110.jpg,458792,prediction_trial,112,image-keyboard-response,
50,Control,True,1,True,True,001,0,0,False,True,False,True,110,0.0-89.0,0,635,[0],stimuli/0001110.jpg,460135,prediction_trial,114,image-keyboard-response,
50,Control,True,1,False,True,001,2,2,False,True,True,True,100,0.0-91.0,2,1220,[2],stimuli/2001100.jpg,461894,prediction_trial,116,image-keyboard-response,
50,Control,True,1,False,True,010,1,1,False,True,False,True,111,0.0-93.0,1,592,[1],stimuli/1010111.jpg,464361,prediction_trial,118,image-keyboard-response,
50,Control,True,1,False,True,010,1,1,False,True,False,True,011,0.0-95.0,1,697,[1],stimuli/1010011.jpg,465614,prediction_trial,120,image-keyboard-response,
50,Control,True,1,False,True,001,2,2,False,True,True,True,000,0.0-97.0,2,611,[2],stimuli/2001000.jpg,466720,prediction_trial,122,image-keyboard-response,
50,Control,True,1,False,True,010,1,1,False,True,True,True,100,0.0-99.0,1,511,[1],stimuli/1010100.jpg,469561,prediction_trial,124,image-keyboard-response,
50,Control,True,1,True,True,000,1,1,False,True,False,True,010,0.0-101.0,1,670,[1],stimuli/1000010.jpg,470715,prediction_trial,126,image-keyboard-response,
50,Control,True,1,True,True,000,0,0,True,True,True,True,000,0.0-103.0,0,578,[0],stimuli/0000000.jpg,471670,prediction_trial,128,image-keyboard-response,
50,Control,True,1,False,True,010,1,1,False,True,True,True,000,0.0-105.0,1,601,[1],stimuli/1010000.jpg,472684,prediction_trial,130,image-keyboard-response,
50,Control,True,1,True,True,000,2,2,True,True,True,True,010,0.0-107.0,2,486,[2],stimuli/2000010.jpg,473561,prediction_trial,132,image-keyboard-response,
50,Control,True,1,True,True,011,0,0,True,True,True,True,001,0.0-109.0,0,728,[0],stimuli/0011001.jpg,474686,prediction_trial,134,image-keyboard-response,
50,Control,False,0,True,True,010,0,0,False,True,False,True,111,0.0-111.0,1,781,[0],stimuli/0010111.jpg,475861,prediction_trial,136,image-keyboard-response,
50,Control,True,1,True,True,000,0,0,False,True,False,True,100,0.0-113.0,0,582,[0],stimuli/0000100.jpg,476952,prediction_trial,138,image-keyboard-response,
50,Control,False,0,True,True,000,2,2,False,True,False,True,111,0.0-115.0,1,577,[2],stimuli/2000111.jpg,477971,prediction_trial,140,image-keyboard-response,
50,Control,True,1,True,True,011,0,0,True,True,True,True,000,0.0-117.0,0,1219,[0],stimuli/0011000.jpg,479758,prediction_trial,142,image-keyboard-response,
50,Control,True,1,True,True,101,1,1,False,True,False,True,111,0.0-119.0,1,655,[1],stimuli/1101111.jpg,480884,prediction_trial,144,image-keyboard-response,
50,Control,True,1,False,False,110,1,1,False,False,False,True,111,0.0-121.0,1,592,[1],stimuli/1110111.jpg,481932,prediction_trial,146,image-keyboard-response,
50,Control,False,0,True,True,010,0,0,False,True,False,True,110,0.0-123.0,1,596,[0],stimuli/0010110.jpg,482996,prediction_trial,148,image-keyboard-response,
50,Control,True,1,False,True,010,1,1,False,True,False,True,010,0.0-125.0,1,724,[1],stimuli/1010010.jpg,484312,prediction_trial,150,image-keyboard-response,
50,Control,True,1,False,False,011,1,1,False,False,True,True,101,0.0-127.0,1,624,[1],stimuli/1011101.jpg,485398,prediction_trial,152,image-keyboard-response,
50,Control,True,1,True,True,010,0,0,False,True,False,True,100,0.0-129.0,0,719,[0],stimuli/0010100.jpg,486658,prediction_trial,154,image-keyboard-response,
50,Control,True,1,False,False,110,0,0,False,False,True,True,011,0.0-131.0,0,595,[0],stimuli/0110011.jpg,487709,prediction_trial,156,image-keyboard-response,
50,Control,True,1,True,True,101,1,1,False,True,False,True,011,0.0-133.0,1,848,[1],stimuli/1101011.jpg,489047,prediction_trial,158,image-keyboard-response,
50,Control,False,0,False,False,101,0,0,False,False,False,True,111,0.0-135.0,1,649,[0],stimuli/0101111.jpg,490160,prediction_trial,160,image-keyboard-response,
50,Control,True,1,True,True,101,1,1,False,True,False,True,010,0.0-137.0,1,647,[1],stimuli/1101010.jpg,491319,prediction_trial,162,image-keyboard-response,
50,Control,True,1,True,True,010,0,0,True,True,True,True,011,0.0-139.0,0,584,[0],stimuli/0010011.jpg,492329,prediction_trial,164,image-keyboard-response,
50,Control,False,0,True,True,001,1,1,False,True,False,True,011,0.0-141.0,2,661,[1],stimuli/1001011.jpg,493476,prediction_trial,166,image-keyboard-response,
50,Control,True,1,True,True,100,1,1,True,True,True,True,101,0.0-143.0,1,666,[1],stimuli/1100101.jpg,494646,prediction_trial,168,image-keyboard-response,
50,Control,True,1,False,True,100,0,0,False,True,False,True,100,0.0-145.0,0,563,[0],stimuli/0100100.jpg,495644,prediction_trial,170,image-keyboard-response,
50,Control,False,0,True,True,000,0,0,False,True,False,True,110,0.0-147.0,1,511,[0],stimuli/0000110.jpg,496608,prediction_trial,172,image-keyboard-response,
50,Control,True,1,True,True,101,1,1,True,True,True,True,101,0.0-149.0,1,1226,[1],stimuli/1101101.jpg,498461,prediction_trial,174,image-keyboard-response,
50,Control,True,1,False,False,011,1,1,False,False,False,True,010,0.0-151.0,1,590,[1],stimuli/1011010.jpg,499485,prediction_trial,176,image-keyboard-response,
50,Control,True,1,True,True,100,1,1,True,True,True,True,001,0.0-153.0,1,567,[1],stimuli/1100001.jpg,500558,prediction_trial,178,image-keyboard-response,
50,Control,True,1,True,True,001,0,0,True,True,True,True,000,0.0-155.0,0,631,[0],stimuli/0001000.jpg,501625,prediction_trial,180,image-keyboard-response,
50,Control,True,1,True,True,000,1,1,False,True,False,True,011,0.0-157.0,1,578,[1],stimuli/1000011.jpg,502849,prediction_trial,182,image-keyboard-response,
50,Control,False,0,True,True,000,2,2,False,True,False,True,011,0.0-159.0,1,528,[2],stimuli/2000011.jpg,503909,prediction_trial,184,image-keyboard-response,
50,Control,False,0,False,False,011,1,1,False,False,True,True,001,0.0-161.0,2,658,[1],stimuli/1011001.jpg,505210,prediction_trial,186,image-keyboard-response,
50,Control,False,0,True,True,001,0,0,False,True,False,True,101,0.0-163.0,2,947,[0],stimuli/0001101.jpg,507262,prediction_trial,188,image-keyboard-response,
50,Control,True,1,False,True,100,0,0,False,True,True,True,011,0.0-165.0,0,923,[0],stimuli/0100011.jpg,509051,prediction_trial,190,image-keyboard-response,
50,Control,True,1,False,False,110,0,0,False,False,False,True,110,0.0-167.0,0,600,[0],stimuli/0110110.jpg,510070,prediction_trial,192,image-keyboard-response,
50,Control,True,1,False,False,110,1,1,False,False,False,True,011,0.0-169.0,1,718,[1],stimuli/1110011.jpg,511284,prediction_trial,194,image-keyboard-response,
50,Control,False,0,False,False,101,0,0,False,False,False,True,110,0.0-171.0,1,582,[0],stimuli/0101110.jpg,512392,prediction_trial,196,image-keyboard-response,
50,Control,True,1,True,True,001,0,0,True,True,True,True,001,0.0-173.0,0,635,[0],stimuli/0001001.jpg,513628,prediction_trial,198,image-keyboard-response,
50,Control,True,1,False,False,111,1,1,False,False,True,True,000,0.0-175.0,1,549,[1],stimuli/1111000.jpg,514707,prediction_trial,200,image-keyboard-response,
50,Control,True,1,False,True,010,1,1,False,True,False,True,110,0.0-177.0,1,790,[1],stimuli/1010110.jpg,515921,prediction_trial,202,image-keyboard-response,
50,Control,False,0,False,True,100,0,0,False,True,False,True,111,0.0-179.0,1,674,[0],stimuli/0100111.jpg,517044,prediction_trial,204,image-keyboard-response,
50,Control,True,1,True,True,101,1,1,True,True,True,True,000,0.0-181.0,1,691,[1],stimuli/1101000.jpg,518242,prediction_trial,206,image-keyboard-response,
50,Control,False,0,True,True,000,2,2,False,True,False,True,101,0.0-183.0,0,786,[2],stimuli/2000101.jpg,519534,prediction_trial,208,image-keyboard-response,
50,Control,True,1,False,False,110,0,0,False,False,True,True,010,0.0-185.0,0,606,[0],stimuli/0110010.jpg,520618,prediction_trial,210,image-keyboard-response,
50,Control,False,0,True,True,000,0,0,False,True,False,True,111,0.0-187.0,1,566,[0],stimuli/0000111.jpg,521567,prediction_trial,212,image-keyboard-response,
50,Control,True,1,True,True,000,1,1,True,True,True,True,000,0.0-189.0,1,446,[1],stimuli/1000000.jpg,522546,prediction_trial,214,image-keyboard-response,
50,Control,True,1,True,True,001,1,1,True,True,True,True,000,0.0-191.0,1,571,[1],stimuli/1001000.jpg,523621,prediction_trial,216,image-keyboard-response,
50,Control,True,1,True,True,001,0,0,False,True,False,True,100,0.0-193.0,0,1858,[0],stimuli/0001100.jpg,525932,prediction_trial,218,image-keyboard-response,
50,Control,False,0,False,True,001,2,2,False,True,False,True,101,0.0-195.0,0,834,[2],stimuli/2001101.jpg,527200,prediction_trial,220,image-keyboard-response,
50,Control,True,1,False,False,110,0,0,False,False,False,True,100,0.0-197.0,0,662,[0],stimuli/0110100.jpg,528391,prediction_trial,222,image-keyboard-response,
50,Control,True,1,True,True,001,0,0,True,True,True,True,010,0.0-199.0,0,654,[0],stimuli/0001010.jpg,529563,prediction_trial,224,image-keyboard-response,
50,Control,True,1,False,False,011,1,1,False,False,True,True,100,0.0-201.0,1,683,[1],stimuli/1011100.jpg,530709,prediction_trial,226,image-keyboard-response,
50,Control,True,1,False,False,110,1,1,False,False,True,True,100,0.0-203.0,1,560,[1],stimuli/1110100.jpg,531730,prediction_trial,228,image-keyboard-response,
50,Control,True,1,True,True,000,1,1,True,True,True,True,001,0.0-205.0,1,642,[1],stimuli/1000001.jpg,532787,prediction_trial,230,image-keyboard-response,
50,Control,False,0,True,True,011,0,0,False,True,False,True,110,0.0-207.0,1,2176,[0],stimuli/0011110.jpg,535386,prediction_trial,232,image-keyboard-response,
50,Control,True,1,True,True,100,1,1,False,True,False,True,110,0.0-209.0,1,630,[1],stimuli/1100110.jpg,536450,prediction_trial,234,image-keyboard-response,
50,Control,True,1,False,False,101,0,0,False,False,True,True,001,0.0-211.0,0,598,[0],stimuli/0101001.jpg,537441,prediction_trial,236,image-keyboard-response,
50,Control,True,1,True,True,000,2,2,True,True,True,True,000,0.0-213.0,2,547,[2],stimuli/2000000.jpg,538435,prediction_trial,238,image-keyboard-response,
50,Control,True,1,False,False,110,0,0,False,False,True,True,001,0.0-215.0,0,583,[0],stimuli/0110001.jpg,539425,prediction_trial,240,image-keyboard-response,
50,Control,True,1,False,False,101,0,0,False,False,True,True,000,0.0-217.0,0,756,[0],stimuli/0101000.jpg,540604,prediction_trial,242,image-keyboard-response,
50,Control,False,0,True,True,001,0,0,False,True,False,True,111,0.0-219.0,2,673,[0],stimuli/0001111.jpg,541694,prediction_trial,244,image-keyboard-response,
50,Control,False,0,False,False,111,0,0,False,False,False,True,110,0.0-221.0,1,527,[0],stimuli/0111110.jpg,542699,prediction_trial,246,image-keyboard-response,
50,Control,True,1,False,False,111,0,0,False,False,True,True,001,0.0-223.0,0,599,[0],stimuli/0111001.jpg,543772,prediction_trial,248,image-keyboard-response,
50,Control,True,1,False,False,111,0,0,False,False,True,True,011,0.0-225.0,0,578,[0],stimuli/0111011.jpg,544867,prediction_trial,250,image-keyboard-response,
50,Control,True,1,True,True,011,0,0,False,True,False,True,100,0.0-227.0,0,630,[0],stimuli/0011100.jpg,545961,prediction_trial,252,image-keyboard-response,
50,Control,False,0,True,True,011,0,0,False,True,False,True,111,0.0-229.0,1,535,[0],stimuli/0011111.jpg,546901,prediction_trial,254,image-keyboard-response,
50,Control,True,1,False,False,111,0,0,False,False,True,True,000,0.0-231.0,0,642,[0],stimuli/0111000.jpg,547991,prediction_trial,256,image-keyboard-response,
50,Control,True,1,True,True,000,2,2,True,True,True,True,110,0.0-233.0,2,5207,[2],stimuli/2000110.jpg,553769,prediction_trial,258,image-keyboard-response,
50,Control,True,1,True,True,000,1,1,False,True,False,True,111,0.0-235.0,1,590,[1],stimuli/1000111.jpg,554698,prediction_trial,260,image-keyboard-response,
50,Control,True,1,True,True,100,1,1,True,True,True,True,000,0.0-237.0,1,560,[1],stimuli/1100000.jpg,555811,prediction_trial,262,image-keyboard-response,
50,Control,True,1,True,True,001,1,1,True,True,True,True,100,0.0-239.0,1,533,[1],stimuli/1001100.jpg,556733,prediction_trial,264,image-keyboard-response,
50,Control,True,1,False,False,011,1,1,False,False,True,True,000,0.0-241.0,1,514,[1],stimuli/1011000.jpg,557637,prediction_trial,266,image-keyboard-response,
50,Control,True,1,True,True,010,0,0,True,True,True,True,001,0.0-243.0,0,592,[0],stimuli/0010001.jpg,558632,prediction_trial,268,image-keyboard-response,
50,Control,True,1,False,False,101,0,0,False,False,True,True,011,0.0-245.0,0,1134,[0],stimuli/0101011.jpg,560196,prediction_trial,270,image-keyboard-response,
50,Control,True,1,True,True,100,1,1,False,True,False,True,010,0.0-247.0,1,517,[1],stimuli/1100010.jpg,561176,prediction_trial,272,image-keyboard-response,
50,Control,True,1,False,False,111,1,1,False,False,False,True,111,0.0-249.0,1,493,[1],stimuli/1111111.jpg,562117,prediction_trial,274,image-keyboard-response,
50,Control,True,1,False,False,110,1,1,False,False,True,True,001,0.0-251.0,1,542,[1],stimuli/1110001.jpg,563086,prediction_trial,276,image-keyboard-response,
50,Control,True,1,True,True,011,0,0,False,True,False,True,101,0.0-253.0,0,606,[0],stimuli/0011101.jpg,564082,prediction_trial,278,image-keyboard-response,
50,Control,True,1,True,True,000,0,0,False,True,False,True,101,0.0-255.0,0,921,[0],stimuli/0000101.jpg,565470,prediction_trial,280,image-keyboard-response,
50,Control,True,1,False,True,001,2,2,False,True,False,True,001,0.0-257.0,2,645,[2],stimuli/2001001.jpg,566533,prediction_trial,282,image-keyboard-response,
50,Control,False,0,False,True,001,2,2,False,True,False,True,011,0.0-259.0,1,628,[2],stimuli/2001011.jpg,567574,prediction_trial,284,image-keyboard-response,
50,Control,False,0,False,False,110,1,1,False,False,False,True,110,0.0-261.0,0,600,[1],stimuli/1110110.jpg,568828,prediction_trial,286,image-keyboard-response,
50,Control,True,1,True,True,000,2,2,False,True,False,True,001,0.0-263.0,2,631,[2],stimuli/2000001.jpg,570074,prediction_trial,288,image-keyboard-response,
50,Control,True,1,False,False,110,1,1,False,False,True,True,000,0.0-265.0,1,521,[1],stimuli/1110000.jpg,571004,prediction_trial,290,image-keyboard-response,
50,Control,False,0,True,True,001,1,1,False,True,False,True,110,0.0-267.0,0,1141,[1],stimuli/1001110.jpg,572641,prediction_trial,292,image-keyboard-response,
50,Control,True,1,False,False,111,1,1,False,False,True,True,001,0.0-269.0,1,558,[1],stimuli/1111001.jpg,573944,prediction_trial,294,image-keyboard-response,
50,Control,False,0,True,True,000,1,1,False,True,False,True,110,0.0-271.0,0,619,[1],stimuli/1000110.jpg,575274,prediction_trial,296,image-keyboard-response,
50,Control,False,0,False,False,111,1,1,False,False,False,True,110,0.0-273.0,0,627,[1],stimuli/1111110.jpg,576462,prediction_trial,298,image-keyboard-response,
50,Control,True,1,False,False,111,1,1,False,False,True,True,100,0.0-275.0,1,506,[1],stimuli/1111100.jpg,577470,prediction_trial,300,image-keyboard-response,
50,Control,True,1,False,False,101,0,0,False,False,True,True,010,0.0-277.0,0,579,[0],stimuli/0101010.jpg,578882,prediction_trial,302,image-keyboard-response,
50,Control,False,0,True,True,100,1,1,False,True,False,True,011,0.0-279.0,2,568,[1],stimuli/1100011.jpg,579973,prediction_trial,304,image-keyboard-response,
50,Control,True,1,False,False,111,1,1,False,False,False,True,010,0.0-281.0,1,592,[1],stimuli/1111010.jpg,581078,prediction_trial,306,image-keyboard-response,
50,Control,True,1,True,True,000,0,0,True,True,True,True,001,0.0-283.0,0,553,[0],stimuli/0000001.jpg,582108,prediction_trial,308,image-keyboard-response,
50,Control,True,1,False,False,111,0,0,False,False,True,True,010,0.0-285.0,0,582,[0],stimuli/0111010.jpg,583560,prediction_trial,310,image-keyboard-response,
50,Control,True,1,False,True,001,2,2,False,True,True,True,010,0.0-287.0,2,586,[2],stimuli/2001010.jpg,584786,prediction_trial,312,image-keyboard-response,
50,Control,True,1,True,True,010,0,0,True,True,True,True,000,0.0-289.0,0,580,[0],stimuli/0010000.jpg,585856,prediction_trial,314,image-keyboard-response,
50,Control,False,0,False,False,101,0,0,False,False,False,True,101,0.0-291.0,2,596,[0],stimuli/0101101.jpg,586846,prediction_trial,316,image-keyboard-response,
84,Control,True,1,True,True,001,1,1,False,True,False,True,110,0.0-5.0,1,1102,[1],stimuli/1001110.jpg,82495,prediction_trial,30,image-keyboard-response,
84,Control,True,1,True,True,001,0,0,True,True,True,True,000,0.0-7.0,0,526,[0],stimuli/0001000.jpg,83385,prediction_trial,32,image-keyboard-response,
84,Control,True,1,False,True,010,1,1,False,True,True,True,001,0.0-9.0,1,742,[1],stimuli/1010001.jpg,84568,prediction_trial,34,image-keyboard-response,
84,Control,True,1,False,False,111,0,0,False,False,True,True,010,0.0-11.0,0,701,[0],stimuli/0111010.jpg,85633,prediction_trial,36,image-keyboard-response,
84,Control,True,1,False,False,110,0,0,False,False,True,True,011,0.0-13.0,0,543,[0],stimuli/0110011.jpg,86615,prediction_trial,38,image-keyboard-response,
84,Control,True,1,False,True,001,2,2,False,True,True,True,000,0.0-15.0,2,565,[2],stimuli/2001000.jpg,87575,prediction_trial,40,image-keyboard-response,
84,Control,True,1,False,False,011,1,1,False,False,True,True,101,0.0-17.0,1,662,[1],stimuli/1011101.jpg,88728,prediction_trial,42,image-keyboard-response,
84,Control,True,1,True,True,001,0,0,False,True,False,True,100,0.0-19.0,0,655,[0],stimuli/0001100.jpg,89753,prediction_trial,44,image-keyboard-response,
84,Control,True,1,True,True,011,0,0,False,True,False,True,100,0.0-21.0,0,623,[0],stimuli/0011100.jpg,90744,prediction_trial,46,image-keyboard-response,
84,Control,True,1,True,True,001,1,1,True,True,True,True,001,0.0-23.0,1,526,[1],stimuli/1001001.jpg,91647,prediction_trial,48,image-keyboard-response,
84,Control,True,1,False,False,110,0,0,False,False,True,True,010,0.0-25.0,0,589,[0],stimuli/0110010.jpg,92655,prediction_trial,50,image-keyboard-response,
84,Control,True,1,False,False,111,1,1,False,False,False,True,011,0.0-27.0,1,1254,[1],stimuli/1111011.jpg,94360,prediction_trial,52,image-keyboard-response,
84,Control,True,1,True,True,000,2,2,True,True,True,True,100,0.0-29.0,2,669,[2],stimuli/2000100.jpg,95199,prediction_trial,54,image-keyboard-response,
84,Control,True,1,False,False,011,1,1,False,False,False,True,110,0.0-31.0,1,840,[1],stimuli/1011110.jpg,96336,prediction_trial,56,image-keyboard-response,
84,Control,True,1,True,True,001,1,1,True,True,True,True,100,0.0-33.0,1,630,[1],stimuli/1001100.jpg,98472,prediction_trial,58,image-keyboard-response,
84,Control,True,1,True,True,001,1,1,False,True,False,True,010,0.0-35.0,1,1016,[1],stimuli/1001010.jpg,99800,prediction_trial,60,image-keyboard-response,
84,Control,False,0,False,True,001,2,2,False,True,False,True,101,0.0-37.0,0,871,[2],stimuli/2001101.jpg,100889,prediction_trial,62,image-keyboard-response,
84,Control,True,1,False,False,110,0,0,False,False,True,True,001,0.0-39.0,0,1431,[0],stimuli/0110001.jpg,102689,prediction_trial,64,image-keyboard-response,
84,Control,True,1,True,True,011,0,0,True,True,True,True,001,0.0-41.0,0,630,[0],stimuli/0011001.jpg,103705,prediction_trial,66,image-keyboard-response,
84,Control,False,0,True,True,100,1,1,False,True,False,True,111,0.0-43.0,2,1389,[1],stimuli/1100111.jpg,105463,prediction_trial,68,image-keyboard-response,
84,Control,True,1,False,False,111,1,1,False,False,True,True,000,0.0-45.0,1,1072,[1],stimuli/1111000.jpg,106896,prediction_trial,70,image-keyboard-response,
84,Control,True,1,False,True,100,0,0,False,True,True,True,000,0.0-47.0,0,589,[0],stimuli/0100000.jpg,107855,prediction_trial,72,image-keyboard-response,
84,Control,True,1,True,True,000,0,0,True,True,True,True,011,0.0-49.0,0,534,[0],stimuli/0000011.jpg,108768,prediction_trial,74,image-keyboard-response,
84,Control,False,0,True,True,010,0,0,False,True,False,True,110,0.0-51.0,1,647,[0],stimuli/0010110.jpg,109833,prediction_trial,76,image-keyboard-response,
84,Control,True,1,False,True,010,1,1,False,True,False,True,010,0.0-53.0,1,1071,[1],stimuli/1010010.jpg,111585,prediction_trial,78,image-keyboard-response,
84,Control,True,1,False,True,001,2,2,False,True,True,True,010,0.0-55.0,2,519,[2],stimuli/2001010.jpg,112336,prediction_trial,80,image-keyboard-response,
84,Control,True,1,False,False,110,1,1,False,False,False,True,111,0.0-57.0,1,1735,[1],stimuli/1110111.jpg,114417,prediction_trial,82,image-keyboard-response,
84,Control,False,0,False,False,101,0,0,False,False,False,True,111,0.0-59.0,2,822,[0],stimuli/0101111.jpg,115664,prediction_trial,84,image-keyboard-response,
84,Control,True,1,True,True,101,1,1,False,True,False,True,010,0.0-61.0,1,590,[1],stimuli/1101010.jpg,116736,prediction_trial,86,image-keyboard-response,
84,Control,True,1,False,False,111,0,0,False,False,False,True,101,0.0-63.0,0,600,[0],stimuli/0111101.jpg,117656,prediction_trial,88,image-keyboard-response,
84,Control,True,1,True,True,100,1,1,True,True,True,True,101,0.0-65.0,1,495,[1],stimuli/1100101.jpg,118601,prediction_trial,90,image-keyboard-response,
84,Control,True,1,True,True,101,1,1,False,True,False,True,011,0.0-67.0,1,535,[1],stimuli/1101011.jpg,119575,prediction_trial,92,image-keyboard-response,
84,Control,False,0,True,True,010,0,0,False,True,False,True,111,0.0-69.0,1,943,[0],stimuli/0010111.jpg,120960,prediction_trial,94,image-keyboard-response,
84,Control,True,1,False,True,100,0,0,False,True,False,True,100,0.0-71.0,0,597,[0],stimuli/0100100.jpg,121999,prediction_trial,96,image-keyboard-response,
84,Control,False,0,True,True,000,1,1,False,True,False,True,011,0.0-73.0,2,702,[1],stimuli/1000011.jpg,123064,prediction_trial,98,image-keyboard-response,
84,Control,True,1,True,True,011,0,0,True,True,True,True,010,0.0-75.0,0,545,[0],stimuli/0011010.jpg,124000,prediction_trial,100,image-keyboard-response,
84,Control,True,1,True,True,001,0,0,True,True,True,True,001,0.0-77.0,0,758,[0],stimuli/0001001.jpg,125048,prediction_trial,102,image-keyboard-response,
84,Control,False,0,True,True,100,1,1,False,True,False,True,110,0.0-79.0,0,1254,[1],stimuli/1100110.jpg,126648,prediction_trial,104,image-keyboard-response,
84,Control,False,0,False,False,101,0,0,False,False,False,True,110,0.0-81.0,1,721,[0],stimuli/0101110.jpg,127673,prediction_trial,106,image-keyboard-response,
84,Control,True,1,True,True,001,1,1,True,True,True,True,101,0.0-83.0,1,616,[1],stimuli/1001101.jpg,128807,prediction_trial,108,image-keyboard-response,
84,Control,True,1,False,False,111,1,1,False,False,False,True,111,0.0-85.0,1,632,[1],stimuli/1111111.jpg,129736,prediction_trial,110,image-keyboard-response,
84,Control,True,1,True,True,100,1,1,True,True,True,True,000,0.0-87.0,1,646,[1],stimuli/1100000.jpg,130752,prediction_trial,112,image-keyboard-response,
84,Control,True,1,True,True,000,0,0,True,True,True,True,010,0.0-89.0,0,509,[0],stimuli/0000010.jpg,131647,prediction_trial,114,image-keyboard-response,
84,Control,True,1,True,True,010,0,0,True,True,True,True,011,0.0-91.0,0,569,[0],stimuli/0010011.jpg,132599,prediction_trial,116,image-keyboard-response,
84,Control,True,1,False,False,110,1,1,False,False,True,True,100,0.0-93.0,1,502,[1],stimuli/1110100.jpg,133448,prediction_trial,118,image-keyboard-response,
84,Control,False,0,False,True,100,0,0,False,True,False,True,101,0.0-95.0,2,909,[0],stimuli/0100101.jpg,134767,prediction_trial,120,image-keyboard-response,
84,Control,False,0,True,True,000,2,2,False,True,False,True,111,0.0-97.0,0,670,[2],stimuli/2000111.jpg,135807,prediction_trial,122,image-keyboard-response,
84,Control,True,1,False,False,011,1,1,False,False,False,True,010,0.0-99.0,1,654,[1],stimuli/1011010.jpg,136896,prediction_trial,124,image-keyboard-response,
84,Control,True,1,True,True,001,0,0,True,True,True,True,010,0.0-101.0,0,470,[0],stimuli/0001010.jpg,137736,prediction_trial,126,image-keyboard-response,
84,Control,True,1,False,False,101,0,0,False,False,True,True,011,0.0-103.0,0,528,[0],stimuli/0101011.jpg,138616,prediction_trial,128,image-keyboard-response,
84,Control,True,1,True,True,001,0,0,True,True,True,True,011,0.0-105.0,0,438,[0],stimuli/0001011.jpg,139424,prediction_trial,130,image-keyboard-response,
84,Control,True,1,True,True,001,1,1,True,True,True,True,000,0.0-107.0,1,475,[1],stimuli/1001000.jpg,140304,prediction_trial,132,image-keyboard-response,
84,Control,True,1,True,True,000,1,1,True,True,True,True,100,0.0-109.0,1,416,[1],stimuli/1000100.jpg,141200,prediction_trial,134,image-keyboard-response,
84,Control,True,1,False,False,110,0,0,False,False,False,True,100,0.0-111.0,0,487,[0],stimuli/0110100.jpg,142056,prediction_trial,136,image-keyboard-response,
84,Control,True,1,True,True,101,1,1,True,True,True,True,000,0.0-113.0,1,447,[1],stimuli/1101000.jpg,142872,prediction_trial,138,image-keyboard-response,
84,Control,False,0,False,False,110,0,0,False,False,False,True,101,0.0-115.0,2,855,[0],stimuli/0110101.jpg,144120,prediction_trial,140,image-keyboard-response,
84,Control,True,1,False,True,001,2,2,False,True,False,True,001,0.0-117.0,2,653,[2],stimuli/2001001.jpg,145144,prediction_trial,142,image-keyboard-response,
84,Control,True,1,True,True,101,1,1,True,True,True,True,001,0.0-119.0,1,518,[1],stimuli/1101001.jpg,146000,prediction_trial,144,image-keyboard-response,
84,Control,True,1,False,False,011,1,1,False,False,True,True,001,0.0-121.0,1,623,[1],stimuli/1011001.jpg,146969,prediction_trial,146,image-keyboard-response,
84,Control,False,0,False,True,001,2,2,False,True,False,True,111,0.0-123.0,1,591,[2],stimuli/2001111.jpg,147953,prediction_trial,148,image-keyboard-response,
84,Control,True,1,True,True,000,1,1,False,True,False,True,111,0.0-125.0,1,815,[1],stimuli/1000111.jpg,149144,prediction_trial,150,image-keyboard-response,
84,Control,True,1,False,False,101,0,0,False,False,True,True,001,0.0-127.0,0,544,[0],stimuli/0101001.jpg,150016,prediction_trial,152,image-keyboard-response,
84,Control,True,1,True,True,011,0,0,True,True,True,True,000,0.0-129.0,0,557,[0],stimuli/0011000.jpg,151007,prediction_trial,154,image-keyboard-response,
84,Control,True,1,False,False,111,1,1,False,False,True,True,100,0.0-131.0,1,462,[1],stimuli/1111100.jpg,151848,prediction_trial,156,image-keyboard-response,
84,Control,True,1,False,True,100,0,0,False,True,True,True,001,0.0-133.0,0,464,[0],stimuli/0100001.jpg,152815,prediction_trial,158,image-keyboard-response,
84,Control,True,1,False,False,110,1,1,False,False,False,True,011,0.0-135.0,1,976,[1],stimuli/1110011.jpg,154143,prediction_trial,160,image-keyboard-response,
84,Control,True,1,True,True,000,2,2,False,True,False,True,001,0.0-137.0,2,642,[2],stimuli/2000001.jpg,155112,prediction_trial,162,image-keyboard-response,
84,Control,True,1,True,True,101,1,1,False,True,False,True,110,0.0-139.0,1,661,[1],stimuli/1101110.jpg,156079,prediction_trial,164,image-keyboard-response,
84,Control,False,0,True,True,000,2,2,False,True,False,True,011,0.0-141.0,1,662,[2],stimuli/2000011.jpg,157088,prediction_trial,166,image-keyboard-response,
84,Control,True,1,True,True,000,1,1,True,True,True,True,001,0.0-143.0,1,519,[1],stimuli/1000001.jpg,157976,prediction_trial,168,image-keyboard-response,
84,Control,True,1,True,True,000,0,0,True,True,True,True,001,0.0-145.0,0,598,[0],stimuli/0000001.jpg,158920,prediction_trial,170,image-keyboard-response,
84,Control,True,1,True,True,000,2,2,True,True,True,True,110,0.0-147.0,2,744,[2],stimuli/2000110.jpg,160048,prediction_trial,172,image-keyboard-response,
84,Control,True,1,True,True,000,2,2,True,True,True,True,010,0.0-149.0,2,1127,[2],stimuli/2000010.jpg,161456,prediction_trial,174,image-keyboard-response,
84,Control,True,1,True,True,010,0,0,True,True,True,True,010,0.0-151.0,0,486,[0],stimuli/0010010.jpg,162207,prediction_trial,176,image-keyboard-response,
84,Control,False,0,False,False,110,0,0,False,False,False,True,110,0.0-153.0,1,607,[0],stimuli/0110110.jpg,163112,prediction_trial,178,image-keyboard-response,
84,Control,True,1,False,False,011,1,1,False,False,False,True,111,0.0-155.0,1,598,[1],stimuli/1011111.jpg,164072,prediction_trial,180,image-keyboard-response,
84,Control,True,1,False,True,001,2,2,False,True,True,True,100,0.0-157.0,2,518,[2],stimuli/2001100.jpg,164920,prediction_trial,182,image-keyboard-response,
84,Control,True,1,True,True,001,1,1,False,True,False,True,111,0.0-159.0,1,601,[1],stimuli/1001111.jpg,165816,prediction_trial,184,image-keyboard-response,
84,Control,True,1,True,True,100,1,1,True,True,True,True,100,0.0-161.0,1,526,[1],stimuli/1100100.jpg,166704,prediction_trial,186,image-keyboard-response,
84,Control,False,0,False,True,001,2,2,False,True,False,True,011,0.0-163.0,1,542,[2],stimuli/2001011.jpg,167616,prediction_trial,188,image-keyboard-response,
84,Control,True,1,False,False,110,1,1,False,False,True,True,000,0.0-165.0,1,512,[1],stimuli/1110000.jpg,168496,prediction_trial,190,image-keyboard-response,
84,Control,True,1,False,True,100,0,0,False,True,True,True,010,0.0-167.0,0,473,[0],stimuli/0100010.jpg,169319,prediction_trial,192,image-keyboard-response,
84,Control,True,1,False,False,110,1,1,False,False,True,True,101,0.0-169.0,1,430,[1],stimuli/1110101.jpg,170079,prediction_trial,194,image-keyboard-response,
84,Control,False,0,True,True,010,0,0,False,True,False,True,101,0.0-171.0,2,774,[0],stimuli/0010101.jpg,171192,prediction_trial,196,image-keyboard-response,
84,Control,False,0,True,True,000,0,0,False,True,False,True,110,0.0-173.0,1,719,[0],stimuli/0000110.jpg,172207,prediction_trial,198,image-keyboard-response,
84,Control,True,1,True,True,000,1,1,False,True,False,True,010,0.0-175.0,1,595,[1],stimuli/1000010.jpg,173096,prediction_trial,200,image-keyboard-response,
84,Control,True,1,True,True,011,0,0,True,True,True,True,011,0.0-177.0,0,598,[0],stimuli/0011011.jpg,173992,prediction_trial,202,image-keyboard-response,
84,Control,False,0,True,True,011,0,0,False,True,False,True,111,0.0-179.0,1,464,[0],stimuli/0011111.jpg,174775,prediction_trial,204,image-keyboard-response,
84,Control,True,1,True,True,001,1,1,False,True,False,True,011,0.0-181.0,1,542,[1],stimuli/1001011.jpg,175688,prediction_trial,206,image-keyboard-response,
84,Control,True,1,True,True,001,0,0,False,True,False,True,101,0.0-183.0,0,630,[0],stimuli/0001101.jpg,176624,prediction_trial,208,image-keyboard-response,
84,Control,True,1,False,False,111,1,1,False,False,False,True,110,0.0-185.0,1,639,[1],stimuli/1111110.jpg,177625,prediction_trial,210,image-keyboard-response,
84,Control,True,1,False,True,010,1,1,False,True,True,True,100,0.0-187.0,1,526,[1],stimuli/1010100.jpg,178480,prediction_trial,212,image-keyboard-response,
84,Control,True,1,False,False,111,0,0,False,False,True,True,011,0.0-189.0,0,432,[0],stimuli/0111011.jpg,179200,prediction_trial,214,image-keyboard-response,
84,Control,True,1,False,True,010,1,1,False,True,False,True,110,0.0-191.0,1,488,[1],stimuli/1010110.jpg,179992,prediction_trial,216,image-keyboard-response,
84,Control,False,0,False,False,111,0,0,False,False,False,True,110,0.0-193.0,1,685,[0],stimuli/0111110.jpg,180999,prediction_trial,218,image-keyboard-response,
84,Control,False,0,False,True,100,0,0,False,True,False,True,111,0.0-195.0,1,549,[0],stimuli/0100111.jpg,181879,prediction_trial,220,image-keyboard-response,
84,Control,True,1,False,False,110,1,1,False,False,True,True,001,0.0-197.0,1,486,[1],stimuli/1110001.jpg,182697,prediction_trial,222,image-keyboard-response,
84,Control,True,1,True,True,100,1,1,False,True,False,True,010,0.0-199.0,1,478,[1],stimuli/1100010.jpg,183416,prediction_trial,224,image-keyboard-response,
84,Control,True,1,False,False,110,0,0,False,False,True,True,000,0.0-201.0,0,477,[0],stimuli/0110000.jpg,184215,prediction_trial,226,image-keyboard-response,
84,Control,False,0,False,True,100,0,0,False,True,False,True,110,0.0-203.0,1,558,[0],stimuli/0100110.jpg,185080,prediction_trial,228,image-keyboard-response,
84,Control,True,1,False,True,010,1,1,False,True,False,True,011,0.0-205.0,1,596,[1],stimuli/1010011.jpg,186015,prediction_trial,230,image-keyboard-response,
84,Control,True,1,True,True,101,1,1,True,True,True,True,101,0.0-207.0,1,559,[1],stimuli/1101101.jpg,186848,prediction_trial,232,image-keyboard-response,
84,Control,True,1,False,True,100,0,0,False,True,True,True,011,0.0-209.0,0,494,[0],stimuli/0100011.jpg,187625,prediction_trial,234,image-keyboard-response,
84,Control,True,1,False,False,111,0,0,False,False,True,True,001,0.0-211.0,0,757,[0],stimuli/0111001.jpg,188672,prediction_trial,236,image-keyboard-response,
84,Control,False,0,True,True,001,0,0,False,True,False,True,111,0.0-213.0,1,1029,[0],stimuli/0001111.jpg,189919,prediction_trial,238,image-keyboard-response,
84,Control,True,1,False,False,111,1,1,False,False,True,True,001,0.0-215.0,1,510,[1],stimuli/1111001.jpg,190721,prediction_trial,240,image-keyboard-response,
84,Control,True,1,False,False,110,1,1,False,False,False,True,010,0.0-217.0,1,710,[1],stimuli/1110010.jpg,191640,prediction_trial,242,image-keyboard-response,
84,Control,True,1,False,False,111,1,1,False,False,False,True,010,0.0-219.0,1,494,[1],stimuli/1111010.jpg,192377,prediction_trial,244,image-keyboard-response,
84,Control,True,1,False,True,010,1,1,False,True,False,True,111,0.0-221.0,1,878,[1],stimuli/1010111.jpg,193561,prediction_trial,246,image-keyboard-response,
84,Control,True,1,True,True,101,1,1,False,True,False,True,111,0.0-223.0,1,497,[1],stimuli/1101111.jpg,194281,prediction_trial,248,image-keyboard-response,
84,Control,True,1,False,True,001,2,2,False,True,True,True,110,0.0-225.0,2,801,[2],stimuli/2001110.jpg,195472,prediction_trial,250,image-keyboard-response,
84,Control,True,1,False,False,101,0,0,False,False,False,True,100,0.0-227.0,0,600,[0],stimuli/0101100.jpg,196359,prediction_trial,252,image-keyboard-response,
84,Control,False,0,False,False,111,0,0,False,False,False,True,111,0.0-229.0,1,624,[0],stimuli/0111111.jpg,197281,prediction_trial,254,image-keyboard-response,
84,Control,False,0,True,True,011,0,0,False,True,False,True,101,0.0-231.0,2,926,[0],stimuli/0011101.jpg,198472,prediction_trial,256,image-keyboard-response,
84,Control,True,1,False,False,101,0,0,False,False,True,True,010,0.0-233.0,0,712,[0],stimuli/0101010.jpg,199560,prediction_trial,258,image-keyboard-response,
84,Control,True,1,False,False,111,0,0,False,False,False,True,100,0.0-235.0,0,599,[0],stimuli/0111100.jpg,200448,prediction_trial,260,image-keyboard-response,
84,Control,True,1,True,True,010,0,0,True,True,True,True,000,0.0-237.0,0,568,[0],stimuli/0010000.jpg,201369,prediction_trial,262,image-keyboard-response,
84,Control,True,1,False,False,011,1,1,False,False,False,True,011,0.0-239.0,1,798,[1],stimuli/1011011.jpg,202520,prediction_trial,264,image-keyboard-response,
84,Control,True,1,False,False,111,1,1,False,False,True,True,101,0.0-241.0,1,550,[1],stimuli/1111101.jpg,203400,prediction_trial,266,image-keyboard-response,
84,Control,False,0,False,False,110,0,0,False,False,False,True,111,0.0-243.0,1,1208,[0],stimuli/0110111.jpg,205000,prediction_trial,268,image-keyboard-response,
84,Control,True,1,False,False,101,0,0,False,False,True,True,000,0.0-245.0,0,544,[0],stimuli/0101000.jpg,205816,prediction_trial,270,image-keyboard-response,
84,Control,True,1,True,True,100,1,1,False,True,False,True,011,0.0-247.0,1,549,[1],stimuli/1100011.jpg,206672,prediction_trial,272,image-keyboard-response,
84,Control,False,0,True,True,000,2,2,False,True,False,True,101,0.0-249.0,0,454,[2],stimuli/2000101.jpg,207456,prediction_trial,274,image-keyboard-response,
84,Control,True,1,True,True,100,1,1,True,True,True,True,001,0.0-251.0,1,494,[1],stimuli/1100001.jpg,208505,prediction_trial,276,image-keyboard-response,
84,Control,False,0,False,False,110,1,1,False,False,False,True,110,0.0-253.0,0,839,[1],stimuli/1110110.jpg,209631,prediction_trial,278,image-keyboard-response,
84,Control,True,1,False,False,011,1,1,False,False,True,True,000,0.0-255.0,1,567,[1],stimuli/1011000.jpg,210512,prediction_trial,280,image-keyboard-response,
84,Control,True,1,True,True,000,0,0,False,True,False,True,100,0.0-257.0,0,792,[0],stimuli/0000100.jpg,211592,prediction_trial,282,image-keyboard-response,
84,Control,True,1,True,True,010,0,0,True,True,True,True,001,0.0-259.0,0,696,[0],stimuli/0010001.jpg,212488,prediction_trial,284,image-keyboard-response,
84,Control,True,1,False,True,010,1,1,False,True,True,True,000,0.0-261.0,1,480,[1],stimuli/1010000.jpg,213264,prediction_trial,286,image-keyboard-response,
84,Control,True,1,True,True,101,1,1,True,True,True,True,100,0.0-263.0,1,430,[1],stimuli/1101100.jpg,214040,prediction_trial,288,image-keyboard-response,
84,Control,True,1,False,True,010,1,1,False,True,True,True,101,0.0-265.0,1,478,[1],stimuli/1010101.jpg,214881,prediction_trial,290,image-keyboard-response,
84,Control,True,1,True,True,000,1,1,True,True,True,True,101,0.0-267.0,1,414,[1],stimuli/1000101.jpg,215609,prediction_trial,292,image-keyboard-response,
84,Control,True,1,True,True,000,1,1,False,True,False,True,110,0.0-269.0,1,725,[1],stimuli/1000110.jpg,216655,prediction_trial,294,image-keyboard-response,
84,Control,True,1,True,True,010,0,0,False,True,False,True,100,0.0-271.0,0,645,[0],stimuli/0010100.jpg,217607,prediction_trial,296,image-keyboard-response,
84,Control,True,1,True,True,000,2,2,True,True,True,True,000,0.0-273.0,2,518,[2],stimuli/2000000.jpg,218392,prediction_trial,298,image-keyboard-response,
84,Control,True,1,False,False,111,0,0,False,False,True,True,000,0.0-275.0,0,499,[0],stimuli/0111000.jpg,219248,prediction_trial,300,image-keyboard-response,
84,Control,False,0,False,False,101,0,0,False,False,False,True,101,0.0-277.0,2,654,[0],stimuli/0101101.jpg,220280,prediction_trial,302,image-keyboard-response,
84,Control,False,0,True,True,000,0,0,False,True,False,True,111,0.0-279.0,1,998,[0],stimuli/0000111.jpg,221608,prediction_trial,304,image-keyboard-response,
84,Control,True,1,True,True,000,1,1,True,True,True,True,000,0.0-281.0,1,454,[1],stimuli/1000000.jpg,222360,prediction_trial,306,image-keyboard-response,
84,Control,True,1,False,False,011,1,1,False,False,True,True,100,0.0-283.0,1,464,[1],stimuli/1011100.jpg,223119,prediction_trial,308,image-keyboard-response,
84,Control,True,1,True,True,000,0,0,False,True,False,True,101,0.0-285.0,0,585,[0],stimuli/0000101.jpg,224072,prediction_trial,310,image-keyboard-response,
84,Control,False,0,True,True,011,0,0,False,True,False,True,110,0.0-287.0,1,621,[0],stimuli/0011110.jpg,225000,prediction_trial,312,image-keyboard-response,
84,Control,False,0,True,True,001,0,0,False,True,False,True,110,0.0-289.0,1,567,[0],stimuli/0001110.jpg,225929,prediction_trial,314,image-keyboard-response,
84,Control,True,1,True,True,000,0,0,True,True,True,True,000,0.0-291.0,0,510,[0],stimuli/0000000.jpg,226801,prediction_trial,316,image-keyboard-response,
97,Control,True,1,True,True,011,0,0,True,True,True,True,000,0.0-5.0,0,1059,[0],stimuli/0011000.jpg,193617,prediction_trial,30,image-keyboard-response,
97,Control,True,1,True,True,011,0,0,True,True,True,True,011,0.0-7.0,0,777,[0],stimuli/0011011.jpg,194902,prediction_trial,32,image-keyboard-response,
97,Control,True,1,False,False,111,0,0,False,False,True,True,000,0.0-9.0,0,609,[0],stimuli/0111000.jpg,195959,prediction_trial,34,image-keyboard-response,
97,Control,True,1,False,False,111,1,1,False,False,False,True,010,0.0-11.0,1,954,[1],stimuli/1111010.jpg,197378,prediction_trial,36,image-keyboard-response,
97,Control,True,1,False,True,001,2,2,False,True,False,True,001,0.0-13.0,2,608,[2],stimuli/2001001.jpg,198424,prediction_trial,38,image-keyboard-response,
97,Control,True,1,True,True,101,1,1,False,True,False,True,010,0.0-15.0,1,749,[1],stimuli/1101010.jpg,199673,prediction_trial,40,image-keyboard-response,
97,Control,True,1,False,True,100,0,0,False,True,False,True,111,0.0-17.0,0,1454,[0],stimuli/0100111.jpg,201560,prediction_trial,42,image-keyboard-response,
97,Control,True,1,False,True,001,2,2,False,True,True,True,000,0.0-19.0,2,808,[2],stimuli/2001000.jpg,203157,prediction_trial,44,image-keyboard-response,
97,Control,False,0,True,True,001,0,0,False,True,False,True,110,0.0-21.0,1,1147,[0],stimuli/0001110.jpg,204931,prediction_trial,46,image-keyboard-response,
97,Control,False,0,False,False,110,1,1,False,False,False,True,110,0.0-23.0,0,940,[1],stimuli/1110110.jpg,207040,prediction_trial,48,image-keyboard-response,
97,Control,True,1,True,True,000,1,1,True,True,True,True,001,0.0-25.0,1,1130,[1],stimuli/1000001.jpg,208889,prediction_trial,50,image-keyboard-response,
97,Control,False,0,True,True,001,1,1,False,True,False,True,111,0.0-27.0,2,925,[1],stimuli/1001111.jpg,210639,prediction_trial,52,image-keyboard-response,
97,Control,True,1,False,True,100,0,0,False,True,True,True,011,0.0-29.0,0,1536,[0],stimuli/0100011.jpg,213191,prediction_trial,54,image-keyboard-response,
97,Control,True,1,True,True,001,0,0,False,True,False,True,100,0.0-31.0,0,1319,[0],stimuli/0001100.jpg,215162,prediction_trial,56,image-keyboard-response,
97,Control,True,1,False,False,111,0,0,False,False,True,True,001,0.0-33.0,0,950,[0],stimuli/0111001.jpg,216681,prediction_trial,58,image-keyboard-response,
97,Control,True,1,False,False,111,1,1,False,False,False,True,110,0.0-35.0,1,1268,[1],stimuli/1111110.jpg,218766,prediction_trial,60,image-keyboard-response,
97,Control,True,1,False,True,010,1,1,False,True,False,True,111,0.0-37.0,1,2229,[1],stimuli/1010111.jpg,221540,prediction_trial,62,image-keyboard-response,
97,Control,True,1,False,False,110,1,1,False,False,False,True,011,0.0-39.0,1,1394,[1],stimuli/1110011.jpg,223379,prediction_trial,64,image-keyboard-response,
97,Control,True,1,True,True,001,0,0,True,True,True,True,000,0.0-41.0,0,766,[0],stimuli/0001000.jpg,224571,prediction_trial,66,image-keyboard-response,
97,Control,True,1,False,False,101,0,0,False,False,True,True,011,0.0-43.0,0,749,[0],stimuli/0101011.jpg,226083,prediction_trial,68,image-keyboard-response,
97,Control,True,1,True,True,000,2,2,False,True,False,True,001,0.0-45.0,2,765,[2],stimuli/2000001.jpg,227451,prediction_trial,70,image-keyboard-response,
97,Control,False,0,True,True,100,1,1,False,True,False,True,111,0.0-47.0,0,863,[1],stimuli/1100111.jpg,228874,prediction_trial,72,image-keyboard-response,
97,Control,False,0,True,True,011,0,0,False,True,False,True,110,0.0-49.0,1,885,[0],stimuli/0011110.jpg,230520,prediction_trial,74,image-keyboard-response,
97,Control,True,1,False,False,111,1,1,False,False,True,True,101,0.0-51.0,1,664,[1],stimuli/1111101.jpg,231852,prediction_trial,76,image-keyboard-response,
97,Control,True,1,False,True,001,2,2,False,True,True,True,010,0.0-53.0,2,681,[2],stimuli/2001010.jpg,232957,prediction_trial,78,image-keyboard-response,
97,Control,True,1,False,False,011,1,1,False,False,False,True,110,0.0-55.0,1,886,[1],stimuli/1011110.jpg,234393,prediction_trial,80,image-keyboard-response,
97,Control,True,1,False,False,011,1,1,False,False,True,True,100,0.0-57.0,1,692,[1],stimuli/1011100.jpg,235519,prediction_trial,82,image-keyboard-response,
97,Control,True,1,True,True,010,0,0,True,True,True,True,001,0.0-59.0,0,755,[0],stimuli/0010001.jpg,236993,prediction_trial,84,image-keyboard-response,
97,Control,True,1,True,True,000,2,2,True,True,True,True,000,0.0-61.0,2,606,[2],stimuli/2000000.jpg,238074,prediction_trial,86,image-keyboard-response,
97,Control,True,1,True,True,001,1,1,True,True,True,True,100,0.0-63.0,1,692,[1],stimuli/1001100.jpg,239293,prediction_trial,88,image-keyboard-response,
97,Control,True,1,True,True,001,1,1,True,True,True,True,101,0.0-65.0,1,670,[1],stimuli/1001101.jpg,240478,prediction_trial,90,image-keyboard-response,
97,Control,True,1,False,False,111,1,1,False,False,True,True,100,0.0-67.0,1,669,[1],stimuli/1111100.jpg,241614,prediction_trial,92,image-keyboard-response,
97,Control,True,1,False,True,010,1,1,False,True,True,True,000,0.0-69.0,1,674,[1],stimuli/1010000.jpg,242838,prediction_trial,94,image-keyboard-response,
97,Control,True,1,False,True,010,1,1,False,True,True,True,001,0.0-71.0,1,743,[1],stimuli/1010001.jpg,244165,prediction_trial,96,image-keyboard-response,
97,Control,True,1,False,False,111,0,0,False,False,True,True,011,0.0-73.0,0,710,[0],stimuli/0111011.jpg,245457,prediction_trial,98,image-keyboard-response,
97,Control,False,0,True,True,001,0,0,False,True,False,True,111,0.0-75.0,2,1176,[0],stimuli/0001111.jpg,247115,prediction_trial,100,image-keyboard-response,
97,Control,True,1,True,True,000,1,1,False,True,False,True,011,0.0-77.0,1,3254,[1],stimuli/1000011.jpg,251039,prediction_trial,102,image-keyboard-response,
97,Control,True,1,False,True,010,1,1,False,True,False,True,110,0.0-79.0,1,1052,[1],stimuli/1010110.jpg,252796,prediction_trial,104,image-keyboard-response,
97,Control,True,1,False,False,011,1,1,False,False,True,True,000,0.0-81.0,1,626,[1],stimuli/1011000.jpg,253802,prediction_trial,106,image-keyboard-response,
97,Control,True,1,True,True,100,1,1,True,True,True,True,100,0.0-83.0,1,623,[1],stimuli/1100100.jpg,254799,prediction_trial,108,image-keyboard-response,
97,Control,True,1,False,False,110,1,1,False,False,True,True,001,0.0-85.0,1,658,[1],stimuli/1110001.jpg,255816,prediction_trial,110,image-keyboard-response,
97,Control,True,1,True,True,000,2,2,False,True,False,True,111,0.0-87.0,2,615,[2],stimuli/2000111.jpg,256860,prediction_trial,112,image-keyboard-response,
97,Control,True,1,True,True,001,1,1,False,True,False,True,010,0.0-89.0,1,852,[1],stimuli/1001010.jpg,258111,prediction_trial,114,image-keyboard-response,
97,Control,False,0,False,True,001,2,2,False,True,False,True,011,0.0-91.0,1,750,[2],stimuli/2001011.jpg,259371,prediction_trial,116,image-keyboard-response,
97,Control,False,0,True,True,010,0,0,False,True,False,True,111,0.0-93.0,1,743,[0],stimuli/0010111.jpg,260726,prediction_trial,118,image-keyboard-response,
97,Control,True,1,True,True,000,1,1,True,True,True,True,100,0.0-95.0,1,762,[1],stimuli/1000100.jpg,261940,prediction_trial,120,image-keyboard-response,
97,Control,False,0,True,True,100,1,1,False,True,False,True,110,0.0-97.0,0,814,[1],stimuli/1100110.jpg,263132,prediction_trial,122,image-keyboard-response,
97,Control,True,1,True,True,101,1,1,True,True,True,True,000,0.0-99.0,1,574,[1],stimuli/1101000.jpg,264333,prediction_trial,124,image-keyboard-response,
97,Control,True,1,False,True,010,1,1,False,True,True,True,101,0.0-101.0,1,650,[1],stimuli/1010101.jpg,265433,prediction_trial,126,image-keyboard-response,
97,Control,True,1,False,False,110,0,0,False,False,False,True,101,0.0-103.0,0,799,[0],stimuli/0110101.jpg,266685,prediction_trial,128,image-keyboard-response,
97,Control,True,1,True,True,000,2,2,True,True,True,True,110,0.0-105.0,2,799,[2],stimuli/2000110.jpg,267976,prediction_trial,130,image-keyboard-response,
97,Control,True,1,True,True,000,0,0,True,True,True,True,001,0.0-107.0,0,760,[0],stimuli/0000001.jpg,269229,prediction_trial,132,image-keyboard-response,
97,Control,True,1,False,False,011,1,1,False,False,True,True,001,0.0-109.0,1,1188,[1],stimuli/1011001.jpg,270910,prediction_trial,134,image-keyboard-response,
97,Control,True,1,True,True,001,0,0,True,True,True,True,010,0.0-111.0,0,2620,[0],stimuli/0001010.jpg,273955,prediction_trial,136,image-keyboard-response,
97,Control,False,0,False,False,101,0,0,False,False,False,True,110,0.0-113.0,1,1718,[0],stimuli/0101110.jpg,276362,prediction_trial,138,image-keyboard-response,
97,Control,True,1,False,True,010,1,1,False,True,False,True,011,0.0-115.0,1,1488,[1],stimuli/1010011.jpg,278621,prediction_trial,140,image-keyboard-response,
97,Control,True,1,True,True,010,0,0,False,True,False,True,100,0.0-117.0,0,1313,[0],stimuli/0010100.jpg,280573,prediction_trial,142,image-keyboard-response,
97,Control,True,1,False,True,100,0,0,False,True,True,True,010,0.0-119.0,0,741,[0],stimuli/0100010.jpg,281889,prediction_trial,144,image-keyboard-response,
97,Control,True,1,True,True,011,0,0,False,True,False,True,100,0.0-121.0,0,1324,[0],stimuli/0011100.jpg,283806,prediction_trial,146,image-keyboard-response,
97,Control,True,1,True,True,011,0,0,False,True,False,True,111,0.0-123.0,0,1067,[0],stimuli/0011111.jpg,285249,prediction_trial,148,image-keyboard-response,
97,Control,True,1,False,True,001,2,2,False,True,True,True,110,0.0-125.0,2,719,[2],stimuli/2001110.jpg,286496,prediction_trial,150,image-keyboard-response,
97,Control,False,0,False,False,110,0,0,False,False,False,True,111,0.0-127.0,2,1567,[0],stimuli/0110111.jpg,288523,prediction_trial,152,image-keyboard-response,
