workerid,proliferate.condition,accuracy,accuracy_bool,age,alter_ball_visible,alter_can_infer,alter_occluders,ball_pos,bonus,character_choice,collective_ball_visible,collective_can_infer,correct_response,ego_ball_visible,ego_can_infer,ego_occluders,ethnicity,failed_audio,failed_images,failed_video,feedback,gender,internal_node_id,overall_accuracy,race,response,rt,search_locations,stimulus,stimulus_dict,success,time_elapsed,timeout,trial,trial_index,trial_type,view_history,error
53,Control,,,,,,,,,,,,,,,,,[],[],[],,,0.0-0.0,,,,,,,,True,1271,False,,0,preload,,
53,Control,,,,,,,,,,,,,,,,,,,,,,0.0-1.0,,,,,,,,True,10207,,,1,fullscreen,,
53,Control,,,,,,,,,,,,,,,,,,,,,,0.0-2.0,,,0,16039,,"<p><b>Consent Form</b></p> <div style=""text-align:left;background-color:lightgrey; padding:20px; max-width:900px;""><p>Please consider this information carefully before deciding whether to participate in this research.</p> <p>The purpose of this research is to examine which factors influence social judgment and decision-making. You will be asked to make judgements about individuals and actions in social scenarios. We are simply interested in your judgement. The study will take less than 1 hour to complete, and you will receive less than $20 on Prolific. Your compensation and time commitment are specified in the study description. There are no anticipated risks associated with participating in this study. The effects of participating should be comparable to those you would ordinarily experience from viewing a computer monitor and using a mouse or keyboard for a similar amount of time. At the end of the study, we will provide an explanation of the questions that motivate this line of research and will describe the potential implications. </p><p> Your participation in this study is completely voluntary and you may refuse to participate or you may choose to withdraw at any time without penalty or loss of benefits to you which are otherwise entitled. Your participation in this study will remain confidential. No personally identifiable information will be associated with your data. Also, all analyses of the data will be averaged across all the participants, so your individual responses will never be specifically analyzed. </p><p> If you have questions or concerns about your participation or payment, or want to request a summary of research findings, please contact Dr. Jonathan Phillips at Jonathan.S.Phillips@dartmouth.edu. </p><p> Please save a copy of this form for your records. </p><p><b>Agreement: </b>The nature and purpose of this research have been sufficiently explained and I agree to participate in this study. I understand that I am free to withdraw at any time without incurring any penalty. Please consent by clicking the button below to continue. Otherwise, please exit the study at any time. </p>",,,26248,,,2,html-button-response,,
53,Control,,,,,,,,,,,,,,,,,,,,,,0.0-3.0-0.0,,,,223642,,,,,249884,,intro,3,instructions,"[{'page_index': 0, 'viewing_time': 1351}, {'page_index': 1, 'viewing_time': 3398}, {'page_index': 2, 'viewing_time': 3200}, {'page_index': 3, 'viewing_time': 2288}, {'page_index': 4, 'viewing_time': 2878}, {'page_index': 5, 'viewing_time': 4884}, {'page_index': 6, 'viewing_time': 1896}, {'page_index': 7, 'viewing_time': 183768}, {'page_index': 8, 'viewing_time': 3950}, {'page_index': 9, 'viewing_time': 14040}, {'page_index': 10, 'viewing_time': 1988}]",
53,Control,True,,,,,,,,0,,,,,,,,,,,,,0.0-3.0-1.0,,,0,1203,,stimuli/0110011.jpg,"{'ball_pos': 0, 'filepath': 'stimuli/0110011.jpg', 'ego_can_infer': True, 'ego_occluders': '011', 'alter_can_infer': False, 'alter_occluders': '110', 'ego_ball_visible': True, 'search_locations': [0], 'alter_ball_visible': False, 'collective_can_infer': False, 'collective_ball_visible': False}",,251093,,prediction_practice,4,image-keyboard-response,,
53,Control,,,,,,,,,0,,,,,,,,,,,,,0.0-3.0-2.0,,, ,1179,,stimuli/01100110.jpg,,,252275,,practrice_feedback,5,image-keyboard-response,,
53,Control,False,,,,,,,,0,,,,,,,,,,,,,0.0-3.0-3.0,,,1,3062,,stimuli/0010110.jpg,"{'ball_pos': 0, 'filepath': 'stimuli/0010110.jpg', 'ego_can_infer': True, 'ego_occluders': '110', 'alter_can_infer': True, 'alter_occluders': '010', 'ego_ball_visible': False, 'search_locations': [0], 'alter_ball_visible': True, 'collective_can_infer': True, 'collective_ball_visible': False}",,255339,,prediction_practice,6,image-keyboard-response,,
53,Control,,,,,,,,,0,,,,,,,,,,,,,0.0-3.0-4.0,,, ,1077,,stimuli/00101100.jpg,,,256418,,practrice_feedback,7,image-keyboard-response,,
53,Control,True,,,,,,,,2,,,,,,,,,,,,,0.0-3.0-5.0,,,2,853,,stimuli/2101100.jpg,"{'ball_pos': 2, 'filepath': 'stimuli/2101100.jpg', 'ego_can_infer': True, 'ego_occluders': '100', 'alter_can_infer': False, 'alter_occluders': '101', 'ego_ball_visible': True, 'search_locations': [2], 'alter_ball_visible': False, 'collective_can_infer': False, 'collective_ball_visible': False}",,257273,,prediction_practice,8,image-keyboard-response,,
53,Control,,,,,,,,,2,,,,,,,,,,,,,0.0-3.0-6.0,,, ,922,,stimuli/21011002.jpg,,,258197,,practrice_feedback,9,image-keyboard-response,,
53,Control,True,,,,,,,,1,,,,,,,,,,,,,0.0-3.0-7.0,,,1,1152,,stimuli/1111011.jpg,"{'ball_pos': 1, 'filepath': 'stimuli/1111011.jpg', 'ego_can_infer': True, 'ego_occluders': '011', 'alter_can_infer': False, 'alter_occluders': '111', 'ego_ball_visible': False, 'search_locations': [1], 'alter_ball_visible': False, 'collective_can_infer': False, 'collective_ball_visible': False}",,259351,,prediction_practice,10,image-keyboard-response,,
53,Control,,,,,,,,,1,,,,,,,,,,,,,0.0-3.0-8.0,,, ,1033,,stimuli/11110111.jpg,,,260393,,practrice_feedback,11,image-keyboard-response,,
53,Control,True,,,,,,,,2,,,,,,,,,,,,,0.0-3.0-9.0,,,2,1616,,stimuli/2100101.jpg,"{'ball_pos': 2, 'filepath': 'stimuli/2100101.jpg', 'ego_can_infer': True, 'ego_occluders': '101', 'alter_can_infer': True, 'alter_occluders': '100', 'ego_ball_visible': False, 'search_locations': [2], 'alter_ball_visible': True, 'collective_can_infer': True, 'collective_ball_visible': False}",,262011,,prediction_practice,12,image-keyboard-response,,
53,Control,,,,,,,,,2,,,,,,,,,,,,,0.0-3.0-10.0,,, ,968,,stimuli/21001012.jpg,,,262981,,practrice_feedback,13,image-keyboard-response,,
53,Control,True,,,,,,,,0,,,,,,,,,,,,,0.0-3.0-11.0,,,0,754,,stimuli/0000000.jpg,"{'ball_pos': 0, 'filepath': 'stimuli/0000000.jpg', 'ego_can_infer': True, 'ego_occluders': '000', 'alter_can_infer': True, 'alter_occluders': '000', 'ego_ball_visible': True, 'search_locations': [0], 'alter_ball_visible': True, 'collective_can_infer': True, 'collective_ball_visible': True}",,263737,,prediction_practice,14,image-keyboard-response,,
53,Control,,,,,,,,,0,,,,,,,,,,,,,0.0-3.0-12.0,,, ,1009,,stimuli/00000000.jpg,,,264748,,practrice_feedback,15,image-keyboard-response,,
53,Control,True,,,,,,,,2,,,,,,,,,,,,,0.0-3.0-13.0,,,2,1974,,stimuli/2100011.jpg,"{'ball_pos': 2, 'filepath': 'stimuli/2100011.jpg', 'ego_can_infer': True, 'ego_occluders': '011', 'alter_can_infer': True, 'alter_occluders': '100', 'ego_ball_visible': False, 'search_locations': [2], 'alter_ball_visible': True, 'collective_can_infer': True, 'collective_ball_visible': False}",,266724,,prediction_practice,16,image-keyboard-response,,
53,Control,,,,,,,,,2,,,,,,,,,,,,,0.0-3.0-14.0,,, ,801,,stimuli/21000112.jpg,,,267527,,practrice_feedback,17,image-keyboard-response,,
53,Control,False,,,,,,,,2,,,,,,,,,,,,,0.0-3.0-15.0,,,1,1284,,stimuli/2001111.jpg,"{'ball_pos': 2, 'filepath': 'stimuli/2001111.jpg', 'ego_can_infer': True, 'ego_occluders': '111', 'alter_can_infer': True, 'alter_occluders': '001', 'ego_ball_visible': False, 'search_locations': [2], 'alter_ball_visible': False, 'collective_can_infer': True, 'collective_ball_visible': False}",,268813,,prediction_practice,18,image-keyboard-response,,
53,Control,,,,,,,,,2,,,,,,,,,,,,,0.0-3.0-16.0,,, ,1091,,stimuli/20011112.jpg,,,269912,,practrice_feedback,19,image-keyboard-response,,
53,Control,True,,,,,,,,2,,,,,,,,,,,,,0.0-3.0-17.0,,,2,913,,stimuli/2001110.jpg,"{'ball_pos': 2, 'filepath': 'stimuli/2001110.jpg', 'ego_can_infer': True, 'ego_occluders': '110', 'alter_can_infer': True, 'alter_occluders': '001', 'ego_ball_visible': True, 'search_locations': [2], 'alter_ball_visible': False, 'collective_can_infer': True, 'collective_ball_visible': False}",,270827,,prediction_practice,20,image-keyboard-response,,
53,Control,,,,,,,,,2,,,,,,,,,,,,,0.0-3.0-18.0,,, ,418,,stimuli/20011102.jpg,,,271247,,practrice_feedback,21,image-keyboard-response,,
53,Control,True,,,,,,,,1,,,,,,,,,,,,,0.0-3.0-19.0,,,1,628,,stimuli/1101101.jpg,"{'ball_pos': 1, 'filepath': 'stimuli/1101101.jpg', 'ego_can_infer': True, 'ego_occluders': '101', 'alter_can_infer': True, 'alter_occluders': '101', 'ego_ball_visible': True, 'search_locations': [1], 'alter_ball_visible': True, 'collective_can_infer': True, 'collective_ball_visible': True}",,271876,,prediction_practice,22,image-keyboard-response,,
53,Control,,,,,,,,,1,,,,,,,,,,,,,0.0-3.0-20.0,,, ,347,,stimuli/11011011.jpg,,,272225,,practrice_feedback,23,image-keyboard-response,,
53,Control,,,,,,,,,,,,,,,,,,,,,,0.0-3.0-21.0,,,0,5349,,"Now that you've had some practice, you'll be tested with a couple of easy trials. If you correctly predict the ball's location, you'll move on to complete the experiment!",,,277574,,,24,html-button-response,,
53,Control,True,,,,,,,,,,,arrowleft,,,,,,,,,,0.0-3.0-22.0-0.0,,,arrowleft,911,,stimuli/0000011.jpg,,,278486,,comprehension_quiz,25,image-keyboard-response,,
53,Control,True,,,,,,,,,,, ,,,,,,,,,,0.0-3.0-22.0-1.0,,, ,631,,stimuli/00000110.jpg,,,279119,,comprehension_quiz,26,image-keyboard-response,,
53,Control,True,,,,,,,,,,,arrowdown,,,,,,,,,,0.0-3.0-22.0-2.0,,,arrowdown,1332,,stimuli/1010010.jpg,,,280453,,comprehension_quiz,27,image-keyboard-response,,
53,Control,True,,,,,,,,,,, ,,,,,,,,,,0.0-3.0-22.0-3.0,,, ,351,,stimuli/10100101.jpg,,,280810,,comprehension_quiz,28,image-keyboard-response,,
53,Control,,,,,,,,,,,,,,,,,,,,,,0.0-4.0,,,0,2231,,The experiment will now begin.,,,283043,,,29,html-button-response,,
53,Control,True,1,,True,True,010,0,,0,True,True,,True,True,010,,,,,,,0.0-5.0,,,0,1245,[0],stimuli/0010010.jpg,,,284289,,prediction_trial,30,image-keyboard-response,,
53,Control,,,,,,,,,0,,,,,,,,,,,,,0.0-6.0,,, ,514,,stimuli/00100100.jpg,,,284805,,feedback_trial,31,image-keyboard-response,,
53,Control,True,1,,False,False,111,1,,1,False,False,,True,True,100,,,,,,,0.0-7.0,,,1,698,[1],stimuli/1111100.jpg,,,285505,,prediction_trial,32,image-keyboard-response,,
53,Control,,,,,,,,,1,,,,,,,,,,,,,0.0-8.0,,, ,471,,stimuli/11111001.jpg,,,285978,,feedback_trial,33,image-keyboard-response,,
53,Control,False,0,,False,False,111,1,,1,False,False,,False,True,111,,,,,,,0.0-9.0,,,2,1548,[1],stimuli/1111111.jpg,,,287527,,prediction_trial,34,image-keyboard-response,,
53,Control,,,,,,,,,1,,,,,,,,,,,,,0.0-10.0,,, ,602,,stimuli/11111111.jpg,,,288131,,feedback_trial,35,image-keyboard-response,,
53,Control,False,0,,True,True,011,0,,0,False,True,,False,True,111,,,,,,,0.0-11.0,,,2,949,[0],stimuli/0011111.jpg,,,289082,,prediction_trial,36,image-keyboard-response,,
53,Control,,,,,,,,,0,,,,,,,,,,,,,0.0-12.0,,, ,822,,stimuli/00111110.jpg,,,289909,,feedback_trial,37,image-keyboard-response,,
53,Control,True,1,,False,False,110,1,,1,False,False,,False,True,010,,,,,,,0.0-13.0,,,1,1225,[1],stimuli/1110010.jpg,,,291136,,prediction_trial,38,image-keyboard-response,,
53,Control,,,,,,,,,1,,,,,,,,,,,,,0.0-14.0,,, ,754,,stimuli/11100101.jpg,,,291891,,feedback_trial,39,image-keyboard-response,,
53,Control,False,0,,True,True,000,2,,2,False,True,,False,True,111,,,,,,,0.0-15.0,,,0,1128,[2],stimuli/2000111.jpg,,,293021,,prediction_trial,40,image-keyboard-response,,
53,Control,,,,,,,,,2,,,,,,,,,,,,,0.0-16.0,,, ,738,,stimuli/20001112.jpg,,,293761,,feedback_trial,41,image-keyboard-response,,
53,Control,True,1,,True,True,011,0,,0,False,True,,False,True,100,,,,,,,0.0-17.0,,,0,662,[0],stimuli/0011100.jpg,,,294425,,prediction_trial,42,image-keyboard-response,,
53,Control,,,,,,,,,0,,,,,,,,,,,,,0.0-18.0,,, ,431,,stimuli/00111000.jpg,,,294858,,feedback_trial,43,image-keyboard-response,,
53,Control,True,1,,True,True,100,1,,1,True,True,,True,True,001,,,,,,,0.0-19.0,,,1,558,[1],stimuli/1100001.jpg,,,295418,,prediction_trial,44,image-keyboard-response,,
53,Control,,,,,,,,,1,,,,,,,,,,,,,0.0-20.0,,, ,293,,stimuli/11000011.jpg,,,295719,,feedback_trial,45,image-keyboard-response,,
53,Control,True,1,,True,True,010,0,,0,True,True,,True,True,011,,,,,,,0.0-21.0,,,0,396,[0],stimuli/0010011.jpg,,,296117,,prediction_trial,46,image-keyboard-response,,
53,Control,,,,,,,,,0,,,,,,,,,,,,,0.0-22.0,,, ,323,,stimuli/00100110.jpg,,,296441,,feedback_trial,47,image-keyboard-response,,
53,Control,True,1,,False,False,101,0,,0,False,False,,False,True,110,,,,,,,0.0-23.0,,,0,766,[0],stimuli/0101110.jpg,,,297208,,prediction_trial,48,image-keyboard-response,,
53,Control,,,,,,,,,0,,,,,,,,,,,,,0.0-24.0,,, ,399,,stimuli/01011100.jpg,,,297609,,feedback_trial,49,image-keyboard-response,,
53,Control,True,1,,True,True,000,0,,0,False,True,,False,True,100,,,,,,,0.0-25.0,,,0,718,[0],stimuli/0000100.jpg,,,298329,,prediction_trial,50,image-keyboard-response,,
53,Control,,,,,,,,,0,,,,,,,,,,,,,0.0-26.0,,, ,439,,stimuli/00001000.jpg,,,298770,,feedback_trial,51,image-keyboard-response,,
53,Control,True,1,,True,True,011,0,,0,True,True,,True,True,011,,,,,,,0.0-27.0,,,0,992,[0],stimuli/0011011.jpg,,,299764,,prediction_trial,52,image-keyboard-response,,
53,Control,,,,,,,,,0,,,,,,,,,,,,,0.0-28.0,,, ,476,,stimuli/00110110.jpg,,,300250,,feedback_trial,53,image-keyboard-response,,
53,Control,True,1,,True,True,100,1,,1,False,True,,False,True,011,,,,,,,0.0-29.0,,,1,2133,[1],stimuli/1100011.jpg,,,302384,,prediction_trial,54,image-keyboard-response,,
53,Control,,,,,,,,,1,,,,,,,,,,,,,0.0-30.0,,, ,746,,stimuli/11000111.jpg,,,303132,,feedback_trial,55,image-keyboard-response,,
53,Control,True,1,,False,False,111,1,,1,False,False,,False,True,010,,,,,,,0.0-31.0,,,1,1013,[1],stimuli/1111010.jpg,,,304147,,prediction_trial,56,image-keyboard-response,,
53,Control,,,,,,,,,1,,,,,,,,,,,,,0.0-32.0,,, ,566,,stimuli/11110101.jpg,,,304715,,feedback_trial,57,image-keyboard-response,,
53,Control,True,1,,True,True,101,1,,1,False,True,,False,True,010,,,,,,,0.0-33.0,,,1,782,[1],stimuli/1101010.jpg,,,305499,,prediction_trial,58,image-keyboard-response,,
53,Control,,,,,,,,,1,,,,,,,,,,,,,0.0-34.0,,, ,482,,stimuli/11010101.jpg,,,305982,,feedback_trial,59,image-keyboard-response,,
53,Control,False,0,,False,True,010,1,,1,False,True,,False,True,011,,,,,,,0.0-35.0,,,2,1198,[1],stimuli/1010011.jpg,,,307182,,prediction_trial,60,image-keyboard-response,,
53,Control,,,,,,,,,1,,,,,,,,,,,,,0.0-36.0,,, ,730,,stimuli/10100111.jpg,,,307920,,feedback_trial,61,image-keyboard-response,,
53,Control,True,1,,False,False,110,1,,1,False,False,,True,True,101,,,,,,,0.0-37.0,,,1,659,[1],stimuli/1110101.jpg,,,308581,,prediction_trial,62,image-keyboard-response,,
53,Control,,,,,,,,,1,,,,,,,,,,,,,0.0-38.0,,, ,618,,stimuli/11101011.jpg,,,309201,,feedback_trial,63,image-keyboard-response,,
53,Control,True,1,,False,True,001,2,,2,False,True,,True,True,000,,,,,,,0.0-39.0,,,2,523,[2],stimuli/2001000.jpg,,,309726,,prediction_trial,64,image-keyboard-response,,
53,Control,,,,,,,,,2,,,,,,,,,,,,,0.0-40.0,,, ,526,,stimuli/20010002.jpg,,,310253,,feedback_trial,65,image-keyboard-response,,
53,Control,False,0,,False,True,001,2,,2,False,True,,False,True,111,,,,,,,0.0-41.0,,,1,1675,[2],stimuli/2001111.jpg,,,311930,,prediction_trial,66,image-keyboard-response,,
53,Control,,,,,,,,,2,,,,,,,,,,,,,0.0-42.0,,, ,795,,stimuli/20011112.jpg,,,312727,,feedback_trial,67,image-keyboard-response,,
53,Control,True,1,,False,False,011,1,,1,False,False,,True,True,101,,,,,,,0.0-43.0,,,1,526,[1],stimuli/1011101.jpg,,,313254,,prediction_trial,68,image-keyboard-response,,
53,Control,,,,,,,,,1,,,,,,,,,,,,,0.0-44.0,,, ,368,,stimuli/10111011.jpg,,,313630,,feedback_trial,69,image-keyboard-response,,
53,Control,True,1,,False,True,001,2,,2,False,True,,False,True,011,,,,,,,0.0-45.0,,,2,834,[2],stimuli/2001011.jpg,,,314467,,prediction_trial,70,image-keyboard-response,,
53,Control,,,,,,,,,2,,,,,,,,,,,,,0.0-46.0,,, ,634,,stimuli/20010112.jpg,,,315102,,feedback_trial,71,image-keyboard-response,,
53,Control,True,1,,False,True,010,1,,1,False,True,,False,True,010,,,,,,,0.0-47.0,,,1,890,[1],stimuli/1010010.jpg,,,315994,,prediction_trial,72,image-keyboard-response,,
53,Control,,,,,,,,,1,,,,,,,,,,,,,0.0-48.0,,, ,387,,stimuli/10100101.jpg,,,316382,,feedback_trial,73,image-keyboard-response,,
53,Control,True,1,,True,True,000,0,,0,True,True,,True,True,001,,,,,,,0.0-49.0,,,0,597,[0],stimuli/0000001.jpg,,,316982,,prediction_trial,74,image-keyboard-response,,
53,Control,,,,,,,,,0,,,,,,,,,,,,,0.0-50.0,,, ,329,,stimuli/00000010.jpg,,,317312,,feedback_trial,75,image-keyboard-response,,
53,Control,True,1,,False,False,111,1,,1,False,False,,True,True,101,,,,,,,0.0-51.0,,,1,490,[1],stimuli/1111101.jpg,,,317804,,prediction_trial,76,image-keyboard-response,,
53,Control,,,,,,,,,1,,,,,,,,,,,,,0.0-52.0,,, ,359,,stimuli/11111011.jpg,,,318165,,feedback_trial,77,image-keyboard-response,,
53,Control,False,0,,True,True,100,1,,1,False,True,,False,True,111,,,,,,,0.0-53.0,,,0,988,[1],stimuli/1100111.jpg,,,319154,,prediction_trial,78,image-keyboard-response,,
53,Control,,,,,,,,,1,,,,,,,,,,,,,0.0-54.0,,, ,575,,stimuli/11001111.jpg,,,319732,,feedback_trial,79,image-keyboard-response,,
53,Control,True,1,,True,True,101,1,,1,True,True,,True,True,000,,,,,,,0.0-55.0,,,1,546,[1],stimuli/1101000.jpg,,,320286,,prediction_trial,80,image-keyboard-response,,
53,Control,,,,,,,,,1,,,,,,,,,,,,,0.0-56.0,,, ,542,,stimuli/11010001.jpg,,,320829,,feedback_trial,81,image-keyboard-response,,
53,Control,True,1,,True,True,001,1,,1,False,True,,False,True,110,,,,,,,0.0-57.0,,,1,1811,[1],stimuli/1001110.jpg,,,322641,,prediction_trial,82,image-keyboard-response,,
53,Control,,,,,,,,,1,,,,,,,,,,,,,0.0-58.0,,, ,525,,stimuli/10011101.jpg,,,323168,,feedback_trial,83,image-keyboard-response,,
53,Control,True,1,,True,True,101,1,,1,False,True,,False,True,111,,,,,,,0.0-59.0,,,1,1058,[1],stimuli/1101111.jpg,,,324227,,prediction_trial,84,image-keyboard-response,,
53,Control,,,,,,,,,1,,,,,,,,,,,,,0.0-60.0,,, ,603,,stimuli/11011111.jpg,,,324832,,feedback_trial,85,image-keyboard-response,,
53,Control,True,1,,True,True,101,1,,1,False,True,,False,True,110,,,,,,,0.0-61.0,,,1,694,[1],stimuli/1101110.jpg,,,325528,,prediction_trial,86,image-keyboard-response,,
53,Control,,,,,,,,,1,,,,,,,,,,,,,0.0-62.0,,, ,583,,stimuli/11011101.jpg,,,326112,,feedback_trial,87,image-keyboard-response,,
53,Control,True,1,,True,True,000,2,,2,True,True,,True,True,100,,,,,,,0.0-63.0,,,2,563,[2],stimuli/2000100.jpg,,,326677,,prediction_trial,88,image-keyboard-response,,
53,Control,,,,,,,,,2,,,,,,,,,,,,,0.0-64.0,,, ,520,,stimuli/20001002.jpg,,,327205,,feedback_trial,89,image-keyboard-response,,
53,Control,False,0,,False,True,100,0,,0,False,True,,True,True,010,,,,,,,0.0-65.0,,,1,805,[0],stimuli/0100010.jpg,,,328012,,prediction_trial,90,image-keyboard-response,,
53,Control,,,,,,,,,0,,,,,,,,,,,,,0.0-66.0,,, ,1986,,stimuli/01000100.jpg,,,329999,,feedback_trial,91,image-keyboard-response,,
53,Control,False,0,,True,True,010,0,,0,False,True,,False,True,111,,,,,,,0.0-67.0,,,1,2532,[0],stimuli/0010111.jpg,,,332534,,prediction_trial,92,image-keyboard-response,,
53,Control,,,,,,,,,0,,,,,,,,,,,,,0.0-68.0,,, ,563,,stimuli/00101110.jpg,,,333099,,feedback_trial,93,image-keyboard-response,,
53,Control,True,1,,False,True,010,1,,1,False,True,,True,True,000,,,,,,,0.0-69.0,,,1,685,[1],stimuli/1010000.jpg,,,333786,,prediction_trial,94,image-keyboard-response,,
53,Control,,,,,,,,,1,,,,,,,,,,,,,0.0-70.0,,, ,359,,stimuli/10100001.jpg,,,334147,,feedback_trial,95,image-keyboard-response,,
53,Control,True,1,,True,True,000,0,,0,True,True,,True,True,000,,,,,,,0.0-71.0,,,0,442,[0],stimuli/0000000.jpg,,,334590,,prediction_trial,96,image-keyboard-response,,
53,Control,,,,,,,,,0,,,,,,,,,,,,,0.0-72.0,,, ,317,,stimuli/00000000.jpg,,,334909,,feedback_trial,97,image-keyboard-response,,
53,Control,True,1,,True,True,000,2,,2,True,True,,True,True,110,,,,,,,0.0-73.0,,,2,510,[2],stimuli/2000110.jpg,,,335420,,prediction_trial,98,image-keyboard-response,,
53,Control,,,,,,,,,2,,,,,,,,,,,,,0.0-74.0,,, ,325,,stimuli/20001102.jpg,,,335745,,feedback_trial,99,image-keyboard-response,,
53,Control,True,1,,False,False,101,0,,0,False,False,,True,True,011,,,,,,,0.0-75.0,,,0,438,[0],stimuli/0101011.jpg,,,336186,,prediction_trial,100,image-keyboard-response,,
53,Control,,,,,,,,,0,,,,,,,,,,,,,0.0-76.0,,, ,352,,stimuli/01010110.jpg,,,336539,,feedback_trial,101,image-keyboard-response,,
53,Control,True,1,,True,True,011,0,,0,True,True,,True,True,010,,,,,,,0.0-77.0,,,0,450,[0],stimuli/0011010.jpg,,,336992,,prediction_trial,102,image-keyboard-response,,
53,Control,,,,,,,,,0,,,,,,,,,,,,,0.0-78.0,,, ,363,,stimuli/00110100.jpg,,,337356,,feedback_trial,103,image-keyboard-response,,
53,Control,True,1,,False,True,100,0,,0,False,True,,False,True,101,,,,,,,0.0-79.0,,,0,2908,[0],stimuli/0100101.jpg,,,340266,,prediction_trial,104,image-keyboard-response,,
53,Control,,,,,,,,,0,,,,,,,,,,,,,0.0-80.0,,, ,614,,stimuli/01001010.jpg,,,340888,,feedback_trial,105,image-keyboard-response,,
53,Control,True,1,,False,True,001,2,,2,False,True,,True,True,010,,,,,,,0.0-81.0,,,2,526,[2],stimuli/2001010.jpg,,,341415,,prediction_trial,106,image-keyboard-response,,
53,Control,,,,,,,,,2,,,,,,,,,,,,,0.0-82.0,,, ,410,,stimuli/20010102.jpg,,,341826,,feedback_trial,107,image-keyboard-response,,
53,Control,True,1,,False,True,010,1,,1,False,True,,True,True,100,,,,,,,0.0-83.0,,,1,591,[1],stimuli/1010100.jpg,,,342419,,prediction_trial,108,image-keyboard-response,,
53,Control,,,,,,,,,1,,,,,,,,,,,,,0.0-84.0,,, ,315,,stimuli/10101001.jpg,,,342736,,feedback_trial,109,image-keyboard-response,,
53,Control,True,1,,False,False,111,0,,0,False,False,,True,True,011,,,,,,,0.0-85.0,,,0,394,[0],stimuli/0111011.jpg,,,343133,,prediction_trial,110,image-keyboard-response,,
53,Control,,,,,,,,,0,,,,,,,,,,,,,0.0-86.0,,, ,351,,stimuli/01110110.jpg,,,343485,,feedback_trial,111,image-keyboard-response,,
53,Control,True,1,,False,True,010,1,,1,False,True,,True,True,101,,,,,,,0.0-87.0,,,1,562,[1],stimuli/1010101.jpg,,,344049,,prediction_trial,112,image-keyboard-response,,
53,Control,,,,,,,,,1,,,,,,,,,,,,,0.0-88.0,,, ,318,,stimuli/10101011.jpg,,,344374,,feedback_trial,113,image-keyboard-response,,
53,Control,False,0,,True,True,101,1,,1,False,True,,False,True,011,,,,,,,0.0-89.0,,,2,1548,[1],stimuli/1101011.jpg,,,345924,,prediction_trial,114,image-keyboard-response,,
53,Control,,,,,,,,,1,,,,,,,,,,,,,0.0-90.0,,, ,562,,stimuli/11010111.jpg,,,346488,,feedback_trial,115,image-keyboard-response,,
53,Control,True,1,,True,True,010,0,,0,False,True,,False,True,100,,,,,,,0.0-91.0,,,0,1161,[0],stimuli/0010100.jpg,,,347651,,prediction_trial,116,image-keyboard-response,,
53,Control,,,,,,,,,0,,,,,,,,,,,,,0.0-92.0,,, ,402,,stimuli/00101000.jpg,,,348054,,feedback_trial,117,image-keyboard-response,,
53,Control,True,1,,False,False,101,0,,0,False,False,,True,True,000,,,,,,,0.0-93.0,,,0,667,[0],stimuli/0101000.jpg,,,348723,,prediction_trial,118,image-keyboard-response,,
53,Control,,,,,,,,,0,,,,,,,,,,,,,0.0-94.0,,, ,412,,stimuli/01010000.jpg,,,349136,,feedback_trial,119,image-keyboard-response,,
53,Control,True,1,,True,True,010,0,,0,True,True,,True,True,001,,,,,,,0.0-95.0,,,0,606,[0],stimuli/0010001.jpg,,,349744,,prediction_trial,120,image-keyboard-response,,
53,Control,,,,,,,,,0,,,,,,,,,,,,,0.0-96.0,,, ,378,,stimuli/00100010.jpg,,,350129,,feedback_trial,121,image-keyboard-response,,
53,Control,True,1,,False,False,110,1,,1,False,False,,False,True,110,,,,,,,0.0-97.0,,,1,1180,[1],stimuli/1110110.jpg,,,351311,,prediction_trial,122,image-keyboard-response,,
53,Control,,,,,,,,,1,,,,,,,,,,,,,0.0-98.0,,, ,491,,stimuli/11101101.jpg,,,351803,,feedback_trial,123,image-keyboard-response,,
53,Control,False,0,,True,True,000,2,,2,False,True,,False,True,011,,,,,,,0.0-99.0,,,1,1089,[2],stimuli/2000011.jpg,,,352894,,prediction_trial,124,image-keyboard-response,,
53,Control,,,,,,,,,2,,,,,,,,,,,,,0.0-100.0,,, ,746,,stimuli/20000112.jpg,,,353642,,feedback_trial,125,image-keyboard-response,,
53,Control,True,1,,False,False,110,1,,1,False,False,,False,True,011,,,,,,,0.0-101.0,,,1,853,[1],stimuli/1110011.jpg,,,354498,,prediction_trial,126,image-keyboard-response,,
53,Control,,,,,,,,,1,,,,,,,,,,,,,0.0-102.0,,, ,539,,stimuli/11100111.jpg,,,355038,,feedback_trial,127,image-keyboard-response,,
53,Control,True,1,,True,True,000,2,,2,True,True,,True,True,000,,,,,,,0.0-103.0,,,2,885,[2],stimuli/2000000.jpg,,,355925,,prediction_trial,128,image-keyboard-response,,
53,Control,,,,,,,,,2,,,,,,,,,,,,,0.0-104.0,,, ,460,,stimuli/20000002.jpg,,,356392,,feedback_trial,129,image-keyboard-response,,
53,Control,False,0,,True,True,000,0,,0,False,True,,False,True,110,,,,,,,0.0-105.0,,,1,1528,[0],stimuli/0000110.jpg,,,357923,,prediction_trial,130,image-keyboard-response,,
53,Control,,,,,,,,,0,,,,,,,,,,,,,0.0-106.0,,, ,574,,stimuli/00001100.jpg,,,358498,,feedback_trial,131,image-keyboard-response,,
53,Control,True,1,,False,True,100,0,,0,False,True,,True,True,000,,,,,,,0.0-107.0,,,0,727,[0],stimuli/0100000.jpg,,,359225,,prediction_trial,132,image-keyboard-response,,
53,Control,,,,,,,,,0,,,,,,,,,,,,,0.0-108.0,,, ,455,,stimuli/01000000.jpg,,,359683,,feedback_trial,133,image-keyboard-response,,
53,Control,True,1,,True,True,001,0,,0,False,True,,False,True,100,,,,,,,0.0-109.0,,,0,1149,[0],stimuli/0001100.jpg,,,360824,,prediction_trial,134,image-keyboard-response,,
53,Control,,,,,,,,,0,,,,,,,,,,,,,0.0-110.0,,, ,335,,stimuli/00011000.jpg,,,361161,,feedback_trial,135,image-keyboard-response,,
53,Control,True,1,,True,True,100,1,,1,False,True,,False,True,010,,,,,,,0.0-111.0,,,1,734,[1],stimuli/1100010.jpg,,,361897,,prediction_trial,136,image-keyboard-response,,
53,Control,,,,,,,,,1,,,,,,,,,,,,,0.0-112.0,,, ,339,,stimuli/11000101.jpg,,,362238,,feedback_trial,137,image-keyboard-response,,
53,Control,True,1,,True,True,000,1,,1,False,True,,False,True,110,,,,,,,0.0-113.0,,,1,1212,[1],stimuli/1000110.jpg,,,363452,,prediction_trial,138,image-keyboard-response,,
53,Control,,,,,,,,,1,,,,,,,,,,,,,0.0-114.0,,, ,484,,stimuli/10001101.jpg,,,363937,,feedback_trial,139,image-keyboard-response,,
53,Control,True,1,,False,False,111,0,,0,False,False,,True,True,001,,,,,,,0.0-115.0,,,0,672,[0],stimuli/0111001.jpg,,,364612,,prediction_trial,140,image-keyboard-response,,
53,Control,,,,,,,,,0,,,,,,,,,,,,,0.0-116.0,,, ,435,,stimuli/01110010.jpg,,,365049,,feedback_trial,141,image-keyboard-response,,
53,Control,True,1,,False,False,101,0,,0,False,False,,False,True,101,,,,,,,0.0-117.0,,,0,1986,[0],stimuli/0101101.jpg,,,367037,,prediction_trial,142,image-keyboard-response,,
53,Control,,,,,,,,,0,,,,,,,,,,,,,0.0-118.0,,, ,558,,stimuli/01011010.jpg,,,367597,,feedback_trial,143,image-keyboard-response,,
53,Control,True,1,,True,True,000,1,,1,True,True,,True,True,100,,,,,,,0.0-119.0,,,1,515,[1],stimuli/1000100.jpg,,,368114,,prediction_trial,144,image-keyboard-response,,
53,Control,,,,,,,,,1,,,,,,,,,,,,,0.0-120.0,,, ,427,,stimuli/10001001.jpg,,,368543,,feedback_trial,145,image-keyboard-response,,
53,Control,True,1,,False,True,010,1,,1,False,True,,True,True,001,,,,,,,0.0-121.0,,,1,442,[1],stimuli/1010001.jpg,,,368987,,prediction_trial,146,image-keyboard-response,,
53,Control,,,,,,,,,1,,,,,,,,,,,,,0.0-122.0,,, ,407,,stimuli/10100011.jpg,,,369396,,feedback_trial,147,image-keyboard-response,,
53,Control,True,1,,True,True,000,1,,1,True,True,,True,True,001,,,,,,,0.0-123.0,,,1,564,[1],stimuli/1000001.jpg,,,369968,,prediction_trial,148,image-keyboard-response,,
53,Control,,,,,,,,,1,,,,,,,,,,,,,0.0-124.0,,, ,427,,stimuli/10000011.jpg,,,370397,,feedback_trial,149,image-keyboard-response,,
53,Control,True,1,,True,True,100,1,,1,True,True,,True,True,100,,,,,,,0.0-125.0,,,1,518,[1],stimuli/1100100.jpg,,,370916,,prediction_trial,150,image-keyboard-response,,
53,Control,,,,,,,,,1,,,,,,,,,,,,,0.0-126.0,,, ,365,,stimuli/11001001.jpg,,,371282,,feedback_trial,151,image-keyboard-response,,
53,Control,True,1,,False,False,101,0,,0,False,False,,True,True,001,,,,,,,0.0-127.0,,,0,650,[0],stimuli/0101001.jpg,,,371934,,prediction_trial,152,image-keyboard-response,,
53,Control,,,,,,,,,0,,,,,,,,,,,,,0.0-128.0,,, ,395,,stimuli/01010010.jpg,,,372331,,feedback_trial,153,image-keyboard-response,,
53,Control,True,1,,False,False,101,0,,0,False,False,,True,True,010,,,,,,,0.0-129.0,,,0,693,[0],stimuli/0101010.jpg,,,373026,,prediction_trial,154,image-keyboard-response,,
53,Control,,,,,,,,,0,,,,,,,,,,,,,0.0-130.0,,, ,351,,stimuli/01010100.jpg,,,373379,,feedback_trial,155,image-keyboard-response,,
53,Control,False,0,,True,True,010,0,,0,False,True,,False,True,101,,,,,,,0.0-131.0,,,2,1259,[0],stimuli/0010101.jpg,,,374647,,prediction_trial,156,image-keyboard-response,,
53,Control,,,,,,,,,0,,,,,,,,,,,,,0.0-132.0,,, ,594,,stimuli/00101010.jpg,,,375242,,feedback_trial,157,image-keyboard-response,,
53,Control,False,0,,False,False,111,0,,0,False,False,,False,True,110,,,,,,,0.0-133.0,,,1,1451,[0],stimuli/0111110.jpg,,,376695,,prediction_trial,158,image-keyboard-response,,
53,Control,,,,,,,,,0,,,,,,,,,,,,,0.0-134.0,,, ,451,,stimuli/01111100.jpg,,,377148,,feedback_trial,159,image-keyboard-response,,
53,Control,True,1,,True,True,000,1,,1,True,True,,True,True,101,,,,,,,0.0-135.0,,,1,498,[1],stimuli/1000101.jpg,,,377648,,prediction_trial,160,image-keyboard-response,,
53,Control,,,,,,,,,1,,,,,,,,,,,,,0.0-136.0,,, ,360,,stimuli/10001011.jpg,,,378009,,feedback_trial,161,image-keyboard-response,,
53,Control,True,1,,False,True,001,2,,2,False,True,,True,True,100,,,,,,,0.0-137.0,,,2,515,[2],stimuli/2001100.jpg,,,378526,,prediction_trial,162,image-keyboard-response,,
53,Control,,,,,,,,,2,,,,,,,,,,,,,0.0-138.0,,, ,378,,stimuli/20011002.jpg,,,378906,,feedback_trial,163,image-keyboard-response,,
53,Control,True,1,,True,True,001,1,,1,True,True,,True,True,000,,,,,,,0.0-139.0,,,1,456,[1],stimuli/1001000.jpg,,,379363,,prediction_trial,164,image-keyboard-response,,
53,Control,,,,,,,,,1,,,,,,,,,,,,,0.0-140.0,,, ,398,,stimuli/10010001.jpg,,,379764,,feedback_trial,165,image-keyboard-response,,
53,Control,True,1,,False,False,011,1,,1,False,False,,True,True,001,,,,,,,0.0-141.0,,,1,443,[1],stimuli/1011001.jpg,,,380209,,prediction_trial,166,image-keyboard-response,,
53,Control,,,,,,,,,1,,,,,,,,,,,,,0.0-142.0,,, ,375,,stimuli/10110011.jpg,,,380585,,feedback_trial,167,image-keyboard-response,,
53,Control,True,1,,True,True,100,1,,1,False,True,,False,True,110,,,,,,,0.0-143.0,,,1,1439,[1],stimuli/1100110.jpg,,,382026,,prediction_trial,168,image-keyboard-response,,
53,Control,,,,,,,,,1,,,,,,,,,,,,,0.0-144.0,,, ,596,,stimuli/11001101.jpg,,,382630,,feedback_trial,169,image-keyboard-response,,
53,Control,False,0,,False,False,111,0,,0,False,False,,False,True,111,,,,,,,0.0-145.0,,,1,882,[0],stimuli/0111111.jpg,,,383514,,prediction_trial,170,image-keyboard-response,,
53,Control,,,,,,,,,0,,,,,,,,,,,,,0.0-146.0,,, ,506,,stimuli/01111110.jpg,,,384022,,feedback_trial,171,image-keyboard-response,,
53,Control,False,0,,True,True,000,0,,0,False,True,,False,True,111,,,,,,,0.0-147.0,,,1,763,[0],stimuli/0000111.jpg,,,384787,,prediction_trial,172,image-keyboard-response,,
53,Control,,,,,,,,,0,,,,,,,,,,,,,0.0-148.0,,, ,393,,stimuli/00001110.jpg,,,385182,,feedback_trial,173,image-keyboard-response,,
53,Control,False,0,,True,True,011,0,,0,False,True,,False,True,110,,,,,,,0.0-149.0,,,1,790,[0],stimuli/0011110.jpg,,,385974,,prediction_trial,174,image-keyboard-response,,
53,Control,,,,,,,,,0,,,,,,,,,,,,,0.0-150.0,,, ,403,,stimuli/00111100.jpg,,,386379,,feedback_trial,175,image-keyboard-response,,
53,Control,True,1,,True,True,010,0,,0,True,True,,True,True,000,,,,,,,0.0-151.0,,,0,786,[0],stimuli/0010000.jpg,,,387167,,prediction_trial,176,image-keyboard-response,,
53,Control,,,,,,,,,0,,,,,,,,,,,,,0.0-152.0,,, ,1238,,stimuli/00100000.jpg,,,388412,,feedback_trial,177,image-keyboard-response,,
53,Control,True,1,,False,False,110,0,,0,False,False,,True,True,000,,,,,,,0.0-153.0,,,0,698,[0],stimuli/0110000.jpg,,,389112,,prediction_trial,178,image-keyboard-response,,
53,Control,,,,,,,,,0,,,,,,,,,,,,,0.0-154.0,,, ,452,,stimuli/01100000.jpg,,,389566,,feedback_trial,179,image-keyboard-response,,
53,Control,True,1,,False,True,010,1,,1,False,True,,False,True,110,,,,,,,0.0-155.0,,,1,960,[1],stimuli/1010110.jpg,,,390528,,prediction_trial,180,image-keyboard-response,,
53,Control,,,,,,,,,1,,,,,,,,,,,,,0.0-156.0,,, ,523,,stimuli/10101101.jpg,,,391052,,feedback_trial,181,image-keyboard-response,,
53,Control,True,1,,False,False,110,0,,0,False,False,,False,True,100,,,,,,,0.0-157.0,,,0,663,[0],stimuli/0110100.jpg,,,391716,,prediction_trial,182,image-keyboard-response,,
53,Control,,,,,,,,,0,,,,,,,,,,,,,0.0-158.0,,, ,415,,stimuli/01101000.jpg,,,392133,,feedback_trial,183,image-keyboard-response,,
53,Control,True,1,,False,False,011,1,,1,False,False,,False,True,111,,,,,,,0.0-159.0,,,1,913,[1],stimuli/1011111.jpg,,,393048,,prediction_trial,184,image-keyboard-response,,
53,Control,,,,,,,,,1,,,,,,,,,,,,,0.0-160.0,,, ,662,,stimuli/10111111.jpg,,,393712,,feedback_trial,185,image-keyboard-response,,
53,Control,True,1,,True,True,011,0,,0,True,True,,True,True,001,,,,,,,0.0-161.0,,,0,574,[0],stimuli/0011001.jpg,,,394288,,prediction_trial,186,image-keyboard-response,,
53,Control,,,,,,,,,0,,,,,,,,,,,,,0.0-162.0,,, ,516,,stimuli/00110010.jpg,,,394805,,feedback_trial,187,image-keyboard-response,,
53,Control,True,1,,False,False,110,1,,1,False,False,,False,True,111,,,,,,,0.0-163.0,,,1,638,[1],stimuli/1110111.jpg,,,395445,,prediction_trial,188,image-keyboard-response,,
53,Control,,,,,,,,,1,,,,,,,,,,,,,0.0-164.0,,, ,518,,stimuli/11101111.jpg,,,395965,,feedback_trial,189,image-keyboard-response,,
53,Control,True,1,,False,False,011,1,,1,False,False,,False,True,010,,,,,,,0.0-165.0,,,1,1081,[1],stimuli/1011010.jpg,,,397048,,prediction_trial,190,image-keyboard-response,,
53,Control,,,,,,,,,1,,,,,,,,,,,,,0.0-166.0,,, ,541,,stimuli/10110101.jpg,,,397596,,feedback_trial,191,image-keyboard-response,,
53,Control,False,0,,True,True,010,0,,0,False,True,,False,True,110,,,,,,,0.0-167.0,,,1,829,[0],stimuli/0010110.jpg,,,398427,,prediction_trial,192,image-keyboard-response,,
53,Control,,,,,,,,,0,,,,,,,,,,,,,0.0-168.0,,, ,602,,stimuli/00101100.jpg,,,399031,,feedback_trial,193,image-keyboard-response,,
53,Control,False,0,,False,True,010,1,,1,False,True,,False,True,111,,,,,,,0.0-169.0,,,0,1248,[1],stimuli/1010111.jpg,,,400281,,prediction_trial,194,image-keyboard-response,,
53,Control,,,,,,,,,1,,,,,,,,,,,,,0.0-170.0,,, ,483,,stimuli/10101111.jpg,,,400766,,feedback_trial,195,image-keyboard-response,,
53,Control,True,1,,True,True,000,2,,2,True,True,,True,True,010,,,,,,,0.0-171.0,,,2,574,[2],stimuli/2000010.jpg,,,401342,,prediction_trial,196,image-keyboard-response,,
53,Control,,,,,,,,,2,,,,,,,,,,,,,0.0-172.0,,, ,718,,stimuli/20000102.jpg,,,402062,,feedback_trial,197,image-keyboard-response,,
53,Control,True,1,,False,False,110,0,,0,False,False,,False,True,111,,,,,,,0.0-173.0,,,0,1220,[0],stimuli/0110111.jpg,,,403284,,prediction_trial,198,image-keyboard-response,,
53,Control,,,,,,,,,0,,,,,,,,,,,,,0.0-174.0,,, ,559,,stimuli/01101110.jpg,,,403845,,feedback_trial,199,image-keyboard-response,,
53,Control,False,0,,False,False,110,0,,0,False,False,,False,True,110,,,,,,,0.0-175.0,,,1,678,[0],stimuli/0110110.jpg,,,404525,,prediction_trial,200,image-keyboard-response,,
53,Control,,,,,,,,,0,,,,,,,,,,,,,0.0-176.0,,, ,742,,stimuli/01101100.jpg,,,405268,,feedback_trial,201,image-keyboard-response,,
53,Control,True,1,,True,True,001,1,,1,True,True,,True,True,100,,,,,,,0.0-177.0,,,1,562,[1],stimuli/1001100.jpg,,,405832,,prediction_trial,202,image-keyboard-response,,
53,Control,,,,,,,,,1,,,,,,,,,,,,,0.0-178.0,,, ,526,,stimuli/10011001.jpg,,,406365,,feedback_trial,203,image-keyboard-response,,
53,Control,True,1,,True,True,100,1,,1,True,True,,True,True,101,,,,,,,0.0-179.0,,,1,394,[1],stimuli/1100101.jpg,,,406761,,prediction_trial,204,image-keyboard-response,,
53,Control,,,,,,,,,1,,,,,,,,,,,,,0.0-180.0,,, ,367,,stimuli/11001011.jpg,,,407130,,feedback_trial,205,image-keyboard-response,,
53,Control,True,1,,True,True,001,1,,1,False,True,,False,True,010,,,,,,,0.0-181.0,,,1,1029,[1],stimuli/1001010.jpg,,,408161,,prediction_trial,206,image-keyboard-response,,
53,Control,,,,,,,,,1,,,,,,,,,,,,,0.0-182.0,,, ,348,,stimuli/10010101.jpg,,,408510,,feedback_trial,207,image-keyboard-response,,
53,Control,True,1,,True,True,100,1,,1,True,True,,True,True,000,,,,,,,0.0-183.0,,,1,474,[1],stimuli/1100000.jpg,,,408986,,prediction_trial,208,image-keyboard-response,,
53,Control,,,,,,,,,1,,,,,,,,,,,,,0.0-184.0,,, ,391,,stimuli/11000001.jpg,,,409379,,feedback_trial,209,image-keyboard-response,,
53,Control,True,1,,False,False,110,1,,1,False,False,,True,True,001,,,,,,,0.0-185.0,,,1,417,[1],stimuli/1110001.jpg,,,409804,,prediction_trial,210,image-keyboard-response,,
53,Control,,,,,,,,,1,,,,,,,,,,,,,0.0-186.0,,, ,366,,stimuli/11100011.jpg,,,410172,,feedback_trial,211,image-keyboard-response,,
53,Control,True,1,,False,False,110,1,,1,False,False,,True,True,000,,,,,,,0.0-187.0,,,1,380,[1],stimuli/1110000.jpg,,,410553,,prediction_trial,212,image-keyboard-response,,
53,Control,,,,,,,,,1,,,,,,,,,,,,,0.0-188.0,,, ,375,,stimuli/11100001.jpg,,,410930,,feedback_trial,213,image-keyboard-response,,
53,Control,True,1,,True,True,000,1,,1,False,True,,False,True,111,,,,,,,0.0-189.0,,,1,1680,[1],stimuli/1000111.jpg,,,412612,,prediction_trial,214,image-keyboard-response,,
53,Control,,,,,,,,,1,,,,,,,,,,,,,0.0-190.0,,, ,582,,stimuli/10001111.jpg,,,413195,,feedback_trial,215,image-keyboard-response,,
53,Control,True,1,,False,False,110,1,,1,False,False,,True,True,100,,,,,,,0.0-191.0,,,1,550,[1],stimuli/1110100.jpg,,,413747,,prediction_trial,216,image-keyboard-response,,
53,Control,,,,,,,,,1,,,,,,,,,,,,,0.0-192.0,,, ,415,,stimuli/11101001.jpg,,,414164,,feedback_trial,217,image-keyboard-response,,
53,Control,True,1,,True,True,011,0,,0,False,True,,False,True,101,,,,,,,0.0-193.0,,,0,1440,[0],stimuli/0011101.jpg,,,415606,,prediction_trial,218,image-keyboard-response,,
53,Control,,,,,,,,,0,,,,,,,,,,,,,0.0-194.0,,, ,486,,stimuli/00111010.jpg,,,416094,,feedback_trial,219,image-keyboard-response,,
53,Control,True,1,,False,False,011,1,,1,False,False,,True,True,100,,,,,,,0.0-195.0,,,1,534,[1],stimuli/1011100.jpg,,,416630,,prediction_trial,220,image-keyboard-response,,
53,Control,,,,,,,,,1,,,,,,,,,,,,,0.0-196.0,,, ,371,,stimuli/10111001.jpg,,,417003,,feedback_trial,221,image-keyboard-response,,
53,Control,True,1,,True,True,011,0,,0,True,True,,True,True,000,,,,,,,0.0-197.0,,,0,479,[0],stimuli/0011000.jpg,,,417484,,prediction_trial,222,image-keyboard-response,,
53,Control,,,,,,,,,0,,,,,,,,,,,,,0.0-198.0,,, ,390,,stimuli/00110000.jpg,,,417876,,feedback_trial,223,image-keyboard-response,,
53,Control,True,1,,True,True,001,1,,1,False,True,,False,True,011,,,,,,,0.0-199.0,,,1,909,[1],stimuli/1001011.jpg,,,418787,,prediction_trial,224,image-keyboard-response,,
53,Control,,,,,,,,,1,,,,,,,,,,,,,0.0-200.0,,, ,387,,stimuli/10010111.jpg,,,419176,,feedback_trial,225,image-keyboard-response,,
53,Control,True,1,,False,False,011,1,,1,False,False,,True,True,000,,,,,,,0.0-201.0,,,1,504,[1],stimuli/1011000.jpg,,,419682,,prediction_trial,226,image-keyboard-response,,
53,Control,,,,,,,,,1,,,,,,,,,,,,,0.0-202.0,,, ,341,,stimuli/10110001.jpg,,,420025,,feedback_trial,227,image-keyboard-response,,
53,Control,True,1,,True,True,001,0,,0,True,True,,True,True,011,,,,,,,0.0-203.0,,,0,555,[0],stimuli/0001011.jpg,,,420582,,prediction_trial,228,image-keyboard-response,,
53,Control,,,,,,,,,0,,,,,,,,,,,,,0.0-204.0,,, ,319,,stimuli/00010110.jpg,,,420909,,feedback_trial,229,image-keyboard-response,,
53,Control,True,1,,True,True,000,1,,1,True,True,,True,True,000,,,,,,,0.0-205.0,,,1,428,[1],stimuli/1000000.jpg,,,421338,,prediction_trial,230,image-keyboard-response,,
53,Control,,,,,,,,,1,,,,,,,,,,,,,0.0-206.0,,, ,363,,stimuli/10000001.jpg,,,421710,,feedback_trial,231,image-keyboard-response,,
53,Control,True,1,,False,True,100,0,,0,False,True,,True,True,011,,,,,,,0.0-207.0,,,0,395,[0],stimuli/0100011.jpg,,,422107,,prediction_trial,232,image-keyboard-response,,
53,Control,,,,,,,,,0,,,,,,,,,,,,,0.0-208.0,,, ,327,,stimuli/01000110.jpg,,,422436,,feedback_trial,233,image-keyboard-response,,
53,Control,True,1,,False,False,111,1,,1,False,False,,True,True,001,,,,,,,0.0-209.0,,,1,419,[1],stimuli/1111001.jpg,,,422857,,prediction_trial,234,image-keyboard-response,,
53,Control,,,,,,,,,1,,,,,,,,,,,,,0.0-210.0,,, ,311,,stimuli/11110011.jpg,,,423170,,feedback_trial,235,image-keyboard-response,,
53,Control,True,1,,False,False,111,0,,0,False,False,,True,True,000,,,,,,,0.0-211.0,,,0,394,[0],stimuli/0111000.jpg,,,423566,,prediction_trial,236,image-keyboard-response,,
53,Control,,,,,,,,,0,,,,,,,,,,,,,0.0-212.0,,, ,339,,stimuli/01110000.jpg,,,423907,,feedback_trial,237,image-keyboard-response,,
53,Control,True,1,,True,True,101,1,,1,True,True,,True,True,001,,,,,,,0.0-213.0,,,1,391,[1],stimuli/1101001.jpg,,,424300,,prediction_trial,238,image-keyboard-response,,
53,Control,,,,,,,,,1,,,,,,,,,,,,,0.0-214.0,,, ,323,,stimuli/11010011.jpg,,,424625,,feedback_trial,239,image-keyboard-response,,
53,Control,True,1,,False,False,011,1,,1,False,False,,False,True,110,,,,,,,0.0-215.0,,,1,885,[1],stimuli/1011110.jpg,,,425512,,prediction_trial,240,image-keyboard-response,,
53,Control,,,,,,,,,1,,,,,,,,,,,,,0.0-216.0,,, ,396,,stimuli/10111101.jpg,,,425909,,feedback_trial,241,image-keyboard-response,,
53,Control,True,1,,True,True,001,0,,0,True,True,,True,True,010,,,,,,,0.0-217.0,,,0,486,[0],stimuli/0001010.jpg,,,426397,,prediction_trial,242,image-keyboard-response,,
53,Control,,,,,,,,,0,,,,,,,,,,,,,0.0-218.0,,, ,368,,stimuli/00010100.jpg,,,426767,,feedback_trial,243,image-keyboard-response,,
53,Control,True,1,,False,False,110,0,,0,False,False,,True,True,001,,,,,,,0.0-219.0,,,0,669,[0],stimuli/0110001.jpg,,,427438,,prediction_trial,244,image-keyboard-response,,
53,Control,,,,,,,,,0,,,,,,,,,,,,,0.0-220.0,,, ,307,,stimuli/01100010.jpg,,,427747,,feedback_trial,245,image-keyboard-response,,
53,Control,True,1,,True,True,000,0,,0,False,True,,False,True,101,,,,,,,0.0-221.0,,,0,1062,[0],stimuli/0000101.jpg,,,428811,,prediction_trial,246,image-keyboard-response,,
53,Control,,,,,,,,,0,,,,,,,,,,,,,0.0-222.0,,, ,386,,stimuli/00001010.jpg,,,429199,,feedback_trial,247,image-keyboard-response,,
53,Control,True,1,,True,True,001,1,,1,True,True,,True,True,101,,,,,,,0.0-223.0,,,1,570,[1],stimuli/1001101.jpg,,,429771,,prediction_trial,248,image-keyboard-response,,
53,Control,,,,,,,,,1,,,,,,,,,,,,,0.0-224.0,,, ,379,,stimuli/10011011.jpg,,,430152,,feedback_trial,249,image-keyboard-response,,
53,Control,False,0,,True,True,000,2,,2,False,True,,False,True,101,,,,,,,0.0-225.0,,,0,1091,[2],stimuli/2000101.jpg,,,431251,,prediction_trial,250,image-keyboard-response,,
53,Control,,,,,,,,,2,,,,,,,,,,,,,0.0-226.0,,, ,550,,stimuli/20001012.jpg,,,431803,,feedback_trial,251,image-keyboard-response,,
53,Control,True,1,,True,True,001,0,,0,True,True,,True,True,000,,,,,,,0.0-227.0,,,0,514,[0],stimuli/0001000.jpg,,,432319,,prediction_trial,252,image-keyboard-response,,
53,Control,,,,,,,,,0,,,,,,,,,,,,,0.0-228.0,,, ,303,,stimuli/00010000.jpg,,,432624,,feedback_trial,253,image-keyboard-response,,
53,Control,True,1,,False,False,111,0,,0,False,False,,False,True,101,,,,,,,0.0-229.0,,,0,1034,[0],stimuli/0111101.jpg,,,433659,,prediction_trial,254,image-keyboard-response,,
53,Control,,,,,,,,,0,,,,,,,,,,,,,0.0-230.0,,, ,383,,stimuli/01111010.jpg,,,434044,,feedback_trial,255,image-keyboard-response,,
53,Control,True,1,,False,True,100,0,,0,False,True,,False,True,110,,,,,,,0.0-231.0,,,0,1325,[0],stimuli/0100110.jpg,,,435370,,prediction_trial,256,image-keyboard-response,,
53,Control,,,,,,,,,0,,,,,,,,,,,,,0.0-232.0,,, ,360,,stimuli/01001100.jpg,,,435737,,feedback_trial,257,image-keyboard-response,,
53,Control,True,1,,False,True,100,0,,0,False,True,,True,True,001,,,,,,,0.0-233.0,,,0,581,[0],stimuli/0100001.jpg,,,436318,,prediction_trial,258,image-keyboard-response,,
53,Control,,,,,,,,,0,,,,,,,,,,,,,0.0-234.0,,, ,339,,stimuli/01000010.jpg,,,436659,,feedback_trial,259,image-keyboard-response,,
53,Control,False,0,,False,False,111,1,,1,False,False,,False,True,110,,,,,,,0.0-235.0,,,0,2163,[1],stimuli/1111110.jpg,,,438822,,prediction_trial,260,image-keyboard-response,,
53,Control,,,,,,,,,1,,,,,,,,,,,,,0.0-236.0,,, ,463,,stimuli/11111101.jpg,,,439287,,feedback_trial,261,image-keyboard-response,,
53,Control,True,1,,True,True,001,1,,1,True,True,,True,True,001,,,,,,,0.0-237.0,,,1,587,[1],stimuli/1001001.jpg,,,439876,,prediction_trial,262,image-keyboard-response,,
53,Control,,,,,,,,,1,,,,,,,,,,,,,0.0-238.0,,, ,291,,stimuli/10010011.jpg,,,440169,,feedback_trial,263,image-keyboard-response,,
53,Control,True,1,,True,True,101,1,,1,True,True,,True,True,101,,,,,,,0.0-239.0,,,1,479,[1],stimuli/1101101.jpg,,,440650,,prediction_trial,264,image-keyboard-response,,
53,Control,,,,,,,,,1,,,,,,,,,,,,,0.0-240.0,,, ,344,,stimuli/11011011.jpg,,,441002,,feedback_trial,265,image-keyboard-response,,
53,Control,True,1,,True,True,000,2,,2,False,True,,False,True,001,,,,,,,0.0-241.0,,,2,667,[2],stimuli/2000001.jpg,,,441670,,prediction_trial,266,image-keyboard-response,,
53,Control,,,,,,,,,2,,,,,,,,,,,,,0.0-242.0,,, ,403,,stimuli/20000012.jpg,,,442075,,feedback_trial,267,image-keyboard-response,,
53,Control,True,1,,True,True,000,1,,1,False,True,,False,True,010,,,,,,,0.0-243.0,,,1,706,[1],stimuli/1000010.jpg,,,442783,,prediction_trial,268,image-keyboard-response,,
53,Control,,,,,,,,,1,,,,,,,,,,,,,0.0-244.0,,, ,299,,stimuli/10000101.jpg,,,443084,,feedback_trial,269,image-keyboard-response,,
53,Control,True,1,,False,False,110,0,,0,False,False,,True,True,010,,,,,,,0.0-245.0,,,0,669,[0],stimuli/0110010.jpg,,,443755,,prediction_trial,270,image-keyboard-response,,
53,Control,,,,,,,,,0,,,,,,,,,,,,,0.0-246.0,,, ,307,,stimuli/01100100.jpg,,,444064,,feedback_trial,271,image-keyboard-response,,
53,Control,True,1,,False,False,101,0,,0,False,False,,False,True,100,,,,,,,0.0-247.0,,,0,703,[0],stimuli/0101100.jpg,,,444775,,prediction_trial,272,image-keyboard-response,,
53,Control,,,,,,,,,0,,,,,,,,,,,,,0.0-248.0,,, ,593,,stimuli/01011000.jpg,,,445369,,feedback_trial,273,image-keyboard-response,,
53,Control,False,0,,True,True,001,1,,1,False,True,,False,True,111,,,,,,,0.0-249.0,,,0,1048,[1],stimuli/1001111.jpg,,,446418,,prediction_trial,274,image-keyboard-response,,
53,Control,,,,,,,,,1,,,,,,,,,,,,,0.0-250.0,,, ,469,,stimuli/10011111.jpg,,,446888,,feedback_trial,275,image-keyboard-response,,
53,Control,True,1,,False,True,100,0,,0,False,True,,False,True,100,,,,,,,0.0-251.0,,,0,620,[0],stimuli/0100100.jpg,,,447510,,prediction_trial,276,image-keyboard-response,,
53,Control,,,,,,,,,0,,,,,,,,,,,,,0.0-252.0,,, ,361,,stimuli/01001000.jpg,,,447872,,feedback_trial,277,image-keyboard-response,,
53,Control,True,1,,False,False,011,1,,1,False,False,,False,True,011,,,,,,,0.0-253.0,,,1,882,[1],stimuli/1011011.jpg,,,448756,,prediction_trial,278,image-keyboard-response,,
53,Control,,,,,,,,,1,,,,,,,,,,,,,0.0-254.0,,, ,518,,stimuli/10110111.jpg,,,449276,,feedback_trial,279,image-keyboard-response,,
53,Control,True,1,,False,False,111,1,,1,False,False,,True,True,000,,,,,,,0.0-255.0,,,1,535,[1],stimuli/1111000.jpg,,,449813,,prediction_trial,280,image-keyboard-response,,
53,Control,,,,,,,,,1,,,,,,,,,,,,,0.0-256.0,,, ,366,,stimuli/11110001.jpg,,,450181,,feedback_trial,281,image-keyboard-response,,
53,Control,True,1,,False,False,110,0,,0,False,False,,False,True,101,,,,,,,0.0-257.0,,,0,866,[0],stimuli/0110101.jpg,,,451048,,prediction_trial,282,image-keyboard-response,,
53,Control,,,,,,,,,0,,,,,,,,,,,,,0.0-258.0,,, ,627,,stimuli/01101010.jpg,,,451677,,feedback_trial,283,image-keyboard-response,,
53,Control,True,1,,False,True,001,2,,2,False,True,,False,True,101,,,,,,,0.0-259.0,,,2,2839,[2],stimuli/2001101.jpg,,,454518,,prediction_trial,284,image-keyboard-response,,
53,Control,,,,,,,,,2,,,,,,,,,,,,,0.0-260.0,,, ,406,,stimuli/20011012.jpg,,,454926,,feedback_trial,285,image-keyboard-response,,
53,Control,True,1,,False,True,001,2,,2,False,True,,False,True,001,,,,,,,0.0-261.0,,,2,623,[2],stimuli/2001001.jpg,,,455551,,prediction_trial,286,image-keyboard-response,,
53,Control,,,,,,,,,2,,,,,,,,,,,,,0.0-262.0,,, ,368,,stimuli/20010012.jpg,,,455928,,feedback_trial,287,image-keyboard-response,,
53,Control,False,0,,True,True,000,1,,1,False,True,,False,True,011,,,,,,,0.0-263.0,,,2,1009,[1],stimuli/1000011.jpg,,,456938,,prediction_trial,288,image-keyboard-response,,
53,Control,,,,,,,,,1,,,,,,,,,,,,,0.0-264.0,,, ,818,,stimuli/10000111.jpg,,,457758,,feedback_trial,289,image-keyboard-response,,
53,Control,True,1,,True,True,101,1,,1,True,True,,True,True,100,,,,,,,0.0-265.0,,,1,470,[1],stimuli/1101100.jpg,,,458230,,prediction_trial,290,image-keyboard-response,,
53,Control,,,,,,,,,1,,,,,,,,,,,,,0.0-266.0,,, ,376,,stimuli/11011001.jpg,,,458608,,feedback_trial,291,image-keyboard-response,,
53,Control,False,0,,False,True,100,0,,0,False,True,,False,True,111,,,,,,,0.0-267.0,,,1,706,[0],stimuli/0100111.jpg,,,459316,,prediction_trial,292,image-keyboard-response,,
53,Control,,,,,,,,,0,,,,,,,,,,,,,0.0-268.0,,, ,578,,stimuli/01001110.jpg,,,459895,,feedback_trial,293,image-keyboard-response,,
53,Control,True,1,,True,True,000,0,,0,True,True,,True,True,010,,,,,,,0.0-269.0,,,0,693,[0],stimuli/0000010.jpg,,,460590,,prediction_trial,294,image-keyboard-response,,
53,Control,,,,,,,,,0,,,,,,,,,,,,,0.0-270.0,,, ,384,,stimuli/00000100.jpg,,,460976,,feedback_trial,295,image-keyboard-response,,
53,Control,True,1,,False,False,111,0,,0,False,False,,False,True,100,,,,,,,0.0-271.0,,,0,773,[0],stimuli/0111100.jpg,,,461751,,prediction_trial,296,image-keyboard-response,,
53,Control,,,,,,,,,0,,,,,,,,,,,,,0.0-272.0,,, ,371,,stimuli/01111000.jpg,,,462124,,feedback_trial,297,image-keyboard-response,,
53,Control,True,1,,True,True,001,0,,0,False,True,,False,True,110,,,,,,,0.0-273.0,,,0,1527,[0],stimuli/0001110.jpg,,,463653,,prediction_trial,298,image-keyboard-response,,
53,Control,,,,,,,,,0,,,,,,,,,,,,,0.0-274.0,,, ,371,,stimuli/00011100.jpg,,,464026,,feedback_trial,299,image-keyboard-response,,
53,Control,True,1,,False,False,111,0,,0,False,False,,True,True,010,,,,,,,0.0-275.0,,,0,578,[0],stimuli/0111010.jpg,,,464606,,prediction_trial,300,image-keyboard-response,,
53,Control,,,,,,,,,0,,,,,,,,,,,,,0.0-276.0,,, ,320,,stimuli/01110100.jpg,,,464928,,feedback_trial,301,image-keyboard-response,,
53,Control,True,1,,True,True,000,0,,0,True,True,,True,True,011,,,,,,,0.0-277.0,,,0,470,[0],stimuli/0000011.jpg,,,465399,,prediction_trial,302,image-keyboard-response,,
53,Control,,,,,,,,,0,,,,,,,,,,,,,0.0-278.0,,, ,369,,stimuli/00000110.jpg,,,465769,,feedback_trial,303,image-keyboard-response,,
53,Control,True,1,,False,False,101,0,,0,False,False,,False,True,111,,,,,,,0.0-279.0,,,0,1319,[0],stimuli/0101111.jpg,,,467094,,prediction_trial,304,image-keyboard-response,,
53,Control,,,,,,,,,0,,,,,,,,,,,,,0.0-280.0,,, ,495,,stimuli/01011110.jpg,,,467591,,feedback_trial,305,image-keyboard-response,,
53,Control,True,1,,False,False,111,1,,1,False,False,,False,True,011,,,,,,,0.0-281.0,,,1,1890,[1],stimuli/1111011.jpg,,,469483,,prediction_trial,306,image-keyboard-response,,
53,Control,,,,,,,,,1,,,,,,,,,,,,,0.0-282.0,,, ,542,,stimuli/11110111.jpg,,,470027,,feedback_trial,307,image-keyboard-response,,
53,Control,False,0,,True,True,001,0,,0,False,True,,False,True,111,,,,,,,0.0-283.0,,,1,1660,[0],stimuli/0001111.jpg,,,471689,,prediction_trial,308,image-keyboard-response,,
53,Control,,,,,,,,,0,,,,,,,,,,,,,0.0-284.0,,, ,458,,stimuli/00011110.jpg,,,472149,,feedback_trial,309,image-keyboard-response,,
53,Control,True,1,,False,False,110,0,,0,False,False,,True,True,011,,,,,,,0.0-285.0,,,0,581,[0],stimuli/0110011.jpg,,,472732,,prediction_trial,310,image-keyboard-response,,
53,Control,,,,,,,,,0,,,,,,,,,,,,,0.0-286.0,,, ,361,,stimuli/01100110.jpg,,,473094,,feedback_trial,311,image-keyboard-response,,
53,Control,True,1,,True,True,001,0,,0,False,True,,False,True,101,,,,,,,0.0-287.0,,,0,1921,[0],stimuli/0001101.jpg,,,475017,,prediction_trial,312,image-keyboard-response,,
53,Control,,,,,,,,,0,,,,,,,,,,,,,0.0-288.0,,, ,384,,stimuli/00011010.jpg,,,475403,,feedback_trial,313,image-keyboard-response,,
53,Control,True,1,,True,True,001,0,,0,True,True,,True,True,001,,,,,,,0.0-289.0,,,0,533,[0],stimuli/0001001.jpg,,,475938,,prediction_trial,314,image-keyboard-response,,
53,Control,,,,,,,,,0,,,,,,,,,,,,,0.0-290.0,,, ,397,,stimuli/00010010.jpg,,,476336,,feedback_trial,315,image-keyboard-response,,
53,Control,True,1,,False,True,001,2,,2,False,True,,True,True,110,,,,,,,0.0-291.0,,,2,594,[2],stimuli/2001110.jpg,,,476932,,prediction_trial,316,image-keyboard-response,,
53,Control,,,,,,,,,2,,,,,,,,,,,,,0.0-292.0,,, ,421,,stimuli/20011102.jpg,,,477360,,feedback_trial,317,image-keyboard-response,,
53,Control,,,33,,,,,1.19,,,,,,,,Hispanic,,,,I think I noticed that the ball was more likely to be in the same spot in consecutive screens when covered but not sure. ,Male,0.0-293.0,0.8263888888888888,Multiracial,"{'age': '33', 'race': 'Multiracial', 'gender': 'Male', 'feedback': 'I think I noticed that the ball was more likely to be in the same spot in consecutive screens when covered but not sure. ', 'ethnicity': 'Hispanic', 'other_race': 'Hispanic', 'other_gender': ''}",91254,,,,,568622,,exit_survey,318,survey-html-form,,
53,Control,,,,,,,,,,,,,,,,,,,,,,0.0-294.0,,,0,12126,,"<div style=""text-align:left; padding:10px; max-width:900px;""><center><p><b>Study Debriefing</b></p></center><p>Judgement and decision making are important aspects of public and private life. Using surveys like the one you just completed, we are examining the factors that go into making social decisions.</p><p><b>How is this being tested? </b> We have asked you to respond to stories or videos that differ on several important factors. By isolating different variables that are involved in social thought, we can better understand how we arrive at complex decision-making. For example, some actions are seen as more worthy of blame if they are performed intentionally. Harming someone on purpose is generally worse than harming someone by accident, or even harming someone in a way that is foreseen but not intended.</p><p><b>Main questions and hypotheses: </b>A fundamental goal of our research is to understand the cognitive and emotional factors that influence social judgment and decision-making. We are studying these factors by presenting people with hypothetical questions that vary in specific ways and seeing which factors make a difference. Some people filled out the same survey that you just filled out. Others got slightly different surveys.</p><p><b>Why is this important to study? </b>By comparing answers on these important factors, we learn about what factors affect social judgment. This has crucial implications for many public domains, including the legal system.</p><p><b>How to learn more: </b>If you are interested in learning more, you may want to consult the following articles:<p><p style=""margin-left:10%; margin-right:10%;"">Phillips, J., & Cushman, F. (2017). Morality constrains the default representation of what is possible. Proceedings of the National Academy of Sciences of the United States of America, 114(18), 46494654. https://doi.org/10.1073/pnas.1619717114<p style=""margin-left:10%; margin-right:10%;"">Phillips, J., Morris, A., & Cushman, F. (2019). How we know what not to think. Trends in Cognitive Sciences, 23(12), 10261040. https://doi.org/10.1016/j.tics.2019.09.007<p style=""margin-left:10%; margin-right:10%;"">Phillips, J., Buckwalter, W., Cushman, F., Friedman, O., Martin, A., Turri, J., Santos, L., & Knobe, J. (2020). Knowledge before Belief. Behavioral and Brain Sciences, 1-37. doi:10.1017/S0140525X20000618</p><p><b>How to contact the researcher:</b> If you have questions or concerns about your participation or payment, or want to request a summary of research findings, please contact the Primary Investigator: Dr. Jonathan Phillips, at Jonathan.S.Phillips@dartmouth.edu.Whom to contact about your rights in this research: If you have questions, concerns, complaints, or suggestions about the present research, you may call the Office of the Committee for the Protection of Human Subjects at Dartmouth College (603) 646-6482 during normal business hours.</p><p><b>Thank you for your participation!<b/></p>",,,580750,,,319,html-button-response,,
80,Control,,,,,,,,,,,,,,,,,[],[],[],,,0.0-0.0,,,,,,,,True,1148,False,,0,preload,,
80,Control,,,,,,,,,,,,,,,,,,,,,,0.0-1.0,,,,,,,,True,3715,,,1,fullscreen,,
80,Control,,,,,,,,,,,,,,,,,,,,,,0.0-2.0,,,0,1300,,"<p><b>Consent Form</b></p> <div style=""text-align:left;background-color:lightgrey; padding:20px; max-width:900px;""><p>Please consider this information carefully before deciding whether to participate in this research.</p> <p>The purpose of this research is to examine which factors influence social judgment and decision-making. You will be asked to make judgements about individuals and actions in social scenarios. We are simply interested in your judgement. The study will take less than 1 hour to complete, and you will receive less than $20 on Prolific. Your compensation and time commitment are specified in the study description. There are no anticipated risks associated with participating in this study. The effects of participating should be comparable to those you would ordinarily experience from viewing a computer monitor and using a mouse or keyboard for a similar amount of time. At the end of the study, we will provide an explanation of the questions that motivate this line of research and will describe the potential implications. </p><p> Your participation in this study is completely voluntary and you may refuse to participate or you may choose to withdraw at any time without penalty or loss of benefits to you which are otherwise entitled. Your participation in this study will remain confidential. No personally identifiable information will be associated with your data. Also, all analyses of the data will be averaged across all the participants, so your individual responses will never be specifically analyzed. </p><p> If you have questions or concerns about your participation or payment, or want to request a summary of research findings, please contact Dr. Jonathan Phillips at Jonathan.S.Phillips@dartmouth.edu. </p><p> Please save a copy of this form for your records. </p><p><b>Agreement: </b>The nature and purpose of this research have been sufficiently explained and I agree to participate in this study. I understand that I am free to withdraw at any time without incurring any penalty. Please consent by clicking the button below to continue. Otherwise, please exit the study at any time. </p>",,,5017,,,2,html-button-response,,
80,Control,,,,,,,,,,,,,,,,,,,,,,0.0-3.0-0.0,,,,33023,,,,,38041,,intro,3,instructions,"[{'page_index': 0, 'viewing_time': 1559}, {'page_index': 1, 'viewing_time': 3424}, {'page_index': 2, 'viewing_time': 3896}, {'page_index': 3, 'viewing_time': 2312}, {'page_index': 4, 'viewing_time': 2824}, {'page_index': 5, 'viewing_time': 2224}, {'page_index': 6, 'viewing_time': 1808}, {'page_index': 7, 'viewing_time': 8152}, {'page_index': 8, 'viewing_time': 2848}, {'page_index': 9, 'viewing_time': 2848}, {'page_index': 10, 'viewing_time': 1128}]",
80,Control,True,,,,,,,,1,,,,,,,,,,,,,0.0-3.0-1.0,,,1,1358,,stimuli/1111000.jpg,"{'ball_pos': 1, 'filepath': 'stimuli/1111000.jpg', 'ego_can_infer': True, 'ego_occluders': '000', 'alter_can_infer': False, 'alter_occluders': '111', 'ego_ball_visible': True, 'search_locations': [1], 'alter_ball_visible': False, 'collective_can_infer': False, 'collective_ball_visible': False}",,39410,,prediction_practice,4,image-keyboard-response,,
80,Control,,,,,,,,,1,,,,,,,,,,,,,0.0-3.0-2.0,,, ,1078,,stimuli/11110001.jpg,,,40489,,practrice_feedback,5,image-keyboard-response,,
80,Control,True,,,,,,,,0,,,,,,,,,,,,,0.0-3.0-3.0,,,0,1639,,stimuli/0100100.jpg,"{'ball_pos': 0, 'filepath': 'stimuli/0100100.jpg', 'ego_can_infer': True, 'ego_occluders': '100', 'alter_can_infer': True, 'alter_occluders': '100', 'ego_ball_visible': False, 'search_locations': [0], 'alter_ball_visible': False, 'collective_can_infer': True, 'collective_ball_visible': False}",,42129,,prediction_practice,6,image-keyboard-response,,
80,Control,,,,,,,,,0,,,,,,,,,,,,,0.0-3.0-4.0,,, ,630,,stimuli/01001000.jpg,,,42761,,practrice_feedback,7,image-keyboard-response,,
80,Control,True,,,,,,,,2,,,,,,,,,,,,,0.0-3.0-5.0,,,2,1832,,stimuli/2100011.jpg,"{'ball_pos': 2, 'filepath': 'stimuli/2100011.jpg', 'ego_can_infer': True, 'ego_occluders': '011', 'alter_can_infer': True, 'alter_occluders': '100', 'ego_ball_visible': False, 'search_locations': [2], 'alter_ball_visible': True, 'collective_can_infer': True, 'collective_ball_visible': False}",,44594,,prediction_practice,8,image-keyboard-response,,
80,Control,,,,,,,,,2,,,,,,,,,,,,,0.0-3.0-6.0,,, ,670,,stimuli/21000112.jpg,,,45265,,practrice_feedback,9,image-keyboard-response,,
80,Control,True,,,,,,,,1,,,,,,,,,,,,,0.0-3.0-7.0,,,1,2343,,stimuli/1011111.jpg,"{'ball_pos': 1, 'filepath': 'stimuli/1011111.jpg', 'ego_can_infer': True, 'ego_occluders': '111', 'alter_can_infer': False, 'alter_occluders': '011', 'ego_ball_visible': False, 'search_locations': [1], 'alter_ball_visible': False, 'collective_can_infer': False, 'collective_ball_visible': False}",,47609,,prediction_practice,10,image-keyboard-response,,
80,Control,,,,,,,,,1,,,,,,,,,,,,,0.0-3.0-8.0,,, ,902,,stimuli/10111111.jpg,,,48513,,practrice_feedback,11,image-keyboard-response,,
80,Control,True,,,,,,,,2,,,,,,,,,,,,,0.0-3.0-9.0,,,2,871,,stimuli/2001010.jpg,"{'ball_pos': 2, 'filepath': 'stimuli/2001010.jpg', 'ego_can_infer': True, 'ego_occluders': '010', 'alter_can_infer': True, 'alter_occluders': '001', 'ego_ball_visible': True, 'search_locations': [2], 'alter_ball_visible': False, 'collective_can_infer': True, 'collective_ball_visible': False}",,49385,,prediction_practice,12,image-keyboard-response,,
80,Control,,,,,,,,,2,,,,,,,,,,,,,0.0-3.0-10.0,,, ,703,,stimuli/20010102.jpg,,,50089,,practrice_feedback,13,image-keyboard-response,,
80,Control,True,,,,,,,,2,,,,,,,,,,,,,0.0-3.0-11.0,,,2,855,,stimuli/2101000.jpg,"{'ball_pos': 2, 'filepath': 'stimuli/2101000.jpg', 'ego_can_infer': True, 'ego_occluders': '000', 'alter_can_infer': False, 'alter_occluders': '101', 'ego_ball_visible': True, 'search_locations': [2], 'alter_ball_visible': False, 'collective_can_infer': False, 'collective_ball_visible': False}",,50945,,prediction_practice,14,image-keyboard-response,,
80,Control,,,,,,,,,2,,,,,,,,,,,,,0.0-3.0-12.0,,, ,663,,stimuli/21010002.jpg,,,51609,,practrice_feedback,15,image-keyboard-response,,
80,Control,True,,,,,,,,2,,,,,,,,,,,,,0.0-3.0-13.0,,,2,703,,stimuli/2110100.jpg,"{'ball_pos': 2, 'filepath': 'stimuli/2110100.jpg', 'ego_can_infer': True, 'ego_occluders': '100', 'alter_can_infer': True, 'alter_occluders': '110', 'ego_ball_visible': True, 'search_locations': [2], 'alter_ball_visible': True, 'collective_can_infer': True, 'collective_ball_visible': True}",,52313,,prediction_practice,16,image-keyboard-response,,
80,Control,,,,,,,,,2,,,,,,,,,,,,,0.0-3.0-14.0,,, ,567,,stimuli/21101002.jpg,,,52881,,practrice_feedback,17,image-keyboard-response,,
80,Control,True,,,,,,,,0,,,,,,,,,,,,,0.0-3.0-15.0,,,0,647,,stimuli/0010011.jpg,"{'ball_pos': 0, 'filepath': 'stimuli/0010011.jpg', 'ego_can_infer': True, 'ego_occluders': '011', 'alter_can_infer': True, 'alter_occluders': '010', 'ego_ball_visible': True, 'search_locations': [0], 'alter_ball_visible': True, 'collective_can_infer': True, 'collective_ball_visible': True}",,53529,,prediction_practice,18,image-keyboard-response,,
80,Control,,,,,,,,,0,,,,,,,,,,,,,0.0-3.0-16.0,,, ,463,,stimuli/00100110.jpg,,,53993,,practrice_feedback,19,image-keyboard-response,,
80,Control,True,,,,,,,,2,,,,,,,,,,,,,0.0-3.0-17.0,,,2,639,,stimuli/2011100.jpg,"{'ball_pos': 2, 'filepath': 'stimuli/2011100.jpg', 'ego_can_infer': True, 'ego_occluders': '100', 'alter_can_infer': False, 'alter_occluders': '011', 'ego_ball_visible': True, 'search_locations': [2], 'alter_ball_visible': False, 'collective_can_infer': False, 'collective_ball_visible': False}",,54633,,prediction_practice,20,image-keyboard-response,,
80,Control,,,,,,,,,2,,,,,,,,,,,,,0.0-3.0-18.0,,, ,734,,stimuli/20111002.jpg,,,55368,,practrice_feedback,21,image-keyboard-response,,
80,Control,True,,,,,,,,0,,,,,,,,,,,,,0.0-3.0-19.0,,,0,663,,stimuli/0001011.jpg,"{'ball_pos': 0, 'filepath': 'stimuli/0001011.jpg', 'ego_can_infer': True, 'ego_occluders': '011', 'alter_can_infer': True, 'alter_occluders': '001', 'ego_ball_visible': True, 'search_locations': [0], 'alter_ball_visible': True, 'collective_can_infer': True, 'collective_ball_visible': True}",,56033,,prediction_practice,22,image-keyboard-response,,
80,Control,,,,,,,,,0,,,,,,,,,,,,,0.0-3.0-20.0,,, ,582,,stimuli/00010110.jpg,,,56616,,practrice_feedback,23,image-keyboard-response,,
80,Control,,,,,,,,,,,,,,,,,,,,,,0.0-3.0-21.0,,,0,4079,,"Now that you've had some practice, you'll be tested with a couple of easy trials. If you correctly predict the ball's location, you'll move on to complete the experiment!",,,60696,,,24,html-button-response,,
80,Control,True,,,,,,,,,,,arrowleft,,,,,,,,,,0.0-3.0-22.0-0.0,,,arrowleft,1559,,stimuli/0000011.jpg,,,62256,,comprehension_quiz,25,image-keyboard-response,,
80,Control,True,,,,,,,,,,, ,,,,,,,,,,0.0-3.0-22.0-1.0,,, ,439,,stimuli/00000110.jpg,,,62696,,comprehension_quiz,26,image-keyboard-response,,
80,Control,True,,,,,,,,,,,arrowdown,,,,,,,,,,0.0-3.0-22.0-2.0,,,arrowdown,1159,,stimuli/1010010.jpg,,,63856,,comprehension_quiz,27,image-keyboard-response,,
80,Control,True,,,,,,,,,,, ,,,,,,,,,,0.0-3.0-22.0-3.0,,, ,278,,stimuli/10100101.jpg,,,64136,,comprehension_quiz,28,image-keyboard-response,,
80,Control,,,,,,,,,,,,,,,,,,,,,,0.0-4.0,,,0,2335,,The experiment will now begin.,,,66472,,,29,html-button-response,,
80,Control,False,0,,True,True,000,0,,0,False,True,,False,True,111,,,,,,,0.0-5.0,,,2,2399,[0],stimuli/0000111.jpg,,,68872,,prediction_trial,30,image-keyboard-response,,
80,Control,,,,,,,,,0,,,,,,,,,,,,,0.0-6.0,,, ,1542,,stimuli/00001110.jpg,,,70416,,feedback_trial,31,image-keyboard-response,,
80,Control,True,1,,True,True,010,0,,0,True,True,,True,True,000,,,,,,,0.0-7.0,,,0,767,[0],stimuli/0010000.jpg,,,71184,,prediction_trial,32,image-keyboard-response,,
80,Control,,,,,,,,,0,,,,,,,,,,,,,0.0-8.0,,, ,231,,stimuli/00100000.jpg,,,71416,,feedback_trial,33,image-keyboard-response,,
80,Control,True,1,,True,True,101,1,,1,False,True,,False,True,011,,,,,,,0.0-9.0,,,1,1295,[1],stimuli/1101011.jpg,,,72712,,prediction_trial,34,image-keyboard-response,,
80,Control,,,,,,,,,1,,,,,,,,,,,,,0.0-10.0,,, ,677,,stimuli/11010111.jpg,,,73400,,feedback_trial,35,image-keyboard-response,,
80,Control,True,1,,False,True,010,1,,1,False,True,,True,True,001,,,,,,,0.0-11.0,,,1,807,[1],stimuli/1010001.jpg,,,74208,,prediction_trial,36,image-keyboard-response,,
80,Control,,,,,,,,,1,,,,,,,,,,,,,0.0-12.0,,, ,207,,stimuli/10100011.jpg,,,74416,,feedback_trial,37,image-keyboard-response,,
80,Control,True,1,,True,True,001,0,,0,True,True,,True,True,011,,,,,,,0.0-13.0,,,0,887,[0],stimuli/0001011.jpg,,,75304,,prediction_trial,38,image-keyboard-response,,
80,Control,,,,,,,,,0,,,,,,,,,,,,,0.0-14.0,,, ,174,,stimuli/00010110.jpg,,,75480,,feedback_trial,39,image-keyboard-response,,
80,Control,True,1,,False,False,111,1,,1,False,False,,True,True,000,,,,,,,0.0-15.0,,,1,679,[1],stimuli/1111000.jpg,,,76160,,prediction_trial,40,image-keyboard-response,,
80,Control,,,,,,,,,1,,,,,,,,,,,,,0.0-16.0,,, ,199,,stimuli/11110001.jpg,,,76360,,feedback_trial,41,image-keyboard-response,,
80,Control,False,0,,False,False,110,0,,0,False,False,,False,True,111,,,,,,,0.0-17.0,,,2,1336,[0],stimuli/0110111.jpg,,,77697,,prediction_trial,42,image-keyboard-response,,
80,Control,,,,,,,,,0,,,,,,,,,,,,,0.0-18.0,,, ,941,,stimuli/01101110.jpg,,,78640,,feedback_trial,43,image-keyboard-response,,
80,Control,True,1,,False,True,010,1,,1,False,True,,False,True,110,,,,,,,0.0-19.0,,,1,975,[1],stimuli/1010110.jpg,,,79616,,prediction_trial,44,image-keyboard-response,,
80,Control,,,,,,,,,1,,,,,,,,,,,,,0.0-20.0,,, ,991,,stimuli/10101101.jpg,,,80608,,feedback_trial,45,image-keyboard-response,,
80,Control,True,1,,True,True,000,0,,0,True,True,,True,True,000,,,,,,,0.0-21.0,,,0,695,[0],stimuli/0000000.jpg,,,81304,,prediction_trial,46,image-keyboard-response,,
80,Control,,,,,,,,,0,,,,,,,,,,,,,0.0-22.0,,, ,197,,stimuli/00000000.jpg,,,81512,,feedback_trial,47,image-keyboard-response,,
80,Control,True,1,,False,False,111,0,,0,False,False,,False,True,100,,,,,,,0.0-23.0,,,0,1135,[0],stimuli/0111100.jpg,,,82648,,prediction_trial,48,image-keyboard-response,,
80,Control,,,,,,,,,0,,,,,,,,,,,,,0.0-24.0,,, ,263,,stimuli/01111000.jpg,,,82912,,feedback_trial,49,image-keyboard-response,,
80,Control,False,0,,False,True,001,2,,2,False,True,,False,True,011,,,,,,,0.0-25.0,,,1,1159,[2],stimuli/2001011.jpg,,,84072,,prediction_trial,50,image-keyboard-response,,
80,Control,,,,,,,,,2,,,,,,,,,,,,,0.0-26.0,,, ,959,,stimuli/20010112.jpg,,,85032,,feedback_trial,51,image-keyboard-response,,
80,Control,True,1,,True,True,100,1,,1,True,True,,True,True,100,,,,,,,0.0-27.0,,,1,671,[1],stimuli/1100100.jpg,,,85704,,prediction_trial,52,image-keyboard-response,,
80,Control,,,,,,,,,1,,,,,,,,,,,,,0.0-28.0,,, ,231,,stimuli/11001001.jpg,,,85936,,feedback_trial,53,image-keyboard-response,,
80,Control,True,1,,True,True,011,0,,0,True,True,,True,True,001,,,,,,,0.0-29.0,,,0,639,[0],stimuli/0011001.jpg,,,86576,,prediction_trial,54,image-keyboard-response,,
80,Control,,,,,,,,,0,,,,,,,,,,,,,0.0-30.0,,, ,182,,stimuli/00110010.jpg,,,86760,,feedback_trial,55,image-keyboard-response,,
80,Control,True,1,,False,False,111,1,,1,False,False,,True,True,100,,,,,,,0.0-31.0,,,1,639,[1],stimuli/1111100.jpg,,,87400,,prediction_trial,56,image-keyboard-response,,
80,Control,,,,,,,,,1,,,,,,,,,,,,,0.0-32.0,,, ,207,,stimuli/11111001.jpg,,,87608,,feedback_trial,57,image-keyboard-response,,
80,Control,True,1,,True,True,001,1,,1,True,True,,True,True,001,,,,,,,0.0-33.0,,,1,648,[1],stimuli/1001001.jpg,,,88257,,prediction_trial,58,image-keyboard-response,,
80,Control,,,,,,,,,1,,,,,,,,,,,,,0.0-34.0,,, ,198,,stimuli/10010011.jpg,,,88456,,feedback_trial,59,image-keyboard-response,,
80,Control,True,1,,False,True,001,2,,2,False,True,,True,True,010,,,,,,,0.0-35.0,,,2,663,[2],stimuli/2001010.jpg,,,89120,,prediction_trial,60,image-keyboard-response,,
80,Control,,,,,,,,,2,,,,,,,,,,,,,0.0-36.0,,, ,181,,stimuli/20010102.jpg,,,89312,,feedback_trial,61,image-keyboard-response,,
80,Control,True,1,,False,False,111,0,,0,False,False,,True,True,011,,,,,,,0.0-37.0,,,0,575,[0],stimuli/0111011.jpg,,,89888,,prediction_trial,62,image-keyboard-response,,
80,Control,,,,,,,,,0,,,,,,,,,,,,,0.0-38.0,,, ,199,,stimuli/01110110.jpg,,,90088,,feedback_trial,63,image-keyboard-response,,
80,Control,True,1,,False,False,111,0,,0,False,False,,True,True,010,,,,,,,0.0-39.0,,,0,1015,[0],stimuli/0111010.jpg,,,91104,,prediction_trial,64,image-keyboard-response,,
80,Control,,,,,,,,,0,,,,,,,,,,,,,0.0-40.0,,, ,159,,stimuli/01110100.jpg,,,91264,,feedback_trial,65,image-keyboard-response,,
80,Control,True,1,,False,False,101,0,,0,False,False,,True,True,010,,,,,,,0.0-41.0,,,0,631,[0],stimuli/0101010.jpg,,,91906,,prediction_trial,66,image-keyboard-response,,
80,Control,,,,,,,,,0,,,,,,,,,,,,,0.0-42.0,,, ,157,,stimuli/01010100.jpg,,,92064,,feedback_trial,67,image-keyboard-response,,
80,Control,True,1,,True,True,001,0,,0,False,True,,False,True,100,,,,,,,0.0-43.0,,,0,1431,[0],stimuli/0001100.jpg,,,93496,,prediction_trial,68,image-keyboard-response,,
80,Control,,,,,,,,,0,,,,,,,,,,,,,0.0-44.0,,, ,111,,stimuli/00011000.jpg,,,93608,,feedback_trial,69,image-keyboard-response,,
80,Control,False,0,,True,True,101,1,,1,False,True,,False,True,110,,,,,,,0.0-45.0,,,0,1279,[1],stimuli/1101110.jpg,,,94888,,prediction_trial,70,image-keyboard-response,,
80,Control,,,,,,,,,1,,,,,,,,,,,,,0.0-46.0,,, ,111,,stimuli/11011101.jpg,,,95000,,feedback_trial,71,image-keyboard-response,,
80,Control,True,1,,True,True,000,2,,2,True,True,,True,True,100,,,,,,,0.0-47.0,,,2,2079,[2],stimuli/2000100.jpg,,,97080,,prediction_trial,72,image-keyboard-response,,
80,Control,,,,,,,,,2,,,,,,,,,,,,,0.0-48.0,,, ,252,,stimuli/20001002.jpg,,,97344,,feedback_trial,73,image-keyboard-response,,
80,Control,False,0,,False,False,111,0,,0,False,False,,False,True,101,,,,,,,0.0-49.0,,,2,1192,[0],stimuli/0111101.jpg,,,98537,,prediction_trial,74,image-keyboard-response,,
80,Control,,,,,,,,,0,,,,,,,,,,,,,0.0-50.0,,, ,350,,stimuli/01111010.jpg,,,98888,,feedback_trial,75,image-keyboard-response,,
80,Control,True,1,,True,True,000,1,,1,True,True,,True,True,000,,,,,,,0.0-51.0,,,1,815,[1],stimuli/1000000.jpg,,,99704,,prediction_trial,76,image-keyboard-response,,
80,Control,,,,,,,,,1,,,,,,,,,,,,,0.0-52.0,,, ,207,,stimuli/10000001.jpg,,,99912,,feedback_trial,77,image-keyboard-response,,
80,Control,True,1,,False,False,110,0,,0,False,False,,True,True,000,,,,,,,0.0-53.0,,,0,735,[0],stimuli/0110000.jpg,,,100648,,prediction_trial,78,image-keyboard-response,,
80,Control,,,,,,,,,0,,,,,,,,,,,,,0.0-54.0,,, ,191,,stimuli/01100000.jpg,,,100840,,feedback_trial,79,image-keyboard-response,,
80,Control,True,1,,False,False,111,1,,1,False,False,,True,True,001,,,,,,,0.0-55.0,,,1,812,[1],stimuli/1111001.jpg,,,101664,,prediction_trial,80,image-keyboard-response,,
80,Control,,,,,,,,,1,,,,,,,,,,,,,0.0-56.0,,, ,158,,stimuli/11110011.jpg,,,101824,,feedback_trial,81,image-keyboard-response,,
80,Control,True,1,,False,False,110,1,,1,False,False,,True,True,100,,,,,,,0.0-57.0,,,1,823,[1],stimuli/1110100.jpg,,,102648,,prediction_trial,82,image-keyboard-response,,
80,Control,,,,,,,,,1,,,,,,,,,,,,,0.0-58.0,,, ,167,,stimuli/11101001.jpg,,,102816,,feedback_trial,83,image-keyboard-response,,
80,Control,False,0,,False,False,011,1,,1,False,False,,False,True,110,,,,,,,0.0-59.0,,,0,1103,[1],stimuli/1011110.jpg,,,103920,,prediction_trial,84,image-keyboard-response,,
80,Control,,,,,,,,,1,,,,,,,,,,,,,0.0-60.0,,, ,207,,stimuli/10111101.jpg,,,104128,,feedback_trial,85,image-keyboard-response,,
80,Control,True,1,,False,False,011,1,,1,False,False,,True,True,101,,,,,,,0.0-61.0,,,1,909,[1],stimuli/1011101.jpg,,,105048,,prediction_trial,86,image-keyboard-response,,
80,Control,,,,,,,,,1,,,,,,,,,,,,,0.0-62.0,,, ,174,,stimuli/10111011.jpg,,,105224,,feedback_trial,87,image-keyboard-response,,
80,Control,True,1,,True,True,011,0,,0,True,True,,True,True,011,,,,,,,0.0-63.0,,,0,703,[0],stimuli/0011011.jpg,,,105928,,prediction_trial,88,image-keyboard-response,,
80,Control,,,,,,,,,0,,,,,,,,,,,,,0.0-64.0,,, ,167,,stimuli/00110110.jpg,,,106096,,feedback_trial,89,image-keyboard-response,,
80,Control,True,1,,False,True,100,0,,0,False,True,,True,True,010,,,,,,,0.0-65.0,,,0,599,[0],stimuli/0100010.jpg,,,106696,,prediction_trial,90,image-keyboard-response,,
80,Control,,,,,,,,,0,,,,,,,,,,,,,0.0-66.0,,, ,199,,stimuli/01000100.jpg,,,106896,,feedback_trial,91,image-keyboard-response,,
80,Control,False,0,,True,True,000,2,,2,False,True,,False,True,111,,,,,,,0.0-67.0,,,1,1397,[2],stimuli/2000111.jpg,,,108304,,prediction_trial,92,image-keyboard-response,,
80,Control,,,,,,,,,2,,,,,,,,,,,,,0.0-68.0,,, ,279,,stimuli/20001112.jpg,,,108584,,feedback_trial,93,image-keyboard-response,,
80,Control,True,1,,True,True,000,0,,0,False,True,,False,True,110,,,,,,,0.0-69.0,,,0,1567,[0],stimuli/0000110.jpg,,,110152,,prediction_trial,94,image-keyboard-response,,
80,Control,,,,,,,,,0,,,,,,,,,,,,,0.0-70.0,,, ,151,,stimuli/00001100.jpg,,,110304,,feedback_trial,95,image-keyboard-response,,
80,Control,False,0,,True,True,001,0,,0,False,True,,False,True,111,,,,,,,0.0-71.0,,,2,1527,[0],stimuli/0001111.jpg,,,111832,,prediction_trial,96,image-keyboard-response,,
80,Control,,,,,,,,,0,,,,,,,,,,,,,0.0-72.0,,, ,214,,stimuli/00011110.jpg,,,112048,,feedback_trial,97,image-keyboard-response,,
80,Control,False,0,,True,True,000,1,,1,False,True,,False,True,110,,,,,,,0.0-73.0,,,0,1423,[1],stimuli/1000110.jpg,,,113472,,prediction_trial,98,image-keyboard-response,,
80,Control,,,,,,,,,1,,,,,,,,,,,,,0.0-74.0,,, ,191,,stimuli/10001101.jpg,,,113664,,feedback_trial,99,image-keyboard-response,,
80,Control,True,1,,True,True,000,2,,2,False,True,,False,True,001,,,,,,,0.0-75.0,,,2,1087,[2],stimuli/2000001.jpg,,,114752,,prediction_trial,100,image-keyboard-response,,
80,Control,,,,,,,,,2,,,,,,,,,,,,,0.0-76.0,,, ,215,,stimuli/20000012.jpg,,,114968,,feedback_trial,101,image-keyboard-response,,
80,Control,True,1,,False,True,010,1,,1,False,True,,True,True,101,,,,,,,0.0-77.0,,,1,655,[1],stimuli/1010101.jpg,,,115624,,prediction_trial,102,image-keyboard-response,,
80,Control,,,,,,,,,1,,,,,,,,,,,,,0.0-78.0,,, ,175,,stimuli/10101011.jpg,,,115800,,feedback_trial,103,image-keyboard-response,,
80,Control,True,1,,False,False,101,0,,0,False,False,,True,True,001,,,,,,,0.0-79.0,,,0,567,[0],stimuli/0101001.jpg,,,116368,,prediction_trial,104,image-keyboard-response,,
80,Control,,,,,,,,,0,,,,,,,,,,,,,0.0-80.0,,, ,167,,stimuli/01010010.jpg,,,116536,,feedback_trial,105,image-keyboard-response,,
80,Control,False,0,,True,True,000,2,,2,False,True,,False,True,011,,,,,,,0.0-81.0,,,1,886,[2],stimuli/2000011.jpg,,,117432,,prediction_trial,106,image-keyboard-response,,
80,Control,,,,,,,,,2,,,,,,,,,,,,,0.0-82.0,,, ,263,,stimuli/20000112.jpg,,,117696,,feedback_trial,107,image-keyboard-response,,
80,Control,True,1,,False,False,111,1,,1,False,False,,False,True,010,,,,,,,0.0-83.0,,,1,759,[1],stimuli/1111010.jpg,,,118456,,prediction_trial,108,image-keyboard-response,,
80,Control,,,,,,,,,1,,,,,,,,,,,,,0.0-84.0,,, ,191,,stimuli/11110101.jpg,,,118648,,feedback_trial,109,image-keyboard-response,,
80,Control,True,1,,False,True,010,1,,1,False,True,,False,True,010,,,,,,,0.0-85.0,,,1,1830,[1],stimuli/1010010.jpg,,,120481,,prediction_trial,110,image-keyboard-response,,
80,Control,,,,,,,,,1,,,,,,,,,,,,,0.0-86.0,,, ,166,,stimuli/10100101.jpg,,,120649,,feedback_trial,111,image-keyboard-response,,
80,Control,False,0,,False,False,111,0,,0,False,False,,False,True,111,,,,,,,0.0-87.0,,,1,1159,[0],stimuli/0111111.jpg,,,121809,,prediction_trial,112,image-keyboard-response,,
80,Control,,,,,,,,,0,,,,,,,,,,,,,0.0-88.0,,, ,159,,stimuli/01111110.jpg,,,121969,,feedback_trial,113,image-keyboard-response,,
80,Control,True,1,,False,False,110,0,,0,False,False,,True,True,011,,,,,,,0.0-89.0,,,0,839,[0],stimuli/0110011.jpg,,,122809,,prediction_trial,114,image-keyboard-response,,
80,Control,,,,,,,,,0,,,,,,,,,,,,,0.0-90.0,,, ,134,,stimuli/01100110.jpg,,,122945,,feedback_trial,115,image-keyboard-response,,
80,Control,True,1,,False,True,001,2,,2,False,True,,False,True,111,,,,,,,0.0-91.0,,,2,822,[2],stimuli/2001111.jpg,,,123777,,prediction_trial,116,image-keyboard-response,,
80,Control,,,,,,,,,2,,,,,,,,,,,,,0.0-92.0,,, ,119,,stimuli/20011112.jpg,,,123897,,feedback_trial,117,image-keyboard-response,,
80,Control,True,1,,False,False,101,0,,0,False,False,,False,True,101,,,,,,,0.0-93.0,,,0,1328,[0],stimuli/0101101.jpg,,,125225,,prediction_trial,118,image-keyboard-response,,
80,Control,,,,,,,,,0,,,,,,,,,,,,,0.0-94.0,,, ,110,,stimuli/01011010.jpg,,,125337,,feedback_trial,119,image-keyboard-response,,
80,Control,True,1,,True,True,101,1,,1,True,True,,True,True,101,,,,,,,0.0-95.0,,,1,903,[1],stimuli/1101101.jpg,,,126241,,prediction_trial,120,image-keyboard-response,,
80,Control,,,,,,,,,1,,,,,,,,,,,,,0.0-96.0,,, ,159,,stimuli/11011011.jpg,,,126401,,feedback_trial,121,image-keyboard-response,,
80,Control,False,0,,True,True,001,1,,1,False,True,,False,True,111,,,,,,,0.0-97.0,,,2,919,[1],stimuli/1001111.jpg,,,127321,,prediction_trial,122,image-keyboard-response,,
80,Control,,,,,,,,,1,,,,,,,,,,,,,0.0-98.0,,, ,151,,stimuli/10011111.jpg,,,127473,,feedback_trial,123,image-keyboard-response,,
80,Control,True,1,,True,True,000,2,,2,True,True,,True,True,110,,,,,,,0.0-99.0,,,2,855,[2],stimuli/2000110.jpg,,,128329,,prediction_trial,124,image-keyboard-response,,
80,Control,,,,,,,,,2,,,,,,,,,,,,,0.0-100.0,,, ,151,,stimuli/20001102.jpg,,,128481,,feedback_trial,125,image-keyboard-response,,
80,Control,True,1,,False,False,011,1,,1,False,False,,False,True,011,,,,,,,0.0-101.0,,,1,1288,[1],stimuli/1011011.jpg,,,129770,,prediction_trial,126,image-keyboard-response,,
80,Control,,,,,,,,,1,,,,,,,,,,,,,0.0-102.0,,, ,182,,stimuli/10110111.jpg,,,129953,,feedback_trial,127,image-keyboard-response,,
80,Control,True,1,,False,False,101,0,,0,False,False,,True,True,000,,,,,,,0.0-103.0,,,0,727,[0],stimuli/0101000.jpg,,,130681,,prediction_trial,128,image-keyboard-response,,
80,Control,,,,,,,,,0,,,,,,,,,,,,,0.0-104.0,,, ,150,,stimuli/01010000.jpg,,,130841,,feedback_trial,129,image-keyboard-response,,
80,Control,True,1,,True,True,001,0,,0,True,True,,True,True,010,,,,,,,0.0-105.0,,,0,615,[0],stimuli/0001010.jpg,,,131457,,prediction_trial,130,image-keyboard-response,,
80,Control,,,,,,,,,0,,,,,,,,,,,,,0.0-106.0,,, ,151,,stimuli/00010100.jpg,,,131609,,feedback_trial,131,image-keyboard-response,,
80,Control,False,0,,True,True,000,2,,2,False,True,,False,True,101,,,,,,,0.0-107.0,,,0,631,[2],stimuli/2000101.jpg,,,132241,,prediction_trial,132,image-keyboard-response,,
80,Control,,,,,,,,,2,,,,,,,,,,,,,0.0-108.0,,, ,135,,stimuli/20001012.jpg,,,132377,,feedback_trial,133,image-keyboard-response,,
80,Control,False,0,,True,True,100,1,,1,False,True,,False,True,110,,,,,,,0.0-109.0,,,0,895,[1],stimuli/1100110.jpg,,,133273,,prediction_trial,134,image-keyboard-response,,
80,Control,,,,,,,,,1,,,,,,,,,,,,,0.0-110.0,,, ,127,,stimuli/11001101.jpg,,,133401,,feedback_trial,135,image-keyboard-response,,
80,Control,True,1,,True,True,100,1,,1,False,True,,False,True,010,,,,,,,0.0-111.0,,,1,2016,[1],stimuli/1100010.jpg,,,135417,,prediction_trial,136,image-keyboard-response,,
80,Control,,,,,,,,,1,,,,,,,,,,,,,0.0-112.0,,, ,127,,stimuli/11000101.jpg,,,135545,,feedback_trial,137,image-keyboard-response,,
80,Control,True,1,,True,True,011,0,,0,False,True,,False,True,101,,,,,,,0.0-113.0,,,0,983,[0],stimuli/0011101.jpg,,,136529,,prediction_trial,138,image-keyboard-response,,
80,Control,,,,,,,,,0,,,,,,,,,,,,,0.0-114.0,,, ,303,,stimuli/00111010.jpg,,,136841,,feedback_trial,139,image-keyboard-response,,
80,Control,True,1,,False,True,100,0,,0,False,True,,True,True,011,,,,,,,0.0-115.0,,,0,943,[0],stimuli/0100011.jpg,,,137785,,prediction_trial,140,image-keyboard-response,,
80,Control,,,,,,,,,0,,,,,,,,,,,,,0.0-116.0,,, ,231,,stimuli/01000110.jpg,,,138017,,feedback_trial,141,image-keyboard-response,,
80,Control,True,1,,True,True,101,1,,1,True,True,,True,True,100,,,,,,,0.0-117.0,,,1,864,[1],stimuli/1101100.jpg,,,138882,,prediction_trial,142,image-keyboard-response,,
80,Control,,,,,,,,,1,,,,,,,,,,,,,0.0-118.0,,, ,230,,stimuli/11011001.jpg,,,139113,,feedback_trial,143,image-keyboard-response,,
80,Control,True,1,,True,True,000,0,,0,False,True,,False,True,100,,,,,,,0.0-119.0,,,0,672,[0],stimuli/0000100.jpg,,,139786,,prediction_trial,144,image-keyboard-response,,
80,Control,,,,,,,,,0,,,,,,,,,,,,,0.0-120.0,,, ,206,,stimuli/00001000.jpg,,,139993,,feedback_trial,145,image-keyboard-response,,
80,Control,True,1,,False,False,111,1,,1,False,False,,True,True,101,,,,,,,0.0-121.0,,,1,639,[1],stimuli/1111101.jpg,,,140633,,prediction_trial,146,image-keyboard-response,,
80,Control,,,,,,,,,1,,,,,,,,,,,,,0.0-122.0,,, ,255,,stimuli/11111011.jpg,,,140889,,feedback_trial,147,image-keyboard-response,,
80,Control,True,1,,True,True,101,1,,1,True,True,,True,True,001,,,,,,,0.0-123.0,,,1,661,[1],stimuli/1101001.jpg,,,141561,,prediction_trial,148,image-keyboard-response,,
80,Control,,,,,,,,,1,,,,,,,,,,,,,0.0-124.0,,, ,223,,stimuli/11010011.jpg,,,141785,,feedback_trial,149,image-keyboard-response,,
80,Control,True,1,,False,False,011,1,,1,False,False,,True,True,100,,,,,,,0.0-125.0,,,1,599,[1],stimuli/1011100.jpg,,,142385,,prediction_trial,150,image-keyboard-response,,
80,Control,,,,,,,,,1,,,,,,,,,,,,,0.0-126.0,,, ,239,,stimuli/10111001.jpg,,,142625,,feedback_trial,151,image-keyboard-response,,
80,Control,True,1,,False,False,110,0,,0,False,False,,True,True,010,,,,,,,0.0-127.0,,,0,582,[0],stimuli/0110010.jpg,,,143209,,prediction_trial,152,image-keyboard-response,,
80,Control,,,,,,,,,0,,,,,,,,,,,,,0.0-128.0,,, ,199,,stimuli/01100100.jpg,,,143409,,feedback_trial,153,image-keyboard-response,,
80,Control,True,1,,False,True,001,2,,2,False,True,,True,True,000,,,,,,,0.0-129.0,,,2,607,[2],stimuli/2001000.jpg,,,144017,,prediction_trial,154,image-keyboard-response,,
80,Control,,,,,,,,,2,,,,,,,,,,,,,0.0-130.0,,, ,279,,stimuli/20010002.jpg,,,144297,,feedback_trial,155,image-keyboard-response,,
80,Control,False,0,,True,True,000,2,,2,True,True,,True,True,010,,,,,,,0.0-131.0,,,1,558,[2],stimuli/2000010.jpg,,,144865,,prediction_trial,156,image-keyboard-response,,
80,Control,,,,,,,,,2,,,,,,,,,,,,,0.0-132.0,,, ,1975,,stimuli/20000102.jpg,,,146841,,feedback_trial,157,image-keyboard-response,,
80,Control,False,0,,True,True,001,0,,0,False,True,,False,True,101,,,,,,,0.0-133.0,,,2,967,[0],stimuli/0001101.jpg,,,147809,,prediction_trial,158,image-keyboard-response,,
80,Control,,,,,,,,,0,,,,,,,,,,,,,0.0-134.0,,, ,1086,,stimuli/00011010.jpg,,,148897,,feedback_trial,159,image-keyboard-response,,
80,Control,True,1,,True,True,010,0,,0,True,True,,True,True,010,,,,,,,0.0-135.0,,,0,823,[0],stimuli/0010010.jpg,,,149721,,prediction_trial,160,image-keyboard-response,,
80,Control,,,,,,,,,0,,,,,,,,,,,,,0.0-136.0,,, ,149,,stimuli/00100100.jpg,,,149881,,feedback_trial,161,image-keyboard-response,,
80,Control,False,0,,True,True,100,1,,1,False,True,,False,True,011,,,,,,,0.0-137.0,,,2,1455,[1],stimuli/1100011.jpg,,,151337,,prediction_trial,162,image-keyboard-response,,
80,Control,,,,,,,,,1,,,,,,,,,,,,,0.0-138.0,,, ,478,,stimuli/11000111.jpg,,,151817,,feedback_trial,163,image-keyboard-response,,
80,Control,True,1,,False,False,110,1,,1,False,False,,False,True,111,,,,,,,0.0-139.0,,,1,919,[1],stimuli/1110111.jpg,,,152737,,prediction_trial,164,image-keyboard-response,,
80,Control,,,,,,,,,1,,,,,,,,,,,,,0.0-140.0,,, ,703,,stimuli/11101111.jpg,,,153441,,feedback_trial,165,image-keyboard-response,,
80,Control,True,1,,False,True,001,2,,2,False,True,,True,True,100,,,,,,,0.0-141.0,,,2,711,[2],stimuli/2001100.jpg,,,154153,,prediction_trial,166,image-keyboard-response,,
80,Control,,,,,,,,,2,,,,,,,,,,,,,0.0-142.0,,, ,255,,stimuli/20011002.jpg,,,154409,,feedback_trial,167,image-keyboard-response,,
80,Control,False,0,,True,True,101,1,,1,False,True,,False,True,111,,,,,,,0.0-143.0,,,2,1783,[1],stimuli/1101111.jpg,,,156193,,prediction_trial,168,image-keyboard-response,,
80,Control,,,,,,,,,1,,,,,,,,,,,,,0.0-144.0,,, ,271,,stimuli/11011111.jpg,,,156465,,feedback_trial,169,image-keyboard-response,,
80,Control,False,0,,True,True,011,0,,0,False,True,,False,True,110,,,,,,,0.0-145.0,,,1,1031,[0],stimuli/0011110.jpg,,,157497,,prediction_trial,170,image-keyboard-response,,
80,Control,,,,,,,,,0,,,,,,,,,,,,,0.0-146.0,,, ,231,,stimuli/00111100.jpg,,,157729,,feedback_trial,171,image-keyboard-response,,
80,Control,True,1,,False,False,011,1,,1,False,False,,False,True,111,,,,,,,0.0-147.0,,,1,1079,[1],stimuli/1011111.jpg,,,158809,,prediction_trial,172,image-keyboard-response,,
80,Control,,,,,,,,,1,,,,,,,,,,,,,0.0-148.0,,, ,247,,stimuli/10111111.jpg,,,159056,,feedback_trial,173,image-keyboard-response,,
80,Control,True,1,,True,True,000,2,,2,True,True,,True,True,000,,,,,,,0.0-149.0,,,2,1070,[2],stimuli/2000000.jpg,,,160137,,prediction_trial,174,image-keyboard-response,,
80,Control,,,,,,,,,2,,,,,,,,,,,,,0.0-150.0,,, ,238,,stimuli/20000002.jpg,,,160377,,feedback_trial,175,image-keyboard-response,,
80,Control,False,0,,False,False,101,0,,0,False,False,,False,True,111,,,,,,,0.0-151.0,,,1,1079,[0],stimuli/0101111.jpg,,,161457,,prediction_trial,176,image-keyboard-response,,
80,Control,,,,,,,,,0,,,,,,,,,,,,,0.0-152.0,,, ,263,,stimuli/01011110.jpg,,,161721,,feedback_trial,177,image-keyboard-response,,
80,Control,True,1,,True,True,001,0,,0,True,True,,True,True,000,,,,,,,0.0-153.0,,,0,1142,[0],stimuli/0001000.jpg,,,162865,,prediction_trial,178,image-keyboard-response,,
80,Control,,,,,,,,,0,,,,,,,,,,,,,0.0-154.0,,, ,207,,stimuli/00010000.jpg,,,163072,,feedback_trial,179,image-keyboard-response,,
80,Control,True,1,,False,False,011,1,,1,False,False,,True,True,001,,,,,,,0.0-155.0,,,1,751,[1],stimuli/1011001.jpg,,,163824,,prediction_trial,180,image-keyboard-response,,
80,Control,,,,,,,,,1,,,,,,,,,,,,,0.0-156.0,,, ,191,,stimuli/10110011.jpg,,,164017,,feedback_trial,181,image-keyboard-response,,
80,Control,True,1,,False,True,100,0,,0,False,True,,True,True,001,,,,,,,0.0-157.0,,,0,847,[0],stimuli/0100001.jpg,,,164865,,prediction_trial,182,image-keyboard-response,,
80,Control,,,,,,,,,0,,,,,,,,,,,,,0.0-158.0,,, ,166,,stimuli/01000010.jpg,,,165033,,feedback_trial,183,image-keyboard-response,,
80,Control,True,1,,True,True,000,1,,1,True,True,,True,True,001,,,,,,,0.0-159.0,,,1,647,[1],stimuli/1000001.jpg,,,165681,,prediction_trial,184,image-keyboard-response,,
80,Control,,,,,,,,,1,,,,,,,,,,,,,0.0-160.0,,, ,175,,stimuli/10000011.jpg,,,165857,,feedback_trial,185,image-keyboard-response,,
80,Control,True,1,,True,True,000,1,,1,True,True,,True,True,101,,,,,,,0.0-161.0,,,1,647,[1],stimuli/1000101.jpg,,,166504,,prediction_trial,186,image-keyboard-response,,
80,Control,,,,,,,,,1,,,,,,,,,,,,,0.0-162.0,,, ,151,,stimuli/10001011.jpg,,,166656,,feedback_trial,187,image-keyboard-response,,
80,Control,False,0,,False,False,110,1,,1,False,False,,False,True,110,,,,,,,0.0-163.0,,,0,872,[1],stimuli/1110110.jpg,,,167529,,prediction_trial,188,image-keyboard-response,,
80,Control,,,,,,,,,1,,,,,,,,,,,,,0.0-164.0,,, ,165,,stimuli/11101101.jpg,,,167704,,feedback_trial,189,image-keyboard-response,,
80,Control,True,1,,True,True,001,1,,1,False,True,,False,True,011,,,,,,,0.0-165.0,,,1,1871,[1],stimuli/1001011.jpg,,,169577,,prediction_trial,190,image-keyboard-response,,
80,Control,,,,,,,,,1,,,,,,,,,,,,,0.0-166.0,,, ,183,,stimuli/10010111.jpg,,,169761,,feedback_trial,191,image-keyboard-response,,
80,Control,True,1,,False,False,110,1,,1,False,False,,True,True,000,,,,,,,0.0-167.0,,,1,760,[1],stimuli/1110000.jpg,,,170521,,prediction_trial,192,image-keyboard-response,,
80,Control,,,,,,,,,1,,,,,,,,,,,,,0.0-168.0,,, ,166,,stimuli/11100001.jpg,,,170688,,feedback_trial,193,image-keyboard-response,,
80,Control,True,1,,True,True,000,0,,0,True,True,,True,True,001,,,,,,,0.0-169.0,,,0,647,[0],stimuli/0000001.jpg,,,171336,,prediction_trial,194,image-keyboard-response,,
80,Control,,,,,,,,,0,,,,,,,,,,,,,0.0-170.0,,, ,127,,stimuli/00000010.jpg,,,171464,,feedback_trial,195,image-keyboard-response,,
80,Control,True,1,,False,False,110,1,,1,False,False,,True,True,001,,,,,,,0.0-171.0,,,1,775,[1],stimuli/1110001.jpg,,,172240,,prediction_trial,196,image-keyboard-response,,
80,Control,,,,,,,,,1,,,,,,,,,,,,,0.0-172.0,,, ,143,,stimuli/11100011.jpg,,,172384,,feedback_trial,197,image-keyboard-response,,
80,Control,True,1,,False,True,001,2,,2,False,True,,True,True,110,,,,,,,0.0-173.0,,,2,589,[2],stimuli/2001110.jpg,,,172984,,prediction_trial,198,image-keyboard-response,,
80,Control,,,,,,,,,2,,,,,,,,,,,,,0.0-174.0,,, ,167,,stimuli/20011102.jpg,,,173152,,feedback_trial,199,image-keyboard-response,,
80,Control,False,0,,False,False,111,0,,0,False,False,,False,True,110,,,,,,,0.0-175.0,,,1,1216,[0],stimuli/0111110.jpg,,,174369,,prediction_trial,200,image-keyboard-response,,
80,Control,,,,,,,,,0,,,,,,,,,,,,,0.0-176.0,,, ,151,,stimuli/01111100.jpg,,,174520,,feedback_trial,201,image-keyboard-response,,
80,Control,True,1,,True,True,000,0,,0,False,True,,False,True,101,,,,,,,0.0-177.0,,,0,1176,[0],stimuli/0000101.jpg,,,175697,,prediction_trial,202,image-keyboard-response,,
80,Control,,,,,,,,,0,,,,,,,,,,,,,0.0-178.0,,, ,143,,stimuli/00001010.jpg,,,175840,,feedback_trial,203,image-keyboard-response,,
80,Control,True,1,,False,False,110,0,,0,False,False,,True,True,001,,,,,,,0.0-179.0,,,0,781,[0],stimuli/0110001.jpg,,,176632,,prediction_trial,204,image-keyboard-response,,
80,Control,,,,,,,,,0,,,,,,,,,,,,,0.0-180.0,,, ,183,,stimuli/01100010.jpg,,,176816,,feedback_trial,205,image-keyboard-response,,
80,Control,True,1,,False,True,010,1,,1,False,True,,True,True,100,,,,,,,0.0-181.0,,,1,807,[1],stimuli/1010100.jpg,,,177624,,prediction_trial,206,image-keyboard-response,,
80,Control,,,,,,,,,1,,,,,,,,,,,,,0.0-182.0,,, ,167,,stimuli/10101001.jpg,,,177792,,feedback_trial,207,image-keyboard-response,,
80,Control,True,1,,True,True,011,0,,0,True,True,,True,True,010,,,,,,,0.0-183.0,,,0,599,[0],stimuli/0011010.jpg,,,178392,,prediction_trial,208,image-keyboard-response,,
80,Control,,,,,,,,,0,,,,,,,,,,,,,0.0-184.0,,, ,135,,stimuli/00110100.jpg,,,178528,,feedback_trial,209,image-keyboard-response,,
80,Control,True,1,,True,True,001,1,,1,True,True,,True,True,100,,,,,,,0.0-185.0,,,1,615,[1],stimuli/1001100.jpg,,,179144,,prediction_trial,210,image-keyboard-response,,
80,Control,,,,,,,,,1,,,,,,,,,,,,,0.0-186.0,,, ,207,,stimuli/10011001.jpg,,,179352,,feedback_trial,211,image-keyboard-response,,
80,Control,True,1,,False,True,100,0,,0,False,True,,False,True,100,,,,,,,0.0-187.0,,,0,711,[0],stimuli/0100100.jpg,,,180065,,prediction_trial,212,image-keyboard-response,,
80,Control,,,,,,,,,0,,,,,,,,,,,,,0.0-188.0,,, ,151,,stimuli/01001000.jpg,,,180217,,feedback_trial,213,image-keyboard-response,,
80,Control,True,1,,False,False,111,0,,0,False,False,,True,True,000,,,,,,,0.0-189.0,,,0,912,[0],stimuli/0111000.jpg,,,181129,,prediction_trial,214,image-keyboard-response,,
80,Control,,,,,,,,,0,,,,,,,,,,,,,0.0-190.0,,, ,126,,stimuli/01110000.jpg,,,181257,,feedback_trial,215,image-keyboard-response,,
80,Control,False,0,,False,False,111,1,,1,False,False,,False,True,011,,,,,,,0.0-191.0,,,2,1191,[1],stimuli/1111011.jpg,,,182449,,prediction_trial,216,image-keyboard-response,,
80,Control,,,,,,,,,1,,,,,,,,,,,,,0.0-192.0,,, ,159,,stimuli/11110111.jpg,,,182609,,feedback_trial,217,image-keyboard-response,,
80,Control,True,1,,True,True,000,1,,1,False,True,,False,True,010,,,,,,,0.0-193.0,,,1,967,[1],stimuli/1000010.jpg,,,183577,,prediction_trial,218,image-keyboard-response,,
80,Control,,,,,,,,,1,,,,,,,,,,,,,0.0-194.0,,, ,110,,stimuli/10000101.jpg,,,183689,,feedback_trial,219,image-keyboard-response,,
80,Control,True,1,,True,True,011,0,,0,True,True,,True,True,000,,,,,,,0.0-195.0,,,0,799,[0],stimuli/0011000.jpg,,,184489,,prediction_trial,220,image-keyboard-response,,
80,Control,,,,,,,,,0,,,,,,,,,,,,,0.0-196.0,,, ,111,,stimuli/00110000.jpg,,,184601,,feedback_trial,221,image-keyboard-response,,
80,Control,True,1,,True,True,001,0,,0,False,True,,False,True,110,,,,,,,0.0-197.0,,,0,1104,[0],stimuli/0001110.jpg,,,185705,,prediction_trial,222,image-keyboard-response,,
80,Control,,,,,,,,,0,,,,,,,,,,,,,0.0-198.0,,, ,167,,stimuli/00011100.jpg,,,185873,,feedback_trial,223,image-keyboard-response,,
80,Control,True,1,,False,False,110,1,,1,False,False,,True,True,101,,,,,,,0.0-199.0,,,1,1119,[1],stimuli/1110101.jpg,,,186993,,prediction_trial,224,image-keyboard-response,,
80,Control,,,,,,,,,1,,,,,,,,,,,,,0.0-200.0,,, ,143,,stimuli/11101011.jpg,,,187137,,feedback_trial,225,image-keyboard-response,,
80,Control,True,1,,False,False,110,1,,1,False,False,,False,True,011,,,,,,,0.0-201.0,,,1,1415,[1],stimuli/1110011.jpg,,,188553,,prediction_trial,226,image-keyboard-response,,
80,Control,,,,,,,,,1,,,,,,,,,,,,,0.0-202.0,,, ,158,,stimuli/11100111.jpg,,,188713,,feedback_trial,227,image-keyboard-response,,
80,Control,True,1,,True,True,100,1,,1,True,True,,True,True,101,,,,,,,0.0-203.0,,,1,743,[1],stimuli/1100101.jpg,,,189457,,prediction_trial,228,image-keyboard-response,,
80,Control,,,,,,,,,1,,,,,,,,,,,,,0.0-204.0,,, ,135,,stimuli/11001011.jpg,,,189593,,feedback_trial,229,image-keyboard-response,,
80,Control,True,1,,False,True,001,2,,2,False,True,,False,True,101,,,,,,,0.0-205.0,,,2,727,[2],stimuli/2001101.jpg,,,190321,,prediction_trial,230,image-keyboard-response,,
80,Control,,,,,,,,,2,,,,,,,,,,,,,0.0-206.0,,, ,207,,stimuli/20011012.jpg,,,190529,,feedback_trial,231,image-keyboard-response,,
80,Control,True,1,,False,False,101,0,,0,False,False,,False,True,110,,,,,,,0.0-207.0,,,0,1111,[0],stimuli/0101110.jpg,,,191641,,prediction_trial,232,image-keyboard-response,,
80,Control,,,,,,,,,0,,,,,,,,,,,,,0.0-208.0,,, ,150,,stimuli/01011100.jpg,,,191793,,feedback_trial,233,image-keyboard-response,,
80,Control,True,1,,False,False,111,1,,1,False,False,,False,True,110,,,,,,,0.0-209.0,,,1,1903,[1],stimuli/1111110.jpg,,,193697,,prediction_trial,234,image-keyboard-response,,
80,Control,,,,,,,,,1,,,,,,,,,,,,,0.0-210.0,,, ,300,,stimuli/11111101.jpg,,,194009,,feedback_trial,235,image-keyboard-response,,
80,Control,True,1,,True,True,000,0,,0,True,True,,True,True,011,,,,,,,0.0-211.0,,,0,623,[0],stimuli/0000011.jpg,,,194633,,prediction_trial,236,image-keyboard-response,,
80,Control,,,,,,,,,0,,,,,,,,,,,,,0.0-212.0,,, ,175,,stimuli/00000110.jpg,,,194808,,feedback_trial,237,image-keyboard-response,,
80,Control,True,1,,True,True,010,0,,0,False,True,,False,True,100,,,,,,,0.0-213.0,,,0,855,[0],stimuli/0010100.jpg,,,195665,,prediction_trial,238,image-keyboard-response,,
80,Control,,,,,,,,,0,,,,,,,,,,,,,0.0-214.0,,, ,191,,stimuli/00101000.jpg,,,195857,,feedback_trial,239,image-keyboard-response,,
80,Control,True,1,,True,True,001,1,,1,True,True,,True,True,000,,,,,,,0.0-215.0,,,1,695,[1],stimuli/1001000.jpg,,,196553,,prediction_trial,240,image-keyboard-response,,
80,Control,,,,,,,,,1,,,,,,,,,,,,,0.0-216.0,,, ,183,,stimuli/10010001.jpg,,,196737,,feedback_trial,241,image-keyboard-response,,
80,Control,False,0,,True,True,011,0,,0,False,True,,False,True,111,,,,,,,0.0-217.0,,,1,847,[0],stimuli/0011111.jpg,,,197585,,prediction_trial,242,image-keyboard-response,,
80,Control,,,,,,,,,0,,,,,,,,,,,,,0.0-218.0,,, ,927,,stimuli/00111110.jpg,,,198513,,feedback_trial,243,image-keyboard-response,,
80,Control,True,1,,False,False,110,1,,1,False,False,,False,True,010,,,,,,,0.0-219.0,,,1,1191,[1],stimuli/1110010.jpg,,,199705,,prediction_trial,244,image-keyboard-response,,
80,Control,,,,,,,,,1,,,,,,,,,,,,,0.0-220.0,,, ,222,,stimuli/11100101.jpg,,,199929,,feedback_trial,245,image-keyboard-response,,
80,Control,True,1,,True,True,010,0,,0,True,True,,True,True,001,,,,,,,0.0-221.0,,,0,839,[0],stimuli/0010001.jpg,,,200769,,prediction_trial,246,image-keyboard-response,,
80,Control,,,,,,,,,0,,,,,,,,,,,,,0.0-222.0,,, ,159,,stimuli/00100010.jpg,,,200928,,feedback_trial,247,image-keyboard-response,,
80,Control,True,1,,True,True,011,0,,0,False,True,,False,True,100,,,,,,,0.0-223.0,,,0,736,[0],stimuli/0011100.jpg,,,201665,,prediction_trial,248,image-keyboard-response,,
80,Control,,,,,,,,,0,,,,,,,,,,,,,0.0-224.0,,, ,174,,stimuli/00111000.jpg,,,201840,,feedback_trial,249,image-keyboard-response,,
80,Control,True,1,,True,True,000,1,,1,True,True,,True,True,100,,,,,,,0.0-225.0,,,1,743,[1],stimuli/1000100.jpg,,,202585,,prediction_trial,250,image-keyboard-response,,
80,Control,,,,,,,,,1,,,,,,,,,,,,,0.0-226.0,,, ,180,,stimuli/10001001.jpg,,,202776,,feedback_trial,251,image-keyboard-response,,
80,Control,True,1,,False,False,111,0,,0,False,False,,True,True,001,,,,,,,0.0-227.0,,,0,559,[0],stimuli/0111001.jpg,,,203337,,prediction_trial,252,image-keyboard-response,,
80,Control,,,,,,,,,0,,,,,,,,,,,,,0.0-228.0,,, ,198,,stimuli/01110010.jpg,,,203536,,feedback_trial,253,image-keyboard-response,,
