workerid,proliferate.condition,accuracy,accuracy_bool,alter_ball_visible,alter_can_infer,alter_occluders,ball_pos,character_choice,collective_ball_visible,collective_can_infer,ego_ball_visible,ego_can_infer,ego_occluders,internal_node_id,response,rt,search_locations,stimulus,time_elapsed,trial,trial_index,trial_type,error
347,Experiment 5,True,1,True,True,001,0,0,True,True,True,True,011,0.0-5.0,0,1412,[0],stimuli/0001011.jpg,157190,prediction_trial,30,image-keyboard-response,
347,Experiment 5,True,1,True,True,000,0,0,False,True,False,True,100,0.0-7.0,0,799,[0],stimuli/0000100.jpg,158508,prediction_trial,32,image-keyboard-response,
347,Experiment 5,True,1,False,False,101,2,2,False,False,True,True,110,0.0-9.0,2,671,[2],stimuli/2101110.jpg,159395,prediction_trial,34,image-keyboard-response,
347,Experiment 5,True,1,False,False,111,1,1,False,False,False,False,111,0.0-11.0,1,1451,[1],stimuli/1111111.jpg,161015,prediction_trial,36,image-keyboard-response,
347,Experiment 5,True,1,True,True,101,1,1,False,True,False,True,010,0.0-13.0,1,973,[1],stimuli/1101010.jpg,162333,prediction_trial,38,image-keyboard-response,
347,Experiment 5,True,1,False,False,101,0,0,False,False,False,False,110,0.0-15.0,0,1427,[0],stimuli/0101110.jpg,163954,prediction_trial,40,image-keyboard-response,
347,Experiment 5,True,1,True,True,001,0,0,False,True,False,True,100,0.0-17.0,0,820,[0],stimuli/0001100.jpg,165250,prediction_trial,42,image-keyboard-response,
347,Experiment 5,True,1,False,False,111,0,0,False,False,True,True,000,0.0-19.0,0,495,[0],stimuli/0111000.jpg,165982,prediction_trial,44,image-keyboard-response,
347,Experiment 5,True,1,True,True,000,1,1,True,True,True,True,100,0.0-21.0,1,518,[1],stimuli/1000100.jpg,166737,prediction_trial,46,image-keyboard-response,
347,Experiment 5,True,1,False,False,110,1,1,False,False,False,True,010,0.0-23.0,1,648,[1],stimuli/1110010.jpg,167578,prediction_trial,48,image-keyboard-response,
347,Experiment 5,True,1,False,False,101,2,2,False,False,False,True,001,0.0-25.0,2,498,[2],stimuli/2101001.jpg,168203,prediction_trial,50,image-keyboard-response,
347,Experiment 5,False,0,False,False,011,1,1,False,False,False,False,111,0.0-27.0,0,1471,[1],stimuli/1011111.jpg,169800,prediction_trial,52,image-keyboard-response,
347,Experiment 5,True,1,True,True,001,1,1,False,True,False,True,010,0.0-29.0,1,885,[1],stimuli/1001010.jpg,171162,prediction_trial,54,image-keyboard-response,
347,Experiment 5,True,1,False,False,101,2,2,False,False,True,True,000,0.0-31.0,2,454,[2],stimuli/2101000.jpg,171874,prediction_trial,56,image-keyboard-response,
347,Experiment 5,True,1,False,True,010,1,1,False,True,True,True,000,0.0-33.0,1,583,[1],stimuli/1010000.jpg,172605,prediction_trial,58,image-keyboard-response,
347,Experiment 5,False,0,False,False,011,2,2,False,False,False,False,111,0.0-35.0,1,800,[2],stimuli/2011111.jpg,173511,prediction_trial,60,image-keyboard-response,
347,Experiment 5,True,1,True,True,000,1,1,True,True,True,True,000,0.0-37.0,1,430,[1],stimuli/1000000.jpg,174351,prediction_trial,62,image-keyboard-response,
347,Experiment 5,False,0,False,True,100,0,0,False,False,False,False,111,0.0-39.0,2,1452,[0],stimuli/0100111.jpg,175952,prediction_trial,64,image-keyboard-response,
347,Experiment 5,True,1,False,True,001,2,2,False,True,True,True,000,0.0-41.0,2,496,[2],stimuli/2001000.jpg,176836,prediction_trial,66,image-keyboard-response,
347,Experiment 5,False,0,False,True,001,2,2,False,False,False,False,101,0.0-43.0,0,1124,[2],stimuli/2001101.jpg,178130,prediction_trial,68,image-keyboard-response,
347,Experiment 5,True,1,False,False,111,2,2,False,False,True,True,110,0.0-45.0,2,496,[2],stimuli/2111110.jpg,179212,prediction_trial,70,image-keyboard-response,
347,Experiment 5,True,1,True,True,101,1,1,True,True,True,True,101,0.0-47.0,1,409,[1],stimuli/1101101.jpg,179769,prediction_trial,72,image-keyboard-response,
347,Experiment 5,True,1,False,False,011,1,1,False,False,True,True,100,0.0-49.0,1,474,[1],stimuli/1011100.jpg,180415,prediction_trial,74,image-keyboard-response,
347,Experiment 5,False,0,True,True,000,2,2,False,False,False,False,111,0.0-51.0,0,1883,[2],stimuli/2000111.jpg,182425,prediction_trial,76,image-keyboard-response,
347,Experiment 5,True,1,True,True,101,1,1,False,False,False,False,110,0.0-53.0,1,777,[1],stimuli/1101110.jpg,183636,prediction_trial,78,image-keyboard-response,
347,Experiment 5,True,1,False,False,011,2,2,False,False,True,True,100,0.0-55.0,2,562,[2],stimuli/2011100.jpg,184477,prediction_trial,80,image-keyboard-response,
347,Experiment 5,True,1,False,True,010,1,1,False,False,False,False,110,0.0-57.0,1,670,[1],stimuli/1010110.jpg,185295,prediction_trial,82,image-keyboard-response,
347,Experiment 5,True,1,True,True,000,2,2,True,True,True,True,100,0.0-59.0,2,734,[2],stimuli/2000100.jpg,186310,prediction_trial,84,image-keyboard-response,
347,Experiment 5,True,1,True,True,110,2,2,False,False,False,False,101,0.0-61.0,2,1496,[2],stimuli/2110101.jpg,187975,prediction_trial,86,image-keyboard-response,
347,Experiment 5,True,1,True,True,100,2,2,True,True,True,True,000,0.0-63.0,2,691,[2],stimuli/2100000.jpg,189053,prediction_trial,88,image-keyboard-response,
347,Experiment 5,True,1,False,False,011,2,2,False,False,True,True,010,0.0-65.0,2,410,[2],stimuli/2011010.jpg,189655,prediction_trial,90,image-keyboard-response,
347,Experiment 5,True,1,True,True,010,0,0,True,True,True,True,011,0.0-67.0,0,517,[0],stimuli/0010011.jpg,190341,prediction_trial,92,image-keyboard-response,
347,Experiment 5,False,0,True,True,001,0,0,False,False,False,False,101,0.0-69.0,2,1495,[0],stimuli/0001101.jpg,191965,prediction_trial,94,image-keyboard-response,
347,Experiment 5,False,0,True,True,010,0,0,False,False,False,False,111,0.0-71.0,1,734,[0],stimuli/0010111.jpg,193021,prediction_trial,96,image-keyboard-response,
347,Experiment 5,True,1,True,True,100,2,2,True,True,True,True,100,0.0-73.0,2,429,[2],stimuli/2100100.jpg,193798,prediction_trial,98,image-keyboard-response,
347,Experiment 5,False,0,False,False,101,0,0,False,False,False,False,111,0.0-75.0,2,607,[0],stimuli/0101111.jpg,194618,prediction_trial,100,image-keyboard-response,
347,Experiment 5,True,1,True,True,100,1,1,True,True,True,True,001,0.0-77.0,1,451,[1],stimuli/1100001.jpg,195391,prediction_trial,102,image-keyboard-response,
347,Experiment 5,False,0,False,False,110,0,0,False,False,False,False,101,0.0-79.0,2,780,[0],stimuli/0110101.jpg,196342,prediction_trial,104,image-keyboard-response,
347,Experiment 5,False,0,False,False,110,0,0,False,False,False,False,110,0.0-81.0,1,843,[0],stimuli/0110110.jpg,197506,prediction_trial,106,image-keyboard-response,
347,Experiment 5,False,0,False,False,111,2,2,False,False,False,False,011,0.0-83.0,1,496,[2],stimuli/2111011.jpg,198282,prediction_trial,108,image-keyboard-response,
347,Experiment 5,True,1,False,False,101,0,0,False,False,False,True,100,0.0-85.0,0,539,[0],stimuli/0101100.jpg,199013,prediction_trial,110,image-keyboard-response,
347,Experiment 5,True,1,True,True,110,2,2,True,True,True,True,010,0.0-87.0,2,408,[2],stimuli/2110010.jpg,199552,prediction_trial,112,image-keyboard-response,
347,Experiment 5,True,1,True,True,000,2,2,True,True,True,True,110,0.0-89.0,2,411,[2],stimuli/2000110.jpg,200089,prediction_trial,114,image-keyboard-response,
347,Experiment 5,True,1,False,False,111,2,2,False,False,False,True,001,0.0-91.0,2,454,[2],stimuli/2111001.jpg,200669,prediction_trial,116,image-keyboard-response,
347,Experiment 5,True,1,True,True,010,0,0,True,True,True,True,010,0.0-93.0,0,428,[0],stimuli/0010010.jpg,201181,prediction_trial,118,image-keyboard-response,
347,Experiment 5,True,1,False,True,100,0,0,False,True,True,True,000,0.0-95.0,0,432,[0],stimuli/0100000.jpg,201718,prediction_trial,120,image-keyboard-response,
347,Experiment 5,True,1,False,True,010,1,1,False,True,True,True,100,0.0-97.0,1,410,[1],stimuli/1010100.jpg,202257,prediction_trial,122,image-keyboard-response,
347,Experiment 5,True,1,False,False,011,1,1,False,False,True,True,000,0.0-99.0,1,432,[1],stimuli/1011000.jpg,202794,prediction_trial,124,image-keyboard-response,
347,Experiment 5,True,1,False,False,011,2,2,False,False,True,True,110,0.0-101.0,2,497,[2],stimuli/2011110.jpg,203375,prediction_trial,126,image-keyboard-response,
347,Experiment 5,True,1,True,True,101,1,1,True,True,True,True,000,0.0-103.0,1,366,[1],stimuli/1101000.jpg,203867,prediction_trial,128,image-keyboard-response,
347,Experiment 5,True,1,False,True,100,0,0,False,True,True,True,011,0.0-105.0,0,477,[0],stimuli/0100011.jpg,204446,prediction_trial,130,image-keyboard-response,
347,Experiment 5,True,1,False,True,010,1,1,False,True,False,True,010,0.0-107.0,1,760,[1],stimuli/1010010.jpg,205288,prediction_trial,132,image-keyboard-response,
347,Experiment 5,True,1,True,True,000,2,2,False,True,False,True,001,0.0-109.0,2,432,[2],stimuli/2000001.jpg,205826,prediction_trial,134,image-keyboard-response,
347,Experiment 5,True,1,True,True,011,0,0,True,True,True,True,011,0.0-111.0,0,604,[0],stimuli/0011011.jpg,206534,prediction_trial,136,image-keyboard-response,
347,Experiment 5,True,1,False,False,101,0,0,False,False,True,True,001,0.0-113.0,0,586,[0],stimuli/0101001.jpg,207179,prediction_trial,138,image-keyboard-response,
347,Experiment 5,True,1,False,False,111,0,0,False,False,True,True,010,0.0-115.0,0,452,[0],stimuli/0111010.jpg,207737,prediction_trial,140,image-keyboard-response,
347,Experiment 5,True,1,False,True,010,1,1,False,True,True,True,001,0.0-117.0,1,500,[1],stimuli/1010001.jpg,208340,prediction_trial,142,image-keyboard-response,
347,Experiment 5,True,1,False,False,111,0,0,False,False,False,False,110,0.0-119.0,0,2059,[0],stimuli/0111110.jpg,210481,prediction_trial,144,image-keyboard-response,
347,Experiment 5,True,1,True,True,000,0,0,True,True,True,True,000,0.0-121.0,0,448,[0],stimuli/0000000.jpg,211278,prediction_trial,146,image-keyboard-response,
347,Experiment 5,False,0,False,False,111,2,2,False,False,False,False,101,0.0-123.0,0,1949,[2],stimuli/2111101.jpg,213355,prediction_trial,148,image-keyboard-response,
347,Experiment 5,True,1,True,True,010,2,2,True,True,True,True,010,0.0-125.0,2,410,[2],stimuli/2010010.jpg,214154,prediction_trial,150,image-keyboard-response,
347,Experiment 5,True,1,False,False,111,0,0,False,False,False,True,100,0.0-127.0,0,473,[0],stimuli/0111100.jpg,214818,prediction_trial,152,image-keyboard-response,
347,Experiment 5,False,0,True,True,010,0,0,False,False,False,False,110,0.0-129.0,1,580,[0],stimuli/0010110.jpg,215574,prediction_trial,154,image-keyboard-response,
347,Experiment 5,False,0,True,True,000,1,1,False,False,False,False,111,0.0-131.0,0,452,[1],stimuli/1000111.jpg,216261,prediction_trial,156,image-keyboard-response,
347,Experiment 5,True,1,True,True,000,1,1,False,True,False,True,010,0.0-133.0,1,517,[1],stimuli/1000010.jpg,217081,prediction_trial,158,image-keyboard-response,
347,Experiment 5,True,1,False,False,101,0,0,False,False,True,True,011,0.0-135.0,0,473,[0],stimuli/0101011.jpg,217833,prediction_trial,160,image-keyboard-response,
347,Experiment 5,True,1,True,True,001,1,1,True,True,True,True,101,0.0-137.0,1,385,[1],stimuli/1001101.jpg,218393,prediction_trial,162,image-keyboard-response,
347,Experiment 5,True,1,False,True,100,0,0,False,True,False,True,100,0.0-139.0,0,516,[0],stimuli/0100100.jpg,219059,prediction_trial,164,image-keyboard-response,
347,Experiment 5,True,1,False,False,111,0,0,False,False,True,True,011,0.0-141.0,0,477,[0],stimuli/0111011.jpg,219661,prediction_trial,166,image-keyboard-response,
347,Experiment 5,True,1,True,True,110,2,2,True,True,True,True,000,0.0-143.0,2,414,[2],stimuli/2110000.jpg,220200,prediction_trial,168,image-keyboard-response,
347,Experiment 5,True,1,True,True,011,0,0,True,True,True,True,000,0.0-145.0,0,408,[0],stimuli/0011000.jpg,220712,prediction_trial,170,image-keyboard-response,
347,Experiment 5,True,1,False,False,111,1,1,False,False,False,False,110,0.0-147.0,1,456,[1],stimuli/1111110.jpg,221272,prediction_trial,172,image-keyboard-response,
347,Experiment 5,True,1,True,True,100,1,1,True,True,True,True,000,0.0-149.0,1,453,[1],stimuli/1100000.jpg,221853,prediction_trial,174,image-keyboard-response,
347,Experiment 5,True,1,False,False,101,0,0,False,False,True,True,000,0.0-151.0,0,406,[0],stimuli/0101000.jpg,222388,prediction_trial,176,image-keyboard-response,
347,Experiment 5,False,0,False,False,101,0,0,False,False,False,False,101,0.0-153.0,1,457,[0],stimuli/0101101.jpg,222970,prediction_trial,178,image-keyboard-response,
347,Experiment 5,True,1,True,True,010,2,2,True,True,True,True,100,0.0-155.0,2,520,[2],stimuli/2010100.jpg,223617,prediction_trial,180,image-keyboard-response,
347,Experiment 5,True,1,False,False,111,1,1,False,False,False,True,010,0.0-157.0,1,587,[1],stimuli/1111010.jpg,224304,prediction_trial,182,image-keyboard-response,
347,Experiment 5,True,1,False,False,110,0,0,False,False,True,True,000,0.0-159.0,0,408,[0],stimuli/0110000.jpg,224839,prediction_trial,184,image-keyboard-response,
347,Experiment 5,True,1,True,True,100,1,1,False,False,False,False,110,0.0-161.0,1,778,[1],stimuli/1100110.jpg,225746,prediction_trial,186,image-keyboard-response,
347,Experiment 5,False,0,True,True,011,0,0,False,False,False,False,101,0.0-163.0,2,632,[0],stimuli/0011101.jpg,226458,prediction_trial,188,image-keyboard-response,
347,Experiment 5,False,0,True,True,000,0,0,False,False,False,False,101,0.0-165.0,2,608,[0],stimuli/0000101.jpg,227168,prediction_trial,190,image-keyboard-response,
347,Experiment 5,True,1,False,False,011,2,2,False,False,False,True,001,0.0-167.0,2,476,[2],stimuli/2011001.jpg,227770,prediction_trial,192,image-keyboard-response,
347,Experiment 5,True,1,True,True,000,0,0,True,True,True,True,010,0.0-169.0,0,456,[0],stimuli/0000010.jpg,228327,prediction_trial,194,image-keyboard-response,
347,Experiment 5,False,0,False,False,011,1,1,False,False,False,False,110,0.0-171.0,2,501,[1],stimuli/1011110.jpg,228930,prediction_trial,196,image-keyboard-response,
347,Experiment 5,True,1,True,True,101,1,1,True,True,True,True,001,0.0-173.0,1,934,[1],stimuli/1101001.jpg,229943,prediction_trial,198,image-keyboard-response,
347,Experiment 5,True,1,True,True,001,0,0,True,True,True,True,001,0.0-175.0,0,564,[0],stimuli/0001001.jpg,230609,prediction_trial,200,image-keyboard-response,
347,Experiment 5,True,1,True,True,101,1,1,True,True,True,True,100,0.0-177.0,1,453,[1],stimuli/1101100.jpg,231190,prediction_trial,202,image-keyboard-response,
347,Experiment 5,True,1,False,True,001,2,2,False,True,False,True,001,0.0-179.0,2,498,[2],stimuli/2001001.jpg,231815,prediction_trial,204,image-keyboard-response,
347,Experiment 5,False,0,False,False,101,2,2,False,False,False,False,101,0.0-181.0,0,515,[2],stimuli/2101101.jpg,232457,prediction_trial,206,image-keyboard-response,
347,Experiment 5,True,1,True,True,100,1,1,False,True,False,True,010,0.0-183.0,1,559,[1],stimuli/1100010.jpg,233169,prediction_trial,208,image-keyboard-response,
347,Experiment 5,True,1,False,False,111,1,1,False,False,True,True,001,0.0-185.0,1,475,[1],stimuli/1111001.jpg,233793,prediction_trial,210,image-keyboard-response,
347,Experiment 5,True,1,False,True,010,1,1,False,False,False,False,111,0.0-187.0,1,539,[1],stimuli/1010111.jpg,234481,prediction_trial,212,image-keyboard-response,
347,Experiment 5,True,1,True,True,000,2,2,True,True,True,True,000,0.0-189.0,2,432,[2],stimuli/2000000.jpg,235063,prediction_trial,214,image-keyboard-response,
347,Experiment 5,True,1,True,True,001,1,1,False,False,False,False,110,0.0-191.0,1,887,[1],stimuli/1001110.jpg,236076,prediction_trial,216,image-keyboard-response,
347,Experiment 5,True,1,True,True,000,2,2,False,False,False,False,101,0.0-193.0,2,584,[2],stimuli/2000101.jpg,236809,prediction_trial,218,image-keyboard-response,
347,Experiment 5,False,0,True,True,000,2,2,False,False,False,False,011,0.0-195.0,1,495,[2],stimuli/2000011.jpg,237496,prediction_trial,220,image-keyboard-response,
347,Experiment 5,True,1,True,True,011,0,0,True,True,True,True,001,0.0-197.0,0,538,[0],stimuli/0011001.jpg,238248,prediction_trial,222,image-keyboard-response,
347,Experiment 5,False,0,True,True,010,2,2,False,False,False,False,011,0.0-199.0,1,583,[2],stimuli/2010011.jpg,238982,prediction_trial,224,image-keyboard-response,
347,Experiment 5,False,0,False,False,011,2,2,False,False,False,False,011,0.0-201.0,1,1145,[2],stimuli/2011011.jpg,240299,prediction_trial,226,image-keyboard-response,
347,Experiment 5,True,1,True,True,101,1,1,False,False,False,False,011,0.0-203.0,1,691,[1],stimuli/1101011.jpg,241162,prediction_trial,228,image-keyboard-response,
347,Experiment 5,False,0,True,True,010,2,2,False,False,False,False,111,0.0-205.0,1,451,[2],stimuli/2010111.jpg,241828,prediction_trial,230,image-keyboard-response,
347,Experiment 5,True,1,False,False,110,0,0,False,False,False,True,100,0.0-207.0,0,1319,[0],stimuli/0110100.jpg,243318,prediction_trial,232,image-keyboard-response,
347,Experiment 5,False,0,True,True,100,2,2,False,False,False,False,011,0.0-209.0,1,691,[2],stimuli/2100011.jpg,244138,prediction_trial,234,image-keyboard-response,
347,Experiment 5,True,1,True,True,010,2,2,False,False,False,False,101,0.0-211.0,2,605,[2],stimuli/2010101.jpg,244871,prediction_trial,236,image-keyboard-response,
347,Experiment 5,False,0,True,True,110,2,2,False,False,False,False,011,0.0-213.0,1,561,[2],stimuli/2110011.jpg,245559,prediction_trial,238,image-keyboard-response,
347,Experiment 5,True,1,False,False,111,0,0,False,False,True,True,001,0.0-215.0,0,517,[0],stimuli/0111001.jpg,246203,prediction_trial,240,image-keyboard-response,
347,Experiment 5,True,1,False,True,010,1,1,False,True,True,True,101,0.0-217.0,1,430,[1],stimuli/1010101.jpg,246762,prediction_trial,242,image-keyboard-response,
347,Experiment 5,True,1,True,True,100,1,1,False,False,False,False,111,0.0-219.0,1,756,[1],stimuli/1100111.jpg,247646,prediction_trial,244,image-keyboard-response,
347,Experiment 5,True,1,True,True,001,1,1,True,True,True,True,000,0.0-221.0,1,474,[1],stimuli/1001000.jpg,248248,prediction_trial,246,image-keyboard-response,
347,Experiment 5,True,1,True,True,100,2,2,True,True,True,True,010,0.0-223.0,2,583,[2],stimuli/2100010.jpg,248938,prediction_trial,248,image-keyboard-response,
347,Experiment 5,True,1,True,True,110,2,2,True,True,True,True,100,0.0-225.0,2,431,[2],stimuli/2110100.jpg,249496,prediction_trial,250,image-keyboard-response,
347,Experiment 5,True,1,True,True,001,1,1,False,False,False,False,011,0.0-227.0,1,605,[1],stimuli/1001011.jpg,250227,prediction_trial,252,image-keyboard-response,
347,Experiment 5,True,1,False,False,111,2,2,False,False,True,True,000,0.0-229.0,2,432,[2],stimuli/2111000.jpg,250808,prediction_trial,254,image-keyboard-response,
347,Experiment 5,True,1,True,True,010,2,2,True,True,True,True,000,0.0-231.0,2,411,[2],stimuli/2010000.jpg,251345,prediction_trial,256,image-keyboard-response,
347,Experiment 5,True,1,False,False,110,1,1,False,False,True,True,101,0.0-233.0,1,475,[1],stimuli/1110101.jpg,251946,prediction_trial,258,image-keyboard-response,
347,Experiment 5,True,1,False,False,110,0,0,False,False,True,True,010,0.0-235.0,0,477,[0],stimuli/0110010.jpg,252546,prediction_trial,260,image-keyboard-response,
347,Experiment 5,False,0,False,True,100,0,0,False,False,False,False,101,0.0-237.0,2,757,[0],stimuli/0100101.jpg,253433,prediction_trial,262,image-keyboard-response,
347,Experiment 5,True,1,False,False,110,1,1,False,False,False,False,011,0.0-239.0,1,603,[1],stimuli/1110011.jpg,254163,prediction_trial,264,image-keyboard-response,
347,Experiment 5,True,1,False,False,111,2,2,False,False,True,True,100,0.0-241.0,2,475,[2],stimuli/2111100.jpg,254788,prediction_trial,266,image-keyboard-response,
347,Experiment 5,True,1,False,False,011,1,1,False,False,True,True,001,0.0-243.0,1,413,[1],stimuli/1011001.jpg,255324,prediction_trial,268,image-keyboard-response,
347,Experiment 5,True,1,False,False,111,1,1,False,False,True,True,100,0.0-245.0,1,559,[1],stimuli/1111100.jpg,256034,prediction_trial,270,image-keyboard-response,
347,Experiment 5,True,1,True,True,000,1,1,True,True,True,True,001,0.0-247.0,1,473,[1],stimuli/1000001.jpg,256679,prediction_trial,272,image-keyboard-response,
347,Experiment 5,False,0,True,True,011,0,0,False,False,False,False,110,0.0-249.0,1,540,[0],stimuli/0011110.jpg,257368,prediction_trial,274,image-keyboard-response,
347,Experiment 5,True,1,True,True,001,1,1,True,True,True,True,001,0.0-251.0,1,604,[1],stimuli/1001001.jpg,258121,prediction_trial,276,image-keyboard-response,
347,Experiment 5,True,1,True,True,000,1,1,False,False,False,False,011,0.0-253.0,1,602,[1],stimuli/1000011.jpg,258853,prediction_trial,278,image-keyboard-response,
347,Experiment 5,False,0,True,True,000,0,0,False,False,False,False,111,0.0-255.0,1,431,[0],stimuli/0000111.jpg,259412,prediction_trial,280,image-keyboard-response,
347,Experiment 5,True,1,False,False,101,2,2,False,False,True,True,010,0.0-257.0,2,584,[2],stimuli/2101010.jpg,260123,prediction_trial,282,image-keyboard-response,
347,Experiment 5,True,1,False,False,110,0,0,False,False,True,True,011,0.0-259.0,0,496,[0],stimuli/0110011.jpg,260701,prediction_trial,284,image-keyboard-response,
347,Experiment 5,False,0,True,True,010,0,0,False,False,False,False,101,0.0-261.0,2,565,[0],stimuli/0010101.jpg,261392,prediction_trial,286,image-keyboard-response,
347,Experiment 5,False,0,False,False,111,0,0,False,False,False,False,111,0.0-263.0,1,625,[0],stimuli/0111111.jpg,262144,prediction_trial,288,image-keyboard-response,
347,Experiment 5,True,1,True,True,001,0,0,True,True,True,True,010,0.0-265.0,0,476,[0],stimuli/0001010.jpg,262745,prediction_trial,290,image-keyboard-response,
347,Experiment 5,False,0,True,True,000,0,0,False,False,False,False,110,0.0-267.0,1,712,[0],stimuli/0000110.jpg,263587,prediction_trial,292,image-keyboard-response,
347,Experiment 5,False,0,False,False,111,2,2,False,False,False,False,111,0.0-269.0,1,1038,[2],stimuli/2111111.jpg,264774,prediction_trial,294,image-keyboard-response,
347,Experiment 5,False,0,True,True,001,0,0,False,False,False,False,111,0.0-271.0,1,522,[0],stimuli/0001111.jpg,265399,prediction_trial,296,image-keyboard-response,
347,Experiment 5,True,1,True,True,000,0,0,True,True,True,True,001,0.0-273.0,0,519,[0],stimuli/0000001.jpg,266020,prediction_trial,298,image-keyboard-response,
347,Experiment 5,True,1,True,True,100,1,1,True,True,True,True,100,0.0-275.0,1,409,[1],stimuli/1100100.jpg,266558,prediction_trial,300,image-keyboard-response,
347,Experiment 5,False,0,True,True,110,2,2,False,False,False,False,111,0.0-277.0,1,522,[2],stimuli/2110111.jpg,267182,prediction_trial,302,image-keyboard-response,
347,Experiment 5,True,1,False,False,110,1,1,False,False,True,True,100,0.0-279.0,1,409,[1],stimuli/1110100.jpg,267719,prediction_trial,304,image-keyboard-response,
347,Experiment 5,True,1,True,True,100,2,2,False,True,False,True,001,0.0-281.0,2,671,[2],stimuli/2100001.jpg,268518,prediction_trial,306,image-keyboard-response,
347,Experiment 5,True,1,True,True,110,2,2,False,True,False,True,001,0.0-283.0,2,432,[2],stimuli/2110001.jpg,269076,prediction_trial,308,image-keyboard-response,
347,Experiment 5,True,1,False,True,100,0,0,False,True,True,True,001,0.0-285.0,0,582,[0],stimuli/0100001.jpg,269806,prediction_trial,310,image-keyboard-response,
347,Experiment 5,True,1,True,True,011,0,0,False,True,False,True,100,0.0-287.0,0,537,[0],stimuli/0011100.jpg,270624,prediction_trial,312,image-keyboard-response,
347,Experiment 5,False,0,True,True,100,2,2,False,False,False,False,111,0.0-289.0,0,712,[2],stimuli/2100111.jpg,271508,prediction_trial,314,image-keyboard-response,
347,Experiment 5,True,1,True,True,001,1,1,True,True,True,True,100,0.0-291.0,1,478,[1],stimuli/1001100.jpg,272089,prediction_trial,316,image-keyboard-response,
355,Experiment 5,True,1,False,True,010,1,1,False,True,True,True,101,0.0-5.0,1,1077,[1],stimuli/1010101.jpg,50135,prediction_trial,30,image-keyboard-response,
355,Experiment 5,False,0,True,True,000,1,1,False,False,False,False,111,0.0-7.0,2,1012,[1],stimuli/1000111.jpg,51543,prediction_trial,32,image-keyboard-response,
355,Experiment 5,True,1,False,False,110,1,1,False,False,True,True,001,0.0-9.0,1,525,[1],stimuli/1110001.jpg,52719,prediction_trial,34,image-keyboard-response,
355,Experiment 5,True,1,True,True,010,0,0,False,True,False,True,100,0.0-11.0,0,741,[0],stimuli/0010100.jpg,53743,prediction_trial,36,image-keyboard-response,
355,Experiment 5,True,1,False,False,111,0,0,False,False,False,False,101,0.0-13.0,0,1044,[0],stimuli/0111101.jpg,55143,prediction_trial,38,image-keyboard-response,
355,Experiment 5,True,1,True,True,001,0,0,False,False,False,False,101,0.0-15.0,0,788,[0],stimuli/0001101.jpg,56471,prediction_trial,40,image-keyboard-response,
355,Experiment 5,False,0,True,True,000,2,2,False,False,False,False,111,0.0-17.0,0,613,[2],stimuli/2000111.jpg,57615,prediction_trial,42,image-keyboard-response,
355,Experiment 5,True,1,True,True,010,2,2,True,True,True,True,010,0.0-19.0,2,589,[2],stimuli/2010010.jpg,58735,prediction_trial,44,image-keyboard-response,
355,Experiment 5,True,1,True,True,011,0,0,True,True,True,True,001,0.0-21.0,0,588,[0],stimuli/0011001.jpg,59623,prediction_trial,46,image-keyboard-response,
355,Experiment 5,True,1,True,True,001,0,0,False,True,False,True,100,0.0-23.0,0,717,[0],stimuli/0001100.jpg,60607,prediction_trial,48,image-keyboard-response,
355,Experiment 5,True,1,True,True,110,2,2,True,True,True,True,100,0.0-25.0,2,525,[2],stimuli/2110100.jpg,61439,prediction_trial,50,image-keyboard-response,
355,Experiment 5,True,1,False,False,111,2,2,False,False,True,True,110,0.0-27.0,2,485,[2],stimuli/2111110.jpg,62143,prediction_trial,52,image-keyboard-response,
355,Experiment 5,False,0,False,True,100,0,0,False,False,False,False,111,0.0-29.0,2,1188,[0],stimuli/0100111.jpg,63543,prediction_trial,54,image-keyboard-response,
355,Experiment 5,True,1,False,False,101,2,2,False,False,False,False,111,0.0-31.0,2,805,[2],stimuli/2101111.jpg,64791,prediction_trial,56,image-keyboard-response,
355,Experiment 5,True,1,False,False,111,0,0,False,False,True,True,000,0.0-33.0,0,509,[0],stimuli/0111000.jpg,65751,prediction_trial,58,image-keyboard-response,
355,Experiment 5,True,1,False,False,111,0,0,False,False,True,True,011,0.0-35.0,0,485,[0],stimuli/0111011.jpg,66447,prediction_trial,60,image-keyboard-response,
355,Experiment 5,True,1,True,True,000,2,2,True,True,True,True,110,0.0-37.0,2,516,[2],stimuli/2000110.jpg,67151,prediction_trial,62,image-keyboard-response,
355,Experiment 5,True,1,False,False,101,2,2,False,False,True,True,000,0.0-39.0,2,509,[2],stimuli/2101000.jpg,67871,prediction_trial,64,image-keyboard-response,
355,Experiment 5,True,1,False,False,101,2,2,False,False,True,True,110,0.0-41.0,2,460,[2],stimuli/2101110.jpg,68495,prediction_trial,66,image-keyboard-response,
355,Experiment 5,True,1,True,True,100,2,2,True,True,True,True,110,0.0-43.0,2,404,[2],stimuli/2100110.jpg,69023,prediction_trial,68,image-keyboard-response,
355,Experiment 5,True,1,False,True,001,2,2,False,True,True,True,100,0.0-45.0,2,412,[2],stimuli/2001100.jpg,69583,prediction_trial,70,image-keyboard-response,
355,Experiment 5,True,1,False,False,111,1,1,False,False,True,True,001,0.0-47.0,1,829,[1],stimuli/1111001.jpg,70535,prediction_trial,72,image-keyboard-response,
355,Experiment 5,True,1,False,False,011,2,2,False,False,True,True,010,0.0-49.0,2,492,[2],stimuli/2011010.jpg,71159,prediction_trial,74,image-keyboard-response,
355,Experiment 5,True,1,True,True,011,0,0,False,False,False,False,101,0.0-51.0,0,557,[0],stimuli/0011101.jpg,71895,prediction_trial,76,image-keyboard-response,
355,Experiment 5,True,1,True,True,010,2,2,True,True,True,True,100,0.0-53.0,2,533,[2],stimuli/2010100.jpg,72727,prediction_trial,78,image-keyboard-response,
355,Experiment 5,False,0,False,False,110,1,1,False,False,False,False,111,0.0-55.0,2,637,[1],stimuli/1110111.jpg,73567,prediction_trial,80,image-keyboard-response,
355,Experiment 5,True,1,True,True,001,1,1,False,True,False,True,010,0.0-57.0,1,853,[1],stimuli/1001010.jpg,74615,prediction_trial,82,image-keyboard-response,
355,Experiment 5,True,1,False,False,111,1,1,False,False,True,True,101,0.0-59.0,1,460,[1],stimuli/1111101.jpg,75447,prediction_trial,84,image-keyboard-response,
355,Experiment 5,True,1,True,True,000,0,0,False,True,False,True,100,0.0-61.0,0,629,[0],stimuli/0000100.jpg,76207,prediction_trial,86,image-keyboard-response,
355,Experiment 5,True,1,False,False,110,0,0,False,False,False,False,101,0.0-63.0,0,853,[0],stimuli/0110101.jpg,77199,prediction_trial,88,image-keyboard-response,
355,Experiment 5,True,1,True,True,100,1,1,True,True,True,True,001,0.0-65.0,1,659,[1],stimuli/1100001.jpg,78079,prediction_trial,90,image-keyboard-response,
355,Experiment 5,True,1,False,False,110,0,0,False,False,False,True,100,0.0-67.0,0,549,[0],stimuli/0110100.jpg,78783,prediction_trial,92,image-keyboard-response,
355,Experiment 5,True,1,False,False,101,0,0,False,False,True,True,011,0.0-69.0,0,645,[0],stimuli/0101011.jpg,79575,prediction_trial,94,image-keyboard-response,
355,Experiment 5,True,1,True,True,000,1,1,True,True,True,True,100,0.0-71.0,1,509,[1],stimuli/1000100.jpg,80223,prediction_trial,96,image-keyboard-response,
355,Experiment 5,True,1,False,False,101,2,2,False,False,True,True,100,0.0-73.0,2,516,[2],stimuli/2101100.jpg,80895,prediction_trial,98,image-keyboard-response,
355,Experiment 5,True,1,False,False,011,1,1,False,False,False,False,011,0.0-75.0,1,734,[1],stimuli/1011011.jpg,81791,prediction_trial,100,image-keyboard-response,
355,Experiment 5,True,1,True,True,010,0,0,True,True,True,True,010,0.0-77.0,0,805,[0],stimuli/0010010.jpg,82743,prediction_trial,102,image-keyboard-response,
355,Experiment 5,False,0,True,True,000,2,2,False,False,False,False,011,0.0-79.0,1,768,[2],stimuli/2000011.jpg,83615,prediction_trial,104,image-keyboard-response,
355,Experiment 5,True,1,True,True,011,0,0,False,False,False,False,111,0.0-81.0,0,797,[0],stimuli/0011111.jpg,84567,prediction_trial,106,image-keyboard-response,
355,Experiment 5,True,1,False,False,111,0,0,False,False,False,True,100,0.0-83.0,0,516,[0],stimuli/0111100.jpg,85319,prediction_trial,108,image-keyboard-response,
355,Experiment 5,True,1,False,False,011,1,1,False,False,True,True,100,0.0-85.0,1,589,[1],stimuli/1011100.jpg,86119,prediction_trial,110,image-keyboard-response,
355,Experiment 5,False,0,False,False,110,0,0,False,False,False,False,110,0.0-87.0,1,900,[0],stimuli/0110110.jpg,87711,prediction_trial,112,image-keyboard-response,
355,Experiment 5,True,1,False,True,010,1,1,False,True,True,True,100,0.0-89.0,1,445,[1],stimuli/1010100.jpg,88551,prediction_trial,114,image-keyboard-response,
355,Experiment 5,True,1,True,True,001,1,1,True,True,True,True,100,0.0-91.0,1,544,[1],stimuli/1001100.jpg,89247,prediction_trial,116,image-keyboard-response,
355,Experiment 5,True,1,True,True,000,2,2,False,True,False,True,001,0.0-93.0,2,621,[2],stimuli/2000001.jpg,89999,prediction_trial,118,image-keyboard-response,
355,Experiment 5,True,1,False,False,111,2,2,False,False,False,False,011,0.0-95.0,2,805,[2],stimuli/2111011.jpg,90983,prediction_trial,120,image-keyboard-response,
355,Experiment 5,True,1,True,True,010,0,0,True,True,True,True,001,0.0-97.0,0,517,[0],stimuli/0010001.jpg,91831,prediction_trial,122,image-keyboard-response,
355,Experiment 5,False,0,False,False,111,0,0,False,False,False,False,111,0.0-99.0,1,557,[0],stimuli/0111111.jpg,92551,prediction_trial,124,image-keyboard-response,
355,Experiment 5,True,1,False,False,111,0,0,False,False,True,True,001,0.0-101.0,0,541,[0],stimuli/0111001.jpg,93375,prediction_trial,126,image-keyboard-response,
355,Experiment 5,True,1,True,True,000,2,2,False,False,False,False,101,0.0-103.0,2,580,[2],stimuli/2000101.jpg,94167,prediction_trial,128,image-keyboard-response,
355,Experiment 5,False,0,True,True,010,2,2,False,False,False,False,111,0.0-105.0,1,765,[2],stimuli/2010111.jpg,95152,prediction_trial,130,image-keyboard-response,
355,Experiment 5,True,1,False,False,111,0,0,False,False,False,False,110,0.0-107.0,0,669,[0],stimuli/0111110.jpg,96088,prediction_trial,132,image-keyboard-response,
355,Experiment 5,False,0,False,False,011,2,2,False,False,False,False,011,0.0-109.0,1,733,[2],stimuli/2011011.jpg,96999,prediction_trial,134,image-keyboard-response,
355,Experiment 5,True,1,False,False,011,1,1,False,False,True,True,000,0.0-111.0,1,540,[1],stimuli/1011000.jpg,97759,prediction_trial,136,image-keyboard-response,
355,Experiment 5,False,0,True,True,101,1,1,False,False,False,False,111,0.0-113.0,0,589,[1],stimuli/1101111.jpg,98495,prediction_trial,138,image-keyboard-response,
355,Experiment 5,True,1,False,False,110,1,1,False,False,False,True,010,0.0-115.0,1,581,[1],stimuli/1110010.jpg,99352,prediction_trial,140,image-keyboard-response,
355,Experiment 5,True,1,True,True,101,1,1,True,True,True,True,100,0.0-117.0,1,653,[1],stimuli/1101100.jpg,100231,prediction_trial,142,image-keyboard-response,
355,Experiment 5,True,1,True,True,001,1,1,False,False,False,False,011,0.0-119.0,1,500,[1],stimuli/1001011.jpg,100887,prediction_trial,144,image-keyboard-response,
355,Experiment 5,True,1,False,False,011,2,2,False,False,True,True,000,0.0-121.0,2,733,[2],stimuli/2011000.jpg,101831,prediction_trial,146,image-keyboard-response,
355,Experiment 5,False,0,True,True,100,1,1,True,True,True,True,100,0.0-123.0,0,541,[1],stimuli/1100100.jpg,102503,prediction_trial,148,image-keyboard-response,
355,Experiment 5,True,1,False,False,110,1,1,False,False,False,False,110,0.0-125.0,1,789,[1],stimuli/1110110.jpg,103455,prediction_trial,150,image-keyboard-response,
355,Experiment 5,True,1,False,False,110,1,1,False,False,True,True,100,0.0-127.0,1,429,[1],stimuli/1110100.jpg,104159,prediction_trial,152,image-keyboard-response,
355,Experiment 5,True,1,False,False,011,1,1,False,False,True,True,101,0.0-129.0,1,492,[1],stimuli/1011101.jpg,104831,prediction_trial,154,image-keyboard-response,
355,Experiment 5,True,1,False,False,111,1,1,False,False,True,True,000,0.0-131.0,1,420,[1],stimuli/1111000.jpg,105407,prediction_trial,156,image-keyboard-response,
355,Experiment 5,True,1,False,True,100,0,0,False,True,True,True,011,0.0-133.0,0,564,[0],stimuli/0100011.jpg,106119,prediction_trial,158,image-keyboard-response,
355,Experiment 5,True,1,False,False,111,2,2,False,False,True,True,100,0.0-135.0,2,485,[2],stimuli/2111100.jpg,106799,prediction_trial,160,image-keyboard-response,
355,Experiment 5,True,1,False,False,101,0,0,False,False,True,True,001,0.0-137.0,0,452,[0],stimuli/0101001.jpg,107391,prediction_trial,162,image-keyboard-response,
355,Experiment 5,True,1,False,False,111,2,2,False,False,True,True,000,0.0-139.0,2,397,[2],stimuli/2111000.jpg,107911,prediction_trial,164,image-keyboard-response,
355,Experiment 5,False,0,False,False,101,0,0,False,False,False,False,101,0.0-141.0,2,773,[0],stimuli/0101101.jpg,108848,prediction_trial,166,image-keyboard-response,
355,Experiment 5,False,0,True,True,110,2,2,False,False,False,False,111,0.0-143.0,1,941,[2],stimuli/2110111.jpg,110000,prediction_trial,168,image-keyboard-response,
355,Experiment 5,True,1,True,True,001,0,0,True,True,True,True,001,0.0-145.0,0,500,[0],stimuli/0001001.jpg,110823,prediction_trial,170,image-keyboard-response,
355,Experiment 5,True,1,True,True,001,0,0,True,True,True,True,000,0.0-147.0,0,501,[0],stimuli/0001000.jpg,111447,prediction_trial,172,image-keyboard-response,
355,Experiment 5,True,1,False,False,011,2,2,False,False,True,True,100,0.0-149.0,2,701,[2],stimuli/2011100.jpg,112264,prediction_trial,174,image-keyboard-response,
355,Experiment 5,False,0,False,False,011,1,1,False,False,False,False,110,0.0-151.0,0,1421,[1],stimuli/1011110.jpg,113832,prediction_trial,176,image-keyboard-response,
355,Experiment 5,False,0,False,True,001,2,2,False,False,False,False,101,0.0-153.0,0,613,[2],stimuli/2001101.jpg,114639,prediction_trial,178,image-keyboard-response,
355,Experiment 5,False,0,True,True,100,1,1,False,False,False,False,111,0.0-155.0,0,1261,[1],stimuli/1100111.jpg,116023,prediction_trial,180,image-keyboard-response,
355,Experiment 5,True,1,True,True,000,1,1,False,False,False,False,011,0.0-157.0,1,493,[1],stimuli/1000011.jpg,117047,prediction_trial,182,image-keyboard-response,
355,Experiment 5,True,1,True,True,101,1,1,False,False,False,False,011,0.0-159.0,1,429,[1],stimuli/1101011.jpg,117815,prediction_trial,184,image-keyboard-response,
355,Experiment 5,True,1,True,True,100,1,1,False,False,False,False,011,0.0-161.0,1,421,[1],stimuli/1100011.jpg,118535,prediction_trial,186,image-keyboard-response,
355,Experiment 5,True,1,True,True,001,1,1,True,True,True,True,001,0.0-163.0,1,557,[1],stimuli/1001001.jpg,119439,prediction_trial,188,image-keyboard-response,
355,Experiment 5,True,1,True,True,010,2,2,False,False,False,False,011,0.0-165.0,2,708,[2],stimuli/2010011.jpg,120351,prediction_trial,190,image-keyboard-response,
355,Experiment 5,False,0,True,True,000,0,0,True,True,True,True,011,0.0-167.0,2,381,[0],stimuli/0000011.jpg,121047,prediction_trial,192,image-keyboard-response,
355,Experiment 5,True,1,True,True,000,2,2,True,True,True,True,010,0.0-169.0,2,564,[2],stimuli/2000010.jpg,122143,prediction_trial,194,image-keyboard-response,
355,Experiment 5,True,1,False,False,110,0,0,False,False,True,True,001,0.0-171.0,0,428,[0],stimuli/0110001.jpg,122735,prediction_trial,196,image-keyboard-response,
355,Experiment 5,True,1,True,True,000,0,0,True,True,True,True,010,0.0-173.0,0,557,[0],stimuli/0000010.jpg,123440,prediction_trial,198,image-keyboard-response,
355,Experiment 5,True,1,True,True,010,0,0,True,True,True,True,000,0.0-175.0,0,453,[0],stimuli/0010000.jpg,124039,prediction_trial,200,image-keyboard-response,
355,Experiment 5,True,1,False,False,110,1,1,False,False,True,True,101,0.0-177.0,1,701,[1],stimuli/1110101.jpg,124895,prediction_trial,202,image-keyboard-response,
355,Experiment 5,False,0,False,False,110,0,0,False,False,False,False,111,0.0-179.0,1,724,[0],stimuli/0110111.jpg,125823,prediction_trial,204,image-keyboard-response,
355,Experiment 5,True,1,False,False,111,1,1,False,False,True,True,100,0.0-181.0,1,469,[1],stimuli/1111100.jpg,126751,prediction_trial,206,image-keyboard-response,
355,Experiment 5,True,1,True,True,001,1,1,True,True,True,True,000,0.0-183.0,1,428,[1],stimuli/1001000.jpg,127319,prediction_trial,208,image-keyboard-response,
355,Experiment 5,False,0,False,True,010,1,1,False,False,False,False,110,0.0-185.0,0,532,[1],stimuli/1010110.jpg,128023,prediction_trial,210,image-keyboard-response,
355,Experiment 5,True,1,False,False,111,1,1,False,False,False,True,010,0.0-187.0,1,452,[1],stimuli/1111010.jpg,128863,prediction_trial,212,image-keyboard-response,
355,Experiment 5,True,1,True,True,100,1,1,True,True,True,True,000,0.0-189.0,1,381,[1],stimuli/1100000.jpg,129575,prediction_trial,214,image-keyboard-response,
355,Experiment 5,True,1,True,True,100,1,1,False,True,False,True,010,0.0-191.0,1,597,[1],stimuli/1100010.jpg,130383,prediction_trial,216,image-keyboard-response,
355,Experiment 5,False,0,False,False,101,0,0,False,False,False,False,111,0.0-193.0,2,797,[0],stimuli/0101111.jpg,131352,prediction_trial,218,image-keyboard-response,
355,Experiment 5,False,0,False,True,010,1,1,False,False,False,False,011,0.0-195.0,2,492,[1],stimuli/1010011.jpg,132319,prediction_trial,220,image-keyboard-response,
355,Experiment 5,True,1,False,True,100,0,0,False,True,True,True,010,0.0-197.0,0,821,[0],stimuli/0100010.jpg,133543,prediction_trial,222,image-keyboard-response,
355,Experiment 5,True,1,False,False,011,2,2,False,False,False,False,101,0.0-199.0,2,557,[2],stimuli/2011101.jpg,134311,prediction_trial,224,image-keyboard-response,
355,Experiment 5,True,1,False,False,101,0,0,False,False,False,True,100,0.0-201.0,0,653,[0],stimuli/0101100.jpg,135335,prediction_trial,226,image-keyboard-response,
355,Experiment 5,False,0,False,False,111,2,2,False,False,False,False,111,0.0-203.0,0,926,[2],stimuli/2111111.jpg,136545,prediction_trial,228,image-keyboard-response,
355,Experiment 5,True,1,False,True,010,1,1,False,True,True,True,000,0.0-205.0,1,477,[1],stimuli/1010000.jpg,137456,prediction_trial,230,image-keyboard-response,
355,Experiment 5,True,1,False,True,001,2,2,False,True,True,True,110,0.0-207.0,2,701,[2],stimuli/2001110.jpg,138351,prediction_trial,232,image-keyboard-response,
355,Experiment 5,True,1,True,True,011,0,0,False,True,False,True,100,0.0-209.0,0,508,[0],stimuli/0011100.jpg,139127,prediction_trial,234,image-keyboard-response,
355,Experiment 5,True,1,False,False,011,1,1,False,False,True,True,001,0.0-211.0,1,557,[1],stimuli/1011001.jpg,139959,prediction_trial,236,image-keyboard-response,
355,Experiment 5,False,0,True,True,010,0,0,False,False,False,False,111,0.0-213.0,1,516,[0],stimuli/0010111.jpg,140703,prediction_trial,238,image-keyboard-response,
355,Experiment 5,True,1,False,False,101,2,2,False,False,True,True,010,0.0-215.0,2,453,[2],stimuli/2101010.jpg,141543,prediction_trial,240,image-keyboard-response,
355,Experiment 5,True,1,False,False,011,1,1,False,False,False,True,010,0.0-217.0,1,652,[1],stimuli/1011010.jpg,142543,prediction_trial,242,image-keyboard-response,
355,Experiment 5,True,1,False,False,111,2,2,False,False,False,False,101,0.0-219.0,2,605,[2],stimuli/2111101.jpg,143447,prediction_trial,244,image-keyboard-response,
355,Experiment 5,True,1,False,True,001,2,2,False,True,True,True,010,0.0-221.0,2,885,[2],stimuli/2001010.jpg,144671,prediction_trial,246,image-keyboard-response,
355,Experiment 5,True,1,True,True,000,1,1,True,True,True,True,101,0.0-223.0,1,549,[1],stimuli/1000101.jpg,145543,prediction_trial,248,image-keyboard-response,
355,Experiment 5,False,0,False,False,110,1,1,False,False,False,False,011,0.0-225.0,2,916,[1],stimuli/1110011.jpg,146824,prediction_trial,250,image-keyboard-response,
355,Experiment 5,True,1,True,True,000,1,1,False,True,False,True,010,0.0-227.0,1,501,[1],stimuli/1000010.jpg,147751,prediction_trial,252,image-keyboard-response,
355,Experiment 5,True,1,True,True,010,2,2,True,True,True,True,110,0.0-229.0,2,733,[2],stimuli/2010110.jpg,148767,prediction_trial,254,image-keyboard-response,
355,Experiment 5,True,1,True,True,001,0,0,True,True,True,True,010,0.0-231.0,0,540,[0],stimuli/0001010.jpg,149559,prediction_trial,256,image-keyboard-response,
355,Experiment 5,False,0,False,True,100,0,0,False,False,False,False,110,0.0-233.0,1,525,[0],stimuli/0100110.jpg,150311,prediction_trial,258,image-keyboard-response,
355,Experiment 5,True,1,True,True,100,2,2,False,False,False,False,011,0.0-235.0,2,596,[2],stimuli/2100011.jpg,151287,prediction_trial,260,image-keyboard-response,
355,Experiment 5,True,1,True,True,001,1,1,True,True,True,True,101,0.0-237.0,1,493,[1],stimuli/1001101.jpg,152128,prediction_trial,262,image-keyboard-response,
355,Experiment 5,True,1,True,True,101,1,1,False,True,False,True,010,0.0-239.0,1,453,[1],stimuli/1101010.jpg,152783,prediction_trial,264,image-keyboard-response,
355,Experiment 5,True,1,True,True,011,0,0,True,True,True,True,010,0.0-241.0,0,572,[0],stimuli/0011010.jpg,153631,prediction_trial,266,image-keyboard-response,
355,Experiment 5,True,1,False,False,101,0,0,False,False,True,True,010,0.0-243.0,0,828,[0],stimuli/0101010.jpg,154671,prediction_trial,268,image-keyboard-response,
355,Experiment 5,True,1,True,True,100,1,1,False,False,False,False,110,0.0-245.0,1,638,[1],stimuli/1100110.jpg,155471,prediction_trial,270,image-keyboard-response,
355,Experiment 5,True,1,False,False,111,2,2,False,False,False,True,001,0.0-247.0,2,556,[2],stimuli/2111001.jpg,156383,prediction_trial,272,image-keyboard-response,
355,Experiment 5,True,1,False,False,110,1,1,False,False,True,True,000,0.0-249.0,1,477,[1],stimuli/1110000.jpg,157159,prediction_trial,274,image-keyboard-response,
355,Experiment 5,True,1,False,False,110,0,0,False,False,True,True,000,0.0-251.0,0,477,[0],stimuli/0110000.jpg,157856,prediction_trial,276,image-keyboard-response,
355,Experiment 5,False,0,False,True,001,2,2,False,False,False,False,111,0.0-253.0,1,501,[2],stimuli/2001111.jpg,158519,prediction_trial,278,image-keyboard-response,
355,Experiment 5,True,1,True,True,100,2,2,False,True,False,True,001,0.0-255.0,2,700,[2],stimuli/2100001.jpg,159638,prediction_trial,280,image-keyboard-response,
355,Experiment 5,False,0,True,True,010,0,0,False,False,False,False,110,0.0-257.0,1,530,[0],stimuli/0010110.jpg,160463,prediction_trial,282,image-keyboard-response,
355,Experiment 5,True,1,True,True,011,0,0,True,True,True,True,000,0.0-259.0,0,477,[0],stimuli/0011000.jpg,161295,prediction_trial,284,image-keyboard-response,
355,Experiment 5,True,1,True,True,100,2,2,False,False,False,False,111,0.0-261.0,2,941,[2],stimuli/2100111.jpg,162439,prediction_trial,286,image-keyboard-response,
355,Experiment 5,True,1,False,True,100,0,0,False,False,False,False,101,0.0-263.0,0,725,[0],stimuli/0100101.jpg,163511,prediction_trial,288,image-keyboard-response,
355,Experiment 5,True,1,True,True,101,1,1,True,True,True,True,101,0.0-265.0,1,596,[1],stimuli/1101101.jpg,164487,prediction_trial,290,image-keyboard-response,
355,Experiment 5,True,1,True,True,110,2,2,False,True,False,True,001,0.0-267.0,2,669,[2],stimuli/2110001.jpg,165351,prediction_trial,292,image-keyboard-response,
355,Experiment 5,True,1,True,True,000,1,1,True,True,True,True,000,0.0-269.0,1,429,[1],stimuli/1000000.jpg,166015,prediction_trial,294,image-keyboard-response,
355,Experiment 5,False,0,False,False,011,2,2,False,False,False,False,111,0.0-271.0,1,1685,[2],stimuli/2011111.jpg,167927,prediction_trial,296,image-keyboard-response,
355,Experiment 5,False,0,True,True,100,2,2,False,False,False,False,101,0.0-273.0,0,749,[2],stimuli/2100101.jpg,169142,prediction_trial,298,image-keyboard-response,
355,Experiment 5,True,1,False,True,100,0,0,False,True,True,True,001,0.0-275.0,0,437,[0],stimuli/0100001.jpg,169991,prediction_trial,300,image-keyboard-response,
355,Experiment 5,True,1,True,True,011,0,0,True,True,True,True,011,0.0-277.0,0,549,[0],stimuli/0011011.jpg,170767,prediction_trial,302,image-keyboard-response,
355,Experiment 5,True,1,False,True,010,1,1,False,True,False,True,010,0.0-279.0,1,589,[1],stimuli/1010010.jpg,171559,prediction_trial,304,image-keyboard-response,
355,Experiment 5,True,1,True,True,000,0,0,True,True,True,True,001,0.0-281.0,0,453,[0],stimuli/0000001.jpg,172287,prediction_trial,306,image-keyboard-response,
355,Experiment 5,True,1,False,True,100,0,0,False,True,False,True,100,0.0-283.0,0,461,[0],stimuli/0100100.jpg,173023,prediction_trial,308,image-keyboard-response,
355,Experiment 5,True,1,True,True,000,0,0,True,True,True,True,000,0.0-285.0,0,381,[0],stimuli/0000000.jpg,173695,prediction_trial,310,image-keyboard-response,
355,Experiment 5,True,1,True,True,010,2,2,False,False,False,False,101,0.0-287.0,2,549,[2],stimuli/2010101.jpg,174551,prediction_trial,312,image-keyboard-response,
355,Experiment 5,True,1,True,True,110,2,2,True,True,True,True,010,0.0-289.0,2,644,[2],stimuli/2110010.jpg,175551,prediction_trial,314,image-keyboard-response,
355,Experiment 5,False,0,True,True,000,0,0,False,False,False,False,110,0.0-291.0,1,638,[0],stimuli/0000110.jpg,176511,prediction_trial,316,image-keyboard-response,
341,Experiment 5,True,1,True,True,010,0,0,True,True,True,True,011,0.0-5.0,0,1503,[0],stimuli/0010011.jpg,301226,prediction_trial,30,image-keyboard-response,
341,Experiment 5,True,1,True,True,100,1,1,True,True,True,True,100,0.0-7.0,1,783,[1],stimuli/1100100.jpg,303354,prediction_trial,32,image-keyboard-response,
341,Experiment 5,True,1,True,True,001,1,1,True,True,True,True,000,0.0-9.0,1,735,[1],stimuli/1001000.jpg,304922,prediction_trial,34,image-keyboard-response,
341,Experiment 5,True,1,True,True,000,0,0,True,True,True,True,010,0.0-11.0,0,703,[0],stimuli/0000010.jpg,306266,prediction_trial,36,image-keyboard-response,
341,Experiment 5,True,1,False,True,010,1,1,False,False,False,False,110,0.0-13.0,1,1839,[1],stimuli/1010110.jpg,308682,prediction_trial,38,image-keyboard-response,
341,Experiment 5,True,1,True,True,010,0,0,True,True,True,True,000,0.0-15.0,0,911,[0],stimuli/0010000.jpg,311194,prediction_trial,40,image-keyboard-response,
341,Experiment 5,True,1,True,True,100,1,1,True,True,True,True,000,0.0-17.0,1,844,[1],stimuli/1100000.jpg,313050,prediction_trial,42,image-keyboard-response,
341,Experiment 5,False,0,False,False,110,1,1,False,False,False,False,111,0.0-19.0,0,1103,[1],stimuli/1110111.jpg,314906,prediction_trial,44,image-keyboard-response,
341,Experiment 5,True,1,True,True,110,2,2,False,False,False,False,111,0.0-21.0,2,2047,[2],stimuli/2110111.jpg,318026,prediction_trial,46,image-keyboard-response,
341,Experiment 5,True,1,False,False,111,2,2,False,False,True,True,110,0.0-23.0,2,959,[2],stimuli/2111110.jpg,319994,prediction_trial,48,image-keyboard-response,
341,Experiment 5,True,1,True,True,011,0,0,False,False,False,False,101,0.0-25.0,0,1503,[0],stimuli/0011101.jpg,322186,prediction_trial,50,image-keyboard-response,
341,Experiment 5,True,1,True,True,001,0,0,True,True,True,True,010,0.0-27.0,0,719,[0],stimuli/0001010.jpg,323850,prediction_trial,52,image-keyboard-response,
341,Experiment 5,True,1,True,True,011,0,0,False,True,False,True,100,0.0-29.0,0,1295,[0],stimuli/0011100.jpg,325706,prediction_trial,54,image-keyboard-response,
341,Experiment 5,True,1,True,True,101,1,1,True,True,True,True,100,0.0-31.0,1,687,[1],stimuli/1101100.jpg,326874,prediction_trial,56,image-keyboard-response,
341,Experiment 5,True,1,True,True,000,1,1,True,True,True,True,000,0.0-33.0,1,607,[1],stimuli/1000000.jpg,327914,prediction_trial,58,image-keyboard-response,
341,Experiment 5,True,1,True,True,000,0,0,False,True,False,True,100,0.0-35.0,0,1087,[0],stimuli/0000100.jpg,329418,prediction_trial,60,image-keyboard-response,
341,Experiment 5,True,1,True,True,101,1,1,False,False,False,False,111,0.0-37.0,1,1791,[1],stimuli/1101111.jpg,332042,prediction_trial,62,image-keyboard-response,
341,Experiment 5,False,0,False,False,110,1,1,False,False,False,False,011,0.0-39.0,2,1151,[1],stimuli/1110011.jpg,333850,prediction_trial,64,image-keyboard-response,
341,Experiment 5,False,0,False,False,101,2,2,False,False,False,False,101,0.0-41.0,0,1183,[2],stimuli/2101101.jpg,336458,prediction_trial,66,image-keyboard-response,
341,Experiment 5,True,1,False,False,110,1,1,False,False,True,True,100,0.0-43.0,1,624,[1],stimuli/1110100.jpg,338170,prediction_trial,68,image-keyboard-response,
341,Experiment 5,True,1,False,False,011,2,2,False,False,True,True,100,0.0-45.0,2,751,[2],stimuli/2011100.jpg,339706,prediction_trial,70,image-keyboard-response,
341,Experiment 5,True,1,False,False,110,1,1,False,False,False,False,110,0.0-47.0,1,863,[1],stimuli/1110110.jpg,341322,prediction_trial,72,image-keyboard-response,
341,Experiment 5,False,0,True,True,010,2,2,False,False,False,False,111,0.0-49.0,0,1999,[2],stimuli/2010111.jpg,343962,prediction_trial,74,image-keyboard-response,
341,Experiment 5,True,1,True,True,100,1,1,False,False,False,False,111,0.0-51.0,1,1072,[1],stimuli/1100111.jpg,346586,prediction_trial,76,image-keyboard-response,
341,Experiment 5,True,1,True,True,001,1,1,True,True,True,True,001,0.0-53.0,1,735,[1],stimuli/1001001.jpg,347962,prediction_trial,78,image-keyboard-response,
341,Experiment 5,True,1,False,False,111,0,0,False,False,True,True,001,0.0-55.0,0,652,[0],stimuli/0111001.jpg,349242,prediction_trial,80,image-keyboard-response,
341,Experiment 5,True,1,True,True,001,0,0,True,True,True,True,001,0.0-57.0,0,640,[0],stimuli/0001001.jpg,350522,prediction_trial,82,image-keyboard-response,
341,Experiment 5,True,1,False,False,111,1,1,False,False,True,True,100,0.0-59.0,1,591,[1],stimuli/1111100.jpg,351738,prediction_trial,84,image-keyboard-response,
341,Experiment 5,True,1,True,True,110,2,2,False,False,False,False,011,0.0-61.0,2,956,[2],stimuli/2110011.jpg,353306,prediction_trial,86,image-keyboard-response,
341,Experiment 5,True,1,True,True,000,2,2,True,True,True,True,110,0.0-63.0,2,703,[2],stimuli/2000110.jpg,354794,prediction_trial,88,image-keyboard-response,
341,Experiment 5,True,1,False,False,111,2,2,False,False,True,True,000,0.0-65.0,2,687,[2],stimuli/2111000.jpg,356106,prediction_trial,90,image-keyboard-response,
341,Experiment 5,True,1,True,True,101,1,1,True,True,True,True,101,0.0-67.0,1,591,[1],stimuli/1101101.jpg,357290,prediction_trial,92,image-keyboard-response,
341,Experiment 5,True,1,False,True,001,2,2,False,True,True,True,000,0.0-69.0,2,607,[2],stimuli/2001000.jpg,358586,prediction_trial,94,image-keyboard-response,
341,Experiment 5,True,1,True,True,010,2,2,True,True,True,True,010,0.0-71.0,2,879,[2],stimuli/2010010.jpg,360154,prediction_trial,96,image-keyboard-response,
341,Experiment 5,True,1,True,True,001,1,1,False,True,False,True,010,0.0-73.0,1,1135,[1],stimuli/1001010.jpg,361818,prediction_trial,98,image-keyboard-response,
341,Experiment 5,True,1,False,False,111,0,0,False,False,False,False,110,0.0-75.0,0,1839,[0],stimuli/0111110.jpg,364154,prediction_trial,100,image-keyboard-response,
341,Experiment 5,False,0,False,False,011,2,2,False,False,False,False,111,0.0-77.0,1,1007,[2],stimuli/2011111.jpg,365706,prediction_trial,102,image-keyboard-response,
341,Experiment 5,True,1,True,True,100,1,1,True,True,True,True,001,0.0-79.0,1,671,[1],stimuli/1100001.jpg,367274,prediction_trial,104,image-keyboard-response,
341,Experiment 5,True,1,True,True,000,2,2,False,False,False,False,111,0.0-81.0,2,863,[2],stimuli/2000111.jpg,368874,prediction_trial,106,image-keyboard-response,
341,Experiment 5,False,0,False,False,111,2,2,False,False,False,False,111,0.0-83.0,1,879,[2],stimuli/2111111.jpg,370506,prediction_trial,108,image-keyboard-response,
341,Experiment 5,True,1,True,True,100,2,2,False,True,False,True,001,0.0-85.0,2,1359,[2],stimuli/2100001.jpg,372730,prediction_trial,110,image-keyboard-response,
341,Experiment 5,False,0,True,True,100,2,2,False,False,False,False,011,0.0-87.0,1,1055,[2],stimuli/2100011.jpg,374442,prediction_trial,112,image-keyboard-response,
341,Experiment 5,True,1,False,False,111,1,1,False,False,True,True,101,0.0-89.0,1,623,[1],stimuli/1111101.jpg,375818,prediction_trial,114,image-keyboard-response,
341,Experiment 5,True,1,True,True,011,0,0,True,True,True,True,010,0.0-91.0,0,671,[0],stimuli/0011010.jpg,377002,prediction_trial,116,image-keyboard-response,
341,Experiment 5,True,1,False,False,101,2,2,False,False,True,True,010,0.0-93.0,2,575,[2],stimuli/2101010.jpg,378218,prediction_trial,118,image-keyboard-response,
341,Experiment 5,True,1,True,True,000,2,2,False,True,False,True,001,0.0-95.0,2,815,[2],stimuli/2000001.jpg,379642,prediction_trial,120,image-keyboard-response,
341,Experiment 5,True,1,True,True,100,2,2,True,True,True,True,000,0.0-97.0,2,767,[2],stimuli/2100000.jpg,380842,prediction_trial,122,image-keyboard-response,
341,Experiment 5,True,1,False,False,011,1,1,False,False,True,True,101,0.0-99.0,1,604,[1],stimuli/1011101.jpg,382138,prediction_trial,124,image-keyboard-response,
341,Experiment 5,False,0,True,True,000,0,0,False,False,False,False,111,0.0-101.0,1,1535,[0],stimuli/0000111.jpg,384250,prediction_trial,126,image-keyboard-response,
341,Experiment 5,False,0,True,True,000,2,2,False,False,False,False,101,0.0-103.0,0,927,[2],stimuli/2000101.jpg,385914,prediction_trial,128,image-keyboard-response,
341,Experiment 5,True,1,False,False,110,0,0,False,False,True,True,001,0.0-105.0,0,783,[0],stimuli/0110001.jpg,387370,prediction_trial,130,image-keyboard-response,
341,Experiment 5,False,0,False,False,011,1,1,False,False,False,False,011,0.0-107.0,2,847,[1],stimuli/1011011.jpg,388842,prediction_trial,132,image-keyboard-response,
341,Experiment 5,False,0,True,True,011,0,0,False,False,False,False,111,0.0-109.0,2,1311,[0],stimuli/0011111.jpg,390794,prediction_trial,134,image-keyboard-response,
341,Experiment 5,True,1,False,True,001,2,2,False,True,True,True,100,0.0-111.0,2,751,[2],stimuli/2001100.jpg,392218,prediction_trial,136,image-keyboard-response,
341,Experiment 5,True,1,True,True,001,0,0,False,True,False,True,100,0.0-113.0,0,1391,[0],stimuli/0001100.jpg,394154,prediction_trial,138,image-keyboard-response,
341,Experiment 5,False,0,False,True,100,0,0,False,False,False,False,110,0.0-115.0,1,799,[0],stimuli/0100110.jpg,395594,prediction_trial,140,image-keyboard-response,
341,Experiment 5,True,1,True,True,100,2,2,True,True,True,True,100,0.0-117.0,2,671,[2],stimuli/2100100.jpg,396858,prediction_trial,142,image-keyboard-response,
341,Experiment 5,True,1,True,True,011,0,0,True,True,True,True,000,0.0-119.0,0,623,[0],stimuli/0011000.jpg,398074,prediction_trial,144,image-keyboard-response,
341,Experiment 5,True,1,True,True,001,1,1,True,True,True,True,100,0.0-121.0,1,559,[1],stimuli/1001100.jpg,399130,prediction_trial,146,image-keyboard-response,
341,Experiment 5,True,1,True,True,100,2,2,True,True,True,True,110,0.0-123.0,2,591,[2],stimuli/2100110.jpg,400474,prediction_trial,148,image-keyboard-response,
341,Experiment 5,False,0,False,False,110,0,0,False,False,False,False,111,0.0-125.0,1,847,[0],stimuli/0110111.jpg,401914,prediction_trial,150,image-keyboard-response,
341,Experiment 5,True,1,True,True,010,0,0,False,True,False,True,100,0.0-127.0,0,879,[0],stimuli/0010100.jpg,403354,prediction_trial,152,image-keyboard-response,
341,Experiment 5,True,1,True,True,110,2,2,True,True,True,True,110,0.0-129.0,2,623,[2],stimuli/2110110.jpg,404378,prediction_trial,154,image-keyboard-response,
341,Experiment 5,True,1,True,True,001,1,1,False,False,False,False,011,0.0-131.0,1,1023,[1],stimuli/1001011.jpg,406026,prediction_trial,156,image-keyboard-response,
341,Experiment 5,False,0,False,True,010,1,1,False,False,False,False,111,0.0-133.0,0,847,[1],stimuli/1010111.jpg,407498,prediction_trial,158,image-keyboard-response,
341,Experiment 5,True,1,False,True,010,1,1,False,True,True,True,101,0.0-135.0,1,575,[1],stimuli/1010101.jpg,408714,prediction_trial,160,image-keyboard-response,
341,Experiment 5,False,0,True,True,001,1,1,False,False,False,False,111,0.0-137.0,2,1423,[1],stimuli/1001111.jpg,410682,prediction_trial,162,image-keyboard-response,
341,Experiment 5,True,1,False,False,111,2,2,False,False,True,True,100,0.0-139.0,2,575,[2],stimuli/2111100.jpg,411929,prediction_trial,164,image-keyboard-response,
341,Experiment 5,True,1,True,True,010,2,2,True,True,True,True,100,0.0-141.0,2,703,[2],stimuli/2010100.jpg,413386,prediction_trial,166,image-keyboard-response,
341,Experiment 5,True,1,False,False,110,1,1,False,False,True,True,000,0.0-143.0,1,623,[1],stimuli/1110000.jpg,414666,prediction_trial,168,image-keyboard-response,
341,Experiment 5,True,1,True,True,100,1,1,True,True,True,True,101,0.0-145.0,1,924,[1],stimuli/1100101.jpg,416202,prediction_trial,170,image-keyboard-response,
341,Experiment 5,True,1,False,False,101,0,0,False,False,False,True,100,0.0-147.0,0,879,[0],stimuli/0101100.jpg,419290,prediction_trial,172,image-keyboard-response,
341,Experiment 5,True,1,False,False,111,0,0,False,False,False,False,101,0.0-149.0,0,959,[0],stimuli/0111101.jpg,420938,prediction_trial,174,image-keyboard-response,
341,Experiment 5,True,1,True,True,000,1,1,False,False,False,False,110,0.0-151.0,1,847,[1],stimuli/1000110.jpg,422570,prediction_trial,176,image-keyboard-response,
341,Experiment 5,True,1,True,True,000,1,1,True,True,True,True,100,0.0-153.0,1,607,[1],stimuli/1000100.jpg,423818,prediction_trial,178,image-keyboard-response,
341,Experiment 5,True,1,False,False,011,2,2,False,False,False,False,101,0.0-155.0,2,991,[2],stimuli/2011101.jpg,425434,prediction_trial,180,image-keyboard-response,
341,Experiment 5,True,1,False,False,101,0,0,False,False,False,False,110,0.0-157.0,0,1007,[0],stimuli/0101110.jpg,427194,prediction_trial,182,image-keyboard-response,
341,Experiment 5,True,1,True,True,100,1,1,False,False,False,False,011,0.0-159.0,1,783,[1],stimuli/1100011.jpg,428634,prediction_trial,184,image-keyboard-response,
341,Experiment 5,True,1,True,True,000,2,2,False,False,False,False,011,0.0-161.0,2,864,[2],stimuli/2000011.jpg,430138,prediction_trial,186,image-keyboard-response,
341,Experiment 5,True,1,False,False,101,2,2,False,False,True,True,000,0.0-163.0,2,831,[2],stimuli/2101000.jpg,431610,prediction_trial,188,image-keyboard-response,
341,Experiment 5,True,1,False,False,111,0,0,False,False,False,True,100,0.0-165.0,0,815,[0],stimuli/0111100.jpg,433114,prediction_trial,190,image-keyboard-response,
341,Experiment 5,True,1,False,False,110,0,0,False,False,True,True,010,0.0-167.0,0,610,[0],stimuli/0110010.jpg,434285,prediction_trial,192,image-keyboard-response,
341,Experiment 5,True,1,True,True,100,1,1,False,True,False,True,010,0.0-169.0,1,687,[1],stimuli/1100010.jpg,435610,prediction_trial,194,image-keyboard-response,
341,Experiment 5,True,1,True,True,010,2,2,False,True,False,True,001,0.0-171.0,2,911,[2],stimuli/2010001.jpg,437034,prediction_trial,196,image-keyboard-response,
341,Experiment 5,True,1,True,True,001,0,0,True,True,True,True,000,0.0-173.0,0,591,[0],stimuli/0001000.jpg,438202,prediction_trial,198,image-keyboard-response,
341,Experiment 5,True,1,False,False,110,1,1,False,False,True,True,001,0.0-175.0,1,543,[1],stimuli/1110001.jpg,439338,prediction_trial,200,image-keyboard-response,
341,Experiment 5,True,1,True,True,000,1,1,True,True,True,True,001,0.0-177.0,1,527,[1],stimuli/1000001.jpg,440378,prediction_trial,202,image-keyboard-response,
341,Experiment 5,True,1,False,True,100,0,0,False,True,True,True,000,0.0-179.0,0,607,[0],stimuli/0100000.jpg,441466,prediction_trial,204,image-keyboard-response,
341,Experiment 5,False,0,True,True,000,0,0,False,False,False,False,110,0.0-181.0,1,1039,[0],stimuli/0000110.jpg,443050,prediction_trial,206,image-keyboard-response,
341,Experiment 5,True,1,True,True,000,1,1,False,True,False,True,010,0.0-183.0,1,720,[1],stimuli/1000010.jpg,444474,prediction_trial,208,image-keyboard-response,
341,Experiment 5,True,1,False,False,111,1,1,False,False,True,True,001,0.0-185.0,1,623,[1],stimuli/1111001.jpg,445626,prediction_trial,210,image-keyboard-response,
341,Experiment 5,True,1,True,True,000,0,0,True,True,True,True,011,0.0-187.0,0,527,[0],stimuli/0000011.jpg,446570,prediction_trial,212,image-keyboard-response,
341,Experiment 5,False,0,False,False,011,1,1,False,False,False,False,110,0.0-189.0,0,1488,[1],stimuli/1011110.jpg,448490,prediction_trial,214,image-keyboard-response,
341,Experiment 5,True,1,True,True,110,2,2,False,True,False,True,001,0.0-191.0,2,639,[2],stimuli/2110001.jpg,449754,prediction_trial,216,image-keyboard-response,
341,Experiment 5,False,0,True,True,001,0,0,False,False,False,False,110,0.0-193.0,1,783,[0],stimuli/0001110.jpg,451066,prediction_trial,218,image-keyboard-response,
341,Experiment 5,True,1,False,False,111,2,2,False,False,True,True,010,0.0-195.0,2,719,[2],stimuli/2111010.jpg,452362,prediction_trial,220,image-keyboard-response,
341,Experiment 5,True,1,True,True,101,1,1,True,True,True,True,001,0.0-197.0,1,447,[1],stimuli/1101001.jpg,453418,prediction_trial,222,image-keyboard-response,
341,Experiment 5,True,1,False,False,101,0,0,False,False,False,False,111,0.0-199.0,0,831,[0],stimuli/0101111.jpg,454826,prediction_trial,224,image-keyboard-response,
341,Experiment 5,True,1,False,True,010,1,1,False,True,True,True,100,0.0-201.0,1,543,[1],stimuli/1010100.jpg,455946,prediction_trial,226,image-keyboard-response,
341,Experiment 5,False,0,True,True,101,1,1,False,False,False,False,011,0.0-203.0,2,831,[1],stimuli/1101011.jpg,457306,prediction_trial,228,image-keyboard-response,
341,Experiment 5,False,0,True,True,011,0,0,False,False,False,False,110,0.0-205.0,1,799,[0],stimuli/0011110.jpg,458698,prediction_trial,230,image-keyboard-response,
341,Experiment 5,True,1,False,False,111,0,0,False,False,True,True,011,0.0-207.0,0,559,[0],stimuli/0111011.jpg,459866,prediction_trial,232,image-keyboard-response,
341,Experiment 5,False,0,False,False,111,2,2,False,False,False,False,011,0.0-209.0,1,575,[2],stimuli/2111011.jpg,460954,prediction_trial,234,image-keyboard-response,
341,Experiment 5,True,1,True,True,000,1,1,False,False,False,False,111,0.0-211.0,1,863,[1],stimuli/1000111.jpg,462442,prediction_trial,236,image-keyboard-response,
341,Experiment 5,True,1,False,False,111,0,0,False,False,True,True,010,0.0-213.0,0,511,[0],stimuli/0111010.jpg,463562,prediction_trial,238,image-keyboard-response,
341,Experiment 5,True,1,True,True,010,0,0,True,True,True,True,001,0.0-215.0,0,575,[0],stimuli/0010001.jpg,464714,prediction_trial,240,image-keyboard-response,
341,Experiment 5,True,1,False,False,101,2,2,False,False,True,True,110,0.0-217.0,2,527,[2],stimuli/2101110.jpg,465802,prediction_trial,242,image-keyboard-response,
341,Experiment 5,False,0,True,True,100,2,2,False,False,False,False,111,0.0-219.0,1,959,[2],stimuli/2100111.jpg,467290,prediction_trial,244,image-keyboard-response,
341,Experiment 5,True,1,True,True,110,2,2,True,True,True,True,000,0.0-221.0,2,687,[2],stimuli/2110000.jpg,468490,prediction_trial,246,image-keyboard-response,
341,Experiment 5,True,1,False,False,110,1,1,False,False,True,True,101,0.0-223.0,1,495,[1],stimuli/1110101.jpg,469722,prediction_trial,248,image-keyboard-response,
341,Experiment 5,True,1,True,True,000,0,0,False,False,False,False,101,0.0-225.0,0,815,[0],stimuli/0000101.jpg,471002,prediction_trial,250,image-keyboard-response,
341,Experiment 5,False,0,True,True,110,2,2,False,False,False,False,101,0.0-227.0,0,1519,[2],stimuli/2110101.jpg,473354,prediction_trial,252,image-keyboard-response,
341,Experiment 5,True,1,False,True,010,1,1,False,True,True,True,000,0.0-229.0,1,479,[1],stimuli/1010000.jpg,474554,prediction_trial,254,image-keyboard-response,
341,Experiment 5,False,0,False,True,100,0,0,False,False,False,False,111,0.0-231.0,2,1103,[0],stimuli/0100111.jpg,476394,prediction_trial,256,image-keyboard-response,
341,Experiment 5,True,1,True,True,100,2,2,False,False,False,False,101,0.0-233.0,2,1967,[2],stimuli/2100101.jpg,478922,prediction_trial,258,image-keyboard-response,
341,Experiment 5,True,1,True,True,000,0,0,True,True,True,True,000,0.0-235.0,0,608,[0],stimuli/0000000.jpg,480011,prediction_trial,260,image-keyboard-response,
341,Experiment 5,True,1,True,True,010,0,0,False,False,False,False,101,0.0-237.0,0,1775,[0],stimuli/0010101.jpg,482442,prediction_trial,262,image-keyboard-response,
341,Experiment 5,True,1,True,True,010,2,2,True,True,True,True,000,0.0-239.0,2,543,[2],stimuli/2010000.jpg,483546,prediction_trial,264,image-keyboard-response,
341,Experiment 5,True,1,False,True,100,0,0,False,True,False,True,100,0.0-241.0,0,1071,[0],stimuli/0100100.jpg,485131,prediction_trial,266,image-keyboard-response,
341,Experiment 5,True,1,False,False,011,1,1,False,False,False,False,111,0.0-243.0,1,735,[1],stimuli/1011111.jpg,486299,prediction_trial,268,image-keyboard-response,
341,Experiment 5,True,1,False,False,101,2,2,False,False,True,True,100,0.0-245.0,2,559,[2],stimuli/2101100.jpg,487483,prediction_trial,270,image-keyboard-response,
341,Experiment 5,True,1,True,True,011,0,0,True,True,True,True,001,0.0-247.0,0,719,[0],stimuli/0011001.jpg,488811,prediction_trial,272,image-keyboard-response,
341,Experiment 5,False,0,False,False,011,2,2,False,False,False,False,011,0.0-249.0,1,767,[2],stimuli/2011011.jpg,490155,prediction_trial,274,image-keyboard-response,
341,Experiment 5,True,1,True,True,100,1,1,False,False,False,False,110,0.0-251.0,1,1104,[1],stimuli/1100110.jpg,491931,prediction_trial,276,image-keyboard-response,
341,Experiment 5,True,1,False,False,101,0,0,False,False,True,True,000,0.0-253.0,0,623,[0],stimuli/0101000.jpg,493034,prediction_trial,278,image-keyboard-response,
341,Experiment 5,True,1,False,False,111,2,2,False,False,False,False,101,0.0-255.0,2,988,[2],stimuli/2111101.jpg,495050,prediction_trial,280,image-keyboard-response,
341,Experiment 5,True,1,False,False,011,1,1,False,False,True,True,100,0.0-257.0,1,591,[1],stimuli/1011100.jpg,496267,prediction_trial,282,image-keyboard-response,
341,Experiment 5,True,1,True,True,000,0,0,True,True,True,True,001,0.0-259.0,0,687,[0],stimuli/0000001.jpg,497418,prediction_trial,284,image-keyboard-response,
341,Experiment 5,True,1,False,True,001,2,2,False,True,False,True,001,0.0-261.0,2,783,[2],stimuli/2001001.jpg,498619,prediction_trial,286,image-keyboard-response,
341,Experiment 5,True,1,False,False,111,1,1,False,False,True,True,000,0.0-263.0,1,559,[1],stimuli/1111000.jpg,499611,prediction_trial,288,image-keyboard-response,
341,Experiment 5,False,0,False,False,101,2,2,False,False,False,False,011,0.0-265.0,1,959,[2],stimuli/2101011.jpg,501146,prediction_trial,290,image-keyboard-response,
341,Experiment 5,True,1,False,False,110,0,0,False,False,True,True,000,0.0-267.0,0,623,[0],stimuli/0110000.jpg,502267,prediction_trial,292,image-keyboard-response,
341,Experiment 5,True,1,True,True,000,2,2,True,True,True,True,000,0.0-269.0,2,639,[2],stimuli/2000000.jpg,503434,prediction_trial,294,image-keyboard-response,
341,Experiment 5,True,1,True,True,001,0,0,False,False,False,False,101,0.0-271.0,0,1087,[0],stimuli/0001101.jpg,505130,prediction_trial,296,image-keyboard-response,
341,Experiment 5,True,1,False,False,011,2,2,False,False,True,True,110,0.0-273.0,2,623,[2],stimuli/2011110.jpg,506203,prediction_trial,298,image-keyboard-response,
341,Experiment 5,True,1,True,True,010,2,2,True,True,True,True,110,0.0-275.0,2,588,[2],stimuli/2010110.jpg,507370,prediction_trial,300,image-keyboard-response,
341,Experiment 5,True,1,True,True,100,2,2,True,True,True,True,010,0.0-277.0,2,687,[2],stimuli/2100010.jpg,508570,prediction_trial,302,image-keyboard-response,
341,Experiment 5,False,0,False,False,101,2,2,False,False,False,False,111,0.0-279.0,1,783,[2],stimuli/2101111.jpg,509819,prediction_trial,304,image-keyboard-response,
341,Experiment 5,True,1,False,False,111,0,0,False,False,True,True,000,0.0-281.0,0,575,[0],stimuli/0111000.jpg,511179,prediction_trial,306,image-keyboard-response,
341,Experiment 5,True,1,False,False,011,2,2,False,False,True,True,000,0.0-283.0,2,511,[2],stimuli/2011000.jpg,512234,prediction_trial,308,image-keyboard-response,
341,Experiment 5,True,1,False,True,100,0,0,False,True,True,True,010,0.0-285.0,0,559,[0],stimuli/0100010.jpg,513403,prediction_trial,310,image-keyboard-response,
341,Experiment 5,True,1,False,False,101,2,2,False,False,False,True,001,0.0-287.0,2,719,[2],stimuli/2101001.jpg,514698,prediction_trial,312,image-keyboard-response,
341,Experiment 5,True,1,True,True,001,0,0,False,False,False,False,111,0.0-289.0,0,783,[0],stimuli/0001111.jpg,516010,prediction_trial,314,image-keyboard-response,
341,Experiment 5,True,1,True,True,010,2,2,False,False,False,False,101,0.0-291.0,2,895,[2],stimuli/2010101.jpg,517466,prediction_trial,316,image-keyboard-response,
361,Experiment 5,True,1,False,True,001,2,2,False,True,False,True,001,0.0-5.0,2,1110,[2],stimuli/2001001.jpg,69608,prediction_trial,30,image-keyboard-response,
361,Experiment 5,True,1,True,True,000,2,2,False,False,False,False,111,0.0-7.0,2,1860,[2],stimuli/2000111.jpg,71816,prediction_trial,32,image-keyboard-response,
361,Experiment 5,True,1,False,False,111,0,0,False,False,False,False,110,0.0-9.0,0,3863,[0],stimuli/0111110.jpg,76122,prediction_trial,34,image-keyboard-response,
361,Experiment 5,True,1,False,False,111,0,0,False,False,True,True,010,0.0-11.0,0,1694,[0],stimuli/0111010.jpg,78246,prediction_trial,36,image-keyboard-response,
361,Experiment 5,False,0,False,True,100,0,0,False,False,False,False,110,0.0-13.0,1,3651,[0],stimuli/0100110.jpg,82261,prediction_trial,38,image-keyboard-response,
361,Experiment 5,True,1,False,True,010,1,1,False,True,True,True,000,0.0-15.0,1,653,[1],stimuli/1010000.jpg,83909,prediction_trial,40,image-keyboard-response,
361,Experiment 5,True,1,True,True,100,2,2,True,True,True,True,110,0.0-17.0,2,914,[2],stimuli/2100110.jpg,85200,prediction_trial,42,image-keyboard-response,
361,Experiment 5,True,1,True,True,000,0,0,True,True,True,True,010,0.0-19.0,0,593,[0],stimuli/0000010.jpg,86128,prediction_trial,44,image-keyboard-response,
361,Experiment 5,False,0,True,True,101,1,1,False,False,False,False,110,0.0-21.0,0,2508,[1],stimuli/1101110.jpg,89000,prediction_trial,46,image-keyboard-response,
361,Experiment 5,True,1,False,False,111,2,2,False,False,True,True,110,0.0-23.0,2,794,[2],stimuli/2111110.jpg,90510,prediction_trial,48,image-keyboard-response,
361,Experiment 5,False,0,False,False,111,2,2,False,False,False,False,011,0.0-25.0,1,810,[2],stimuli/2111011.jpg,91647,prediction_trial,50,image-keyboard-response,
361,Experiment 5,True,1,False,False,111,0,0,False,False,True,True,001,0.0-27.0,0,697,[0],stimuli/0111001.jpg,92847,prediction_trial,52,image-keyboard-response,
361,Experiment 5,True,1,False,False,111,0,0,False,False,False,True,100,0.0-29.0,0,900,[0],stimuli/0111100.jpg,94095,prediction_trial,54,image-keyboard-response,
361,Experiment 5,False,0,True,True,000,2,2,False,False,False,False,011,0.0-31.0,1,1565,[2],stimuli/2000011.jpg,95992,prediction_trial,56,image-keyboard-response,
361,Experiment 5,True,1,True,True,100,1,1,True,True,True,True,100,0.0-33.0,1,668,[1],stimuli/1100100.jpg,97127,prediction_trial,58,image-keyboard-response,
361,Experiment 5,True,1,False,False,111,1,1,False,False,True,True,001,0.0-35.0,1,678,[1],stimuli/1111001.jpg,98127,prediction_trial,60,image-keyboard-response,
361,Experiment 5,True,1,True,True,101,1,1,True,True,True,True,101,0.0-37.0,1,595,[1],stimuli/1101101.jpg,99079,prediction_trial,62,image-keyboard-response,
361,Experiment 5,True,1,True,True,100,2,2,False,False,False,False,101,0.0-39.0,2,1346,[2],stimuli/2100101.jpg,100838,prediction_trial,64,image-keyboard-response,
361,Experiment 5,True,1,False,False,101,2,2,False,False,False,True,001,0.0-41.0,2,1114,[2],stimuli/2101001.jpg,102456,prediction_trial,66,image-keyboard-response,
361,Experiment 5,True,1,True,True,101,1,1,True,True,True,True,100,0.0-43.0,1,637,[1],stimuli/1101100.jpg,103430,prediction_trial,68,image-keyboard-response,
361,Experiment 5,True,1,False,False,011,2,2,False,False,False,False,111,0.0-45.0,2,2562,[2],stimuli/2011111.jpg,106342,prediction_trial,70,image-keyboard-response,
361,Experiment 5,True,1,True,True,001,0,0,False,False,False,False,101,0.0-47.0,0,2276,[0],stimuli/0001101.jpg,109524,prediction_trial,72,image-keyboard-response,
361,Experiment 5,True,1,True,True,110,2,2,True,True,True,True,110,0.0-49.0,2,684,[2],stimuli/2110110.jpg,110905,prediction_trial,74,image-keyboard-response,
361,Experiment 5,True,1,True,True,100,1,1,False,False,False,False,111,0.0-51.0,1,3437,[1],stimuli/1100111.jpg,114720,prediction_trial,76,image-keyboard-response,
361,Experiment 5,True,1,True,True,000,1,1,True,True,True,True,001,0.0-53.0,1,622,[1],stimuli/1000001.jpg,115953,prediction_trial,78,image-keyboard-response,
361,Experiment 5,True,1,True,True,000,0,0,False,False,False,False,110,0.0-55.0,0,1460,[0],stimuli/0000110.jpg,117802,prediction_trial,80,image-keyboard-response,
361,Experiment 5,True,1,True,True,000,1,1,False,True,False,True,010,0.0-57.0,1,883,[1],stimuli/1000010.jpg,119302,prediction_trial,82,image-keyboard-response,
361,Experiment 5,True,1,False,False,111,2,2,False,False,True,True,000,0.0-59.0,2,643,[2],stimuli/2111000.jpg,120294,prediction_trial,84,image-keyboard-response,
361,Experiment 5,False,0,False,True,010,1,1,False,False,False,False,110,0.0-61.0,0,1971,[1],stimuli/1010110.jpg,122670,prediction_trial,86,image-keyboard-response,
361,Experiment 5,True,1,True,True,100,1,1,True,True,True,True,001,0.0-63.0,1,686,[1],stimuli/1100001.jpg,124064,prediction_trial,88,image-keyboard-response,
361,Experiment 5,True,1,False,False,101,2,2,False,False,True,True,000,0.0-65.0,2,581,[2],stimuli/2101000.jpg,125046,prediction_trial,90,image-keyboard-response,
361,Experiment 5,True,1,False,False,101,0,0,False,False,False,True,100,0.0-67.0,0,667,[0],stimuli/0101100.jpg,126142,prediction_trial,92,image-keyboard-response,
361,Experiment 5,True,1,False,False,101,0,0,False,False,False,False,110,0.0-69.0,0,995,[0],stimuli/0101110.jpg,127485,prediction_trial,94,image-keyboard-response,
361,Experiment 5,False,0,True,True,001,0,0,False,False,False,False,110,0.0-71.0,1,1270,[0],stimuli/0001110.jpg,129207,prediction_trial,96,image-keyboard-response,
361,Experiment 5,True,1,False,False,110,1,1,False,False,False,True,010,0.0-73.0,1,890,[1],stimuli/1110010.jpg,130655,prediction_trial,98,image-keyboard-response,
361,Experiment 5,True,1,True,True,100,1,1,False,False,False,False,110,0.0-75.0,1,1458,[1],stimuli/1100110.jpg,132486,prediction_trial,100,image-keyboard-response,
361,Experiment 5,True,1,True,True,110,2,2,False,True,False,True,001,0.0-77.0,2,723,[2],stimuli/2110001.jpg,133814,prediction_trial,102,image-keyboard-response,
361,Experiment 5,False,0,False,False,011,1,1,False,False,False,False,110,0.0-79.0,0,1341,[1],stimuli/1011110.jpg,135552,prediction_trial,104,image-keyboard-response,
361,Experiment 5,True,1,True,True,000,2,2,True,True,True,True,000,0.0-81.0,2,646,[2],stimuli/2000000.jpg,136743,prediction_trial,106,image-keyboard-response,
361,Experiment 5,True,1,False,False,110,1,1,False,False,True,True,001,0.0-83.0,1,626,[1],stimuli/1110001.jpg,137840,prediction_trial,108,image-keyboard-response,
361,Experiment 5,True,1,True,True,110,2,2,True,True,True,True,100,0.0-85.0,2,562,[2],stimuli/2110100.jpg,138832,prediction_trial,110,image-keyboard-response,
361,Experiment 5,False,0,False,False,011,2,2,False,False,False,False,011,0.0-87.0,1,867,[2],stimuli/2011011.jpg,140134,prediction_trial,112,image-keyboard-response,
361,Experiment 5,True,1,True,True,000,2,2,True,True,True,True,010,0.0-89.0,2,704,[2],stimuli/2000010.jpg,141295,prediction_trial,114,image-keyboard-response,
361,Experiment 5,True,1,False,True,100,0,0,False,True,False,True,100,0.0-91.0,0,651,[0],stimuli/0100100.jpg,142318,prediction_trial,116,image-keyboard-response,
361,Experiment 5,True,1,True,True,001,0,0,True,True,True,True,001,0.0-93.0,0,699,[0],stimuli/0001001.jpg,143447,prediction_trial,118,image-keyboard-response,
361,Experiment 5,True,1,True,True,000,2,2,True,True,True,True,110,0.0-95.0,2,611,[2],stimuli/2000110.jpg,144421,prediction_trial,120,image-keyboard-response,
361,Experiment 5,False,0,False,True,100,0,0,False,False,False,False,111,0.0-97.0,2,1429,[0],stimuli/0100111.jpg,146247,prediction_trial,122,image-keyboard-response,
361,Experiment 5,True,1,False,False,110,0,0,False,False,False,True,100,0.0-99.0,0,686,[0],stimuli/0110100.jpg,147567,prediction_trial,124,image-keyboard-response,
361,Experiment 5,True,1,False,True,010,1,1,False,True,False,True,010,0.0-101.0,1,884,[1],stimuli/1010010.jpg,148831,prediction_trial,126,image-keyboard-response,
361,Experiment 5,False,0,True,True,000,2,2,False,False,False,False,101,0.0-103.0,0,1332,[2],stimuli/2000101.jpg,150537,prediction_trial,128,image-keyboard-response,
361,Experiment 5,True,1,False,False,110,0,0,False,False,False,False,110,0.0-105.0,0,863,[0],stimuli/0110110.jpg,151873,prediction_trial,130,image-keyboard-response,
361,Experiment 5,True,1,True,True,001,1,1,True,True,True,True,101,0.0-107.0,1,615,[1],stimuli/1001101.jpg,152928,prediction_trial,132,image-keyboard-response,
361,Experiment 5,True,1,True,True,011,0,0,True,True,True,True,001,0.0-109.0,0,569,[0],stimuli/0011001.jpg,153864,prediction_trial,134,image-keyboard-response,
361,Experiment 5,True,1,False,False,111,1,1,False,False,True,True,100,0.0-111.0,1,523,[1],stimuli/1111100.jpg,154735,prediction_trial,136,image-keyboard-response,
361,Experiment 5,True,1,False,True,100,0,0,False,True,True,True,000,0.0-113.0,0,508,[0],stimuli/0100000.jpg,155610,prediction_trial,138,image-keyboard-response,
361,Experiment 5,True,1,False,False,101,2,2,False,False,False,False,111,0.0-115.0,2,1457,[2],stimuli/2101111.jpg,157438,prediction_trial,140,image-keyboard-response,
361,Experiment 5,True,1,True,True,011,0,0,True,True,True,True,000,0.0-117.0,0,587,[0],stimuli/0011000.jpg,158478,prediction_trial,142,image-keyboard-response,
361,Experiment 5,True,1,False,True,001,2,2,False,True,True,True,000,0.0-119.0,2,584,[2],stimuli/2001000.jpg,159430,prediction_trial,144,image-keyboard-response,
361,Experiment 5,False,0,True,True,100,2,2,False,False,False,False,011,0.0-121.0,1,1052,[2],stimuli/2100011.jpg,160863,prediction_trial,146,image-keyboard-response,
361,Experiment 5,True,1,True,True,010,2,2,True,True,True,True,100,0.0-123.0,2,660,[2],stimuli/2010100.jpg,161967,prediction_trial,148,image-keyboard-response,
361,Experiment 5,True,1,False,False,111,1,1,False,False,False,False,110,0.0-125.0,1,821,[1],stimuli/1111110.jpg,163160,prediction_trial,150,image-keyboard-response,
361,Experiment 5,True,1,True,True,000,0,0,True,True,True,True,011,0.0-127.0,0,627,[0],stimuli/0000011.jpg,164246,prediction_trial,152,image-keyboard-response,
361,Experiment 5,True,1,True,True,000,1,1,True,True,True,True,100,0.0-129.0,1,637,[1],stimuli/1000100.jpg,165248,prediction_trial,154,image-keyboard-response,
361,Experiment 5,True,1,False,False,111,1,1,False,False,True,True,101,0.0-131.0,1,708,[1],stimuli/1111101.jpg,166326,prediction_trial,156,image-keyboard-response,
361,Experiment 5,True,1,True,True,000,1,1,True,True,True,True,101,0.0-133.0,1,668,[1],stimuli/1000101.jpg,167335,prediction_trial,158,image-keyboard-response,
361,Experiment 5,False,0,False,False,110,1,1,False,False,False,False,110,0.0-135.0,0,653,[1],stimuli/1110110.jpg,168351,prediction_trial,160,image-keyboard-response,
361,Experiment 5,True,1,True,True,010,0,0,True,True,True,True,001,0.0-137.0,0,813,[0],stimuli/0010001.jpg,169621,prediction_trial,162,image-keyboard-response,
361,Experiment 5,False,0,True,True,101,1,1,False,False,False,False,111,0.0-139.0,2,1292,[1],stimuli/1101111.jpg,171256,prediction_trial,164,image-keyboard-response,
361,Experiment 5,False,0,True,True,001,1,1,False,False,False,False,111,0.0-141.0,2,1917,[1],stimuli/1001111.jpg,173647,prediction_trial,166,image-keyboard-response,
361,Experiment 5,True,1,True,True,011,0,0,False,True,False,True,100,0.0-143.0,0,772,[0],stimuli/0011100.jpg,174895,prediction_trial,168,image-keyboard-response,
361,Experiment 5,True,1,False,True,001,2,2,False,True,True,True,010,0.0-145.0,2,595,[2],stimuli/2001010.jpg,175823,prediction_trial,170,image-keyboard-response,
361,Experiment 5,True,1,True,True,000,1,1,True,True,True,True,000,0.0-147.0,1,575,[1],stimuli/1000000.jpg,176703,prediction_trial,172,image-keyboard-response,
361,Experiment 5,False,0,False,False,110,0,0,False,False,False,False,111,0.0-149.0,1,694,[0],stimuli/0110111.jpg,177711,prediction_trial,174,image-keyboard-response,
361,Experiment 5,True,1,True,True,001,1,1,False,True,False,True,010,0.0-151.0,1,972,[1],stimuli/1001010.jpg,179143,prediction_trial,176,image-keyboard-response,
361,Experiment 5,False,0,True,True,100,2,2,False,False,False,False,111,0.0-153.0,0,1579,[2],stimuli/2100111.jpg,181071,prediction_trial,178,image-keyboard-response,
361,Experiment 5,False,0,True,True,000,0,0,False,False,False,False,111,0.0-155.0,1,812,[0],stimuli/0000111.jpg,182440,prediction_trial,180,image-keyboard-response,
361,Experiment 5,False,0,True,True,100,1,1,False,False,False,False,011,0.0-157.0,2,1554,[1],stimuli/1100011.jpg,184445,prediction_trial,182,image-keyboard-response,
361,Experiment 5,True,1,False,False,011,2,2,False,False,True,True,010,0.0-159.0,2,672,[2],stimuli/2011010.jpg,185584,prediction_trial,184,image-keyboard-response,
361,Experiment 5,True,1,False,False,111,2,2,False,False,True,True,010,0.0-161.0,2,652,[2],stimuli/2111010.jpg,186602,prediction_trial,186,image-keyboard-response,
361,Experiment 5,False,0,True,True,010,2,2,False,False,False,False,111,0.0-163.0,1,584,[2],stimuli/2010111.jpg,187542,prediction_trial,188,image-keyboard-response,
361,Experiment 5,True,1,True,True,101,1,1,True,True,True,True,000,0.0-165.0,1,691,[1],stimuli/1101000.jpg,188640,prediction_trial,190,image-keyboard-response,
361,Experiment 5,False,0,True,True,010,2,2,False,False,False,False,101,0.0-167.0,0,1561,[2],stimuli/2010101.jpg,190542,prediction_trial,192,image-keyboard-response,
361,Experiment 5,True,1,False,False,110,0,0,False,False,True,True,010,0.0-169.0,0,608,[0],stimuli/0110010.jpg,191608,prediction_trial,194,image-keyboard-response,
361,Experiment 5,True,1,True,True,101,1,1,True,True,True,True,001,0.0-171.0,1,701,[1],stimuli/1101001.jpg,192617,prediction_trial,196,image-keyboard-response,
361,Experiment 5,False,0,True,True,010,0,0,False,False,False,False,110,0.0-173.0,1,877,[0],stimuli/0010110.jpg,193881,prediction_trial,198,image-keyboard-response,
361,Experiment 5,True,1,True,True,000,0,0,False,True,False,True,100,0.0-175.0,0,581,[0],stimuli/0000100.jpg,194895,prediction_trial,200,image-keyboard-response,
361,Experiment 5,True,1,True,True,101,1,1,False,True,False,True,010,0.0-177.0,1,796,[1],stimuli/1101010.jpg,196031,prediction_trial,202,image-keyboard-response,
361,Experiment 5,True,1,False,False,110,0,0,False,False,True,True,001,0.0-179.0,0,676,[0],stimuli/0110001.jpg,197045,prediction_trial,204,image-keyboard-response,
361,Experiment 5,False,0,True,True,000,0,0,False,False,False,False,101,0.0-181.0,2,1642,[0],stimuli/0000101.jpg,198999,prediction_trial,206,image-keyboard-response,
361,Experiment 5,True,1,True,True,001,1,1,True,True,True,True,000,0.0-183.0,1,709,[1],stimuli/1001000.jpg,200183,prediction_trial,208,image-keyboard-response,
361,Experiment 5,True,1,False,True,100,0,0,False,True,True,True,001,0.0-185.0,0,652,[0],stimuli/0100001.jpg,201175,prediction_trial,210,image-keyboard-response,
361,Experiment 5,True,1,False,False,101,0,0,False,False,True,True,000,0.0-187.0,0,698,[0],stimuli/0101000.jpg,202157,prediction_trial,212,image-keyboard-response,
361,Experiment 5,True,1,False,False,111,0,0,False,False,False,False,111,0.0-189.0,0,1597,[0],stimuli/0111111.jpg,204047,prediction_trial,214,image-keyboard-response,
361,Experiment 5,True,1,False,False,111,1,1,False,False,True,True,000,0.0-191.0,1,892,[1],stimuli/1111000.jpg,205359,prediction_trial,216,image-keyboard-response,
361,Experiment 5,False,0,True,True,011,0,0,False,False,False,False,111,0.0-193.0,2,1755,[0],stimuli/0011111.jpg,207462,prediction_trial,218,image-keyboard-response,
361,Experiment 5,False,0,False,False,111,0,0,False,False,False,False,101,0.0-195.0,2,1017,[0],stimuli/0111101.jpg,208942,prediction_trial,220,image-keyboard-response,
361,Experiment 5,True,1,True,True,000,1,1,False,False,False,False,011,0.0-197.0,1,2742,[1],stimuli/1000011.jpg,212175,prediction_trial,222,image-keyboard-response,
361,Experiment 5,False,0,True,True,010,2,2,False,False,False,False,011,0.0-199.0,1,2262,[2],stimuli/2010011.jpg,214936,prediction_trial,224,image-keyboard-response,
361,Experiment 5,True,1,False,False,101,2,2,False,False,True,True,010,0.0-201.0,2,944,[2],stimuli/2101010.jpg,216477,prediction_trial,226,image-keyboard-response,
361,Experiment 5,False,0,False,False,011,1,1,False,False,False,False,111,0.0-203.0,0,2938,[1],stimuli/1011111.jpg,219703,prediction_trial,228,image-keyboard-response,
361,Experiment 5,False,0,True,True,010,0,0,False,False,False,False,111,0.0-205.0,1,3789,[0],stimuli/0010111.jpg,224015,prediction_trial,230,image-keyboard-response,
361,Experiment 5,False,0,True,True,110,2,2,False,False,False,False,111,0.0-207.0,1,2165,[2],stimuli/2110111.jpg,226613,prediction_trial,232,image-keyboard-response,
361,Experiment 5,False,0,False,False,111,1,1,False,False,False,False,011,0.0-209.0,0,1567,[1],stimuli/1111011.jpg,228647,prediction_trial,234,image-keyboard-response,
361,Experiment 5,True,1,True,True,010,2,2,True,True,True,True,000,0.0-211.0,2,2169,[2],stimuli/2010000.jpg,231527,prediction_trial,236,image-keyboard-response,
361,Experiment 5,True,1,False,True,001,2,2,False,False,False,False,111,0.0-213.0,2,2197,[2],stimuli/2001111.jpg,234015,prediction_trial,238,image-keyboard-response,
361,Experiment 5,True,1,False,False,111,0,0,False,False,True,True,000,0.0-215.0,0,955,[0],stimuli/0111000.jpg,235413,prediction_trial,240,image-keyboard-response,
361,Experiment 5,True,1,False,False,101,2,2,False,False,True,True,100,0.0-217.0,2,983,[2],stimuli/2101100.jpg,236696,prediction_trial,242,image-keyboard-response,
361,Experiment 5,True,1,True,True,101,1,1,False,False,False,False,011,0.0-219.0,1,1875,[1],stimuli/1101011.jpg,238848,prediction_trial,244,image-keyboard-response,
361,Experiment 5,True,1,False,False,101,0,0,False,False,False,False,101,0.0-221.0,0,2544,[0],stimuli/0101101.jpg,241854,prediction_trial,246,image-keyboard-response,
361,Experiment 5,True,1,False,True,010,1,1,False,True,True,True,100,0.0-223.0,1,831,[1],stimuli/1010100.jpg,243182,prediction_trial,248,image-keyboard-response,
361,Experiment 5,False,0,False,True,010,1,1,False,False,False,False,011,0.0-225.0,2,1395,[1],stimuli/1010011.jpg,244872,prediction_trial,250,image-keyboard-response,
361,Experiment 5,True,1,False,True,010,1,1,False,True,True,True,101,0.0-227.0,1,795,[1],stimuli/1010101.jpg,246280,prediction_trial,252,image-keyboard-response,
361,Experiment 5,True,1,False,False,111,1,1,False,False,False,True,010,0.0-229.0,1,893,[1],stimuli/1111010.jpg,247526,prediction_trial,254,image-keyboard-response,
361,Experiment 5,True,1,True,True,100,2,2,True,True,True,True,100,0.0-231.0,2,665,[2],stimuli/2100100.jpg,248488,prediction_trial,256,image-keyboard-response,
361,Experiment 5,True,1,True,True,000,0,0,True,True,True,True,000,0.0-233.0,0,572,[0],stimuli/0000000.jpg,249392,prediction_trial,258,image-keyboard-response,
361,Experiment 5,True,1,True,True,001,1,1,False,False,False,False,011,0.0-235.0,1,2851,[1],stimuli/1001011.jpg,252560,prediction_trial,260,image-keyboard-response,
361,Experiment 5,True,1,True,True,001,1,1,True,True,True,True,100,0.0-237.0,1,741,[1],stimuli/1001100.jpg,253765,prediction_trial,262,image-keyboard-response,
361,Experiment 5,True,1,False,True,001,2,2,False,True,True,True,110,0.0-239.0,2,757,[2],stimuli/2001110.jpg,254839,prediction_trial,264,image-keyboard-response,
361,Experiment 5,True,1,False,False,011,1,1,False,False,True,True,000,0.0-241.0,1,611,[1],stimuli/1011000.jpg,255792,prediction_trial,266,image-keyboard-response,
361,Experiment 5,True,1,True,True,000,1,1,False,False,False,False,111,0.0-243.0,1,2188,[1],stimuli/1000111.jpg,258310,prediction_trial,268,image-keyboard-response,
361,Experiment 5,True,1,True,True,011,0,0,True,True,True,True,011,0.0-245.0,0,891,[0],stimuli/0011011.jpg,259686,prediction_trial,270,image-keyboard-response,
361,Experiment 5,True,1,True,True,100,1,1,False,True,False,True,010,0.0-247.0,1,660,[1],stimuli/1100010.jpg,260686,prediction_trial,272,image-keyboard-response,
361,Experiment 5,False,0,False,False,111,1,1,False,False,False,False,111,0.0-249.0,0,2092,[1],stimuli/1111111.jpg,263104,prediction_trial,274,image-keyboard-response,
361,Experiment 5,False,0,False,False,101,0,0,False,False,False,False,111,0.0-251.0,1,1059,[0],stimuli/0101111.jpg,264646,prediction_trial,276,image-keyboard-response,
361,Experiment 5,True,1,False,False,011,1,1,False,False,False,True,010,0.0-253.0,1,844,[1],stimuli/1011010.jpg,265958,prediction_trial,278,image-keyboard-response,
361,Experiment 5,True,1,False,False,110,0,0,False,False,False,False,101,0.0-255.0,0,1339,[0],stimuli/0110101.jpg,267615,prediction_trial,280,image-keyboard-response,
361,Experiment 5,True,1,True,True,001,0,0,False,True,False,True,100,0.0-257.0,0,996,[0],stimuli/0001100.jpg,269032,prediction_trial,282,image-keyboard-response,
361,Experiment 5,False,0,True,True,010,0,0,True,True,True,True,010,0.0-259.0,1,1013,[0],stimuli/0010010.jpg,270367,prediction_trial,284,image-keyboard-response,
361,Experiment 5,True,1,False,False,110,1,1,False,False,True,True,000,0.0-261.0,1,865,[1],stimuli/1110000.jpg,271927,prediction_trial,286,image-keyboard-response,
361,Experiment 5,True,1,True,True,100,1,1,True,True,True,True,000,0.0-263.0,1,701,[1],stimuli/1100000.jpg,272847,prediction_trial,288,image-keyboard-response,
361,Experiment 5,True,1,False,False,110,1,1,False,False,True,True,101,0.0-265.0,1,870,[1],stimuli/1110101.jpg,273871,prediction_trial,290,image-keyboard-response,
361,Experiment 5,True,1,False,False,011,1,1,False,False,True,True,100,0.0-267.0,1,747,[1],stimuli/1011100.jpg,274765,prediction_trial,292,image-keyboard-response,
361,Experiment 5,True,1,True,True,100,2,2,True,True,True,True,010,0.0-269.0,2,771,[2],stimuli/2100010.jpg,275742,prediction_trial,294,image-keyboard-response,
361,Experiment 5,True,1,True,True,010,0,0,False,False,False,False,101,0.0-271.0,0,1001,[0],stimuli/0010101.jpg,276935,prediction_trial,296,image-keyboard-response,
361,Experiment 5,True,1,True,True,011,0,0,False,False,False,False,110,0.0-273.0,0,1738,[0],stimuli/0011110.jpg,278952,prediction_trial,298,image-keyboard-response,
361,Experiment 5,True,1,False,False,111,0,0,False,False,True,True,011,0.0-275.0,0,925,[0],stimuli/0111011.jpg,280272,prediction_trial,300,image-keyboard-response,
361,Experiment 5,True,1,True,True,000,2,2,True,True,True,True,100,0.0-277.0,2,683,[2],stimuli/2000100.jpg,281255,prediction_trial,302,image-keyboard-response,
361,Experiment 5,False,0,False,True,100,0,0,False,False,False,False,101,0.0-279.0,2,2699,[0],stimuli/0100101.jpg,284274,prediction_trial,304,image-keyboard-response,
361,Experiment 5,True,1,True,True,000,0,0,True,True,True,True,001,0.0-281.0,0,686,[0],stimuli/0000001.jpg,285480,prediction_trial,306,image-keyboard-response,
361,Experiment 5,True,1,False,False,101,2,2,False,False,True,True,110,0.0-283.0,2,652,[2],stimuli/2101110.jpg,286448,prediction_trial,308,image-keyboard-response,
361,Experiment 5,True,1,False,False,101,0,0,False,False,True,True,011,0.0-285.0,0,709,[0],stimuli/0101011.jpg,287456,prediction_trial,310,image-keyboard-response,
361,Experiment 5,True,1,True,True,100,2,2,False,True,False,True,001,0.0-287.0,2,865,[2],stimuli/2100001.jpg,288623,prediction_trial,312,image-keyboard-response,
361,Experiment 5,False,0,False,False,110,1,1,False,False,False,False,111,0.0-289.0,0,2590,[1],stimuli/1110111.jpg,291553,prediction_trial,314,image-keyboard-response,
361,Experiment 5,True,1,False,False,011,1,1,False,False,True,True,101,0.0-291.0,1,697,[1],stimuli/1011101.jpg,292750,prediction_trial,316,image-keyboard-response,
312,Experiment 5,False,0,True,True,000,0,0,False,False,False,False,111,0.0-5.0,2,979,[0],stimuli/0000111.jpg,114277,prediction_trial,30,image-keyboard-response,
312,Experiment 5,False,0,True,True,001,0,0,False,False,False,False,111,0.0-7.0,2,2071,[0],stimuli/0001111.jpg,117256,prediction_trial,32,image-keyboard-response,
312,Experiment 5,False,0,False,True,010,1,1,False,False,False,False,111,0.0-9.0,0,2520,[1],stimuli/1010111.jpg,120723,prediction_trial,34,image-keyboard-response,
312,Experiment 5,True,1,True,True,010,0,0,False,False,False,False,110,0.0-11.0,0,2499,[0],stimuli/0010110.jpg,123918,prediction_trial,36,image-keyboard-response,
312,Experiment 5,True,1,False,False,101,2,2,False,False,True,True,110,0.0-13.0,2,878,[2],stimuli/2101110.jpg,125751,prediction_trial,38,image-keyboard-response,
312,Experiment 5,True,1,True,True,010,2,2,False,False,False,False,101,0.0-15.0,2,1712,[2],stimuli/2010101.jpg,127863,prediction_trial,40,image-keyboard-response,
312,Experiment 5,False,0,False,False,101,0,0,False,False,False,False,111,0.0-17.0,2,2837,[0],stimuli/0101111.jpg,131275,prediction_trial,42,image-keyboard-response,
312,Experiment 5,True,1,True,True,001,1,1,False,False,False,False,011,0.0-19.0,1,2329,[1],stimuli/1001011.jpg,134427,prediction_trial,44,image-keyboard-response,
312,Experiment 5,True,1,True,True,000,1,1,True,True,True,True,001,0.0-21.0,1,934,[1],stimuli/1000001.jpg,135928,prediction_trial,46,image-keyboard-response,
312,Experiment 5,True,1,True,True,001,0,0,True,True,True,True,000,0.0-23.0,0,906,[0],stimuli/0001000.jpg,137179,prediction_trial,48,image-keyboard-response,
312,Experiment 5,True,1,True,True,011,0,0,True,True,True,True,011,0.0-25.0,0,732,[0],stimuli/0011011.jpg,138200,prediction_trial,50,image-keyboard-response,
312,Experiment 5,True,1,True,True,010,2,2,False,False,False,False,111,0.0-27.0,2,875,[2],stimuli/2010111.jpg,139352,prediction_trial,52,image-keyboard-response,
312,Experiment 5,True,1,True,True,001,0,0,True,True,True,True,001,0.0-29.0,0,687,[0],stimuli/0001001.jpg,140604,prediction_trial,54,image-keyboard-response,
312,Experiment 5,True,1,True,True,000,2,2,True,True,True,True,010,0.0-31.0,2,544,[2],stimuli/2000010.jpg,141481,prediction_trial,56,image-keyboard-response,
312,Experiment 5,True,1,True,True,110,2,2,False,True,False,True,001,0.0-33.0,2,775,[2],stimuli/2110001.jpg,142577,prediction_trial,58,image-keyboard-response,
312,Experiment 5,False,0,False,False,111,2,2,False,False,False,False,011,0.0-35.0,1,922,[2],stimuli/2111011.jpg,143728,prediction_trial,60,image-keyboard-response,
312,Experiment 5,True,1,False,False,011,2,2,False,False,True,True,110,0.0-37.0,2,544,[2],stimuli/2011110.jpg,144894,prediction_trial,62,image-keyboard-response,
312,Experiment 5,True,1,False,True,001,2,2,False,True,False,True,001,0.0-39.0,2,688,[2],stimuli/2001001.jpg,145886,prediction_trial,64,image-keyboard-response,
312,Experiment 5,True,1,False,True,010,1,1,False,True,False,True,010,0.0-41.0,1,819,[1],stimuli/1010010.jpg,146995,prediction_trial,66,image-keyboard-response,
312,Experiment 5,False,0,True,True,110,2,2,False,False,False,False,101,0.0-43.0,0,916,[2],stimuli/2110101.jpg,148274,prediction_trial,68,image-keyboard-response,
312,Experiment 5,False,0,False,False,110,1,1,False,False,False,False,111,0.0-45.0,2,1668,[1],stimuli/1110111.jpg,150565,prediction_trial,70,image-keyboard-response,
312,Experiment 5,False,0,False,False,101,2,2,False,False,False,False,011,0.0-47.0,1,773,[2],stimuli/2101011.jpg,151903,prediction_trial,72,image-keyboard-response,
312,Experiment 5,True,1,True,True,110,2,2,True,True,True,True,110,0.0-49.0,2,663,[2],stimuli/2110110.jpg,153561,prediction_trial,74,image-keyboard-response,
312,Experiment 5,True,1,False,False,111,0,0,False,False,True,True,010,0.0-51.0,0,589,[0],stimuli/0111010.jpg,154409,prediction_trial,76,image-keyboard-response,
312,Experiment 5,True,1,True,True,000,1,1,False,True,False,True,010,0.0-53.0,1,560,[1],stimuli/1000010.jpg,155243,prediction_trial,78,image-keyboard-response,
312,Experiment 5,False,0,True,True,100,1,1,False,False,False,False,110,0.0-55.0,0,1018,[1],stimuli/1100110.jpg,156552,prediction_trial,80,image-keyboard-response,
312,Experiment 5,True,1,False,False,110,0,0,False,False,False,True,100,0.0-57.0,0,875,[0],stimuli/0110100.jpg,157949,prediction_trial,82,image-keyboard-response,
312,Experiment 5,True,1,True,True,100,2,2,True,True,True,True,100,0.0-59.0,2,660,[2],stimuli/2100100.jpg,158929,prediction_trial,84,image-keyboard-response,
312,Experiment 5,True,1,True,True,001,0,0,True,True,True,True,011,0.0-61.0,0,761,[0],stimuli/0001011.jpg,160022,prediction_trial,86,image-keyboard-response,
312,Experiment 5,True,1,False,False,111,2,2,False,False,True,True,110,0.0-63.0,2,557,[2],stimuli/2111110.jpg,160842,prediction_trial,88,image-keyboard-response,
312,Experiment 5,True,1,True,True,110,2,2,True,True,True,True,100,0.0-65.0,2,608,[2],stimuli/2110100.jpg,161753,prediction_trial,90,image-keyboard-response,
312,Experiment 5,True,1,False,False,011,1,1,False,False,True,True,000,0.0-67.0,1,579,[1],stimuli/1011000.jpg,162688,prediction_trial,92,image-keyboard-response,
312,Experiment 5,False,0,False,False,110,0,0,False,False,False,False,110,0.0-69.0,1,735,[0],stimuli/0110110.jpg,163723,prediction_trial,94,image-keyboard-response,
312,Experiment 5,False,0,True,True,010,0,0,False,False,False,False,101,0.0-71.0,2,780,[0],stimuli/0010101.jpg,164919,prediction_trial,96,image-keyboard-response,
312,Experiment 5,True,1,False,False,111,1,1,False,False,False,False,011,0.0-73.0,1,778,[1],stimuli/1111011.jpg,166114,prediction_trial,98,image-keyboard-response,
312,Experiment 5,True,1,False,True,100,0,0,False,False,False,False,101,0.0-75.0,0,720,[0],stimuli/0100101.jpg,167294,prediction_trial,100,image-keyboard-response,
